pc_time,serial_num,sensor_ts,host_ts,ax,ay,az,gx,gy,gz,mx,my,mz,phase,rpe,weight_kg,ppg_a,ppg_b,ppg_c,ppg_d,ppg_e
2026-04-07 17:45:29.647649,182781,1000031224,1000032551,0.866688,-0.269376,-0.093696,-4.41875,13.335,-1.12875,-15.136001,-8.320001,16.296001,eccentric,3,3.0,32155.0,403316.0,361051.0,403431.0,359850.0
2026-04-07 17:45:29.650413,182782,1000040312,1000041360,0.864736,-0.279136,-0.093696,-5.9325,12.04,-2.415,-15.112,-8.584001,16.216002,eccentric,3,3.0,32155.0,403316.0,361051.0,403431.0,359850.0
2026-04-07 17:45:29.652676,182783,1000054892,1000056338,0.866688,-0.288896,-0.083936,-7.44625,11.34,-2.52875,-15.768001,-8.536,18.424002,eccentric,3,3.0,32155.0,403316.0,361051.0,403431.0,359850.0
2026-04-07 17:45:29.682885,182784,1000063823,1000065031,0.866688,-0.288896,-0.083936,-8.6625,12.24125,-2.44125,-15.768001,-8.536,18.424002,eccentric,3,3.0,32155.0,403316.0,361051.0,403431.0,359850.0
2026-04-07 17:45:29.686501,182785,1000072768,1000073785,0.866688,-0.288896,-0.083936,-5.3725,13.2125,-1.925,-15.768001,-8.536,18.424002,eccentric,3,3.0,32155.0,403316.0,361051.0,403431.0,359850.0
2026-04-07 17:45:29.688880,182786,1000087254,1000088692,0.853024,-0.277184,-0.080032,-1.4175,13.2475,-0.79625,-15.264001,-8.208,17.264,eccentric,3,3.0,32155.0,403316.0,361051.0,403431.0,359850.0
2026-04-07 17:45:29.694010,182787,1000096179,1000097373,0.864736,-0.265472,-0.070272,-2.54625,12.2325,-1.085,-15.288001,-8.400001,17.752,eccentric,3,3.0,32155.0,403316.0,361051.0,403431.0,359850.0
2026-04-07 17:45:29.724232,182788,1000105127,1000106068,0.864736,-0.265472,-0.070272,-4.24375,11.261251,-2.00375,-15.288001,-8.400001,17.752,eccentric,3,3.0,32155.0,403316.0,361051.0,403431.0,359850.0
2026-04-07 17:45:29.727771,182789,1000114036,1000114801,0.876448,-0.286944,-0.074176,-6.195,10.5,-0.8925,-14.608001,-7.992001,16.024,eccentric,3,3.0,32155.0,403316.0,361051.0,403431.0,359850.0
2026-04-07 17:45:29.761475,182800,1000128958,1000129944,0.876448,-0.286944,-0.074176,-6.79,10.4475,-0.21875,-14.608001,-7.992001,16.024,eccentric,3,3.0,31397.0,400110.0,356134.0,403431.0,354971.0
2026-04-07 17:45:29.764010,182801,1000138852,1000140818,0.866688,-0.290848,-0.0488,-4.76,10.57,0.0525,-14.880001,-8.112,16.656,eccentric,3,3.0,31397.0,400110.0,356134.0,403431.0,354971.0
2026-04-07 17:45:29.766430,182802,1000147814,1000149568,0.866688,-0.290848,-0.0488,-3.465,10.05375,0.00875,-14.880001,-8.112,16.656,eccentric,3,3.0,31397.0,400110.0,356134.0,403431.0,354971.0
2026-04-07 17:45:29.768960,182803,1000156856,1000158272,0.884256,-0.271328,-0.05856,-4.13,9.0475,-0.27125,-15.720001,-8.904,17.872002,eccentric,3,3.0,31397.0,400110.0,356134.0,403431.0,354971.0
2026-04-07 17:45:29.771925,182804,1000171400,1000173164,0.884256,-0.271328,-0.05856,-3.33375,8.05,-0.81375,-15.720001,-8.904,17.872002,eccentric,3,3.0,31397.0,400110.0,356134.0,403431.0,354971.0
2026-04-07 17:45:29.801680,182805,1000180428,1000181877,0.909632,-0.308416,-0.066368,-4.90875,5.425,-0.88375,-14.928,-8.696,18.048,eccentric,3,3.0,31397.0,400110.0,356134.0,403431.0,354971.0
2026-04-07 17:45:29.805357,182806,1000189361,1000190645,0.909632,-0.308416,-0.066368,-5.97625,3.94625,-0.84,-14.928,-8.696,18.048,eccentric,3,3.0,31397.0,400110.0,356134.0,403431.0,354971.0
2026-04-07 17:45:29.807749,182807,1000203862,1000205559,0.921344,-0.30256,-0.03904,-6.7725,3.29,-0.86625,-14.664001,-8.256001,16.896,eccentric,3,3.0,31397.0,400110.0,356134.0,403431.0,354971.0
2026-04-07 17:45:29.810512,182808,1000212801,1000214264,0.921344,-0.30256,-0.03904,-6.92125,2.625,-1.4175,-14.664001,-8.256001,16.896,eccentric,3,3.0,31397.0,400110.0,356134.0,403431.0,354971.0
2026-04-07 17:45:29.817815,182809,1000222467,1000223138,0.901824,-0.284992,-0.031232,-5.4775,2.1875,-1.715,-14.136001,-8.712001,15.528001,eccentric,3,3.0,31397.0,400110.0,356134.0,403431.0,354971.0
2026-04-07 17:45:29.875271,182819,1000232462,1000233978,0.901824,-0.284992,-0.031232,-3.57,2.30125,-2.19625,-14.136001,-8.712001,15.528001,eccentric,3,3.0,31034.0,397531.0,353938.0,403431.0,353042.0
2026-04-07 17:45:29.877723,182820,1000246994,1000248927,0.89792,-0.298656,-0.025376,-3.28125,1.9425,-2.45875,-14.464001,-8.480001,17.768002,eccentric,3,3.0,31034.0,397531.0,353938.0,403431.0,353042.0
2026-04-07 17:45:29.880227,182821,1000255921,1000257648,0.886208,-0.2928,-0.042944,-3.115,1.3825,-2.17,-14.248001,-8.088,16.432001,eccentric,3,3.0,31034.0,397531.0,353938.0,403431.0,353042.0
2026-04-07 17:45:29.882574,182822,1000264891,1000266411,0.886208,-0.2928,-0.042944,-1.365,1.18125,-2.33625,-14.248001,-8.088,16.432001,eccentric,3,3.0,31034.0,397531.0,353938.0,403431.0,353042.0
2026-04-07 17:45:29.885195,182823,1000273854,1000275143,0.886208,-0.2928,-0.01952,-0.91,0.7525,-2.38875,-14.248001,-8.088,16.432001,eccentric,3,3.0,31034.0,397531.0,353938.0,403431.0,353042.0
2026-04-07 17:45:29.896801,182824,1000288372,1000290154,0.85888,-0.27328,-0.01952,-1.19875,1.1725,-1.84625,-15.136001,-9.04,17.624,eccentric,3,3.0,31034.0,397531.0,353938.0,403431.0,353042.0
2026-04-07 17:45:29.901691,182825,1000297338,1000298881,0.85888,-0.281088,-0.056608,-4.1825,1.12,-1.4,-13.576,-8.536,16.480001,eccentric,3,3.0,31034.0,397531.0,353938.0,403431.0,353042.0
2026-04-07 17:45:29.907757,182826,1000306275,1000307579,0.85888,-0.281088,-0.056608,-6.64125,1.5225,-1.7325,-13.576,-8.536,16.480001,eccentric,3,3.0,31034.0,397531.0,353938.0,403431.0,353042.0
2026-04-07 17:45:29.946772,182827,1000320778,1000322481,0.841312,-0.2928,-0.027328,-5.845,1.505,-2.37125,-13.6,-8.248,16.792002,eccentric,3,3.0,31034.0,397531.0,353938.0,403431.0,353042.0
2026-04-07 17:45:29.978958,182837,1000329707,1000331141,0.841312,-0.2928,-0.027328,-3.73625,1.96,-2.9925,-13.6,-8.248,16.792002,eccentric,3,3.0,30586.0,393993.0,350985.0,403431.0,350447.0
2026-04-07 17:45:29.981510,182838,1000338699,1000339810,0.81984,-0.281088,-0.017568,-1.68,1.88125,-3.56125,-13.512001,-8.664001,16.704,eccentric,3,3.0,30586.0,393993.0,350985.0,403431.0,350447.0
2026-04-07 17:45:29.983904,182839,1000353206,1000354757,0.81984,-0.281088,-0.017568,-1.23375,2.1175,-4.26125,-13.512001,-8.664001,16.704,eccentric,3,3.0,30586.0,393993.0,350985.0,403431.0,350447.0
2026-04-07 17:45:29.986464,182840,1000362178,1000363498,0.792512,-0.277184,-0.015616,-3.9025,2.49375,-4.7775,-13.688001,-8.488001,19.152,eccentric,3,3.0,30586.0,393993.0,350985.0,403431.0,350447.0
2026-04-07 17:45:29.988962,182841,1000371153,1000372235,0.792512,-0.277184,-0.015616,-5.71375,2.94875,-3.64,-13.688001,-8.488001,19.152,eccentric,3,3.0,30586.0,393993.0,350985.0,403431.0,350447.0
2026-04-07 17:45:29.991335,182842,1000385641,1000387155,0.792512,-0.28304,-0.023424,-6.405,4.78625,-3.6575,-13.768001,-8.792001,18.096,eccentric,3,3.0,30586.0,393993.0,350985.0,403431.0,350447.0
2026-04-07 17:45:29.993959,182843,1000394587,1000395866,0.792512,-0.265472,-0.081984,-8.82,5.6525,-5.08375,-13.768001,-8.792001,18.096,eccentric,3,3.0,30586.0,393993.0,350985.0,403431.0,350447.0
2026-04-07 17:45:30.000189,182844,1000403529,1000404634,0.765184,-0.265472,-0.081984,-9.03875,6.4925,-6.37875,-13.440001,-8.856,17.568,eccentric,3,3.0,30586.0,393993.0,350985.0,403431.0,350447.0
2026-04-07 17:45:30.008951,182845,1000412458,1000413326,0.765184,-0.265472,-0.081984,-7.86625,6.39625,-8.3125,-13.440001,-8.856,17.568,eccentric,3,3.0,30586.0,393993.0,350985.0,403431.0,350447.0
2026-04-07 17:45:30.042865,182846,1000426922,1000428206,0.77104,-0.296704,-0.062464,-7.06125,6.335,-7.90125,-13.312,-8.752001,16.824001,eccentric,3,3.0,30586.0,393993.0,350985.0,403431.0,350447.0
2026-04-07 17:45:30.082752,182857,1000435974,1000436981,0.77104,-0.284992,-0.066368,-9.52875,6.74625,-7.9975,-12.440001,-8.824,16.416,eccentric,3,3.0,30388.0,392282.0,349615.0,403431.0,349476.0
2026-04-07 17:45:30.085191,182858,1000444891,1000445702,0.77104,-0.284992,-0.066368,-11.27,6.6675,-8.47,-12.440001,-8.824,16.416,eccentric,3,3.0,30388.0,392282.0,349615.0,403431.0,349476.0
2026-04-07 17:45:30.087752,182859,1000459414,1000460620,0.767136,-0.281088,-0.05856,-10.3775,7.245,-8.98625,-12.896001,-8.88,16.712,eccentric,3,3.0,30388.0,392282.0,349615.0,403431.0,349476.0
2026-04-07 17:45:30.090149,182860,1000468316,1000469413,0.767136,-0.281088,-0.05856,-9.275,7.21,-9.485,-12.896001,-8.88,16.712,eccentric,3,3.0,30388.0,392282.0,349615.0,403431.0,349476.0
2026-04-07 17:45:30.092984,182861,1000477447,1000478187,0.769088,-0.288896,-0.076128,-8.96875,6.7025,-9.511251,-13.128,-8.392,18.104,eccentric,3,3.0,30388.0,392282.0,349615.0,403431.0,349476.0
2026-04-07 17:45:30.095112,182862,1000486831,1000489119,0.769088,-0.288896,-0.076128,-11.54125,6.06375,-9.58125,-13.128,-8.392,18.104,eccentric,3,3.0,30388.0,392282.0,349615.0,403431.0,349476.0
2026-04-07 17:45:30.101502,182863,1000501330,1000501972,0.79056,-0.298656,-0.085888,-15.53125,6.37,-8.89,-12.976001,-9.416,18.168001,eccentric,3,3.0,30388.0,392282.0,349615.0,403431.0,349476.0
2026-04-07 17:45:30.110064,182864,1000510676,1000512802,0.79056,-0.298656,-0.085888,-18.45375,7.595,-9.23125,-12.976001,-9.416,18.168001,eccentric,3,3.0,30388.0,392282.0,349615.0,403431.0,349476.0
2026-04-07 17:45:30.139144,182865,1000519647,1000521495,0.769088,-0.284992,-0.095648,-18.305,8.198751,-10.54375,-12.264001,-9.480001,17.032001,eccentric,3,3.0,30388.0,392282.0,349615.0,403431.0,349476.0
2026-04-07 17:45:30.172669,182875,1000534715,1000536537,0.769088,-0.284992,-0.095648,-14.9625,8.26,-11.34,-12.264001,-9.480001,17.032001,eccentric,3,3.0,30080.0,389968.0,347715.0,403431.0,347743.0
2026-04-07 17:45:30.175092,182876,1000543640,1000545307,0.759328,-0.310368,-0.113216,-14.752501,7.11375,-12.41625,-11.656,-8.968,16.648,eccentric,3,3.0,30080.0,389968.0,347715.0,403431.0,347743.0
2026-04-07 17:45:30.177673,182877,1000552572,1000554011,0.759328,-0.310368,-0.113216,-13.2475,5.4075,-13.11625,-11.656,-8.968,16.648,eccentric,3,3.0,30080.0,389968.0,347715.0,403431.0,347743.0
2026-04-07 17:45:30.180128,182878,1000561606,1000562713,0.7808,-0.31232,-0.122976,-11.1825,4.69875,-14.096251,-12.792001,-9.648001,19.304,eccentric,3,3.0,30080.0,389968.0,347715.0,403431.0,347743.0
2026-04-07 17:45:30.182598,182879,1000576147,1000578046,0.8296,-0.265472,-0.140544,-12.145,4.095,-16.56375,-11.768001,-10.032001,18.400002,eccentric,3,3.0,30080.0,389968.0,347715.0,403431.0,347743.0
2026-04-07 17:45:30.185331,182880,1000585078,1000586774,0.8296,-0.265472,-0.140544,-11.87375,4.655,-20.18625,-11.768001,-10.032001,18.400002,eccentric,3,3.0,30080.0,389968.0,347715.0,403431.0,347743.0
2026-04-07 17:45:30.191421,182881,1000594320,1000595486,0.8296,-0.265472,-0.140544,-10.7975,7.93625,-23.68625,-11.768001,-10.032001,18.400002,eccentric,3,3.0,30080.0,389968.0,347715.0,403431.0,347743.0
2026-04-07 17:45:30.221611,182882,1000608837,1000610406,0.802272,-0.245952,-0.093696,-11.85625,10.57,-25.87375,-12.040001,-10.272,18.472,eccentric,3,3.0,30080.0,389968.0,347715.0,403431.0,347743.0
2026-04-07 17:45:30.225235,182883,1000617805,1000619211,0.798368,-0.318176,-0.121024,-12.1275,12.1625,-26.985,-11.792001,-10.656,16.904001,eccentric,3,3.0,30080.0,389968.0,347715.0,403431.0,347743.0
2026-04-07 17:45:30.227749,182884,1000626781,1000627909,0.798368,-0.318176,-0.121024,-16.065,12.136251,-28.28875,-11.792001,-10.656,16.904001,eccentric,3,3.0,30080.0,389968.0,347715.0,403431.0,347743.0
2026-04-07 17:45:30.252754,182894,1000636059,1000637082,0.782752,-0.345504,-0.140544,-17.0975,13.16,-27.58875,-11.792001,-10.992001,19.04,eccentric,3,3.0,29696.0,386979.0,345434.0,402724.0,345959.0
2026-04-07 17:45:30.255473,182895,1000650572,1000651969,0.782752,-0.345504,-0.140544,-13.32625,14.3675,-25.7075,-12.552001,-10.992001,19.04,eccentric,3,3.0,29696.0,386979.0,345434.0,402724.0,345959.0
2026-04-07 17:45:30.261494,182896,1000659523,1000660658,0.75152,-0.269376,-0.138592,-11.78625,16.23125,-24.94625,-12.424001,-11.376,18.936,eccentric,3,3.0,29696.0,386979.0,345434.0,402724.0,345959.0
2026-04-07 17:45:30.263857,182897,1000668450,1000669409,0.75152,-0.269376,-0.138592,-8.79375,17.59625,-23.8,-12.424001,-11.376,18.936,eccentric,3,3.0,29696.0,386979.0,345434.0,402724.0,345959.0
2026-04-07 17:45:30.294230,182898,1000682934,1000684327,0.747616,-0.210816,-0.122976,-5.9325,17.70125,-24.5,-11.312,-11.496,17.92,eccentric,3,3.0,29696.0,386979.0,345434.0,402724.0,345959.0
2026-04-07 17:45:30.297865,182899,1000691855,1000693013,0.747616,-0.210816,-0.122976,-6.78125,18.1825,-26.46875,-11.312,-11.496,17.92,eccentric,3,3.0,29696.0,386979.0,345434.0,402724.0,345959.0
2026-04-07 17:45:30.300742,182900,1000700772,1000701708,0.739808,-0.23424,-0.1464,-7.21,18.55,-27.116251,-10.736,-10.968,17.36,eccentric,3,3.0,29696.0,386979.0,345434.0,402724.0,345959.0
2026-04-07 17:45:30.330838,182901,1000715278,1000716686,0.739808,-0.23424,-0.1464,-9.65125,17.87625,-26.8625,-10.736,-10.968,17.36,eccentric,3,3.0,29696.0,386979.0,345434.0,402724.0,345959.0
2026-04-07 17:45:30.333936,182902,1000724186,1000725379,0.743712,-0.26352,-0.1464,-14.525,17.01,-26.48625,-11.6,-12.200001,17.848001,eccentric,3,3.0,29696.0,386979.0,345434.0,402724.0,345959.0
2026-04-07 17:45:30.365169,182913,1000733190,1000734099,0.743712,-0.26352,-0.1464,-15.715,16.66,-25.13875,-11.6,-12.200001,17.848001,eccentric,3,3.0,28956.0,381421.0,340804.0,398878.0,342744.0
2026-04-07 17:45:30.367732,182914,1000747802,1000749116,0.76128,-0.226432,-0.128832,-15.995,16.24,-25.48,-11.304001,-11.792001,17.84,eccentric,3,3.0,28956.0,381421.0,340804.0,398878.0,342744.0
2026-04-07 17:45:30.370139,182915,1000756869,1000757885,0.782752,-0.236192,-0.109312,-12.6875,16.44125,-26.8625,-11.936001,-12.248,19.056002,eccentric,3,3.0,28956.0,381421.0,340804.0,398878.0,342744.0
2026-04-07 17:45:30.372656,182916,1000765839,1000766599,0.782752,-0.236192,-0.109312,-8.46125,16.24,-27.79,-11.936001,-12.248,19.056002,eccentric,3,3.0,28956.0,381421.0,340804.0,398878.0,342744.0
2026-04-07 17:45:30.375134,182917,1000775239,1000777398,0.782752,-0.236192,-0.109312,-7.945,16.37125,-28.0875,-11.936001,-12.248,19.056002,eccentric,3,3.0,28956.0,381421.0,340804.0,398878.0,342744.0
2026-04-07 17:45:30.440440,182918,1000790139,1000792446,0.81008,-0.25376,-0.122976,-5.90625,16.14375,-27.51,-11.632001,-12.52,18.008001,eccentric,3,3.0,28956.0,381421.0,340804.0,398878.0,342744.0
2026-04-07 17:45:30.444084,182919,1000800144,1000801229,0.817888,-0.216672,-0.093696,-9.94,16.37125,-28.76125,-10.832001,-12.264001,17.92,eccentric,3,3.0,28956.0,381421.0,340804.0,398878.0,342744.0
2026-04-07 17:45:30.446461,182920,1000809059,1000809940,0.817888,-0.216672,-0.093696,-12.11,17.1325,-28.210001,-10.832001,-12.264001,17.92,eccentric,3,3.0,28956.0,381421.0,340804.0,398878.0,342744.0
2026-04-07 17:45:30.448910,182921,1000818006,1000818686,0.817888,-0.220576,-0.103456,-14.11375,17.885,-28.32375,-11.728001,-12.624001,17.048,eccentric,3,3.0,28956.0,381421.0,340804.0,398878.0,342744.0
2026-04-07 17:45:30.512608,182931,1000832877,1000833931,0.817888,-0.220576,-0.103456,-16.135,18.15625,-28.55125,-11.728001,-12.624001,17.048,eccentric,3,3.0,28727.0,379596.0,339318.0,397509.0,341792.0
2026-04-07 17:45:30.540334,182932,1000842556,1000844696,0.831552,-0.208864,-0.109312,-14.28875,18.48875,-28.77,-11.224001,-12.952001,17.856,eccentric,3,3.0,28727.0,379596.0,339318.0,397509.0,341792.0
2026-04-07 17:45:30.543963,182933,1000851475,1000853389,0.831552,-0.208864,-0.109312,-11.34875,18.26125,-30.205,-11.224001,-12.952001,17.856,eccentric,3,3.0,28727.0,379596.0,339318.0,397509.0,341792.0
2026-04-07 17:45:30.546473,182934,1000860467,1000862148,0.821792,-0.20496,-0.0976,-10.78875,18.52375,-31.56125,-11.744,-13.784,20.856,eccentric,3,3.0,28727.0,379596.0,339318.0,397509.0,341792.0
2026-04-07 17:45:30.548923,182935,1000875080,1000877062,0.821792,-0.20496,-0.0976,-10.26375,18.147501,-32.0425,-11.744,-13.784,20.856,eccentric,3,3.0,28727.0,379596.0,339318.0,397509.0,341792.0
2026-04-07 17:45:30.551366,182936,1000883993,1000885744,0.825696,-0.181536,-0.05856,-12.27625,18.55,-32.69875,-11.128,-13.536,22.024,eccentric,3,3.0,28727.0,379596.0,339318.0,397509.0,341792.0
2026-04-07 17:45:30.553876,182937,1000892968,1000894442,0.825696,-0.181536,-0.05856,-12.136251,19.635,-33.005,-11.128,-13.536,22.024,eccentric,3,3.0,28727.0,379596.0,339318.0,397509.0,341792.0
2026-04-07 17:45:30.556440,182938,1000907503,1000909441,0.815936,-0.16592,-0.07808,-12.9675,19.897501,-33.6875,-10.832001,-13.880001,18.864,eccentric,3,3.0,28727.0,379596.0,339318.0,397509.0,341792.0
2026-04-07 17:45:30.558940,182939,1000916461,1000918210,0.815936,-0.16592,-0.109312,-14.49,18.935,-33.76625,-10.832001,-13.880001,18.864,eccentric,3,3.0,28727.0,379596.0,339318.0,397509.0,341792.0
2026-04-07 17:45:30.589258,182940,1000925587,1000926941,0.817888,-0.208864,-0.109312,-13.4925,17.66625,-32.59375,-11.112,-14.64,18.736,eccentric,3,3.0,28727.0,379596.0,339318.0,397509.0,341792.0
2026-04-07 17:45:30.642790,182950,1000935100,1000935680,0.817888,-0.208864,-0.109312,-11.41,16.24875,-31.78,-11.112,-14.64,18.736,eccentric,3,3.0,28561.0,378297.0,338311.0,396533.0,340986.0
2026-04-07 17:45:30.645198,182951,1000949857,1000950606,0.833504,-0.16592,-0.03904,-9.30125,15.8375,-32.0425,-10.968,-14.960001,21.024,eccentric,3,3.0,28561.0,378297.0,338311.0,396533.0,340986.0
2026-04-07 17:45:30.647645,182952,1000959295,1000961479,0.831552,-0.148352,-0.0488,-5.90625,15.8375,-31.98125,-11.392,-15.128,20.016,eccentric,3,3.0,28561.0,378297.0,338311.0,396533.0,340986.0
2026-04-07 17:45:30.650221,182953,1000968278,1000970291,0.831552,-0.148352,-0.0488,-6.0725,16.397501,-31.99875,-11.392,-15.128,20.016,eccentric,3,3.0,28561.0,378297.0,338311.0,396533.0,340986.0
2026-04-07 17:45:30.652805,182954,1000977376,1000978992,0.827648,-0.144448,-0.054656,-10.4125,16.73,-31.3075,-11.392,-15.128,16.864,eccentric,3,3.0,28561.0,378297.0,338311.0,396533.0,340986.0
2026-04-07 17:45:30.655147,182955,1000991875,1000993894,0.827648,-0.144448,-0.054656,-11.865,16.94,-30.68625,-10.952001,-14.936001,16.864,eccentric,3,3.0,28561.0,378297.0,338311.0,396533.0,340986.0
2026-04-07 17:45:30.657663,182956,1001000857,1001002720,0.83936,-0.13664,-0.037088,-11.0075,17.19375,-29.925,-11.056001,-15.568001,19.352001,eccentric,3,3.0,28561.0,378297.0,338311.0,396533.0,340986.0
2026-04-07 17:45:30.686664,182957,1001009805,1001011451,0.83936,-0.13664,-0.037088,-11.585,17.43,-30.17,-11.056001,-15.568001,19.352001,eccentric,3,3.0,28561.0,378297.0,338311.0,396533.0,340986.0
2026-04-07 17:45:30.704048,182958,1001024290,1001026371,0.815936,-0.150304,-0.056608,-10.8675,17.7275,-30.02125,-11.168,-15.400001,20.688002,eccentric,3,3.0,28561.0,378297.0,338311.0,396533.0,340986.0
2026-04-07 17:45:30.786445,182969,1001033229,1001035060,0.815936,-0.150304,-0.056608,-10.61375,17.8325,-28.42,-11.168,-15.400001,20.688002,eccentric,3,3.0,28277.0,375749.0,336147.0,394222.0,339076.0
2026-04-07 17:45:30.821615,182970,1001042173,1001043750,0.812032,-0.113216,-0.054656,-9.625,17.64875,-28.23625,-11.216001,-15.664001,19.544,eccentric,3,3.0,28277.0,375749.0,336147.0,394222.0,339076.0
2026-04-07 17:45:30.825753,182971,1001056662,1001058690,0.812032,-0.113216,-0.054656,-8.58375,16.59,-27.4225,-11.216001,-15.664001,19.544,eccentric,3,3.0,28277.0,375749.0,336147.0,394222.0,339076.0
2026-04-07 17:45:30.827936,182972,1001065613,1001067427,0.80032,-0.109312,-0.031232,-9.93125,16.03875,-26.5125,-11.376,-16.216002,20.016,eccentric,3,3.0,28277.0,375749.0,336147.0,394222.0,339076.0
2026-04-07 17:45:30.830313,182973,1001074543,1001076117,0.80032,-0.109312,-0.031232,-9.6425,15.0675,-25.305,-11.376,-16.216002,20.016,eccentric,3,3.0,28277.0,375749.0,336147.0,394222.0,339076.0
2026-04-07 17:45:30.832704,182974,1001083496,1001084822,0.81008,-0.13664,-0.035136,-7.97125,13.83375,-23.98375,-10.56,-15.944001,19.576,eccentric,3,3.0,28277.0,375749.0,336147.0,394222.0,339076.0
2026-04-07 17:45:30.845274,182975,1001097991,1001099752,0.7808,-0.138592,-0.070272,-7.805,12.36375,-23.10875,-10.56,-16.592001,22.488,eccentric,3,3.0,28277.0,375749.0,336147.0,394222.0,339076.0
2026-04-07 17:45:30.847717,182976,1001106905,1001108433,0.7808,-0.138592,-0.070272,-5.64375,10.535,-21.84875,-10.992001,-16.592001,22.488,eccentric,3,3.0,28277.0,375749.0,336147.0,394222.0,339076.0
2026-04-07 17:45:30.850170,182977,1001115832,1001117157,0.7808,-0.138592,-0.070272,-3.36875,8.21625,-20.04625,-10.992001,-16.592001,22.488,eccentric,3,3.0,28277.0,375749.0,336147.0,394222.0,339076.0
2026-04-07 17:45:30.852735,182978,1001130392,1001132120,0.79056,-0.105408,-0.06832,-2.3625,7.39375,-17.71875,-10.656,-15.984001,19.872002,eccentric,3,3.0,28277.0,375749.0,336147.0,394222.0,339076.0
2026-04-07 17:45:30.918238,182988,1001139444,1001140838,0.808128,-0.0976,-0.017568,-0.81375,7.60375,-16.345,-10.704,-16.376001,22.240002,eccentric,3,3.0,28312.0,375715.0,336042.0,393892.0,338821.0
2026-04-07 17:45:30.921756,182989,1001148368,1001149521,0.808128,-0.0976,-0.017568,-2.835,8.33,-16.30125,-10.704,-16.376001,22.240002,eccentric,3,3.0,28312.0,375715.0,336042.0,393892.0,338821.0
2026-04-07 17:45:30.924307,182990,1001162914,1001164449,0.808128,-0.124928,-0.02928,-4.9875,8.2075,-15.435,-11.280001,-16.616001,19.912,eccentric,3,3.0,28312.0,375715.0,336042.0,393892.0,338821.0
2026-04-07 17:45:30.925858,182991,1001171905,1001173167,0.808128,-0.124928,-0.02928,-6.8075,8.1025,-14.90125,-11.280001,-16.616001,19.912,eccentric,3,3.0,28312.0,375715.0,336042.0,393892.0,338821.0
2026-04-07 17:45:30.929725,182992,1001180823,1001181897,0.815936,-0.13664,-0.056608,-7.02625,7.455,-12.74,-10.256001,-16.584002,19.856,eccentric,3,3.0,28312.0,375715.0,336042.0,393892.0,338821.0
2026-04-07 17:45:30.940283,182993,1001195317,1001196855,0.815936,-0.13664,-0.056608,-6.46625,6.08125,-10.167501,-10.256001,-16.584002,19.856,eccentric,3,3.0,28312.0,375715.0,336042.0,393892.0,338821.0
2026-04-07 17:45:30.943628,182994,1001204248,1001205565,0.835456,-0.12688,-0.023424,-4.92625,4.5675,-8.05875,-10.432,-17.104,20.144001,eccentric,3,3.0,28312.0,375715.0,336042.0,393892.0,338821.0
2026-04-07 17:45:30.946590,182995,1001213173,1001214268,0.835456,-0.12688,-0.023424,-4.0775,4.095,-7.1575,-10.432,-17.104,20.144001,eccentric,3,3.0,28312.0,375715.0,336042.0,393892.0,338821.0
2026-04-07 17:45:30.947772,182996,1001222082,1001222951,0.83936,-0.119072,-0.03904,-2.0125,3.22875,-6.86,-10.888001,-16.608002,20.048,eccentric,3,3.0,28312.0,375715.0,336042.0,393892.0,338821.0
2026-04-07 17:45:31.065552,183006,1001237117,1001238381,0.83936,-0.119072,-0.03904,-1.5225,1.6975,-6.0725,-10.888001,-16.608002,20.048,eccentric,3,3.0,29514.0,384914.0,343515.0,401135.0,344804.0
2026-04-07 17:45:31.110463,183007,1001246102,1001247082,0.825696,-0.099552,-0.044896,0.455,0.32375,-6.09,-11.416,-16.76,23.032001,eccentric,3,3.0,29514.0,384914.0,343515.0,401135.0,344804.0
2026-04-07 17:45:31.113981,183008,1001255011,1001255747,0.825696,-0.099552,-0.044896,3.9025,-1.93375,-5.24125,-11.416,-16.76,23.032001,eccentric,3,3.0,29514.0,384914.0,343515.0,401135.0,344804.0
2026-04-07 17:45:31.116482,183009,1001269935,1001270762,0.88816,-0.109312,-0.015616,5.5825,-3.185,-4.62875,-11.296001,-16.904001,21.112001,eccentric,3,3.0,29514.0,384914.0,343515.0,401135.0,344804.0
2026-04-07 17:45:31.122674,183010,1001278855,1001279463,0.870592,-0.070272,0.013664,4.515,-2.5375,-7.06125,-11.296001,-16.664001,19.36,eccentric,3,3.0,29514.0,384914.0,343515.0,401135.0,344804.0
2026-04-07 17:45:31.125118,183011,1001288073,1001290263,0.870592,-0.070272,0.013664,4.585,-0.06125,-9.10875,-10.8,-16.664001,19.36,eccentric,3,3.0,29514.0,384914.0,343515.0,401135.0,344804.0
2026-04-07 17:45:31.170479,183012,1001297095,1001299001,0.870592,-0.070272,0.013664,2.68625,1.47,-9.8875,-10.8,-16.664001,19.36,eccentric,3,3.0,29514.0,384914.0,343515.0,401135.0,344804.0
2026-04-07 17:45:31.174128,183013,1001311588,1001313897,0.892064,-0.121024,-0.01952,0.90125,1.995,-10.59625,-11.024,-17.144001,20.456001,eccentric,3,3.0,29514.0,384914.0,343515.0,401135.0,344804.0
2026-04-07 17:45:31.176399,183014,1001320522,1001322603,0.856928,-0.134688,-0.0488,2.66875,1.4,-9.96625,-10.936001,-16.952002,20.024,eccentric,3,3.0,29514.0,384914.0,343515.0,401135.0,344804.0
2026-04-07 17:45:31.181444,183015,1001329424,1001331301,0.856928,-0.134688,-0.0488,6.22125,0.55125,-8.49625,-10.936001,-16.952002,20.024,eccentric,3,3.0,29514.0,384914.0,343515.0,401135.0,344804.0
2026-04-07 17:45:31.258876,183026,1001343930,1001344256,0.843264,-0.093696,-0.05856,8.86375,-1.05875,-6.71125,-10.976001,-17.064001,21.136002,concentric,3,3.0,29478.0,384617.0,343206.0,400760.0,344356.0
2026-04-07 17:45:31.261385,183027,1001353136,1001355018,0.843264,-0.093696,-0.05856,10.6925,-2.58125,-5.88875,-10.976001,-17.064001,21.136002,concentric,3,3.0,29478.0,384617.0,343206.0,400760.0,344356.0
2026-04-07 17:45:31.263865,183028,1001362082,1001363719,0.831552,-0.060512,-0.011712,10.0975,-1.9425,-5.7225,-11.048,-17.024,21.04,concentric,3,3.0,29478.0,384617.0,343206.0,400760.0,344356.0
2026-04-07 17:45:31.312870,183029,1001371008,1001372400,0.831552,-0.060512,-0.011712,8.44375,-0.46375,-5.4775,-11.048,-17.024,21.04,concentric,3,3.0,29478.0,384617.0,343206.0,400760.0,344356.0
2026-04-07 17:45:31.360443,183030,1001385487,1001387308,0.806176,-0.115168,-0.031232,9.17875,0.0,-6.08125,-11.392,-16.856,22.304,concentric,3,3.0,29478.0,384617.0,343206.0,400760.0,344356.0
2026-04-07 17:45:31.363981,183031,1001394398,1001395974,0.806176,-0.115168,-0.031232,9.94,-0.21875,-5.04,-11.392,-16.856,22.304,concentric,3,3.0,29478.0,384617.0,343206.0,400760.0,344356.0
2026-04-07 17:45:31.366382,183032,1001403381,1001404675,0.80032,-0.11712,-0.037088,10.823751,-1.14625,-3.71875,-10.200001,-16.696001,20.032001,concentric,3,3.0,29478.0,384617.0,343206.0,400760.0,344356.0
2026-04-07 17:45:31.368969,183033,1001417847,1001419595,0.80032,-0.11712,-0.037088,10.7275,-3.17625,-1.9775,-10.200001,-16.696001,20.032001,concentric,3,3.0,29478.0,384617.0,343206.0,400760.0,344356.0
2026-04-07 17:45:31.372020,183034,1001426741,1001428278,0.769088,-0.121024,-0.083936,8.8375,-5.4775,1.21625,-10.480001,-16.480001,19.52,concentric,3,3.0,29478.0,384617.0,343206.0,400760.0,344356.0
2026-04-07 17:45:31.450174,183044,1001435691,1001437370,0.769088,-0.121024,-0.083936,8.02375,-8.07625,5.8975,-10.480001,-16.480001,19.52,concentric,3,3.0,28958.0,380712.0,340138.0,397770.0,341718.0
2026-04-07 17:45:31.452756,183045,1001450351,1001452686,0.802272,-0.121024,-0.056608,8.12875,-10.14125,8.96,-10.784,-16.536001,19.648,concentric,3,3.0,28958.0,380712.0,340138.0,397770.0,341718.0
2026-04-07 17:45:31.455102,183046,1001459282,1001461385,0.77104,-0.06832,-0.035136,8.33875,-10.75375,8.6275,-10.784,-16.536001,19.144001,concentric,3,3.0,28958.0,380712.0,340138.0,397770.0,341718.0
2026-04-07 17:45:31.536605,183047,1001468229,1001470107,0.77104,-0.06832,-0.035136,10.5175,-9.6775,8.74125,-10.592001,-16.192001,19.144001,concentric,3,3.0,28958.0,380712.0,340138.0,397770.0,341718.0
2026-04-07 17:45:31.540188,183048,1001482721,1001485030,0.79056,-0.105408,-0.040992,9.93125,-8.9075,9.73875,-10.456,-16.096,19.36,concentric,3,3.0,28958.0,380712.0,340138.0,397770.0,341718.0
2026-04-07 17:45:31.542585,183049,1001491624,1001493715,0.79056,-0.105408,-0.040992,5.3375,-8.54875,10.0975,-10.456,-16.096,19.36,concentric,3,3.0,28958.0,380712.0,340138.0,397770.0,341718.0
2026-04-07 17:45:31.545889,183050,1001500561,1001502417,0.796416,-0.15616,-0.099552,2.68625,-10.5875,11.235,-10.52,-16.072,19.408,concentric,3,3.0,28958.0,380712.0,340138.0,397770.0,341718.0
2026-04-07 17:45:31.550223,183051,1001509538,1001511124,0.796416,-0.15616,-0.099552,1.575,-13.60625,14.28875,-10.52,-16.072,19.408,concentric,3,3.0,28958.0,380712.0,340138.0,397770.0,341718.0
2026-04-07 17:45:31.604201,183052,1001524071,1001526054,0.81984,-0.101504,-0.076128,0.35875,-15.925,15.6975,-10.704,-15.824,18.832,concentric,3,3.0,28958.0,380712.0,340138.0,397770.0,341718.0
2026-04-07 17:45:31.626966,183053,1001533062,1001534802,0.81984,-0.101504,-0.076128,0.95375,-16.94,17.3075,-10.704,-15.824,18.832,concentric,3,3.0,28958.0,380712.0,340138.0,397770.0,341718.0
2026-04-07 17:45:31.681499,183063,1001542084,1001543577,0.874496,-0.105408,-0.033184,-0.79625,-16.6075,17.78875,-10.256001,-15.544001,19.080002,concentric,3,3.0,29384.0,384203.0,343080.0,400836.0,344445.0
2026-04-07 17:45:31.729225,183064,1001556556,1001558469,0.874496,-0.105408,-0.033184,-4.01625,-15.02375,16.4675,-10.256001,-15.544001,19.080002,concentric,3,3.0,29384.0,384203.0,343080.0,400836.0,344445.0
2026-04-07 17:45:31.732765,183065,1001565468,1001567159,0.794464,-0.163968,-0.091744,-2.09125,-14.3675,16.178751,-10.368,-15.008,18.264,concentric,3,3.0,29384.0,384203.0,343080.0,400836.0,344445.0
2026-04-07 17:45:31.735173,183066,1001574367,1001575839,0.794464,-0.163968,-0.091744,1.8025,-16.7825,17.07125,-10.368,-15.008,18.264,concentric,3,3.0,29384.0,384203.0,343080.0,400836.0,344445.0
2026-04-07 17:45:31.737611,183067,1001588961,1001590753,0.81008,-0.13664,-0.150304,5.67,-19.9675,18.33125,-11.216001,-14.672001,18.976002,concentric,3,3.0,29384.0,384203.0,343080.0,400836.0,344445.0
2026-04-07 17:45:31.740165,183068,1001598029,1001599514,0.81008,-0.13664,-0.150304,8.47875,-22.4,20.3,-11.216001,-14.672001,18.976002,concentric,3,3.0,29384.0,384203.0,343080.0,400836.0,344445.0
2026-04-07 17:45:31.742596,183069,1001606934,1001608210,0.892064,-0.089792,-0.037088,6.2475,-23.09125,21.525,-10.960001,-14.160001,18.696001,concentric,3,3.0,29384.0,384203.0,343080.0,400836.0,344445.0
2026-04-07 17:45:31.757826,183070,1001621454,1001623142,0.856928,-0.12688,-0.072224,-0.42,-19.83625,19.53,-10.944,-14.112,18.160002,concentric,3,3.0,29384.0,384203.0,343080.0,400836.0,344445.0
2026-04-07 17:45:31.760286,183071,1001630534,1001631881,0.856928,-0.12688,-0.072224,-1.7325,-16.73875,17.33375,-10.944,-14.112,18.160002,concentric,3,3.0,29384.0,384203.0,343080.0,400836.0,344445.0
2026-04-07 17:45:31.879164,183081,1001640161,1001640615,0.856928,-0.12688,-0.119072,-1.37375,-14.533751,16.0125,-10.944,-14.112,17.784,concentric,3,3.0,29882.0,388222.0,346350.0,403267.0,347174.0
2026-04-07 17:45:31.917909,183082,1001649506,1001651395,0.837408,-0.181536,-0.119072,0.30625,-14.63,16.03,-10.928,-14.168,17.784,concentric,3,3.0,29882.0,388222.0,346350.0,403267.0,347174.0
2026-04-07 17:45:31.927800,183083,1001664035,1001666330,0.862784,-0.167872,-0.109312,3.94625,-16.54625,16.8,-11.112,-14.472001,17.824001,concentric,3,3.0,29882.0,388222.0,346350.0,403267.0,347174.0
2026-04-07 17:45:31.954239,183084,1001673046,1001675069,0.862784,-0.167872,-0.109312,5.005,-18.0075,19.145,-11.112,-14.472001,17.824001,concentric,3,3.0,29882.0,388222.0,346350.0,403267.0,347174.0
2026-04-07 17:45:31.956504,183085,1001682118,1001683764,0.85888,-0.15616,-0.103456,-0.37625,-16.94875,19.76625,-11.336,-14.328001,18.08,concentric,3,3.0,29882.0,388222.0,346350.0,403267.0,347174.0
2026-04-07 17:45:31.958982,183086,1001691112,1001692471,0.85888,-0.15616,-0.103456,-1.7325,-14.8225,19.3375,-11.336,-14.328001,18.08,concentric,3,3.0,29882.0,388222.0,346350.0,403267.0,347174.0
2026-04-07 17:45:31.961386,183087,1001705608,1001707357,0.792512,-0.152256,-0.101504,-1.54,-13.3525,18.305,-11.568001,-13.312,17.768002,concentric,3,3.0,29882.0,388222.0,346350.0,403267.0,347174.0
2026-04-07 17:45:32.006592,183088,1001714570,1001716061,0.792512,-0.152256,-0.101504,1.9775,-13.50125,18.68125,-11.568001,-13.312,17.768002,concentric,3,3.0,29882.0,388222.0,346350.0,403267.0,347174.0
2026-04-07 17:45:32.011238,183089,1001723528,1001724778,0.753472,-0.154208,-0.16592,5.495,-14.6475,19.635,-11.192,-12.936001,17.624,concentric,3,3.0,29882.0,388222.0,346350.0,403267.0,347174.0
2026-04-07 17:45:32.093082,183100,1001738002,1001739707,0.753472,-0.154208,-0.16592,5.62625,-16.5025,20.72,-11.192,-12.936001,17.624,concentric,3,3.0,29833.0,387796.0,345993.0,403072.0,346730.0
2026-04-07 17:45:32.096444,183101,1001747295,1001748397,0.786656,-0.138592,-0.140544,3.01875,-17.47375,21.2625,-11.328,-13.368001,17.568,concentric,3,3.0,29833.0,387796.0,345993.0,403072.0,346730.0
2026-04-07 17:45:32.098912,183102,1001756209,1001757117,0.786656,-0.138592,-0.140544,-0.35,-17.395,20.60625,-11.328,-13.368001,17.568,concentric,3,3.0,29833.0,387796.0,345993.0,403072.0,346730.0
2026-04-07 17:45:32.101465,183103,1001770745,1001771998,0.80032,-0.17568,-0.128832,-1.25125,-15.0675,19.34625,-11.344001,-13.024,17.248001,concentric,3,3.0,29833.0,387796.0,345993.0,403072.0,346730.0
2026-04-07 17:45:32.104050,183104,1001779681,1001780783,0.80032,-0.17568,-0.128832,-0.77,-13.877501,18.48875,-11.344001,-13.024,17.248001,concentric,3,3.0,29833.0,387796.0,345993.0,403072.0,346730.0
2026-04-07 17:45:32.106550,183105,1001788743,1001789499,0.77104,-0.173728,-0.144448,2.1875,-13.011251,17.19375,-11.136001,-13.152,16.848001,concentric,3,3.0,29833.0,387796.0,345993.0,403072.0,346730.0
2026-04-07 17:45:32.151635,183106,1001798124,1001800273,0.77104,-0.173728,-0.144448,5.32,-13.27375,16.178751,-11.136001,-13.152,16.848001,concentric,3,3.0,29833.0,387796.0,345993.0,403072.0,346730.0
2026-04-07 17:45:32.155195,183107,1001812639,1001813100,0.77104,-0.197152,-0.20496,7.16625,-14.81375,16.6075,-11.048,-13.032001,17.288,concentric,3,3.0,29833.0,387796.0,345993.0,403072.0,346730.0
2026-04-07 17:45:32.157612,183108,1001822062,1001823892,0.815936,-0.199104,-0.201056,6.50125,-16.87875,16.87,-11.400001,-12.416,17.456001,concentric,3,3.0,29833.0,387796.0,345993.0,403072.0,346730.0
2026-04-07 17:45:32.160172,183109,1001831020,1001832593,0.815936,-0.199104,-0.201056,6.09,-18.34,16.1525,-11.400001,-12.416,17.456001,concentric,3,3.0,29833.0,387796.0,345993.0,403072.0,346730.0
2026-04-07 17:45:32.286664,183119,1001840649,1001841747,0.815936,-0.199104,-0.201056,5.67875,-18.43625,13.85125,-11.400001,-12.416,17.456001,concentric,3,3.0,29747.0,387173.0,345516.0,402848.0,346274.0
2026-04-07 17:45:32.290202,183120,1001855268,1001856727,0.85888,-0.193248,-0.181536,5.92375,-18.10375,11.62875,-11.528001,-12.360001,17.952002,concentric,3,3.0,29747.0,387173.0,345516.0,402848.0,346274.0
2026-04-07 17:45:32.292646,183121,1001864270,1001865486,0.860832,-0.238144,-0.169824,6.265,-17.465,9.7125,-11.136001,-12.056001,16.52,concentric,3,3.0,29747.0,387173.0,345516.0,402848.0,346274.0
2026-04-07 17:45:32.295075,183122,1001873260,1001874194,0.860832,-0.238144,-0.169824,7.385,-17.4825,8.1375,-11.136001,-12.056001,16.52,concentric,3,3.0,29747.0,387173.0,345516.0,402848.0,346274.0
2026-04-07 17:45:32.297717,183123,1001887741,1001889094,0.8784,-0.244,-0.171776,9.91375,-17.26375,7.91,-11.320001,-12.264001,16.168001,concentric,3,3.0,29747.0,387173.0,345516.0,402848.0,346274.0
2026-04-07 17:45:32.300116,183124,1001896678,1001897843,0.8784,-0.244,-0.171776,8.435,-16.89625,8.47875,-11.320001,-12.264001,16.168001,concentric,3,3.0,29747.0,387173.0,345516.0,402848.0,346274.0
2026-04-07 17:45:32.310216,183125,1001905614,1001906532,0.895968,-0.26352,-0.1952,4.06875,-15.575,7.88375,-11.064,-11.488001,16.136002,concentric,3,3.0,29747.0,387173.0,345516.0,402848.0,346274.0
2026-04-07 17:45:32.312740,183126,1001914510,1001915250,0.895968,-0.26352,-0.1952,3.80625,-13.23875,8.26,-11.064,-11.488001,16.136002,concentric,3,3.0,29747.0,387173.0,345516.0,402848.0,346274.0
2026-04-07 17:45:32.315166,183127,1001929419,1001930197,0.909632,-0.257664,-0.144448,3.49125,-11.48875,6.9475,-11.8,-11.68,15.984001,concentric,3,3.0,29747.0,387173.0,345516.0,402848.0,346274.0
2026-04-07 17:45:32.432870,183137,1001938799,1001940967,0.909632,-0.257664,-0.144448,8.23375,-9.14375,6.5975,-11.8,-11.68,15.984001,concentric,3,3.0,29962.0,388943.0,346932.0,403431.0,347514.0
2026-04-07 17:45:32.436433,183138,1001947735,1001949834,0.882304,-0.247904,-0.193248,11.36625,-8.37375,5.845,-11.576,-11.320001,16.152,concentric,3,3.0,29962.0,388943.0,346932.0,403431.0,347514.0
2026-04-07 17:45:32.438876,183139,1001962268,1001962703,0.874496,-0.269376,-0.152256,11.0775,-9.02125,5.10125,-11.536,-11.296001,14.568001,concentric,3,3.0,29962.0,388943.0,346932.0,403431.0,347514.0
2026-04-07 17:45:32.441445,183140,1001971580,1001973508,0.874496,-0.269376,-0.152256,10.00125,-9.625,5.635,-11.536,-11.296001,14.568001,concentric,3,3.0,29962.0,388943.0,346932.0,403431.0,347514.0
2026-04-07 17:45:32.443919,183141,1001980501,1001982197,0.874496,-0.269376,-0.152256,9.63375,-9.23125,7.07,-11.536,-11.296001,14.568001,concentric,3,3.0,29962.0,388943.0,346932.0,403431.0,347514.0
2026-04-07 17:45:32.446408,183142,1001989404,1001990883,0.854976,-0.265472,-0.158112,10.87625,-9.35375,7.51625,-11.168,-11.256001,16.176,concentric,3,3.0,29962.0,388943.0,346932.0,403431.0,347514.0
2026-04-07 17:45:32.448919,183143,1002003880,1002005799,0.81984,-0.242048,-0.173728,10.36,-8.2775,7.49,-11.056001,-10.752001,15.608001,concentric,3,3.0,29962.0,388943.0,346932.0,403431.0,347514.0
2026-04-07 17:45:32.501849,183144,1002012800,1002014487,0.81984,-0.242048,-0.173728,11.62875,-7.5775,8.1025,-11.056001,-10.752001,15.608001,concentric,3,3.0,29962.0,388943.0,346932.0,403431.0,347514.0
2026-04-07 17:45:32.549168,183145,1002021718,1002023197,0.81984,-0.261568,-0.150304,11.375,-7.7175,7.72625,-11.056001,-10.752001,15.264001,concentric,3,3.0,29962.0,388943.0,346932.0,403431.0,347514.0
2026-04-07 17:45:32.552702,183146,1002036210,1002038104,0.823744,-0.261568,-0.150304,11.68125,-8.05,7.7175,-11.552001,-10.84,15.264001,concentric,3,3.0,29962.0,388943.0,346932.0,403431.0,347514.0
2026-04-07 17:45:32.591464,183157,1002045276,1002047058,0.806176,-0.269376,-0.17568,13.2125,-8.6275,9.3975,-12.208,-10.784,16.592001,concentric,3,3.0,30231.0,390879.0,348449.0,403431.0,348841.0
2026-04-07 17:45:32.593995,183158,1002054215,1002055806,0.806176,-0.269376,-0.17568,14.14,-8.855001,10.28125,-12.208,-10.784,16.592001,concentric,3,3.0,30231.0,390879.0,348449.0,403431.0,348841.0
2026-04-07 17:45:32.596417,183159,1002068703,1002070692,0.786656,-0.240096,-0.171776,13.667501,-10.00125,10.2725,-11.488001,-10.256001,14.264001,concentric,3,3.0,30231.0,390879.0,348449.0,403431.0,348841.0
2026-04-07 17:45:32.598840,183160,1002077663,1002079401,0.786656,-0.240096,-0.171776,14.84,-10.3425,10.59625,-11.488001,-10.256001,14.264001,concentric,3,3.0,30231.0,390879.0,348449.0,403431.0,348841.0
2026-04-07 17:45:32.646671,183161,1002086696,1002088136,0.786656,-0.257664,-0.167872,14.542501,-10.745,10.64,-11.672001,-10.120001,15.824,concentric,3,3.0,30231.0,390879.0,348449.0,403431.0,348841.0
2026-04-07 17:45:32.651635,183162,1002095602,1002096822,0.786656,-0.257664,-0.167872,11.62875,-11.4275,10.50875,-11.672001,-10.120001,15.824,concentric,3,3.0,30231.0,390879.0,348449.0,403431.0,348841.0
2026-04-07 17:45:32.652658,183163,1002110114,1002111703,0.782752,-0.26352,-0.189344,10.0625,-12.18875,10.99,-11.392,-10.040001,15.064001,concentric,3,3.0,30231.0,390879.0,348449.0,403431.0,348841.0
2026-04-07 17:45:32.655101,183164,1002119024,1002120432,0.782752,-0.26352,-0.189344,9.9575,-13.0375,10.96375,-11.392,-10.040001,15.064001,concentric,3,3.0,30231.0,390879.0,348449.0,403431.0,348841.0
2026-04-07 17:45:32.657616,183165,1002127934,1002129122,0.802272,-0.28304,-0.177632,7.595,-13.895,10.5,-11.592001,-9.92,14.776001,concentric,3,3.0,30231.0,390879.0,348449.0,403431.0,348841.0
2026-04-07 17:45:32.766480,183175,1002143125,1002144037,0.7808,-0.286944,-0.20496,8.855001,-14.6825,11.235,-11.472,-9.400001,15.544001,concentric,3,3.0,30111.0,389974.0,347710.0,403431.0,348101.0
2026-04-07 17:45:32.768841,183176,1002152121,1002152849,0.7808,-0.286944,-0.20496,9.10875,-15.16375,10.9375,-11.472,-9.400001,15.544001,concentric,3,3.0,30111.0,389974.0,347710.0,403431.0,348101.0
2026-04-07 17:45:32.771444,183177,1002161515,1002163675,0.7808,-0.286944,-0.20496,8.44375,-16.7125,9.4675,-11.472,-9.400001,15.544001,concentric,3,3.0,30111.0,389974.0,347710.0,403431.0,348101.0
2026-04-07 17:45:32.819100,183178,1002170570,1002172418,0.812032,-0.304512,-0.197152,10.64,-17.3775,12.2675,-11.488001,-9.064,13.032001,concentric,3,3.0,30111.0,389974.0,347710.0,403431.0,348101.0
2026-04-07 17:45:32.822707,183179,1002185084,1002187300,0.765184,-0.249856,-0.208864,15.05875,-17.15875,14.14875,-11.68,-9.120001,14.200001,concentric,3,3.0,30111.0,389974.0,347710.0,403431.0,348101.0
2026-04-07 17:45:32.825331,183180,1002194007,1002196016,0.765184,-0.249856,-0.208864,12.6875,-17.745,12.78375,-11.68,-9.120001,14.200001,concentric,3,3.0,30111.0,389974.0,347710.0,403431.0,348101.0
2026-04-07 17:45:32.827835,183181,1002202934,1002204764,0.794464,-0.304512,-0.197152,12.18875,-17.9375,11.13,-11.576,-9.096001,14.856001,concentric,3,3.0,30111.0,389974.0,347710.0,403431.0,348101.0
2026-04-07 17:45:32.830620,183182,1002217394,1002219664,0.794464,-0.304512,-0.197152,10.75375,-17.5,10.10625,-11.576,-9.096001,14.856001,concentric,3,3.0,30111.0,389974.0,347710.0,403431.0,348101.0
