pc_time,serial_num,sensor_ts,host_ts,ax,ay,az,gx,gy,gz,mx,my,mz,phase,rpe,weight_kg,ppg_a,ppg_b,ppg_c,ppg_d,ppg_e
2026-04-07 17:46:01.456777,188714,1031843290,1031843615,0.813984,-0.474336,-0.189344,6.32625,6.57125,-10.33375,-15.616001,-6.056,18.584002,eccentric,3,3.0,31703.0,402041.0,359737.0,403431.0,361961.0
2026-04-07 17:46:01.458523,188715,1031852575,1031854439,0.81008,-0.464576,-0.18544,6.93875,7.07,-11.698751,-15.072001,-6.64,17.608002,eccentric,3,3.0,31703.0,402041.0,359737.0,403431.0,361961.0
2026-04-07 17:46:01.464461,188716,1031861534,1031863162,0.81008,-0.464576,-0.18544,8.4875,6.23875,-12.845,-15.072001,-6.64,17.608002,eccentric,3,3.0,31703.0,402041.0,359737.0,403431.0,361961.0
2026-04-07 17:46:01.536151,188717,1031876005,1031878049,0.821792,-0.46848,-0.189344,8.47,5.845,-13.0725,-15.6,-7.176,16.816,eccentric,3,3.0,31703.0,402041.0,359737.0,403431.0,361961.0
2026-04-07 17:46:01.538630,188718,1031884921,1031886733,0.821792,-0.46848,-0.189344,7.91,5.4775,-14.21875,-15.6,-7.176,16.816,eccentric,3,3.0,31703.0,402041.0,359737.0,403431.0,361961.0
2026-04-07 17:46:01.545754,188719,1031893859,1031895427,0.813984,-0.460672,-0.18544,7.46375,4.9875,-14.971251,-14.928,-6.856,15.304001,eccentric,3,3.0,31703.0,402041.0,359737.0,403431.0,361961.0
2026-04-07 17:46:01.568769,188729,1031908835,1031910424,0.813984,-0.460672,-0.18544,7.18375,5.18875,-15.1025,-14.928,-6.856,15.304001,eccentric,3,3.0,31100.0,399019.0,356142.0,403431.0,358038.0
2026-04-07 17:46:01.572995,188730,1031917758,1031919218,0.833504,-0.452864,-0.150304,7.245,4.7775,-15.58375,-14.528001,-6.520001,11.416,eccentric,3,3.0,31100.0,399019.0,356142.0,403431.0,358038.0
2026-04-07 17:46:01.574703,188731,1031926663,1031927900,0.833504,-0.452864,-0.150304,7.2275,5.03125,-15.0325,-14.528001,-6.520001,11.416,eccentric,3,3.0,31100.0,399019.0,356142.0,403431.0,358038.0
2026-04-07 17:46:01.577132,188732,1031935537,1031936627,0.806176,-0.466528,-0.154208,9.14375,4.655,-14.70875,-14.936001,-6.944,15.352001,eccentric,3,3.0,31100.0,399019.0,356142.0,403431.0,358038.0
2026-04-07 17:46:01.579696,188733,1031950120,1031951535,0.804224,-0.447008,-0.183488,10.12375,4.57625,-13.965,-14.536,-6.544,14.76,eccentric,3,3.0,31100.0,399019.0,356142.0,403431.0,358038.0
2026-04-07 17:46:01.581237,188734,1031959077,1031960324,0.804224,-0.447008,-0.183488,12.06625,3.75375,-13.62375,-14.536,-6.544,14.76,eccentric,3,3.0,31100.0,399019.0,356142.0,403431.0,358038.0
2026-04-07 17:46:01.585599,188735,1031968064,1031969115,0.804224,-0.447008,-0.183488,12.46875,3.0975,-14.8575,-14.536,-6.544,14.76,eccentric,3,3.0,31100.0,399019.0,356142.0,403431.0,358038.0
2026-04-07 17:46:01.587259,188736,1031982670,1031984031,0.823744,-0.413824,-0.154208,11.20875,2.30125,-16.0825,-14.496,-7.232,15.552001,eccentric,3,3.0,31100.0,399019.0,356142.0,403431.0,358038.0
2026-04-07 17:46:01.588765,188737,1031991607,1031992750,0.812032,-0.4392,-0.162016,9.49375,2.5025,-15.4,-14.696001,-7.432,16.16,eccentric,3,3.0,31100.0,399019.0,356142.0,403431.0,358038.0
2026-04-07 17:46:01.621045,188738,1032000553,1032001462,0.812032,-0.4392,-0.162016,7.2275,3.28125,-15.190001,-14.696001,-7.432,16.16,eccentric,3,3.0,31100.0,399019.0,356142.0,403431.0,358038.0
2026-04-07 17:46:01.648096,188748,1032015085,1032016439,0.79056,-0.443104,-0.160064,6.37,3.36875,-14.77875,-14.632001,-7.144001,15.088,eccentric,3,3.0,30669.0,395917.0,353557.0,403431.0,355494.0
2026-04-07 17:46:01.649736,188749,1032023979,1032025164,0.79056,-0.443104,-0.160064,7.4025,3.6575,-14.18375,-14.632001,-7.144001,15.088,eccentric,3,3.0,30669.0,395917.0,353557.0,403431.0,355494.0
2026-04-07 17:46:01.652189,188750,1032033013,1032033862,0.808128,-0.441152,-0.158112,8.015,4.3225,-14.70875,-14.864,-7.032001,16.776001,eccentric,3,3.0,30669.0,395917.0,353557.0,403431.0,355494.0
2026-04-07 17:46:01.654108,188751,1032042019,1032042647,0.808128,-0.441152,-0.158112,8.3125,4.7775,-15.28625,-14.864,-7.032001,16.776001,eccentric,3,3.0,30669.0,395917.0,353557.0,403431.0,355494.0
2026-04-07 17:46:01.657011,188752,1032056929,1032057598,0.808128,-0.443104,-0.124928,10.26375,5.94125,-14.752501,-13.888001,-7.400001,17.008001,eccentric,3,3.0,30669.0,395917.0,353557.0,403431.0,355494.0
2026-04-07 17:46:01.687374,188753,1032066348,1032068372,0.808128,-0.443104,-0.124928,9.1525,7.56875,-15.72375,-13.888001,-7.400001,17.008001,eccentric,3,3.0,30669.0,395917.0,353557.0,403431.0,355494.0
2026-04-07 17:46:01.689628,188754,1032075296,1032077087,0.804224,-0.417728,-0.150304,9.35375,9.44125,-15.8375,-14.056001,-7.28,15.576001,eccentric,3,3.0,30669.0,395917.0,353557.0,403431.0,355494.0
2026-04-07 17:46:01.694163,188755,1032084238,1032085836,0.804224,-0.417728,-0.150304,7.2625,11.22625,-16.8175,-14.056001,-7.28,15.576001,eccentric,3,3.0,30669.0,395917.0,353557.0,403431.0,355494.0
2026-04-07 17:46:01.698314,188756,1032098824,1032100741,0.774944,-0.413824,-0.132736,6.5275,12.55625,-16.5725,-14.504001,-6.432,15.984001,eccentric,3,3.0,30669.0,395917.0,353557.0,403431.0,355494.0
2026-04-07 17:46:01.753783,188767,1032107761,1032109406,0.774944,-0.413824,-0.132736,5.5825,13.09,-16.73,-14.504001,-6.432,15.984001,eccentric,3,3.0,30264.0,392818.0,351097.0,403431.0,353283.0
2026-04-07 17:46:01.758031,188768,1032116770,1032118134,0.81008,-0.407968,-0.122976,3.17625,13.2825,-19.460001,-14.128,-7.232,16.136002,eccentric,3,3.0,30264.0,392818.0,351097.0,403431.0,353283.0
2026-04-07 17:46:01.759797,188769,1032131351,1032133050,0.788608,-0.394304,-0.101504,2.21375,13.20375,-20.48375,-13.768001,-7.904,17.624,eccentric,3,3.0,30264.0,392818.0,351097.0,403431.0,353283.0
2026-04-07 17:46:01.761254,188770,1032140267,1032141748,0.788608,-0.394304,-0.101504,3.5875,13.9475,-19.83625,-13.768001,-7.904,17.624,eccentric,3,3.0,30264.0,392818.0,351097.0,403431.0,353283.0
2026-04-07 17:46:01.765556,188771,1032149240,1032150479,0.788608,-0.394304,-0.101504,5.5475,14.51625,-20.62375,-13.768001,-7.904,17.624,eccentric,3,3.0,30264.0,392818.0,351097.0,403431.0,353283.0
2026-04-07 17:46:01.767652,188772,1032163876,1032165415,0.798368,-0.384544,-0.111264,4.2175,14.11375,-20.81625,-13.848001,-8.368,18.392,eccentric,3,3.0,30264.0,392818.0,351097.0,403431.0,353283.0
2026-04-07 17:46:01.773349,188773,1032172805,1032174145,0.794464,-0.372832,-0.072224,2.31875,14.34125,-20.50125,-15.144001,-8.192,18.568,eccentric,3,3.0,30264.0,392818.0,351097.0,403431.0,353283.0
2026-04-07 17:46:01.781891,188774,1032181762,1032182942,0.794464,-0.372832,-0.072224,0.90125,14.0875,-20.72875,-15.144001,-8.192,18.568,eccentric,3,3.0,30264.0,392818.0,351097.0,403431.0,353283.0
2026-04-07 17:46:01.816867,188775,1032190773,1032191634,0.79056,-0.40992,-0.099552,1.84625,13.965,-21.35875,-15.144001,-8.192,15.976001,eccentric,3,3.0,30264.0,392818.0,351097.0,403431.0,353283.0
2026-04-07 17:46:01.818601,188776,1032205276,1032206526,0.79056,-0.40992,-0.099552,1.61,13.2825,-21.32375,-13.312,-7.888001,15.976001,eccentric,3,3.0,30264.0,392818.0,351097.0,403431.0,353283.0
2026-04-07 17:46:01.847205,188786,1032214359,1032215374,0.796416,-0.36112,-0.101504,-0.2975,12.85375,-20.81625,-13.656001,-7.992001,16.248001,eccentric,3,3.0,30227.0,392655.0,350994.0,403431.0,353108.0
2026-04-07 17:46:01.849672,188787,1032223336,1032224108,0.796416,-0.36112,-0.101504,0.76125,13.37,-19.52125,-13.656001,-7.992001,16.248001,eccentric,3,3.0,30227.0,392655.0,350994.0,403431.0,353108.0
2026-04-07 17:46:01.851323,188788,1032237948,1032239062,0.812032,-0.349408,-0.103456,0.49,13.72,-19.57375,-13.984,-8.864,16.664001,eccentric,3,3.0,30227.0,392655.0,350994.0,403431.0,353108.0
2026-04-07 17:46:01.855479,188789,1032246872,1032247768,0.812032,-0.349408,-0.103456,-2.14375,14.42,-20.4575,-13.984,-8.864,16.664001,eccentric,3,3.0,30227.0,392655.0,350994.0,403431.0,353108.0
2026-04-07 17:46:01.857992,188790,1032255850,1032256611,0.812032,-0.355264,-0.101504,-2.82625,14.14875,-20.116251,-14.232,-9.048,17.912,eccentric,3,3.0,30227.0,392655.0,350994.0,403431.0,353108.0
2026-04-07 17:46:01.886456,188791,1032270819,1032271542,0.812032,-0.355264,-0.080032,-3.00125,13.685,-19.74875,-14.232,-9.048,17.912,eccentric,3,3.0,30227.0,392655.0,350994.0,403431.0,353108.0
2026-04-07 17:46:01.890935,188792,1032280178,1032282302,0.794464,-0.355264,-0.080032,-2.31,14.63875,-19.565,-13.848001,-8.96,17.12,eccentric,3,3.0,30227.0,392655.0,350994.0,403431.0,353108.0
2026-04-07 17:46:01.892562,188793,1032289095,1032290986,0.794464,-0.355264,-0.080032,-2.24,14.74375,-19.66125,-13.848001,-8.96,17.12,eccentric,3,3.0,30227.0,392655.0,350994.0,403431.0,353108.0
2026-04-07 17:46:01.896586,188794,1032298012,1032299697,0.784704,-0.355264,-0.121024,-1.1025,14.86625,-17.10625,-13.344001,-9.112,16.896,eccentric,3,3.0,30227.0,392655.0,350994.0,403431.0,353108.0
2026-04-07 17:46:01.949748,188804,1032313010,1032314744,0.806176,-0.32208,-0.101504,-5.67875,14.62125,-16.73875,-13.408001,-9.04,17.048,eccentric,3,3.0,29807.0,389338.0,348244.0,403431.0,350471.0
2026-04-07 17:46:01.951246,188805,1032322008,1032323434,0.806176,-0.32208,-0.101504,-7.4375,14.6125,-17.5875,-13.408001,-9.04,17.048,eccentric,3,3.0,29807.0,389338.0,348244.0,403431.0,350471.0
2026-04-07 17:46:01.955530,188806,1032331016,1032332107,0.806176,-0.337696,-0.13664,-4.3225,15.47875,-17.68375,-13.408001,-9.04,17.048,eccentric,3,3.0,29807.0,389338.0,348244.0,403431.0,350471.0
2026-04-07 17:46:01.957227,188807,1032339981,1032340907,0.772992,-0.329888,-0.13664,-3.45625,15.51375,-18.5675,-13.376,-9.184,16.536001,eccentric,3,3.0,29807.0,389338.0,348244.0,403431.0,350471.0
2026-04-07 17:46:01.958773,188808,1032354630,1032355901,0.778848,-0.318176,-0.121024,-4.59375,15.4875,-18.48875,-13.320001,-9.168,17.392,eccentric,3,3.0,29807.0,389338.0,348244.0,403431.0,350471.0
2026-04-07 17:46:01.962892,188809,1032363650,1032364658,0.778848,-0.318176,-0.121024,-5.285,16.17,-17.66625,-13.320001,-9.168,17.392,eccentric,3,3.0,29807.0,389338.0,348244.0,403431.0,350471.0
2026-04-07 17:46:01.971614,188810,1032372654,1032373394,0.767136,-0.30256,-0.169824,-4.75125,16.5375,-17.045,-13.368001,-9.664001,17.6,eccentric,3,3.0,29807.0,389338.0,348244.0,403431.0,350471.0
2026-04-07 17:46:02.000142,188811,1032387589,1032388295,0.767136,-0.30256,-0.169824,-4.33125,16.54625,-18.01625,-13.368001,-9.664001,17.6,eccentric,3,3.0,29807.0,389338.0,348244.0,403431.0,350471.0
2026-04-07 17:46:02.003782,188812,1032396930,1032399121,0.772992,-0.300608,-0.128832,-4.33125,17.35125,-19.678751,-13.064001,-9.936001,17.576,eccentric,3,3.0,29807.0,389338.0,348244.0,403431.0,350471.0
2026-04-07 17:46:02.006195,188813,1032405862,1032407806,0.772992,-0.300608,-0.128832,-4.10375,18.83,-20.405,-13.064001,-9.936001,17.576,eccentric,3,3.0,29807.0,389338.0,348244.0,403431.0,350471.0
2026-04-07 17:46:02.033750,188824,1032414950,1032416633,0.755424,-0.320128,-0.111264,-4.515,19.85375,-20.13375,-12.808001,-10.448001,17.928001,eccentric,3,3.0,29055.0,383460.0,343492.0,402093.0,345917.0
2026-04-07 17:46:02.036252,188825,1032429539,1032431545,0.755424,-0.320128,-0.111264,-6.88625,20.02,-19.73125,-12.808001,-10.448001,17.928001,eccentric,3,3.0,29055.0,383460.0,343492.0,402093.0,345917.0
2026-04-07 17:46:02.038726,188826,1032438592,1032440318,0.80032,-0.298656,-0.111264,-7.53375,21.0875,-18.41,-13.312,-10.432,19.744001,eccentric,3,3.0,29055.0,383460.0,343492.0,402093.0,345917.0
2026-04-07 17:46:02.069025,188827,1032447527,1032449044,0.80032,-0.298656,-0.111264,-9.073751,22.715,-19.5125,-13.312,-10.432,19.744001,eccentric,3,3.0,29055.0,383460.0,343492.0,402093.0,345917.0
2026-04-07 17:46:02.072538,188828,1032462024,1032463913,0.763232,-0.281088,-0.122976,-7.04375,23.0825,-21.14,-13.384001,-11.008,19.800001,eccentric,3,3.0,29055.0,383460.0,343492.0,402093.0,345917.0
2026-04-07 17:46:02.075036,188829,1032470991,1032472645,0.763232,-0.281088,-0.122976,-5.64375,21.90125,-21.98875,-13.384001,-11.008,19.800001,eccentric,3,3.0,29055.0,383460.0,343492.0,402093.0,345917.0
2026-04-07 17:46:02.077536,188830,1032479883,1032481379,0.79056,-0.324032,-0.130784,-5.48625,19.88875,-23.73,-13.352,-10.456,19.072,eccentric,3,3.0,29055.0,383460.0,343492.0,402093.0,345917.0
2026-04-07 17:46:02.112673,188831,1032494399,1032496274,0.772992,-0.28304,-0.105408,-5.99375,18.803751,-24.0625,-12.848001,-10.808001,18.312,eccentric,3,3.0,29055.0,383460.0,343492.0,402093.0,345917.0
2026-04-07 17:46:02.116218,188832,1032503329,1032504973,0.772992,-0.28304,-0.105408,-3.4825,18.2525,-22.39125,-12.848001,-10.808001,18.312,eccentric,3,3.0,29055.0,383460.0,343492.0,402093.0,345917.0
2026-04-07 17:46:02.141429,188842,1032512433,1032513784,0.823744,-0.275232,-0.089792,-3.955,17.605,-23.31875,-12.848001,-11.000001,17.336,eccentric,3,3.0,28715.0,380891.0,341458.0,400074.0,344134.0
2026-04-07 17:46:02.162539,188843,1032521444,1032522521,0.823744,-0.275232,-0.089792,-6.055,17.5875,-25.1125,-12.776001,-11.000001,17.336,eccentric,3,3.0,28715.0,380891.0,341458.0,400074.0,344134.0
2026-04-07 17:46:02.164949,188844,1032535996,1032537473,0.80032,-0.306464,-0.122976,-5.08375,17.43,-25.445,-13.232,-11.616,18.728,eccentric,3,3.0,28715.0,380891.0,341458.0,400074.0,344134.0
2026-04-07 17:46:02.167447,188845,1032544915,1032546196,0.80032,-0.306464,-0.122976,-3.3775,17.52625,-26.0575,-13.232,-11.616,18.728,eccentric,3,3.0,28715.0,380891.0,341458.0,400074.0,344134.0
2026-04-07 17:46:02.170436,188846,1032553837,1032554946,0.794464,-0.300608,-0.091744,-2.345,17.40375,-26.60875,-12.864,-11.816001,18.296001,eccentric,3,3.0,28715.0,380891.0,341458.0,400074.0,344134.0
2026-04-07 17:46:02.172429,188847,1032568317,1032569878,0.794464,-0.300608,-0.091744,-1.86375,17.70125,-25.4625,-12.864,-11.816001,18.296001,eccentric,3,3.0,28715.0,380891.0,341458.0,400074.0,344134.0
2026-04-07 17:46:02.174946,188848,1032577280,1032578636,0.786656,-0.25376,-0.095648,-3.2375,17.3425,-23.72125,-13.352,-11.64,20.248001,eccentric,3,3.0,28715.0,380891.0,341458.0,400074.0,344134.0
2026-04-07 17:46:02.205212,188849,1032586220,1032587362,0.786656,-0.25376,-0.095648,-3.43,17.08,-22.89,-13.352,-11.64,20.248001,eccentric,3,3.0,28715.0,380891.0,341458.0,400074.0,344134.0
2026-04-07 17:46:02.208714,188850,1032600694,1032602329,0.767136,-0.269376,-0.054656,-5.08375,16.975,-24.54375,-13.192,-11.8,18.912,eccentric,3,3.0,28715.0,380891.0,341458.0,400074.0,344134.0
2026-04-07 17:46:02.211215,188851,1032609939,1032611176,0.767136,-0.269376,-0.054656,-3.71,16.87875,-23.51125,-13.192,-11.8,18.912,eccentric,3,3.0,28715.0,380891.0,341458.0,400074.0,344134.0
2026-04-07 17:46:02.236187,188861,1032619423,1032620314,0.812032,-0.2928,-0.05856,-2.75625,16.47625,-22.68,-12.936001,-12.216001,19.112001,eccentric,3,3.0,28746.0,380894.0,341394.0,399864.0,344061.0
2026-04-07 17:46:02.238674,188862,1032630132,1032631459,0.812032,-0.2928,-0.05856,-4.08625,15.627501,-23.765,-12.936001,-12.216001,19.112001,eccentric,3,3.0,28746.0,380894.0,341394.0,399864.0,344061.0
2026-04-07 17:46:02.241199,188863,1032639419,1032640351,0.853024,-0.281088,-0.093696,-0.175,16.98375,-23.695,-13.224001,-12.176001,20.424002,eccentric,3,3.0,28746.0,380894.0,341394.0,399864.0,344061.0
2026-04-07 17:46:02.271501,188864,1032653987,1032655282,0.792512,-0.415776,-0.363072,-2.66875,18.50625,-25.76875,-13.064001,-11.944,19.272001,eccentric,3,3.0,28746.0,380894.0,341394.0,399864.0,344061.0
2026-04-07 17:46:02.275020,188865,1032662902,1032664104,0.792512,-0.415776,-0.363072,-5.31125,21.1225,-27.755001,-13.064001,-11.944,19.272001,eccentric,3,3.0,28746.0,380894.0,341394.0,399864.0,344061.0
2026-04-07 17:46:02.277484,188866,1032671824,1032672800,0.792512,-0.415776,-0.363072,-20.16875,27.64125,-32.8475,-13.064001,-11.944,19.272001,eccentric,3,3.0,28746.0,380894.0,341394.0,399864.0,344061.0
2026-04-07 17:46:02.308588,188867,1032686307,1032687790,0.880352,-0.236192,0.01952,-21.8925,22.91625,-32.38375,-13.048,-12.496,20.320002,eccentric,3,3.0,28746.0,380894.0,341394.0,399864.0,344061.0
2026-04-07 17:46:02.313049,188868,1032695228,1032696589,0.7808,-0.206912,-0.060512,-0.79625,23.75625,-24.5525,-12.656,-12.752001,19.880001,eccentric,3,3.0,28746.0,380894.0,341394.0,399864.0,344061.0
2026-04-07 17:46:02.314790,188869,1032704124,1032705263,0.7808,-0.206912,-0.060512,-8.9775,23.79125,-30.82625,-12.656,-12.752001,19.880001,eccentric,3,3.0,28746.0,380894.0,341394.0,399864.0,344061.0
2026-04-07 17:46:02.348645,188880,1032713489,1032714030,0.784704,-0.212768,-0.017568,-10.99,22.75,-28.62125,-12.656,-13.200001,19.480001,eccentric,3,3.0,28349.0,377324.0,338354.0,396564.0,341164.0
2026-04-07 17:46:02.350030,188881,1032728547,1032729022,0.784704,-0.212768,-0.017568,-10.7275,22.11125,-28.595,-12.464001,-13.200001,19.480001,eccentric,3,3.0,28349.0,377324.0,338354.0,396564.0,341164.0
2026-04-07 17:46:02.354258,188882,1032737924,1032739845,0.802272,-0.28304,-0.011712,-9.37125,20.4225,-31.29,-13.168,-14.288001,22.368002,eccentric,3,3.0,28349.0,377324.0,338354.0,396564.0,341164.0
2026-04-07 17:46:02.355951,188883,1032746856,1032748593,0.802272,-0.28304,-0.011712,-7.1925,18.61125,-28.56875,-13.168,-14.288001,22.368002,eccentric,3,3.0,28349.0,377324.0,338354.0,396564.0,341164.0
2026-04-07 17:46:02.357842,188884,1032755815,1032757329,0.872544,-0.21472,-0.01952,-5.83625,18.15625,-26.22375,-12.496,-14.432001,20.152,eccentric,3,3.0,28349.0,377324.0,338354.0,396564.0,341164.0
2026-04-07 17:46:02.413562,188885,1032770332,1032772293,0.872544,-0.21472,-0.01952,-6.09,19.95,-27.0025,-12.496,-14.432001,20.152,eccentric,3,3.0,28349.0,377324.0,338354.0,396564.0,341164.0
2026-04-07 17:46:02.418050,188886,1032779227,1032780993,0.870592,-0.18544,0.003904,-6.685,22.26,-29.60125,-12.880001,-13.76,20.752,eccentric,3,3.0,28349.0,377324.0,338354.0,396564.0,341164.0
2026-04-07 17:46:02.419702,188887,1032788143,1032789674,0.870592,-0.18544,0.003904,-6.9125,23.5025,-30.84375,-12.880001,-13.76,20.752,eccentric,3,3.0,28349.0,377324.0,338354.0,396564.0,341164.0
2026-04-07 17:46:02.422208,188888,1032802670,1032804570,0.8296,-0.255712,-0.003904,-8.95125,22.8375,-30.35375,-11.984,-14.344001,20.536001,eccentric,3,3.0,28349.0,377324.0,338354.0,396564.0,341164.0
2026-04-07 17:46:02.451005,188898,1032811571,1032813236,0.8296,-0.255712,-0.003904,-9.38875,21.63,-27.991251,-11.984,-14.344001,20.536001,eccentric,3,3.0,27794.0,372896.0,334792.0,392770.0,337848.0
2026-04-07 17:46:02.452679,188899,1032820592,1032821937,0.798368,-0.238144,-0.017568,-6.58875,18.8825,-24.9025,-12.280001,-14.744,20.92,eccentric,3,3.0,27794.0,372896.0,334792.0,392770.0,337848.0
2026-04-07 17:46:02.456740,188900,1032835163,1032836915,0.825696,-0.179584,-0.0488,-5.41625,15.5225,-21.805,-13.080001,-14.832001,22.464,eccentric,3,3.0,27794.0,372896.0,334792.0,392770.0,337848.0
2026-04-07 17:46:02.458469,188901,1032844174,1032845636,0.825696,-0.179584,-0.0488,-5.60875,13.51,-20.825,-13.080001,-14.832001,22.464,eccentric,3,3.0,27794.0,372896.0,334792.0,392770.0,337848.0
2026-04-07 17:46:02.460168,188902,1032853206,1032854429,0.825696,-0.148352,0.142496,-9.63375,15.9425,-23.09125,-13.080001,-14.832001,22.464,eccentric,3,3.0,27794.0,372896.0,334792.0,392770.0,337848.0
2026-04-07 17:46:02.464205,188903,1032862267,1032863166,0.894016,-0.148352,0.142496,-19.92375,19.285,-26.6875,-12.6,-14.984001,20.704,eccentric,3,3.0,27794.0,372896.0,334792.0,392770.0,337848.0
2026-04-07 17:46:02.492938,188904,1032876761,1032878056,0.755424,-0.218624,0.035136,-23.19625,22.47875,-26.6,-12.68,-15.968,22.256,eccentric,3,3.0,27794.0,372896.0,334792.0,392770.0,337848.0
2026-04-07 17:46:02.497209,188905,1032885671,1032886760,0.755424,-0.218624,0.035136,-30.695,23.56375,-28.93625,-12.68,-15.968,22.256,eccentric,3,3.0,27794.0,372896.0,334792.0,392770.0,337848.0
2026-04-07 17:46:02.499531,188906,1032894624,1032895448,0.817888,-0.21472,-0.027328,-31.3775,22.26,-24.605,-12.168,-15.488001,20.552,eccentric,3,3.0,27794.0,372896.0,334792.0,392770.0,337848.0
2026-04-07 17:46:02.530043,188907,1032909166,1032910349,0.817888,-0.21472,-0.027328,-30.625,20.02875,-20.44875,-12.168,-15.488001,20.552,eccentric,3,3.0,27794.0,372896.0,334792.0,392770.0,337848.0
2026-04-07 17:46:02.564329,188917,1032918208,1032919076,0.827648,-0.11712,0.011712,-30.205,19.76625,-19.6175,-12.6,-15.984001,22.896002,eccentric,3,3.0,27598.0,371107.0,333425.0,391316.0,336897.0
2026-04-07 17:46:02.566006,188918,1032927212,1032927803,0.827648,-0.11712,0.011712,-26.67,20.34375,-19.04,-12.6,-15.984001,22.896002,eccentric,3,3.0,27598.0,371107.0,333425.0,391316.0,336897.0
2026-04-07 17:46:02.568119,188919,1032942003,1032942750,0.821792,-0.206912,0.003904,-23.275,19.7225,-20.0025,-12.296001,-16.048,21.664001,eccentric,3,3.0,27598.0,371107.0,333425.0,391316.0,336897.0
2026-04-07 17:46:02.571990,188920,1032951339,1032953506,0.821792,-0.206912,0.003904,-22.40875,19.6175,-21.866251,-12.296001,-16.048,21.664001,eccentric,3,3.0,27598.0,371107.0,333425.0,391316.0,336897.0
2026-04-07 17:46:02.573481,188921,1032960296,1032962224,0.831552,-0.160064,0.056608,-29.37375,21.35875,-24.75375,-12.392,-16.184,23.312,eccentric,3,3.0,27598.0,371107.0,333425.0,391316.0,336897.0
2026-04-07 17:46:02.575020,188922,1032969257,1032970944,0.831552,-0.160064,0.056608,-29.70625,19.4775,-21.7525,-12.392,-16.184,23.312,eccentric,3,3.0,27598.0,371107.0,333425.0,391316.0,336897.0
2026-04-07 17:46:02.582851,188923,1032983853,1032985841,0.812032,-0.177632,-0.023424,-32.17375,17.675,-19.775,-11.928,-16.584002,23.800001,eccentric,3,3.0,27598.0,371107.0,333425.0,391316.0,336897.0
2026-04-07 17:46:02.611533,188924,1032992794,1032994555,0.812032,-0.177632,-0.023424,-35.76125,16.72125,-20.04625,-11.928,-16.584002,23.800001,eccentric,3,3.0,27598.0,371107.0,333425.0,391316.0,336897.0
2026-04-07 17:46:02.616043,188925,1033001763,1033003264,0.862784,-0.167872,0.031232,-32.445,16.616251,-18.38375,-12.160001,-16.912,19.632002,eccentric,3,3.0,27598.0,371107.0,333425.0,391316.0,336897.0
2026-04-07 17:46:02.644262,188936,1033016864,1033018509,0.831552,-0.142496,0.046848,-29.8375,17.64875,-21.2625,-11.688001,-16.752,22.104002,eccentric,3,3.0,27492.0,370266.0,332645.0,390428.0,336142.0
2026-04-07 17:46:02.646030,188937,1033026055,1033027282,0.831552,-0.142496,0.046848,-26.83625,18.7075,-23.1175,-11.688001,-16.752,22.104002,eccentric,3,3.0,27492.0,370266.0,332645.0,390428.0,336142.0
2026-04-07 17:46:02.647541,188938,1033035015,1033036010,0.847168,-0.140544,-0.083936,-24.9375,18.57625,-23.7475,-12.480001,-17.912,24.536001,eccentric,3,3.0,27492.0,370266.0,332645.0,390428.0,336142.0
2026-04-07 17:46:02.652241,188939,1033043953,1033044745,0.847168,-0.140544,-0.083936,-28.72625,17.57,-23.52875,-12.480001,-17.912,24.536001,eccentric,3,3.0,27492.0,370266.0,332645.0,390428.0,336142.0
2026-04-07 17:46:02.660413,188940,1033058521,1033059649,0.823744,-0.181536,-0.001952,-30.765,17.3075,-21.44625,-12.792001,-17.888,25.376001,eccentric,3,3.0,27492.0,370266.0,332645.0,390428.0,336142.0
2026-04-07 17:46:02.689902,188941,1033067438,1033068339,0.823744,-0.181536,-0.001952,-32.12125,16.0125,-20.86,-12.792001,-17.888,25.376001,eccentric,3,3.0,27492.0,370266.0,332645.0,390428.0,336142.0
2026-04-07 17:46:02.693017,188942,1033076417,1033077058,0.862784,-0.148352,0.027328,-29.435,15.30375,-20.83375,-12.344001,-17.488,23.2,eccentric,3,3.0,27492.0,370266.0,332645.0,390428.0,336142.0
2026-04-07 17:46:02.694596,188943,1033085799,1033087823,0.862784,-0.148352,0.027328,-25.01625,16.02125,-22.21625,-12.344001,-17.488,23.2,eccentric,3,3.0,27492.0,370266.0,332645.0,390428.0,336142.0
2026-04-07 17:46:02.698343,188944,1033100313,1033100689,0.815936,-0.144448,0.03904,-20.23,16.86125,-24.1325,-11.944,-17.672,23.216002,eccentric,3,3.0,27492.0,370266.0,332645.0,390428.0,336142.0
2026-04-07 17:46:02.730101,188945,1033109623,1033111447,0.815936,-0.144448,0.03904,-16.4675,16.12625,-24.85875,-11.944,-17.672,23.216002,eccentric,3,3.0,27492.0,370266.0,332645.0,390428.0,336142.0
2026-04-07 17:46:02.755222,188955,1033118723,1033120242,0.808128,-0.138592,-0.007808,-15.75875,14.6125,-24.465,-11.864,-18.144001,23.672,eccentric,3,3.0,27480.0,369762.0,332206.0,389779.0,335559.0
2026-04-07 17:46:02.756664,188956,1033133260,1033135164,0.808128,-0.138592,-0.007808,-18.0775,12.11875,-22.44375,-11.864,-18.144001,23.672,eccentric,3,3.0,27480.0,369762.0,332206.0,389779.0,335559.0
2026-04-07 17:46:02.759826,188957,1033142198,1033143870,0.823744,-0.17568,0.046848,-19.57375,9.17,-19.55625,-12.008,-17.944,23.088001,eccentric,3,3.0,27480.0,369762.0,332206.0,389779.0,335559.0
2026-04-07 17:46:02.761220,188958,1033151274,1033152606,0.823744,-0.17568,0.046848,-20.615,8.37375,-17.78875,-12.008,-17.944,23.088001,eccentric,3,3.0,27480.0,369762.0,332206.0,389779.0,335559.0
2026-04-07 17:46:02.763398,188959,1033160234,1033161323,0.815936,-0.10736,0.031232,-16.49375,8.6275,-16.7825,-12.208,-18.344002,23.448002,eccentric,3,3.0,27480.0,369762.0,332206.0,389779.0,335559.0
2026-04-07 17:46:02.834900,188960,1033174758,1033176251,0.80032,-0.124928,0.02928,-14.0875,10.59625,-17.98125,-12.208,-18.344002,25.496,eccentric,3,3.0,27480.0,369762.0,332206.0,389779.0,335559.0
2026-04-07 17:46:02.837359,188961,1033183702,1033184946,0.798368,-0.124928,0.02928,-13.25625,12.355001,-19.022501,-11.536,-18.480001,25.696001,eccentric,3,3.0,27480.0,369762.0,332206.0,389779.0,335559.0
2026-04-07 17:46:02.848167,188962,1033192621,1033193686,0.798368,-0.124928,0.02928,-13.86875,12.32,-18.83875,-11.536,-18.480001,25.696001,eccentric,3,3.0,27480.0,369762.0,332206.0,389779.0,335559.0
2026-04-07 17:46:02.849871,188963,1033207094,1033208552,0.8296,-0.189344,0.007808,-14.35875,10.49125,-18.803751,-11.64,-18.632,23.672,eccentric,3,3.0,27480.0,369762.0,332206.0,389779.0,335559.0
2026-04-07 17:46:02.873765,188973,1033216250,1033217916,0.817888,-0.119072,0.013664,-12.31125,8.40875,-16.82625,-11.152,-18.976002,23.984001,eccentric,3,3.0,27881.0,373036.0,334790.0,392537.0,338108.0
2026-04-07 17:46:02.877981,188974,1033225216,1033226603,0.817888,-0.119072,0.013664,-10.92,7.39375,-14.805,-11.152,-18.976002,23.984001,eccentric,3,3.0,27881.0,373036.0,334790.0,392537.0,338108.0
2026-04-07 17:46:02.880920,188975,1033239737,1033241501,0.823744,-0.128832,0.03904,-9.6075,6.405,-13.195,-11.240001,-18.832,24.192001,eccentric,3,3.0,27881.0,373036.0,334790.0,392537.0,338108.0
2026-04-07 17:46:02.886731,188976,1033248707,1033250240,0.823744,-0.128832,0.03904,-7.665,5.71375,-12.425,-11.240001,-18.832,24.192001,eccentric,3,3.0,27881.0,373036.0,334790.0,392537.0,338108.0
2026-04-07 17:46:02.888482,188977,1033257657,1033258935,0.80032,-0.181536,-0.015616,-4.94375,4.22625,-12.15375,-12.56,-18.992,24.952002,eccentric,3,3.0,27881.0,373036.0,334790.0,392537.0,338108.0
2026-04-07 17:46:02.892330,188978,1033272227,1033273889,0.80032,-0.181536,-0.015616,-1.11125,1.74125,-10.6225,-12.56,-18.992,24.952002,eccentric,3,3.0,27881.0,373036.0,334790.0,392537.0,338108.0
2026-04-07 17:46:02.892647,188979,1033281261,1033282649,0.806176,-0.121024,-0.007808,0.51625,-0.20125,-8.6625,-12.136001,-19.032001,25.28,eccentric,3,3.0,27881.0,373036.0,334790.0,392537.0,338108.0
2026-04-07 17:46:02.895006,188980,1033290252,1033291338,0.806176,-0.121024,-0.007808,0.56875,-1.53125,-6.195,-12.136001,-19.032001,25.28,eccentric,3,3.0,27881.0,373036.0,334790.0,392537.0,338108.0
2026-04-07 17:46:02.898304,188981,1033299194,1033300038,0.81008,-0.1464,-0.005856,-3.08875,-2.17875,-4.305,-11.416,-18.944,24.184002,eccentric,3,3.0,27881.0,373036.0,334790.0,392537.0,338108.0
2026-04-07 17:46:02.928704,188982,1033313692,1033315045,0.81008,-0.1464,-0.005856,-6.09875,-3.35125,-4.235,-11.416,-18.944,24.184002,eccentric,3,3.0,27881.0,373036.0,334790.0,392537.0,338108.0
2026-04-07 17:46:02.957199,188993,1033322658,1033323814,0.80032,-0.150304,-0.003904,-3.045,-3.29,-4.76,-12.216001,-18.656,23.712002,eccentric,3,3.0,28234.0,375784.0,336986.0,394838.0,340185.0
2026-04-07 17:46:02.958779,188994,1033331578,1033332510,0.80032,-0.150304,-0.003904,3.77125,-3.7275,-3.675,-12.216001,-18.656,23.712002,eccentric,3,3.0,28234.0,375784.0,336986.0,394838.0,340185.0
2026-04-07 17:46:02.962988,188995,1033346091,1033347463,0.817888,-0.132736,-0.025376,6.92125,-4.08625,-3.29,-11.784,-18.584002,24.072,eccentric,3,3.0,28234.0,375784.0,336986.0,394838.0,340185.0
2026-04-07 17:46:02.964638,188996,1033355058,1033356224,0.817888,-0.132736,0.005856,7.0175,-4.865,-2.02125,-11.784,-18.584002,24.072,eccentric,3,3.0,28234.0,375784.0,336986.0,394838.0,340185.0
2026-04-07 17:46:02.966261,188997,1033363980,1033364981,0.84912,-0.121024,0.011712,5.8625,-4.9,-1.09375,-12.504001,-18.888,25.320002,eccentric,3,3.0,28234.0,375784.0,336986.0,394838.0,340185.0
2026-04-07 17:46:02.996475,188998,1033378471,1033379879,0.884256,-0.134688,0.011712,5.25875,-4.48875,-0.735,-12.672001,-18.824001,24.68,eccentric,3,3.0,28234.0,375784.0,336986.0,394838.0,340185.0
2026-04-07 17:46:03.000985,188999,1033387386,1033388605,0.884256,-0.134688,0.011712,6.79,-2.87875,-0.91875,-12.672001,-18.824001,24.68,eccentric,3,3.0,28234.0,375784.0,336986.0,394838.0,340185.0
2026-04-07 17:46:03.002650,189000,1033396273,1033397321,0.882304,-0.13664,0.001952,8.89875,-1.4875,-0.5775,-11.696,-18.416,23.224,eccentric,3,3.0,28234.0,375784.0,336986.0,394838.0,340185.0
2026-04-07 17:46:03.006607,189001,1033405160,1033406001,0.882304,-0.13664,0.001952,10.605001,-0.945,0.30625,-11.696,-18.416,23.224,eccentric,3,3.0,28234.0,375784.0,336986.0,394838.0,340185.0
2026-04-07 17:46:03.061760,189011,1033419964,1033420957,0.870592,-0.12688,0.005856,9.94,-1.21625,-0.035,-11.488001,-18.752,23.552002,eccentric,3,3.0,28380.0,376931.0,337869.0,395790.0,341085.0
2026-04-07 17:46:03.063461,189012,1033428955,1033429716,0.870592,-0.12688,0.005856,9.70375,-1.8375,0.2975,-11.488001,-18.752,23.552002,eccentric,3,3.0,28380.0,376931.0,337869.0,395790.0,341085.0
2026-04-07 17:46:03.065147,189013,1033438371,1033440485,0.83936,-0.158112,-0.021472,10.49125,-3.40375,1.925,-11.752001,-18.352001,23.616001,eccentric,3,3.0,28380.0,376931.0,337869.0,395790.0,341085.0
2026-04-07 17:46:03.069263,189014,1033453028,1033453358,0.83936,-0.158112,-0.021472,10.71,-5.215,2.8,-11.752001,-18.352001,23.616001,eccentric,3,3.0,28380.0,376931.0,337869.0,395790.0,341085.0
2026-04-07 17:46:03.070975,189015,1033462287,1033464127,0.813984,-0.111264,-0.023424,11.24375,-7.21875,3.35125,-11.152,-18.336,23.28,eccentric,3,3.0,28380.0,376931.0,337869.0,395790.0,341085.0
2026-04-07 17:46:03.072556,189016,1033471256,1033472875,0.813984,-0.111264,-0.023424,13.3525,-8.23375,3.815,-11.152,-18.336,23.28,eccentric,3,3.0,28380.0,376931.0,337869.0,395790.0,341085.0
2026-04-07 17:46:03.079138,189017,1033480174,1033481575,0.81984,-0.08784,0.015616,14.63,-8.77625,3.24625,-11.928,-18.224,24.344002,eccentric,3,3.0,28380.0,376931.0,337869.0,395790.0,341085.0
2026-04-07 17:46:03.119836,189018,1033494637,1033496487,0.81984,-0.08784,0.015616,15.89,-8.417501,1.89,-11.928,-18.224,24.344002,eccentric,3,3.0,28380.0,376931.0,337869.0,395790.0,341085.0
2026-04-07 17:46:03.122106,189019,1033503557,1033505185,0.802272,-0.152256,-0.017568,16.89625,-8.96875,1.155,-12.408001,-18.12,22.376001,eccentric,3,3.0,28380.0,376931.0,337869.0,395790.0,341085.0
2026-04-07 17:46:03.126882,189020,1033512484,1033513925,0.802272,-0.152256,-0.017568,17.605,-10.29875,1.785,-12.408001,-18.12,22.376001,eccentric,3,3.0,28380.0,376931.0,337869.0,395790.0,341085.0
2026-04-07 17:46:03.150929,189030,1033526989,1033528832,0.782752,-0.158112,-0.01952,18.92625,-12.45125,3.28125,-11.352,-17.672,22.776001,eccentric,3,3.0,28383.0,376786.0,337607.0,395419.0,340773.0
2026-04-07 17:46:03.152452,189031,1033535939,1033537558,0.782752,-0.158112,-0.025376,19.3725,-13.9475,6.195,-11.352,-17.672,22.776001,eccentric,3,3.0,28383.0,376786.0,337607.0,395419.0,340773.0
2026-04-07 17:46:03.156750,189032,1033544996,1033546309,0.788608,-0.160064,-0.025376,18.2175,-16.12625,9.47625,-12.344001,-18.12,24.728,eccentric,3,3.0,28383.0,376786.0,337607.0,395419.0,340773.0
2026-04-07 17:46:03.159373,189033,1033559509,1033561275,0.776896,-0.144448,-0.054656,16.35375,-16.3275,11.50625,-11.912001,-17.544,23.800001,eccentric,3,3.0,28383.0,376786.0,337607.0,395419.0,340773.0
2026-04-07 17:46:03.167899,189034,1033568469,1033570052,0.776896,-0.144448,-0.054656,15.96875,-16.02125,12.6,-11.912001,-17.544,23.800001,eccentric,3,3.0,28383.0,376786.0,337607.0,395419.0,340773.0
2026-04-07 17:46:03.196419,189035,1033577418,1033578770,0.786656,-0.154208,-0.021472,14.665,-15.5575,13.11625,-11.616,-17.424002,24.080002,eccentric,3,3.0,28383.0,376786.0,337607.0,395419.0,340773.0
2026-04-07 17:46:03.200936,189036,1033586329,1033587479,0.786656,-0.154208,-0.021472,13.08125,-14.105001,12.95875,-11.616,-17.424002,24.080002,eccentric,3,3.0,28383.0,376786.0,337607.0,395419.0,340773.0
2026-04-07 17:46:03.202598,189037,1033600783,1033602438,0.76128,-0.208864,-0.064416,13.39625,-13.265,13.11625,-12.168,-17.104,22.112001,eccentric,3,3.0,28383.0,376786.0,337607.0,395419.0,340773.0
2026-04-07 17:46:03.209188,189038,1033609728,1033611141,0.76128,-0.208864,-0.064416,13.86,-14.56,14.86625,-12.168,-17.104,22.112001,eccentric,3,3.0,28383.0,376786.0,337607.0,395419.0,340773.0
2026-04-07 17:46:03.251309,189049,1033618698,1033620099,0.776896,-0.158112,-0.056608,13.11625,-15.8725,16.84375,-12.456,-17.016,23.752,eccentric,3,3.0,27934.0,373326.0,334825.0,392433.0,338059.0
2026-04-07 17:46:03.255756,189050,1033633269,1033635077,0.776896,-0.158112,-0.056608,14.37625,-15.855001,17.96375,-12.456,-17.016,23.752,eccentric,3,3.0,27934.0,373326.0,334825.0,392433.0,338059.0
2026-04-07 17:46:03.261769,189051,1033642250,1033643824,0.84912,-0.173728,-0.05856,14.3675,-17.2375,18.50625,-12.216001,-17.152,21.472,eccentric,3,3.0,27934.0,373326.0,334825.0,392433.0,338059.0
2026-04-07 17:46:03.263516,189052,1033651207,1033652564,0.84912,-0.173728,-0.05856,14.0875,-16.4325,16.28375,-12.216001,-17.152,21.472,concentric,3,3.0,27934.0,373326.0,334825.0,392433.0,338059.0
2026-04-07 17:46:03.265028,189053,1033665687,1033667479,0.798368,-0.163968,-0.093696,18.025,-13.95625,14.06125,-11.872001,-16.448,21.344002,concentric,3,3.0,27934.0,373326.0,334825.0,392433.0,338059.0
2026-04-07 17:46:03.296152,189054,1033674594,1033676199,0.798368,-0.163968,-0.093696,19.73125,-14.175,11.9,-11.872001,-16.448,21.344002,concentric,3,3.0,27934.0,373326.0,334825.0,392433.0,338059.0
2026-04-07 17:46:03.298385,189055,1033683558,1033684903,0.894016,-0.1952,-0.050752,18.235,-13.9475,10.85,-12.688001,-15.728001,19.048,concentric,3,3.0,27934.0,373326.0,334825.0,392433.0,338059.0
2026-04-07 17:46:03.302950,189056,1033698033,1033699894,0.81984,-0.203008,-0.083936,15.65375,-11.9875,10.4475,-11.952001,-16.088001,20.976002,concentric,3,3.0,27934.0,373326.0,334825.0,392433.0,338059.0
2026-04-07 17:46:03.305185,189057,1033706918,1033708645,0.81984,-0.203008,-0.083936,16.24,-10.98125,10.4825,-11.952001,-16.088001,20.976002,concentric,3,3.0,27934.0,373326.0,334825.0,392433.0,338059.0
2026-04-07 17:46:03.336177,189058,1033715858,1033717334,0.81984,-0.203008,-0.083936,15.32125,-11.85625,10.77125,-11.952001,-16.088001,20.976002,concentric,3,3.0,27934.0,373326.0,334825.0,392433.0,338059.0
2026-04-07 17:46:03.363008,189068,1033724856,1033726114,0.90768,-0.177632,-0.035136,14.65625,-10.71,10.12375,-12.224001,-15.64,20.872002,concentric,3,3.0,27811.0,372565.0,334372.0,392076.0,337951.0
2026-04-07 17:46:03.364757,189069,1033739347,1033741082,0.813984,-0.191296,-0.0976,16.0825,-8.7325,8.1375,-12.424001,-15.920001,21.136002,concentric,3,3.0,27811.0,372565.0,334372.0,392076.0,337951.0
2026-04-07 17:46:03.366255,189070,1033748305,1033749890,0.813984,-0.191296,-0.0976,17.99875,-9.40625,6.92125,-12.424001,-15.920001,21.136002,concentric,3,3.0,27811.0,372565.0,334372.0,392076.0,337951.0
2026-04-07 17:46:03.370375,189071,1033757280,1033758702,0.847168,-0.206912,-0.070272,19.2675,-11.0775,6.895,-12.424001,-15.920001,24.024002,concentric,3,3.0,27811.0,372565.0,334372.0,392076.0,337951.0
2026-04-07 17:46:03.385778,189072,1033771790,1033773617,0.847168,-0.206912,-0.070272,19.71375,-12.18875,7.385,-12.488001,-15.736001,24.024002,concentric,3,3.0,27811.0,372565.0,334372.0,392076.0,337951.0
2026-04-07 17:46:03.418782,189073,1033780780,1033782364,0.866688,-0.167872,-0.03904,20.16875,-12.81875,7.69125,-11.84,-15.472001,21.512001,concentric,3,3.0,27811.0,372565.0,334372.0,392076.0,337951.0
2026-04-07 17:46:03.420975,189074,1033789817,1033791080,0.866688,-0.167872,-0.03904,18.62,-11.71625,6.86,-11.84,-15.472001,21.512001,concentric,3,3.0,27811.0,372565.0,334372.0,392076.0,337951.0
2026-04-07 17:46:03.425639,189075,1033804316,1033806024,0.806176,-0.193248,-0.060512,18.375,-9.65125,5.565,-11.976001,-15.160001,21.096,concentric,3,3.0,27811.0,372565.0,334372.0,392076.0,337951.0
2026-04-07 17:46:03.427098,189076,1033813346,1033814746,0.806176,-0.193248,-0.060512,18.41875,-7.79625,4.9,-11.976001,-15.160001,21.096,concentric,3,3.0,27811.0,372565.0,334372.0,392076.0,337951.0
2026-04-07 17:46:03.462979,189086,1033822437,1033823518,0.798368,-0.230336,-0.056608,17.80625,-7.67375,5.565,-12.544001,-14.752001,20.816002,concentric,3,3.0,27762.0,372099.0,334048.0,391769.0,337683.0
2026-04-07 17:46:03.464881,189087,1033831399,1033832221,0.798368,-0.230336,-0.056608,18.305,-7.98,6.475,-12.544001,-14.752001,20.816002,concentric,3,3.0,27762.0,372099.0,334048.0,391769.0,337683.0
2026-04-07 17:46:03.466289,189088,1033845956,1033847147,0.755424,-0.1952,-0.081984,19.53875,-9.37125,7.7175,-12.832001,-15.008,20.768002,concentric,3,3.0,27762.0,372099.0,334048.0,391769.0,337683.0
2026-04-07 17:46:03.470632,189089,1033854900,1033855929,0.755424,-0.1952,-0.081984,19.9325,-11.235,9.52,-12.832001,-15.008,20.768002,concentric,3,3.0,27762.0,372099.0,334048.0,391769.0,337683.0
2026-04-07 17:46:03.474595,189090,1033863870,1033864674,0.77104,-0.181536,-0.056608,17.465,-11.2175,9.84375,-13.200001,-15.008,21.936,concentric,3,3.0,27762.0,372099.0,334048.0,391769.0,337683.0
2026-04-07 17:46:03.481638,189091,1033878493,1033879566,0.794464,-0.230336,-0.083936,17.22,-10.6575,9.9225,-13.168,-14.448001,21.456001,concentric,3,3.0,27762.0,372099.0,334048.0,391769.0,337683.0
2026-04-07 17:46:03.487859,189092,1033887437,1033888249,0.794464,-0.230336,-0.083936,16.0475,-10.05375,9.59875,-13.168,-14.448001,21.456001,concentric,3,3.0,27762.0,372099.0,334048.0,391769.0,337683.0
2026-04-07 17:46:03.494105,189093,1033896389,1033897009,0.794464,-0.230336,-0.083936,15.2775,-9.8,8.9775,-13.168,-14.448001,21.456001,concentric,3,3.0,27762.0,372099.0,334048.0,391769.0,337683.0
2026-04-07 17:46:03.522635,189094,1033911319,1033911915,0.784704,-0.222528,-0.083936,16.205,-8.96,9.1525,-12.688001,-14.224001,20.160002,concentric,3,3.0,27762.0,372099.0,334048.0,391769.0,337683.0
2026-04-07 17:46:03.557531,189105,1033920956,1033922752,0.823744,-0.238144,-0.070272,16.2575,-8.9775,10.045,-12.584001,-13.856001,20.656,concentric,3,3.0,27741.0,372071.0,334036.0,391794.0,337574.0
2026-04-07 17:46:03.561755,189106,1033930069,1033931470,0.823744,-0.238144,-0.070272,12.0575,-8.74125,9.9575,-12.584001,-13.856001,20.656,concentric,3,3.0,27741.0,372071.0,334036.0,391794.0,337574.0
2026-04-07 17:46:03.564220,189107,1033939188,1033940239,0.808128,-0.247904,-0.0976,11.62,-8.2425,10.42125,-13.048,-14.064001,24.144001,concentric,3,3.0,27741.0,372071.0,334036.0,391794.0,337574.0
2026-04-07 17:46:03.570551,189108,1033953779,1033955272,0.808128,-0.247904,-0.0976,13.23875,-7.7,10.255,-13.048,-14.064001,24.144001,concentric,3,3.0,27741.0,372071.0,334036.0,391794.0,337574.0
2026-04-07 17:46:03.572932,189109,1033962722,1033964001,0.802272,-0.208864,-0.111264,14.13125,-7.67375,9.02125,-12.512001,-13.360001,20.096,concentric,3,3.0,27741.0,372071.0,334036.0,391794.0,337574.0
2026-04-07 17:46:03.577221,189110,1033971699,1033972742,0.802272,-0.208864,-0.111264,15.44375,-7.875,7.72625,-12.512001,-13.360001,20.096,concentric,3,3.0,27741.0,372071.0,334036.0,391794.0,337574.0
2026-04-07 17:46:03.578797,189111,1033980699,1033981441,0.843264,-0.238144,-0.103456,17.01,-8.74125,5.5825,-13.904,-13.6,21.864,concentric,3,3.0,27741.0,372071.0,334036.0,391794.0,337574.0
2026-04-07 17:46:03.609839,189112,1033995626,1033996386,0.843264,-0.238144,-0.103456,14.98875,-8.05,3.01,-13.904,-13.6,21.864,concentric,3,3.0,27741.0,372071.0,334036.0,391794.0,337574.0
2026-04-07 17:46:03.613340,189113,1034004981,1034007173,0.813984,-0.265472,-0.064416,14.41125,-7.51625,3.43,-12.504001,-13.632001,19.480001,concentric,3,3.0,27741.0,372071.0,334036.0,391794.0,337574.0
2026-04-07 17:46:03.615046,189114,1034013904,1034015874,0.813984,-0.265472,-0.064416,13.29125,-6.51,3.7975,-12.504001,-13.632001,19.480001,concentric,3,3.0,27741.0,372071.0,334036.0,391794.0,337574.0
2026-04-07 17:46:03.651846,189124,1034023281,1034024633,0.794464,-0.247904,-0.06832,12.88,-6.39625,5.06625,-13.336,-13.080001,19.528002,concentric,3,3.0,28053.0,374782.0,336263.0,394253.0,339726.0
2026-04-07 17:46:03.653455,189125,1034037877,1034039582,0.794464,-0.247904,-0.099552,14.1575,-6.72,6.965,-13.336,-13.080001,19.528002,concentric,3,3.0,28053.0,374782.0,336263.0,394253.0,339726.0
2026-04-07 17:46:03.655116,189126,1034046806,1034048324,0.81008,-0.20496,-0.10736,13.895,-7.1575,7.42875,-13.344001,-12.8,18.696001,concentric,3,3.0,28053.0,374782.0,336263.0,394253.0,339726.0
2026-04-07 17:46:03.659493,189127,1034055812,1034057026,0.81008,-0.20496,-0.10736,11.4975,-8.4875,5.7925,-13.344001,-12.8,18.696001,concentric,3,3.0,28053.0,374782.0,336263.0,394253.0,339726.0
2026-04-07 17:46:03.720625,189128,1034070329,1034071922,0.796416,-0.220576,-0.083936,10.03625,-8.9075,4.2,-13.336,-12.824,19.936,concentric,3,3.0,28053.0,374782.0,336263.0,394253.0,339726.0
2026-04-07 17:46:03.722033,189129,1034079287,1034080739,0.804224,-0.290848,-0.064416,11.43625,-9.17,4.73375,-14.776001,-12.848001,22.968,concentric,3,3.0,28053.0,374782.0,336263.0,394253.0,339726.0
2026-04-07 17:46:03.729285,189130,1034088200,1034089419,0.804224,-0.290848,-0.064416,10.21125,-10.24625,5.4075,-14.776001,-12.848001,22.968,concentric,3,3.0,28053.0,374782.0,336263.0,394253.0,339726.0
2026-04-07 17:46:03.730953,189131,1034102760,1034104284,0.79056,-0.249856,-0.101504,9.45,-10.78,6.6675,-13.152,-12.064,19.472,concentric,3,3.0,28053.0,374782.0,336263.0,394253.0,339726.0
2026-04-07 17:46:03.732640,189132,1034111727,1034112989,0.79056,-0.249856,-0.101504,9.7825,-10.9025,8.68,-13.152,-12.064,19.472,concentric,3,3.0,28053.0,374782.0,336263.0,394253.0,339726.0
2026-04-07 17:46:03.757740,189142,1034121147,1034121808,0.8296,-0.216672,-0.081984,9.730001,-11.41875,8.225,-13.448001,-12.072001,19.344002,concentric,3,3.0,29133.0,383514.0,343350.0,401814.0,346500.0
2026-04-07 17:46:03.765586,189143,1034130282,1034130659,0.8296,-0.216672,-0.081984,9.72125,-10.64,6.3525,-13.448001,-12.072001,19.344002,concentric,3,3.0,29133.0,383514.0,343350.0,401814.0,346500.0
2026-04-07 17:46:03.767765,189144,1034145247,1034145635,0.81984,-0.259616,-0.124928,10.96375,-11.095,5.1275,-13.76,-12.480001,20.112001,concentric,3,3.0,29133.0,383514.0,343350.0,401814.0,346500.0
2026-04-07 17:46:03.768801,189145,1034154553,1034156478,0.81984,-0.259616,-0.124928,10.7625,-12.39,3.45625,-13.76,-12.480001,20.112001,concentric,3,3.0,29133.0,383514.0,343350.0,401814.0,346500.0
2026-04-07 17:46:03.772981,189146,1034163495,1034165182,0.831552,-0.265472,-0.11712,11.2,-13.72875,3.0275,-13.896001,-12.704,20.152,concentric,3,3.0,29133.0,383514.0,343350.0,401814.0,346500.0
2026-04-07 17:46:03.775458,189147,1034172500,1034173945,0.831552,-0.265472,-0.11712,13.0025,-14.63,2.7475,-13.896001,-12.704,20.152,concentric,3,3.0,29133.0,383514.0,343350.0,401814.0,346500.0
2026-04-07 17:46:03.803950,189148,1034186996,1034188879,0.851072,-0.265472,-0.089792,15.015,-15.14625,2.4675,-14.000001,-12.104001,19.0,concentric,3,3.0,29133.0,383514.0,343350.0,401814.0,346500.0
2026-04-07 17:46:03.808393,189149,1034195903,1034197555,0.851072,-0.265472,-0.089792,13.74625,-15.35625,2.52875,-14.000001,-12.104001,19.0,concentric,3,3.0,29133.0,383514.0,343350.0,401814.0,346500.0
2026-04-07 17:46:03.814600,189150,1034204824,1034206254,0.853024,-0.27328,-0.105408,13.1775,-14.51625,2.555,-13.552001,-11.968,18.416,concentric,3,3.0,29133.0,383514.0,343350.0,401814.0,346500.0
2026-04-07 17:46:03.848536,189161,1034219312,1034221218,0.866688,-0.269376,-0.099552,11.2525,-13.57125,1.65375,-13.552001,-12.264001,23.264002,concentric,3,3.0,30407.0,393377.0,351326.0,403431.0,354244.0
2026-04-07 17:46:03.850694,189162,1034228274,1034229974,0.866688,-0.269376,-0.099552,10.31625,-12.915,1.39125,-14.624001,-12.264001,23.264002,concentric,3,3.0,30407.0,393377.0,351326.0,403431.0,354244.0
2026-04-07 17:46:03.854269,189163,1034237238,1034238790,0.866688,-0.269376,-0.099552,11.13,-11.76875,0.58625,-14.624001,-12.264001,23.264002,concentric,3,3.0,30407.0,393377.0,351326.0,403431.0,354244.0
2026-04-07 17:46:03.856710,189164,1034251752,1034253704,0.882304,-0.269376,-0.105408,11.47125,-11.03375,-0.13125,-14.120001,-11.8,19.984001,concentric,3,3.0,30407.0,393377.0,351326.0,403431.0,354244.0
2026-04-07 17:46:03.860337,189165,1034261483,1034262535,0.884256,-0.279136,-0.103456,12.41625,-10.10625,-0.18375,-14.664001,-11.904,19.800001,concentric,3,3.0,30407.0,393377.0,351326.0,403431.0,354244.0
2026-04-07 17:46:03.888954,189166,1034270408,1034271232,0.884256,-0.279136,-0.103456,13.2125,-9.16125,0.0525,-14.664001,-11.904,19.800001,concentric,3,3.0,30407.0,393377.0,351326.0,403431.0,354244.0
2026-04-07 17:46:03.893455,189167,1034279820,1034282015,0.870592,-0.27328,-0.134688,14.81375,-8.715,0.1575,-14.016001,-11.568001,18.08,concentric,3,3.0,30407.0,393377.0,351326.0,403431.0,354244.0
2026-04-07 17:46:03.895778,189168,1034294304,1034294933,0.870592,-0.27328,-0.134688,16.5725,-8.085,0.525,-14.016001,-11.568001,18.08,concentric,3,3.0,30407.0,393377.0,351326.0,403431.0,354244.0
2026-04-07 17:46:03.926134,189169,1034303553,1034305708,0.882304,-0.277184,-0.10736,15.015,-8.0325,0.62125,-14.552001,-11.744,19.528002,concentric,3,3.0,30407.0,393377.0,351326.0,403431.0,354244.0
2026-04-07 17:46:03.928426,189170,1034312504,1034314440,0.882304,-0.277184,-0.10736,13.34375,-7.81375,1.0675,-14.552001,-11.744,19.528002,concentric,3,3.0,30407.0,393377.0,351326.0,403431.0,354244.0
2026-04-07 17:46:03.953738,189180,1034321583,1034323186,0.909632,-0.304512,-0.103456,13.34375,-6.65,1.3125,-14.232,-11.248,17.560001,concentric,3,3.0,30819.0,396359.0,353731.0,403431.0,356483.0
2026-04-07 17:46:03.957984,189181,1034336102,1034338217,0.909632,-0.304512,-0.103456,12.6875,-4.7775,1.46125,-14.232,-11.248,17.560001,concentric,3,3.0,30819.0,396359.0,353731.0,403431.0,356483.0
2026-04-07 17:46:03.959700,189182,1034345106,1034346964,0.847168,-0.267424,-0.101504,12.0225,-4.1475,1.79375,-14.424001,-10.904,17.568,concentric,3,3.0,30819.0,396359.0,353731.0,403431.0,356483.0
2026-04-07 17:46:03.961245,189183,1034354044,1034355680,0.847168,-0.267424,-0.101504,15.23375,-4.2,2.51125,-14.424001,-10.904,17.568,concentric,3,3.0,30819.0,396359.0,353731.0,403431.0,356483.0
2026-04-07 17:46:03.969135,189184,1034368539,1034370571,0.886208,-0.281088,-0.111264,15.23375,-5.4425,3.325,-14.008,-10.84,18.608002,concentric,3,3.0,30819.0,396359.0,353731.0,403431.0,356483.0
2026-04-07 17:46:04.016125,189185,1034377457,1034379304,0.886208,-0.281088,-0.111264,12.60875,-6.16875,3.52625,-14.008,-10.84,18.608002,concentric,3,3.0,30819.0,396359.0,353731.0,403431.0,356483.0
2026-04-07 17:46:04.018635,189186,1034386375,1034388007,0.847168,-0.286944,-0.124928,11.025,-6.3175,3.85,-14.008,-10.856001,18.536001,concentric,3,3.0,30819.0,396359.0,353731.0,403431.0,356483.0
2026-04-07 17:46:04.021293,189187,1034400828,1034402880,0.870592,-0.325984,-0.099552,10.823751,-6.4575,4.41875,-13.960001,-10.864,16.912,concentric,3,3.0,30819.0,396359.0,353731.0,403431.0,356483.0
2026-04-07 17:46:04.024881,189188,1034409746,1034411592,0.870592,-0.325984,-0.099552,8.5575,-5.915,4.7425,-13.960001,-10.864,16.912,concentric,3,3.0,30819.0,396359.0,353731.0,403431.0,356483.0
2026-04-07 17:46:04.026617,189189,1034418682,1034420310,0.870592,-0.325984,-0.099552,5.8975,-4.095,5.85375,-13.960001,-10.864,16.912,concentric,3,3.0,30819.0,396359.0,353731.0,403431.0,356483.0
2026-04-07 17:46:04.055551,189199,1034433218,1034435309,0.843264,-0.329888,-0.089792,5.9675,-2.26625,6.48375,-14.696001,-10.696,17.664001,concentric,3,3.0,30857.0,396778.0,354094.0,403431.0,356808.0
2026-04-07 17:46:04.057132,189200,1034442142,1034444009,0.847168,-0.28304,-0.101504,5.5475,-1.8725,7.875,-14.896001,-10.184,18.184,concentric,3,3.0,30857.0,396778.0,354094.0,403431.0,356808.0
2026-04-07 17:46:04.058697,189201,1034451176,1034452769,0.847168,-0.28304,-0.101504,5.2675,-1.5925,7.9275,-14.896001,-10.184,18.184,concentric,3,3.0,30857.0,396778.0,354094.0,403431.0,356808.0
2026-04-07 17:46:04.062867,189202,1034460104,1034461496,0.847168,-0.310368,-0.11712,4.94375,-1.33875,6.92125,-14.896001,-10.184,18.184,concentric,3,3.0,30857.0,396778.0,354094.0,403431.0,356808.0
2026-04-07 17:46:04.093178,189203,1034474632,1034476458,0.856928,-0.310368,-0.11712,1.91625,-2.59,6.08125,-14.728001,-10.320001,18.104,concentric,3,3.0,30857.0,396778.0,354094.0,403431.0,356808.0
2026-04-07 17:46:04.094683,189204,1034483552,1034485144,0.860832,-0.347456,-0.124928,-0.46375,-2.09125,5.87125,-15.176001,-10.024,16.768002,concentric,3,3.0,30857.0,396778.0,354094.0,403431.0,356808.0
2026-04-07 17:46:04.096228,189205,1034492486,1034493907,0.860832,-0.347456,-0.124928,-1.1725,-1.5925,5.8975,-15.176001,-10.024,16.768002,concentric,3,3.0,30857.0,396778.0,354094.0,403431.0,356808.0
2026-04-07 17:46:04.127419,189206,1034506976,1034508838,0.831552,-0.337696,-0.121024,-1.5575,-1.3475,6.16875,-14.928,-10.6,18.432001,concentric,3,3.0,30857.0,396778.0,354094.0,403431.0,356808.0
2026-04-07 17:46:04.129697,189207,1034515882,1034517512,0.831552,-0.337696,-0.121024,-1.39125,-1.28625,6.3,-14.928,-10.6,18.432001,concentric,3,3.0,30857.0,396778.0,354094.0,403431.0,356808.0
2026-04-07 17:46:04.156740,189217,1034525490,1034526274,0.81008,-0.318176,-0.111264,0.0,-1.40875,7.06125,-14.368001,-10.048,16.496,concentric,3,3.0,31135.0,398722.0,355707.0,403431.0,358473.0
2026-04-07 17:46:04.158474,189218,1034534969,1034537025,0.81008,-0.318176,-0.111264,-2.94875,-1.5925,7.35,-14.368001,-10.048,16.496,concentric,3,3.0,31135.0,398722.0,355707.0,403431.0,358473.0
2026-04-07 17:46:04.160070,189219,1034549560,1034549878,0.813984,-0.294752,-0.113216,-4.83,-1.6625,5.95,-14.68,-9.360001,16.816,concentric,3,3.0,31135.0,398722.0,355707.0,403431.0,358473.0
2026-04-07 17:46:04.164175,189220,1034558822,1034560689,0.813984,-0.294752,-0.113216,-2.75625,-0.93625,4.0075,-14.68,-9.360001,16.816,concentric,3,3.0,31135.0,398722.0,355707.0,403431.0,358473.0
2026-04-07 17:46:04.169106,189221,1034567800,1034569393,0.778848,-0.320128,-0.132736,-2.40625,-0.875,4.01625,-14.768001,-10.216001,19.168001,concentric,3,3.0,31135.0,398722.0,355707.0,403431.0,358473.0
2026-04-07 17:46:04.197717,189222,1034582290,1034584375,0.79056,-0.37088,-0.113216,-4.865,-3.0625,3.91125,-15.232,-10.056001,17.872002,concentric,3,3.0,31135.0,398722.0,355707.0,403431.0,358473.0
2026-04-07 17:46:04.202190,189223,1034591208,1034593061,0.79056,-0.37088,-0.113216,-5.8625,-4.165,2.1875,-15.232,-10.056001,17.872002,concentric,3,3.0,31135.0,398722.0,355707.0,403431.0,358473.0
2026-04-07 17:46:04.204591,189224,1034600128,1034601757,0.79056,-0.37088,-0.113216,-5.6875,-4.4275,2.5725,-15.232,-10.056001,17.872002,concentric,3,3.0,31135.0,398722.0,355707.0,403431.0,358473.0
2026-04-07 17:46:04.208343,189225,1034609066,1034610463,0.763232,-0.365024,-0.11712,-4.935,-4.85625,3.4475,-15.160001,-9.744,16.224,concentric,3,3.0,31135.0,398722.0,355707.0,403431.0,358473.0
2026-04-07 17:46:04.269299,189236,1034624020,1034625742,0.774944,-0.349408,-0.128832,-5.4425,-5.565,3.3425,-15.072001,-9.592,16.240002,concentric,3,3.0,31685.0,401833.0,359261.0,403431.0,361892.0
2026-04-07 17:46:04.271000,189237,1034633013,1034634521,0.774944,-0.349408,-0.128832,-5.5825,-6.2825,2.5375,-15.072001,-9.592,16.240002,concentric,3,3.0,31685.0,401833.0,359261.0,403431.0,361892.0
2026-04-07 17:46:04.272511,189238,1034642077,1034643224,0.802272,-0.343552,-0.177632,-4.62,-6.67625,1.54,-14.848001,-9.712001,16.792002,concentric,3,3.0,31685.0,401833.0,359261.0,403431.0,361892.0
2026-04-07 17:46:04.276805,189239,1034656642,1034658172,0.802272,-0.343552,-0.177632,-5.53,-6.67625,0.56,-14.848001,-9.712001,16.792002,concentric,3,3.0,31685.0,401833.0,359261.0,403431.0,361892.0
2026-04-07 17:46:04.278478,189240,1034665668,1034666907,0.804224,-0.382592,-0.169824,-6.79875,-7.72625,-0.1925,-15.400001,-9.608001,17.592001,concentric,3,3.0,31685.0,401833.0,359261.0,403431.0,361892.0
2026-04-07 17:46:04.280362,189241,1034674567,1034675636,0.804224,-0.382592,-0.169824,-4.06,-8.19,-0.875,-15.400001,-9.608001,17.592001,concentric,3,3.0,31685.0,401833.0,359261.0,403431.0,361892.0
2026-04-07 17:46:04.318645,189242,1034689087,1034690591,0.806176,-0.38064,-0.18544,-1.1025,-9.345,-2.26625,-14.968,-9.440001,16.640001,concentric,3,3.0,31685.0,401833.0,359261.0,403431.0,361892.0
2026-04-07 17:46:04.323043,189243,1034697992,1034699315,0.806176,-0.38064,-0.18544,0.98,-9.96625,-3.115,-14.968,-9.440001,16.640001,concentric,3,3.0,31685.0,401833.0,359261.0,403431.0,361892.0
2026-04-07 17:46:04.324688,189244,1034706901,1034707987,0.806176,-0.402112,-0.154208,1.16375,-9.94,-3.745,-15.064001,-9.6,16.056002,concentric,3,3.0,31685.0,401833.0,359261.0,403431.0,361892.0
2026-04-07 17:46:04.326415,189245,1034715835,1034716687,0.806176,-0.402112,-0.154208,1.84625,-9.89625,-3.3075,-15.064001,-9.6,16.056002,concentric,3,3.0,31685.0,401833.0,359261.0,403431.0,361892.0
2026-04-07 17:46:04.354223,189255,1034730435,1034731633,0.817888,-0.396256,-0.179584,0.16625,-8.715,-2.68625,-14.808001,-9.864,15.536001,concentric,3,3.0,32257.0,403431.0,362725.0,403431.0,365635.0
2026-04-07 17:46:04.355967,189256,1034739428,1034740360,0.817888,-0.396256,-0.179584,0.63,-9.05625,-2.415,-14.808001,-9.864,15.536001,concentric,3,3.0,32257.0,403431.0,362725.0,403431.0,365635.0
2026-04-07 17:46:04.357824,189257,1034748414,1034749072,0.815936,-0.374784,-0.21472,1.05875,-8.417501,-2.02125,-15.160001,-9.568001,15.816001,concentric,3,3.0,32257.0,403431.0,362725.0,403431.0,365635.0
2026-04-07 17:46:04.362986,189258,1034763396,1034764158,0.813984,-0.37088,-0.18544,0.84,-8.12875,-2.26625,-15.56,-9.296001,15.888001,concentric,3,3.0,32257.0,403431.0,362725.0,403431.0,365635.0
2026-04-07 17:46:04.391407,189259,1034772789,1034774951,0.813984,-0.37088,-0.18544,0.8925,-7.4375,-3.15,-15.56,-9.296001,15.888001,concentric,3,3.0,32257.0,403431.0,362725.0,403431.0,365635.0
2026-04-07 17:46:04.395976,189260,1034781727,1034783675,0.817888,-0.394304,-0.171776,3.26375,-6.195,-3.82375,-15.56,-9.120001,15.056001,concentric,3,3.0,32257.0,403431.0,362725.0,403431.0,365635.0
2026-04-07 17:46:04.397487,189261,1034790662,1034792368,0.817888,-0.394304,-0.171776,0.875,-5.2325,-2.91375,-15.048,-9.120001,15.056001,concentric,3,3.0,32257.0,403431.0,362725.0,403431.0,365635.0
2026-04-07 17:46:04.428693,189262,1034805178,1034807271,0.81008,-0.398208,-0.199104,-0.88375,-3.92,-1.60125,-15.792001,-9.616,17.776001,concentric,3,3.0,32257.0,403431.0,362725.0,403431.0,365635.0
2026-04-07 17:46:04.431469,189263,1034814094,1034816022,0.81008,-0.398208,-0.199104,-0.84,-2.52875,-0.49875,-15.792001,-9.616,17.776001,concentric,3,3.0,32257.0,403431.0,362725.0,403431.0,365635.0
2026-04-07 17:46:04.457192,189273,1034823048,1034824731,0.827648,-0.378688,-0.20496,-1.89875,-1.9425,-0.63,-14.416,-9.136001,13.032001,concentric,3,3.0,32773.0,403431.0,365688.0,403431.0,369033.0
2026-04-07 17:46:04.458758,189274,1034837529,1034839639,0.827648,-0.378688,-0.20496,-0.11375,-1.81125,-1.09375,-14.416,-9.136001,13.032001,concentric,3,3.0,32773.0,403431.0,365688.0,403431.0,369033.0
2026-04-07 17:46:04.462987,189275,1034846437,1034848393,0.821792,-0.382592,-0.232288,2.38,-2.45875,-0.6825,-14.800001,-9.096001,14.816001,concentric,3,3.0,32773.0,403431.0,365688.0,403431.0,369033.0
2026-04-07 17:46:04.464568,189276,1034855382,1034857125,0.821792,-0.382592,-0.232288,2.7825,-3.01875,-1.72375,-14.800001,-9.096001,14.816001,concentric,3,3.0,32773.0,403431.0,365688.0,403431.0,369033.0
2026-04-07 17:46:04.470361,189277,1034869903,1034872017,0.83936,-0.386496,-0.189344,1.98625,-2.77375,-2.345,-15.192,-9.152,14.992001,concentric,3,3.0,32773.0,403431.0,365688.0,403431.0,369033.0
2026-04-07 17:46:04.499328,189278,1034878863,1034880754,0.83936,-0.386496,-0.189344,0.945,-1.44375,-1.4,-15.192,-9.152,14.992001,concentric,3,3.0,32773.0,403431.0,365688.0,403431.0,369033.0
2026-04-07 17:46:04.504965,189279,1034887808,1034889460,0.823744,-0.372832,-0.222528,-0.84,0.09625,-0.49875,-15.64,-8.808001,14.880001,concentric,3,3.0,32773.0,403431.0,365688.0,403431.0,369033.0
2026-04-07 17:46:04.505203,189280,1034896731,1034898138,0.823744,-0.372832,-0.222528,-1.8375,0.5425,-0.315,-15.64,-8.808001,14.880001,concentric,3,3.0,32773.0,403431.0,365688.0,403431.0,369033.0
2026-04-07 17:46:04.511673,189281,1034911257,1034913038,0.862784,-0.386496,-0.226432,-3.22,0.48125,-1.25125,-15.128,-8.872001,14.76,concentric,3,3.0,32773.0,403431.0,365688.0,403431.0,369033.0
2026-04-07 17:46:04.541071,189282,1034920262,1034921794,0.862784,-0.386496,-0.226432,-1.04125,0.98875,-1.91625,-15.128,-8.872001,14.76,concentric,3,3.0,32773.0,403431.0,365688.0,403431.0,369033.0
2026-04-07 17:46:04.571909,189293,1034929352,1034930554,0.854976,-0.349408,-0.25376,0.28875,0.735,-3.70125,-15.360001,-9.136001,14.848001,concentric,3,3.0,33065.0,403431.0,367257.0,403431.0,370895.0
2026-04-07 17:46:04.572216,189294,1034943848,1034945438,0.870592,-0.404064,-0.236192,-0.9625,-0.21875,-5.39,-15.232,-8.816,15.224001,concentric,3,3.0,33065.0,403431.0,367257.0,403431.0,370895.0
2026-04-07 17:46:04.575478,189295,1034952808,1034954141,0.870592,-0.404064,-0.236192,-2.33625,-0.805,-7.07875,-15.232,-8.816,15.224001,concentric,3,3.0,33065.0,403431.0,367257.0,403431.0,370895.0
2026-04-07 17:46:04.577221,189296,1034961918,1034962932,0.870592,-0.404064,-0.230336,-2.86125,-1.5225,-8.30375,-15.232,-8.816,15.224001,concentric,3,3.0,33065.0,403431.0,367257.0,403431.0,370895.0
2026-04-07 17:46:04.578730,189297,1034976485,1034977900,0.874496,-0.398208,-0.230336,-2.52875,-1.3825,-8.6275,-14.856001,-9.024,13.064001,concentric,3,3.0,33065.0,403431.0,367257.0,403431.0,370895.0
2026-04-07 17:46:04.585787,189298,1034985420,1034986597,0.882304,-0.402112,-0.259616,0.4025,-0.76125,-7.90125,-15.448001,-8.64,16.056002,concentric,3,3.0,33065.0,403431.0,367257.0,403431.0,370895.0
2026-04-07 17:46:04.621249,189299,1034994345,1034995282,0.882304,-0.402112,-0.259616,-0.455,0.11375,-8.28625,-15.448001,-8.64,16.056002,concentric,3,3.0,33065.0,403431.0,367257.0,403431.0,370895.0
2026-04-07 17:46:04.623426,189300,1035003267,1035003968,0.886208,-0.386496,-0.257664,-1.61875,1.68875,-8.49625,-15.272,-8.96,15.280001,concentric,3,3.0,33065.0,403431.0,367257.0,403431.0,370895.0
2026-04-07 17:46:04.628026,189301,1035018151,1035018895,0.886208,-0.386496,-0.257664,0.34125,2.415,-8.19,-15.272,-8.96,15.280001,concentric,3,3.0,33065.0,403431.0,367257.0,403431.0,370895.0
2026-04-07 17:46:04.656773,189311,1035028046,1035029770,0.899872,-0.404064,-0.242048,1.225,2.8875,-8.67125,-15.088,-8.952001,15.040001,concentric,3,3.0,33318.0,403431.0,368727.0,403431.0,372711.0
2026-04-07 17:46:04.658454,189312,1035037055,1035038548,0.899872,-0.404064,-0.242048,2.14375,4.0775,-9.1525,-15.088,-8.952001,15.040001,concentric,3,3.0,33318.0,403431.0,368727.0,403431.0,372711.0
2026-04-07 17:46:04.660036,189313,1035045984,1035047236,0.894016,-0.407968,-0.247904,2.19625,4.19125,-8.4525,-15.456,-9.296001,16.2,concentric,3,3.0,33318.0,403431.0,368727.0,403431.0,372711.0
2026-04-07 17:46:04.664297,189314,1035060471,1035062277,0.894016,-0.407968,-0.247904,2.3625,5.04875,-7.95375,-15.456,-9.296001,16.2,concentric,3,3.0,33318.0,403431.0,368727.0,403431.0,372711.0
2026-04-07 17:46:04.669195,189315,1035069430,1035071012,0.894016,-0.3904,-0.245952,2.70375,5.11875,-7.37625,-15.104001,-8.896001,14.768001,concentric,3,3.0,33318.0,403431.0,368727.0,403431.0,372711.0
2026-04-07 17:46:04.697715,189316,1035078350,1035079740,0.894016,-0.3904,-0.245952,2.91375,5.4775,-6.4925,-15.104001,-8.896001,14.768001,concentric,3,3.0,33318.0,403431.0,368727.0,403431.0,372711.0
2026-04-07 17:46:04.702214,189317,1035092812,1035094645,0.89792,-0.404064,-0.251808,1.72375,5.74875,-6.825,-15.624001,-9.024,14.712001,concentric,3,3.0,33318.0,403431.0,368727.0,403431.0,372711.0
2026-04-07 17:46:04.703729,189318,1035101761,1035103360,0.89792,-0.404064,-0.251808,4.55875,5.67875,-5.45125,-15.624001,-9.024,14.712001,concentric,3,3.0,33318.0,403431.0,368727.0,403431.0,372711.0
2026-04-07 17:46:04.722848,189319,1035110688,1035112060,0.862784,-0.363072,-0.249856,5.31125,5.6875,-5.9325,-15.288001,-9.480001,15.568001,concentric,3,3.0,33318.0,403431.0,368727.0,403431.0,372711.0
2026-04-07 17:46:04.748058,189329,1035125171,1035127017,0.851072,-0.386496,-0.230336,4.57625,4.8825,-5.88,-15.976001,-8.84,15.040001,concentric,3,3.0,33036.0,403431.0,367194.0,403431.0,370418.0
2026-04-07 17:46:04.749748,189330,1035134765,1035135786,0.851072,-0.386496,-0.230336,3.19375,4.6375,-5.64375,-15.976001,-8.84,15.040001,concentric,3,3.0,33036.0,403431.0,367194.0,403431.0,370418.0
2026-04-07 17:46:04.751485,189331,1035143721,1035144568,0.827648,-0.37088,-0.232288,3.2025,4.52375,-5.45125,-16.320002,-9.496,17.800001,concentric,3,3.0,33036.0,403431.0,367194.0,403431.0,370418.0
2026-04-07 17:46:04.759123,189332,1035152656,1035153278,0.827648,-0.37088,-0.232288,5.215,4.75125,-4.73375,-16.320002,-9.496,17.800001,concentric,3,3.0,33036.0,403431.0,367194.0,403431.0,370418.0
2026-04-07 17:46:04.787627,189333,1035167455,1035168189,0.812032,-0.368928,-0.230336,6.6325,4.73375,-4.24375,-15.648001,-8.856,15.080001,concentric,3,3.0,33036.0,403431.0,367194.0,403431.0,370418.0
2026-04-07 17:46:04.792226,189334,1035176772,1035178953,0.812032,-0.368928,-0.230336,7.28875,5.24125,-3.78875,-15.648001,-8.856,15.080001,concentric,3,3.0,33036.0,403431.0,367194.0,403431.0,370418.0
2026-04-07 17:46:04.793758,189335,1035185681,1035187655,0.792512,-0.36112,-0.208864,7.67375,5.60875,-3.71875,-15.728001,-8.952001,15.064001,concentric,3,3.0,33036.0,403431.0,367194.0,403431.0,370418.0
2026-04-07 17:46:04.799174,189336,1035200167,1035200499,0.792512,-0.36112,-0.208864,9.19625,6.20375,-3.045,-15.728001,-8.952001,15.064001,concentric,3,3.0,33036.0,403431.0,367194.0,403431.0,370418.0
2026-04-07 17:46:04.827857,189337,1035209362,1035211256,0.784704,-0.359168,-0.218624,11.05125,6.755,-3.0275,-15.632001,-9.472,16.272001,concentric,3,3.0,33036.0,403431.0,367194.0,403431.0,370418.0
2026-04-07 17:46:04.832297,189338,1035218292,1035219977,0.784704,-0.359168,-0.218624,10.91125,7.41125,-3.1325,-15.632001,-9.472,16.272001,concentric,3,3.0,33036.0,403431.0,367194.0,403431.0,370418.0
2026-04-07 17:46:04.860570,189349,1035227515,1035228841,0.784704,-0.357216,-0.206912,11.68125,8.26875,-3.57,-15.480001,-9.064,15.128,concentric,3,3.0,32418.0,403431.0,363631.0,403431.0,365867.0
2026-04-07 17:46:04.862237,189350,1035242169,1035243804,0.784704,-0.357216,-0.206912,13.02875,8.435,-3.98125,-15.480001,-9.064,15.128,concentric,3,3.0,32418.0,403431.0,363631.0,403431.0,365867.0
2026-04-07 17:46:04.863822,189351,1035251200,1035252589,0.813984,-0.368928,-0.203008,13.877501,9.10875,-4.80375,-15.888001,-9.208,16.792002,concentric,3,3.0,32418.0,403431.0,363631.0,403431.0,365867.0
2026-04-07 17:46:04.867844,189352,1035260155,1035261292,0.813984,-0.368928,-0.203008,14.3325,9.695,-5.36375,-15.888001,-9.208,16.792002,concentric,3,3.0,32418.0,403431.0,363631.0,403431.0,365867.0
