pc_time,serial_num,sensor_ts,host_ts,ax,ay,az,gx,gy,gz,mx,my,mz,phase,rpe,weight_kg,ppg_a,ppg_b,ppg_c,ppg_d,ppg_e
2026-04-07 17:45:36.483048,184047,1006861346,1006863275,0.837408,-0.402112,-0.15616,-4.41875,5.985,-6.83375,-15.744,-7.088,15.216001,eccentric,3,3.0,28743.0,380282.0,340165.0,398454.0,343438.0
2026-04-07 17:45:36.507842,184057,1006870804,1006872035,0.835456,-0.382592,-0.13664,-4.41,5.9675,-7.595,-14.976001,-7.2,16.088001,eccentric,3,3.0,28124.0,375262.0,336021.0,394164.0,339438.0
2026-04-07 17:45:36.510171,184058,1006879810,1006880777,0.835456,-0.382592,-0.13664,-5.2675,5.55625,-7.86625,-14.976001,-7.2,16.088001,eccentric,3,3.0,28124.0,375262.0,336021.0,394164.0,339438.0
2026-04-07 17:45:36.512618,184059,1006894326,1006895704,0.827648,-0.413824,-0.13664,-5.46875,5.53875,-7.90125,-15.808001,-7.424,15.216001,eccentric,3,3.0,28124.0,375262.0,336021.0,394164.0,339438.0
2026-04-07 17:45:36.515111,184060,1006903418,1006904480,0.8296,-0.40992,-0.1464,-4.83,5.25,-7.27125,-15.904,-7.480001,16.36,eccentric,3,3.0,28124.0,375262.0,336021.0,394164.0,339438.0
2026-04-07 17:45:36.517599,184061,1006912362,1006913244,0.8296,-0.40992,-0.1464,-3.4825,5.15375,-7.07875,-15.904,-7.480001,16.36,eccentric,3,3.0,28124.0,375262.0,336021.0,394164.0,339438.0
2026-04-07 17:45:36.524043,184062,1006926880,1006928165,0.837408,-0.3904,-0.154208,-2.45875,4.90875,-7.16625,-15.552001,-7.744,17.728,eccentric,3,3.0,28124.0,375262.0,336021.0,394164.0,339438.0
2026-04-07 17:45:36.555234,184063,1006935811,1006936873,0.837408,-0.3904,-0.154208,-2.47625,3.9025,-7.07,-15.552001,-7.744,17.728,eccentric,3,3.0,28124.0,375262.0,336021.0,394164.0,339438.0
2026-04-07 17:45:36.558869,184064,1006944714,1006945562,0.84912,-0.398208,-0.16592,-3.4475,2.8525,-7.8925,-15.544001,-6.952,15.344001,eccentric,3,3.0,28124.0,375262.0,336021.0,394164.0,339438.0
2026-04-07 17:45:36.561361,184065,1006953671,1006954250,0.84912,-0.398208,-0.16592,-4.13,2.02125,-7.805,-15.544001,-6.952,15.344001,eccentric,3,3.0,28124.0,375262.0,336021.0,394164.0,339438.0
2026-04-07 17:45:36.590142,184076,1006968579,1006969585,0.860832,-0.404064,-0.138592,-3.42125,1.77625,-8.4,-15.632001,-6.84,14.840001,eccentric,3,3.0,27874.0,373201.0,334312.0,392477.0,338092.0
2026-04-07 17:45:36.592733,184077,1006978505,1006980425,0.860832,-0.404064,-0.138592,-1.575,2.54625,-8.75875,-15.632001,-6.84,14.840001,eccentric,3,3.0,27874.0,373201.0,334312.0,392477.0,338092.0
2026-04-07 17:45:36.595104,184078,1006987620,1006989133,0.872544,-0.415776,-0.140544,-1.05875,2.73875,-8.6275,-15.6,-7.872,17.064001,eccentric,3,3.0,27874.0,373201.0,334312.0,392477.0,338092.0
2026-04-07 17:45:36.597601,184079,1006996570,1006997850,0.872544,-0.415776,-0.140544,0.20125,2.77375,-7.65625,-15.6,-7.872,17.064001,eccentric,3,3.0,27874.0,373201.0,334312.0,392477.0,338092.0
2026-04-07 17:45:36.628720,184080,1007011148,1007012790,0.872544,-0.392352,-0.15616,1.54875,2.5025,-7.53375,-15.776001,-7.984,16.6,eccentric,3,3.0,27874.0,373201.0,334312.0,392477.0,338092.0
2026-04-07 17:45:36.633801,184081,1007020097,1007021540,0.872544,-0.392352,-0.15616,2.4675,2.52875,-6.79,-15.776001,-7.984,16.6,eccentric,3,3.0,27874.0,373201.0,334312.0,392477.0,338092.0
2026-04-07 17:45:36.639244,184082,1007029048,1007030260,0.895968,-0.396256,-0.162016,2.52,2.82625,-6.41375,-15.480001,-7.696001,14.808001,eccentric,3,3.0,27874.0,373201.0,334312.0,392477.0,338092.0
2026-04-07 17:45:36.643047,184083,1007043557,1007045149,0.901824,-0.386496,-0.173728,1.4875,2.80875,-5.80125,-15.312,-7.032001,14.832001,eccentric,3,3.0,27874.0,373201.0,334312.0,392477.0,338092.0
2026-04-07 17:45:36.671616,184084,1007052504,1007053851,0.901824,-0.386496,-0.173728,1.26,2.8875,-5.495,-15.312,-7.032001,14.832001,eccentric,3,3.0,27874.0,373201.0,334312.0,392477.0,338092.0
2026-04-07 17:45:36.707486,184085,1007061529,1007062536,0.901824,-0.386496,-0.173728,0.6125,3.22,-5.6525,-15.312,-7.032001,14.832001,eccentric,3,3.0,27874.0,373201.0,334312.0,392477.0,338092.0
2026-04-07 17:45:36.736887,184095,1007070939,1007071346,0.909632,-0.411872,-0.162016,1.085,3.605,-4.795,-15.048,-7.64,15.744,eccentric,3,3.0,27870.0,373166.0,334318.0,392485.0,338093.0
2026-04-07 17:45:36.738595,184096,1007085773,1007086284,0.89792,-0.376736,-0.169824,1.82,4.26125,-3.61375,-15.536001,-7.088,16.336,eccentric,3,3.0,27870.0,373166.0,334318.0,392485.0,338093.0
2026-04-07 17:45:36.740154,184097,1007095150,1007097061,0.89792,-0.376736,-0.169824,3.00125,4.38375,-3.3425,-15.536001,-7.088,16.336,eccentric,3,3.0,27870.0,373166.0,334318.0,392485.0,338093.0
2026-04-07 17:45:36.744380,184098,1007104094,1007105754,0.901824,-0.368928,-0.171776,3.50875,4.48875,-2.98375,-15.176001,-6.960001,14.920001,eccentric,3,3.0,27870.0,373166.0,334318.0,392485.0,338093.0
2026-04-07 17:45:36.746246,184099,1007118628,1007120688,0.901824,-0.368928,-0.171776,2.8175,4.9175,-2.98375,-15.176001,-6.960001,14.920001,eccentric,3,3.0,27870.0,373166.0,334318.0,392485.0,338093.0
2026-04-07 17:45:36.748693,184100,1007127553,1007129453,0.911584,-0.384544,-0.17568,2.38,5.11875,-3.68375,-15.528001,-7.496,15.216001,eccentric,3,3.0,27870.0,373166.0,334318.0,392485.0,338093.0
2026-04-07 17:45:36.750178,184101,1007136614,1007138209,0.911584,-0.384544,-0.17568,1.95125,4.9525,-4.22625,-15.528001,-7.496,15.216001,eccentric,3,3.0,27870.0,373166.0,334318.0,392485.0,338093.0
2026-04-07 17:45:36.758201,184102,1007145644,1007146922,0.882304,-0.365024,-0.199104,2.6425,4.89125,-4.27875,-15.008,-7.752,15.248001,eccentric,3,3.0,27870.0,373166.0,334318.0,392485.0,338093.0
2026-04-07 17:45:36.760581,184103,1007160219,1007161870,0.882304,-0.365024,-0.199104,3.99,4.025,-5.29375,-15.008,-7.752,15.248001,eccentric,3,3.0,27870.0,373166.0,334318.0,392485.0,338093.0
2026-04-07 17:45:36.814368,184113,1007169178,1007170709,0.874496,-0.359168,-0.181536,4.3575,3.5525,-5.90625,-14.632001,-7.36,15.480001,eccentric,3,3.0,27661.0,371393.0,332882.0,391082.0,336841.0
2026-04-07 17:45:36.816083,184114,1007178133,1007179393,0.874496,-0.359168,-0.181536,4.59375,3.395,-6.6325,-14.632001,-7.36,15.480001,eccentric,3,3.0,27661.0,371393.0,332882.0,391082.0,336841.0
2026-04-07 17:45:36.817624,184115,1007192646,1007194379,0.86864,-0.366976,-0.158112,5.38125,3.955,-7.595,-14.856001,-7.904,15.448001,eccentric,3,3.0,27661.0,371393.0,332882.0,391082.0,336841.0
2026-04-07 17:45:36.821877,184116,1007201583,1007203062,0.86864,-0.366976,-0.158112,6.02,4.41,-8.35625,-14.856001,-7.904,15.448001,eccentric,3,3.0,27661.0,371393.0,332882.0,391082.0,336841.0
2026-04-07 17:45:36.823589,184117,1007210652,1007211840,0.845216,-0.366976,-0.162016,6.615,4.89125,-8.2425,-14.592001,-7.536,14.976001,eccentric,3,3.0,27661.0,371393.0,332882.0,391082.0,336841.0
2026-04-07 17:45:36.825305,184118,1007225227,1007226766,0.817888,-0.343552,-0.1464,5.7225,4.52375,-8.54,-14.392001,-7.432,17.032001,eccentric,3,3.0,27661.0,371393.0,332882.0,391082.0,336841.0
2026-04-07 17:45:36.833040,184119,1007234199,1007235471,0.817888,-0.343552,-0.1464,6.265,5.2325,-8.37375,-14.392001,-7.432,17.032001,eccentric,3,3.0,27661.0,371393.0,332882.0,391082.0,336841.0
2026-04-07 17:45:36.861535,184120,1007243175,1007244208,0.817888,-0.343552,-0.1464,6.6675,6.0025,-8.77625,-14.392001,-7.432,17.032001,eccentric,3,3.0,27661.0,371393.0,332882.0,391082.0,336841.0
2026-04-07 17:45:36.865145,184121,1007252055,1007252949,0.808128,-0.33184,-0.150304,5.915,5.71375,-8.58375,-14.584001,-7.336,15.992001,eccentric,3,3.0,27661.0,371393.0,332882.0,391082.0,336841.0
2026-04-07 17:45:36.867673,184122,1007266532,1007267843,0.815936,-0.374784,-0.148352,5.34625,5.24125,-8.60125,-14.264001,-7.584001,15.032001,eccentric,3,3.0,27661.0,371393.0,332882.0,391082.0,336841.0
2026-04-07 17:45:36.895087,184133,1007275692,1007276585,0.815936,-0.374784,-0.148352,4.87375,5.48625,-8.68875,-14.264001,-7.584001,15.032001,eccentric,3,3.0,27756.0,371986.0,333198.0,391239.0,337072.0
2026-04-07 17:45:36.897615,184134,1007284667,1007285406,0.812032,-0.368928,-0.119072,5.22375,6.29125,-7.77875,-14.688001,-7.728,15.576001,eccentric,3,3.0,27756.0,371986.0,333198.0,391239.0,337072.0
2026-04-07 17:45:36.900087,184135,1007299627,1007300418,0.812032,-0.368928,-0.119072,7.48125,7.84,-6.88625,-14.688001,-7.728,15.576001,eccentric,3,3.0,27756.0,371986.0,333198.0,391239.0,337072.0
2026-04-07 17:45:36.906497,184136,1007309174,1007311219,0.812032,-0.347456,-0.10736,8.417501,8.9775,-6.53625,-13.984,-7.68,15.232,eccentric,3,3.0,27756.0,371986.0,333198.0,391239.0,337072.0
2026-04-07 17:45:36.916480,184137,1007318112,1007319926,0.812032,-0.347456,-0.10736,6.18625,9.89625,-6.25625,-13.984,-7.68,15.232,eccentric,3,3.0,27756.0,371986.0,333198.0,391239.0,337072.0
2026-04-07 17:45:36.946600,184138,1007327056,1007328656,0.823744,-0.353312,-0.134688,4.80375,10.57875,-6.65,-14.496,-7.752,15.904,eccentric,3,3.0,27756.0,371986.0,333198.0,391239.0,337072.0
2026-04-07 17:45:36.950163,184139,1007341735,1007343660,0.823744,-0.353312,-0.134688,4.19125,11.01625,-7.4025,-14.496,-7.752,15.904,eccentric,3,3.0,27756.0,371986.0,333198.0,391239.0,337072.0
2026-04-07 17:45:36.952590,184140,1007350652,1007352356,0.825696,-0.372832,-0.132736,5.22375,11.3225,-7.035,-14.304001,-7.56,16.248001,eccentric,3,3.0,27756.0,371986.0,333198.0,391239.0,337072.0
2026-04-07 17:45:36.957634,184141,1007359648,1007361035,0.825696,-0.372832,-0.132736,5.57375,11.2875,-6.335,-14.304001,-7.56,16.248001,eccentric,3,3.0,27756.0,371986.0,333198.0,391239.0,337072.0
2026-04-07 17:45:37.035093,184151,1007374641,1007376177,0.835456,-0.376736,-0.124928,5.0925,11.64625,-6.0025,-14.064001,-7.728,17.048,eccentric,3,3.0,27500.0,369828.0,331488.0,389533.0,335551.0
2026-04-07 17:45:37.037625,184152,1007383609,1007384873,0.835456,-0.376736,-0.124928,4.8475,12.88875,-5.7225,-14.064001,-7.728,17.048,eccentric,3,3.0,27500.0,369828.0,331488.0,389533.0,335551.0
2026-04-07 17:45:37.040088,184153,1007392512,1007393580,0.853024,-0.339648,-0.119072,5.985,13.71125,-5.635,-14.056001,-7.496,12.960001,eccentric,3,3.0,27500.0,369828.0,331488.0,389533.0,335551.0
2026-04-07 17:45:37.042646,184154,1007401416,1007402265,0.853024,-0.339648,-0.119072,6.2125,14.18375,-6.06375,-14.056001,-7.496,12.960001,eccentric,3,3.0,27500.0,369828.0,331488.0,389533.0,335551.0
2026-04-07 17:45:37.045172,184155,1007415876,1007417123,0.864736,-0.359168,-0.121024,5.46875,13.8075,-6.95625,-13.824,-7.496,15.896001,eccentric,3,3.0,27500.0,369828.0,331488.0,389533.0,335551.0
2026-04-07 17:45:37.047679,184156,1007424785,1007425947,0.86864,-0.376736,-0.111264,2.86125,14.39375,-8.00625,-13.824,-7.496,16.400002,eccentric,3,3.0,27500.0,369828.0,331488.0,389533.0,335551.0
2026-04-07 17:45:37.050172,184157,1007433769,1007434660,0.86864,-0.376736,-0.111264,1.0675,14.88375,-8.3475,-14.160001,-7.944,16.400002,eccentric,3,3.0,27500.0,369828.0,331488.0,389533.0,335551.0
2026-04-07 17:45:37.054411,184158,1007448265,1007449596,0.86864,-0.376736,-0.103456,1.19,15.88125,-8.3825,-14.072001,-8.424001,18.232,eccentric,3,3.0,27500.0,369828.0,331488.0,389533.0,335551.0
2026-04-07 17:45:37.056819,184159,1007457205,1007458336,0.86864,-0.376736,-0.103456,1.75,16.7825,-8.91625,-14.072001,-8.424001,18.232,eccentric,3,3.0,27500.0,369828.0,331488.0,389533.0,335551.0
2026-04-07 17:45:37.085359,184160,1007466139,1007467034,0.856928,-0.3416,-0.103456,3.9725,18.22625,-9.065,-14.144001,-7.968,17.376001,eccentric,3,3.0,27500.0,369828.0,331488.0,389533.0,335551.0
2026-04-07 17:45:37.114859,184170,1007475706,1007477810,0.856928,-0.3416,-0.103456,5.25875,18.89125,-9.835,-14.144001,-7.968,17.376001,eccentric,3,3.0,27296.0,368240.0,330378.0,388507.0,334691.0
2026-04-07 17:45:37.116418,184171,1007490172,1007490700,0.864736,-0.349408,-0.091744,3.6225,19.50375,-10.7625,-13.76,-8.048,16.704,eccentric,3,3.0,27296.0,368240.0,330378.0,388507.0,334691.0
2026-04-07 17:45:37.120681,184172,1007499572,1007501440,0.864736,-0.349408,-0.091744,1.02375,20.16875,-12.39,-13.76,-8.048,16.704,eccentric,3,3.0,27296.0,368240.0,330378.0,388507.0,334691.0
2026-04-07 17:45:37.122348,184173,1007508528,1007510225,0.831552,-0.349408,-0.089792,1.51375,21.2275,-12.9325,-13.728001,-8.096001,16.704,eccentric,3,3.0,27296.0,368240.0,330378.0,388507.0,334691.0
2026-04-07 17:45:37.123960,184174,1007523025,1007525132,0.831552,-0.349408,-0.089792,2.03875,22.44375,-12.8625,-13.728001,-8.096001,16.704,eccentric,3,3.0,27296.0,368240.0,330378.0,388507.0,334691.0
2026-04-07 17:45:37.131747,184175,1007531972,1007533814,0.812032,-0.318176,-0.081984,3.49125,23.17,-13.5975,-13.992001,-7.896,17.36,eccentric,3,3.0,27296.0,368240.0,330378.0,388507.0,334691.0
2026-04-07 17:45:37.160312,184176,1007540907,1007542591,0.812032,-0.318176,-0.081984,4.03375,22.8725,-14.16625,-13.992001,-7.896,17.36,eccentric,3,3.0,27296.0,368240.0,330378.0,388507.0,334691.0
2026-04-07 17:45:37.164845,184177,1007549852,1007551284,0.7808,-0.30256,-0.080032,5.13625,22.81125,-15.05875,-14.016001,-8.712001,17.800001,eccentric,3,3.0,27296.0,368240.0,330378.0,388507.0,334691.0
2026-04-07 17:45:37.167137,184178,1007564395,1007566169,0.7808,-0.30256,-0.080032,4.26125,21.53375,-16.345,-14.016001,-8.712001,17.800001,eccentric,3,3.0,27296.0,368240.0,330378.0,388507.0,334691.0
2026-04-07 17:45:37.231078,184189,1007573748,1007575087,0.759328,-0.30256,-0.070272,3.6925,19.90625,-16.10875,-13.664001,-8.336,16.608002,eccentric,3,3.0,26866.0,364586.0,327464.0,385729.0,332780.0
2026-04-07 17:45:37.233582,184190,1007582861,1007583901,0.759328,-0.30256,-0.070272,2.6775,18.62,-15.70625,-13.664001,-8.336,16.608002,eccentric,3,3.0,26866.0,364586.0,327464.0,385729.0,332780.0
2026-04-07 17:45:37.236022,184191,1007597358,1007598915,0.755424,-0.304512,-0.052704,-0.28,18.22625,-16.19625,-13.464001,-8.192,17.568,eccentric,3,3.0,26866.0,364586.0,327464.0,385729.0,332780.0
2026-04-07 17:45:37.237559,184192,1007606256,1007607596,0.735904,-0.308416,-0.07808,2.54625,17.03625,-15.47875,-13.464001,-8.936001,17.792002,eccentric,3,3.0,26866.0,364586.0,327464.0,385729.0,332780.0
2026-04-07 17:45:37.241058,184193,1007615180,1007616282,0.735904,-0.308416,-0.07808,5.22375,15.8725,-15.5925,-13.464001,-8.936001,17.792002,eccentric,3,3.0,26866.0,364586.0,327464.0,385729.0,332780.0
2026-04-07 17:45:37.242551,184194,1007629641,1007631119,0.759328,-0.294752,-0.052704,5.74875,14.95375,-15.575,-13.216001,-9.216001,17.448,eccentric,3,3.0,26866.0,364586.0,327464.0,385729.0,332780.0
2026-04-07 17:45:37.246169,184195,1007638569,1007639855,0.759328,-0.294752,-0.052704,5.22375,14.91875,-15.54875,-13.216001,-9.216001,17.448,eccentric,3,3.0,26866.0,364586.0,327464.0,385729.0,332780.0
2026-04-07 17:45:37.247584,184196,1007647513,1007648606,0.743712,-0.294752,-0.044896,1.14625,15.5225,-15.28625,-14.016001,-9.144,19.160002,eccentric,3,3.0,26866.0,364586.0,327464.0,385729.0,332780.0
2026-04-07 17:45:37.255330,184197,1007656471,1007657373,0.743712,-0.294752,-0.044896,-2.8525,16.485,-14.23625,-14.016001,-9.144,19.160002,eccentric,3,3.0,26866.0,364586.0,327464.0,385729.0,332780.0
2026-04-07 17:45:37.308695,184198,1007670987,1007672208,0.759328,-0.316224,-0.056608,-6.545,15.82,-14.06125,-13.184001,-9.312,19.496,eccentric,3,3.0,26866.0,364586.0,327464.0,385729.0,332780.0
2026-04-07 17:45:37.337396,184208,1007679949,1007680973,0.759328,-0.316224,-0.056608,-6.90375,15.68875,-13.79875,-13.184001,-9.312,19.496,eccentric,3,3.0,26611.0,362500.0,325701.0,383841.0,331288.0
2026-04-07 17:45:37.338912,184209,1007688868,1007689670,0.767136,-0.304512,-0.066368,-5.915,15.0675,-14.27125,-13.392,-8.76,17.944,eccentric,3,3.0,26611.0,362500.0,325701.0,383841.0,331288.0
2026-04-07 17:45:37.343171,184210,1007703361,1007704499,0.767136,-0.304512,-0.066368,-4.83,14.5775,-15.60125,-13.392,-8.76,17.944,eccentric,3,3.0,26611.0,362500.0,325701.0,383841.0,331288.0
2026-04-07 17:45:37.344842,184211,1007712270,1007713246,0.784704,-0.306464,-0.046848,-5.1275,13.7725,-16.73,-12.576,-9.208,17.864,eccentric,3,3.0,26611.0,362500.0,325701.0,383841.0,331288.0
2026-04-07 17:45:37.346422,184212,1007721238,1007721974,0.784704,-0.306464,-0.046848,-5.97625,13.57125,-16.7125,-12.576,-9.208,17.864,eccentric,3,3.0,26611.0,362500.0,325701.0,383841.0,331288.0
2026-04-07 17:45:37.350645,184213,1007736314,1007736972,0.788608,-0.32208,-0.02928,-9.5725,13.67625,-16.9575,-13.52,-10.408001,19.720001,eccentric,3,3.0,26611.0,362500.0,325701.0,383841.0,331288.0
2026-04-07 17:45:37.352350,184214,1007745661,1007747766,0.788608,-0.32208,-0.025376,-9.6075,14.35,-15.8025,-13.52,-10.408001,19.720001,eccentric,3,3.0,26611.0,362500.0,325701.0,383841.0,331288.0
2026-04-07 17:45:37.353900,184215,1007754629,1007756546,0.77104,-0.30256,-0.025376,-8.56625,13.877501,-14.315001,-13.624001,-9.688001,19.432001,eccentric,3,3.0,26611.0,362500.0,325701.0,383841.0,331288.0
2026-04-07 17:45:37.385224,184216,1007763574,1007765265,0.77104,-0.30256,-0.025376,-9.45,13.39625,-14.595,-13.624001,-9.688001,19.432001,eccentric,3,3.0,26611.0,362500.0,325701.0,383841.0,331288.0
2026-04-07 17:45:37.410235,184226,1007778245,1007780311,0.79056,-0.310368,-0.040992,-9.79125,12.90625,-14.93625,-13.296001,-9.744,18.576,eccentric,3,3.0,26397.0,360459.0,324076.0,382184.0,329881.0
2026-04-07 17:45:37.414382,184227,1007787170,1007789022,0.79056,-0.298656,-0.017568,-9.6075,12.425,-15.7675,-12.824,-10.096001,19.544,eccentric,3,3.0,26397.0,360459.0,324076.0,382184.0,329881.0
2026-04-07 17:45:37.416142,184228,1007796189,1007797718,0.79056,-0.298656,-0.017568,-7.4725,12.3025,-15.72375,-12.824,-10.096001,19.544,eccentric,3,3.0,26397.0,360459.0,324076.0,382184.0,329881.0
2026-04-07 17:45:37.417835,184229,1007810887,1007812774,0.804224,-0.304512,-0.023424,-7.2275,11.69,-15.636251,-12.936001,-10.400001,18.896002,eccentric,3,3.0,26397.0,360459.0,324076.0,382184.0,329881.0
2026-04-07 17:45:37.421753,184230,1007819805,1007821509,0.804224,-0.304512,-0.023424,-9.05625,11.698751,-14.980001,-12.936001,-10.400001,18.896002,eccentric,3,3.0,26397.0,360459.0,324076.0,382184.0,329881.0
2026-04-07 17:45:37.428025,184231,1007828854,1007830240,0.80032,-0.290848,-0.017568,-9.625,11.9525,-13.755,-12.304001,-10.048,18.264,eccentric,3,3.0,26397.0,360459.0,324076.0,382184.0,329881.0
2026-04-07 17:45:37.456578,184232,1007837842,1007838924,0.80032,-0.290848,-0.017568,-10.3425,11.8825,-14.07875,-12.304001,-10.048,18.264,eccentric,3,3.0,26397.0,360459.0,324076.0,382184.0,329881.0
2026-04-07 17:45:37.460957,184233,1007852376,1007853913,0.831552,-0.324032,-0.037088,-9.77375,11.80375,-14.6125,-12.704,-10.568001,18.448,eccentric,3,3.0,26397.0,360459.0,324076.0,382184.0,329881.0
2026-04-07 17:45:37.468362,184234,1007861331,1007862633,0.831552,-0.324032,-0.037088,-9.7125,11.66375,-15.30375,-12.704,-10.568001,18.448,eccentric,3,3.0,26397.0,360459.0,324076.0,382184.0,329881.0
2026-04-07 17:45:37.470018,184235,1007870332,1007871380,0.821792,-0.310368,-0.037088,-8.44375,12.41625,-15.645,-12.992001,-10.168,18.896002,eccentric,3,3.0,26397.0,360459.0,324076.0,382184.0,329881.0
2026-04-07 17:45:37.498939,184246,1007884924,1007886363,0.821792,-0.310368,-0.037088,-6.2125,12.9675,-15.33,-12.992001,-10.168,18.896002,eccentric,3,3.0,25990.0,357203.0,321571.0,379902.0,327988.0
2026-04-07 17:45:37.501341,184247,1007893845,1007895089,0.856928,-0.284992,-0.037088,-7.035,12.8625,-16.9575,-13.184001,-10.552,21.144001,eccentric,3,3.0,25990.0,357203.0,321571.0,379902.0,327988.0
2026-04-07 17:45:37.505495,184248,1007902840,1007903908,0.856928,-0.284992,-0.037088,-6.755,13.57125,-18.795,-13.184001,-10.552,21.144001,eccentric,3,3.0,25990.0,357203.0,321571.0,379902.0,327988.0
2026-04-07 17:45:37.534083,184249,1007917366,1007918801,0.892064,-0.298656,-0.031232,-6.43125,14.25375,-20.90375,-12.768001,-11.256001,20.408,eccentric,3,3.0,25990.0,357203.0,321571.0,379902.0,327988.0
2026-04-07 17:45:37.548366,184250,1007926259,1007927483,0.892064,-0.298656,-0.031232,-6.15125,15.1025,-23.19625,-12.768001,-11.256001,20.408,eccentric,3,3.0,25990.0,357203.0,321571.0,379902.0,327988.0
2026-04-07 17:45:37.550232,184251,1007935182,1007936167,0.86864,-0.306464,-0.025376,-5.4425,15.9775,-23.8175,-12.000001,-11.296001,19.416,eccentric,3,3.0,25990.0,357203.0,321571.0,379902.0,327988.0
2026-04-07 17:45:37.551880,184252,1007944099,1007944902,0.86864,-0.306464,-0.025376,-4.8125,16.7475,-24.0975,-12.000001,-11.296001,19.416,eccentric,3,3.0,25990.0,357203.0,321571.0,379902.0,327988.0
2026-04-07 17:45:37.556762,184253,1007958613,1007959791,0.835456,-0.275232,-0.044896,-2.93125,16.7475,-23.72125,-12.456,-11.744,20.6,eccentric,3,3.0,25990.0,357203.0,321571.0,379902.0,327988.0
2026-04-07 17:45:37.608779,184254,1007967560,1007968504,0.8296,-0.242048,-0.02928,-2.9575,16.56375,-24.535,-12.320001,-11.656,20.68,eccentric,3,3.0,25990.0,357203.0,321571.0,379902.0,327988.0
2026-04-07 17:45:37.633926,184264,1007976861,1007977551,0.8296,-0.242048,-0.02928,-2.75625,16.275,-24.66625,-12.320001,-11.656,20.68,eccentric,3,3.0,25835.0,355980.0,320675.0,379158.0,327532.0
2026-04-07 17:45:37.638177,184265,1007991713,1007992534,0.823744,-0.22448,-0.011712,-1.4875,16.84375,-25.40125,-11.960001,-11.896001,19.256,eccentric,3,3.0,25835.0,355980.0,320675.0,379158.0,327532.0
2026-04-07 17:45:37.639872,184266,1008000632,1008001236,0.823744,-0.22448,-0.011712,-1.11125,17.33375,-27.27375,-11.960001,-11.896001,19.256,eccentric,3,3.0,25835.0,355980.0,320675.0,379158.0,327532.0
2026-04-07 17:45:37.641451,184267,1008009984,1008011991,0.804224,-0.240096,0.003904,-0.1575,17.42125,-28.18375,-11.744,-11.968,19.576,eccentric,3,3.0,25835.0,355980.0,320675.0,379158.0,327532.0
2026-04-07 17:45:37.645665,184268,1008018928,1008020688,0.804224,-0.240096,0.003904,-2.14375,17.78875,-27.6675,-11.744,-11.968,19.576,eccentric,3,3.0,25835.0,355980.0,320675.0,379158.0,327532.0
2026-04-07 17:45:37.647440,184269,1008033491,1008035710,0.79056,-0.242048,-0.023424,-3.33375,17.87625,-25.5675,-12.504001,-11.992001,19.584002,eccentric,3,3.0,25835.0,355980.0,320675.0,379158.0,327532.0
2026-04-07 17:45:37.648902,184270,1008042522,1008044477,0.79056,-0.242048,-0.023424,-5.4075,16.9925,-25.0075,-12.504001,-11.992001,19.584002,eccentric,3,3.0,25835.0,355980.0,320675.0,379158.0,327532.0
2026-04-07 17:45:37.653059,184271,1008051470,1008053190,0.788608,-0.230336,-0.02928,-7.0525,16.58125,-25.41875,-12.552001,-12.504001,19.648,eccentric,3,3.0,25835.0,355980.0,320675.0,379158.0,327532.0
2026-04-07 17:45:37.681627,184272,1008066006,1008068112,0.788608,-0.230336,-0.02928,-5.915,15.846251,-24.71875,-12.552001,-12.504001,19.648,eccentric,3,3.0,25835.0,355980.0,320675.0,379158.0,327532.0
2026-04-07 17:45:37.710703,184282,1008075430,1008076778,0.792512,-0.226432,-0.011712,-7.13125,15.05875,-25.725,-11.872001,-12.184001,22.68,eccentric,3,3.0,25739.0,354594.0,319424.0,377541.0,326216.0
2026-04-07 17:45:37.713061,184283,1008084415,1008085579,0.792512,-0.226432,-0.011712,-5.6525,14.98875,-26.04875,-11.872001,-12.184001,22.68,eccentric,3,3.0,25739.0,354594.0,319424.0,377541.0,326216.0
2026-04-07 17:45:37.719391,184284,1008093364,1008094281,0.792512,-0.226432,-0.027328,-5.7575,14.49,-26.5475,-11.960001,-12.704,20.288,eccentric,3,3.0,25739.0,354594.0,319424.0,377541.0,326216.0
2026-04-07 17:45:37.721129,184285,1008107855,1008109212,0.804224,-0.251808,-0.023424,-6.685,14.28875,-26.73125,-14.008,-13.72,23.248001,eccentric,3,3.0,25739.0,354594.0,319424.0,377541.0,326216.0
2026-04-07 17:45:37.723559,184286,1008116781,1008117897,0.804224,-0.251808,-0.023424,-7.0875,13.86875,-27.22125,-12.896001,-13.72,23.248001,eccentric,3,3.0,25739.0,354594.0,319424.0,377541.0,326216.0
2026-04-07 17:45:37.725154,184287,1008125692,1008126637,0.804224,-0.251808,-0.023424,-7.4025,13.58,-28.13125,-12.896001,-13.72,23.248001,eccentric,3,3.0,25739.0,354594.0,319424.0,377541.0,326216.0
2026-04-07 17:45:37.756215,184288,1008140171,1008141577,0.798368,-0.226432,-0.017568,-4.08625,13.90375,-29.1025,-12.320001,-13.512001,22.136002,eccentric,3,3.0,25739.0,354594.0,319424.0,377541.0,326216.0
2026-04-07 17:45:37.758516,184289,1008149076,1008150294,0.784704,-0.208864,-0.007808,-5.005,14.41125,-31.29,-11.744,-13.464001,20.392,eccentric,3,3.0,25739.0,354594.0,319424.0,377541.0,326216.0
2026-04-07 17:45:37.763088,184290,1008157972,1008158959,0.784704,-0.208864,-0.007808,-6.3175,14.16625,-32.13,-11.744,-13.464001,20.392,eccentric,3,3.0,25739.0,354594.0,319424.0,377541.0,326216.0
2026-04-07 17:45:37.791602,184291,1008172513,1008173909,0.796416,-0.230336,-0.001952,-8.44375,13.5975,-31.78,-11.632001,-13.704,20.352001,eccentric,3,3.0,25739.0,354594.0,319424.0,377541.0,326216.0
2026-04-07 17:45:37.820145,184302,1008181544,1008182652,0.796416,-0.230336,-0.001952,-11.22625,13.46625,-31.01875,-11.632001,-13.704,20.352001,eccentric,3,3.0,25484.0,352746.0,318039.0,376483.0,325270.0
2026-04-07 17:45:37.824374,184303,1008190511,1008191409,0.813984,-0.203008,0.001952,-10.87625,12.915,-31.045,-11.624001,-14.272,20.648,eccentric,3,3.0,25484.0,352746.0,318039.0,376483.0,325270.0
2026-04-07 17:45:37.826123,184304,1008204974,1008206317,0.813984,-0.203008,0.001952,-9.45875,12.78375,-31.84125,-11.624001,-14.272,20.648,eccentric,3,3.0,25484.0,352746.0,318039.0,376483.0,325270.0
2026-04-07 17:45:37.827658,184305,1008214035,1008215091,0.804224,-0.199104,-0.021472,-9.35375,13.2825,-33.285,-12.056001,-14.856001,21.856,eccentric,3,3.0,25484.0,352746.0,318039.0,376483.0,325270.0
2026-04-07 17:45:37.831916,184306,1008223078,1008223836,0.804224,-0.199104,-0.021472,-6.76375,12.915,-34.48375,-12.056001,-14.856001,21.856,eccentric,3,3.0,25484.0,352746.0,318039.0,376483.0,325270.0
2026-04-07 17:45:37.834283,184307,1008232448,1008234661,0.80032,-0.193248,0.007808,-9.0825,12.355001,-35.420002,-12.000001,-14.696001,22.04,eccentric,3,3.0,25484.0,352746.0,318039.0,376483.0,325270.0
2026-04-07 17:45:37.862819,184308,1008246982,1008247497,0.80032,-0.193248,0.007808,-8.46125,11.59375,-35.88375,-12.000001,-14.696001,22.04,eccentric,3,3.0,25484.0,352746.0,318039.0,376483.0,325270.0
2026-04-07 17:45:37.867360,184309,1008256351,1008258286,0.802272,-0.20496,-0.00976,-7.035,10.17625,-34.79,-11.744,-14.896001,21.848001,eccentric,3,3.0,25484.0,352746.0,318039.0,376483.0,325270.0
2026-04-07 17:45:37.874654,184310,1008265252,1008266977,0.802272,-0.20496,-0.00976,-6.195,8.12875,-33.13625,-11.744,-14.896001,21.848001,eccentric,3,3.0,25484.0,352746.0,318039.0,376483.0,325270.0
2026-04-07 17:45:37.935171,184320,1008280077,1008281959,0.833504,-0.150304,-0.011712,-3.1675,8.19,-32.89125,-10.8,-15.288001,20.808,eccentric,3,3.0,25265.0,350976.0,316956.0,375884.0,324768.0
2026-04-07 17:45:37.939419,184321,1008289098,1008290685,0.778848,-0.152256,-0.023424,-3.05375,9.1875,-33.39,-11.152,-14.936001,21.592001,eccentric,3,3.0,25265.0,350976.0,316956.0,375884.0,324768.0
2026-04-07 17:45:37.941111,184322,1008298016,1008299372,0.778848,-0.152256,-0.023424,-2.905,10.5,-33.85375,-11.152,-14.936001,21.592001,eccentric,3,3.0,25265.0,350976.0,316956.0,375884.0,324768.0
2026-04-07 17:45:37.942667,184323,1008306913,1008308046,0.778848,-0.152256,-0.023424,-5.34625,9.54625,-32.62,-11.152,-14.936001,21.592001,eccentric,3,3.0,25265.0,350976.0,316956.0,375884.0,324768.0
2026-04-07 17:45:37.947058,184324,1008321384,1008322953,0.784704,-0.197152,-0.023424,-8.2075,8.32125,-30.00375,-11.336,-15.336,20.68,eccentric,3,3.0,25265.0,350976.0,316956.0,375884.0,324768.0
2026-04-07 17:45:37.948778,184325,1008330325,1008331616,0.769088,-0.167872,-0.00976,-8.636251,7.105,-27.16,-11.280001,-16.016,21.464,eccentric,3,3.0,25265.0,350976.0,316956.0,375884.0,324768.0
2026-04-07 17:45:37.950302,184326,1008339276,1008340357,0.769088,-0.167872,-0.00976,-9.31875,5.03125,-24.70125,-11.280001,-16.016,21.464,eccentric,3,3.0,25265.0,350976.0,316956.0,375884.0,324768.0
2026-04-07 17:45:37.954433,184327,1008353810,1008355258,0.769088,-0.142496,-0.013664,-9.765,3.85,-22.6975,-11.264001,-15.808001,21.144001,eccentric,3,3.0,25265.0,350976.0,316956.0,375884.0,324768.0
2026-04-07 17:45:37.960491,184328,1008362790,1008363999,0.769088,-0.142496,-0.013664,-9.135,2.58125,-22.8025,-11.264001,-15.808001,21.144001,eccentric,3,3.0,25265.0,350976.0,316956.0,375884.0,324768.0
2026-04-07 17:45:37.989059,184329,1008371717,1008372703,0.788608,-0.167872,-0.015616,-9.05625,1.6625,-21.30625,-11.952001,-16.168001,23.144001,eccentric,3,3.0,25265.0,350976.0,316956.0,375884.0,324768.0
2026-04-07 17:45:38.020704,184339,1008386287,1008387713,0.788608,-0.167872,-0.015616,-9.2225,1.63625,-19.460001,-11.952001,-16.168001,23.144001,eccentric,3,3.0,25206.0,350133.0,316201.0,374664.0,323431.0
2026-04-07 17:45:38.022366,184340,1008395209,1008396383,0.794464,-0.183488,-0.050752,-8.365,0.7875,-17.045,-10.8,-16.128,21.248001,eccentric,3,3.0,25206.0,350133.0,316201.0,374664.0,323431.0
2026-04-07 17:45:38.024062,184341,1008404136,1008405108,0.794464,-0.183488,-0.050752,-7.665,-0.46375,-13.9125,-10.8,-16.128,21.248001,eccentric,3,3.0,25206.0,350133.0,316201.0,374664.0,323431.0
2026-04-07 17:45:38.028493,184342,1008413194,1008413971,0.79056,-0.115168,-0.037088,-7.6125,-1.09375,-12.18,-11.184001,-16.16,20.496,eccentric,3,3.0,25206.0,350133.0,316201.0,374664.0,323431.0
2026-04-07 17:45:38.032206,184343,1008428139,1008428882,0.79056,-0.115168,-0.037088,-7.175,-1.11125,-11.92625,-11.184001,-16.16,20.496,eccentric,3,3.0,25206.0,350133.0,316201.0,374664.0,323431.0
2026-04-07 17:45:38.038012,184344,1008437494,1008439645,0.817888,-0.150304,-0.040992,-7.35875,-2.2925,-10.35125,-11.528001,-16.12,20.400002,eccentric,3,3.0,25206.0,350133.0,316201.0,374664.0,323431.0
2026-04-07 17:45:38.066688,184345,1008446509,1008448333,0.817888,-0.150304,-0.040992,-6.48375,-2.98375,-9.87,-11.528001,-16.12,20.400002,eccentric,3,3.0,25206.0,350133.0,316201.0,374664.0,323431.0
2026-04-07 17:45:38.070138,184346,1008455463,1008457066,0.837408,-0.154208,-0.042944,-4.2175,-2.345,-9.1875,-11.576,-16.368,20.720001,eccentric,3,3.0,25206.0,350133.0,316201.0,374664.0,323431.0
2026-04-07 17:45:38.074454,184347,1008469955,1008471949,0.847168,-0.101504,-0.01952,-3.77125,-1.365,-8.18125,-11.368001,-16.704,21.04,eccentric,3,3.0,25206.0,350133.0,316201.0,374664.0,323431.0
2026-04-07 17:45:38.100162,184358,1008479412,1008480723,0.847168,-0.101504,-0.01952,-4.06875,-0.30625,-8.7675,-11.368001,-16.704,21.04,eccentric,3,3.0,25209.0,350005.0,315819.0,373845.0,322845.0
2026-04-07 17:45:38.104526,184359,1008488463,1008489436,0.847168,-0.101504,-0.01952,-3.99875,0.245,-9.47625,-11.368001,-16.704,21.04,eccentric,3,3.0,25209.0,350005.0,315819.0,373845.0,322845.0
2026-04-07 17:45:38.106982,184360,1008503033,1008504430,0.856928,-0.140544,-0.040992,-4.08625,0.6825,-8.82,-10.952001,-16.816,21.392,eccentric,3,3.0,25209.0,350005.0,315819.0,373845.0,322845.0
2026-04-07 17:45:38.110526,184361,1008511965,1008513159,0.83936,-0.132736,-0.046848,-3.64,0.8575,-7.86625,-11.144,-16.224,21.664001,eccentric,3,3.0,25209.0,350005.0,315819.0,373845.0,322845.0
2026-04-07 17:45:38.143839,184362,1008520931,1008521856,0.83936,-0.132736,-0.046848,-2.63375,1.015,-6.62375,-11.144,-16.224,21.664001,eccentric,3,3.0,25209.0,350005.0,315819.0,373845.0,322845.0
2026-04-07 17:45:38.146011,184363,1008535396,1008536792,0.864736,-0.111264,-0.013664,-3.0275,0.95375,-5.04,-11.360001,-16.104,20.824001,eccentric,3,3.0,25209.0,350005.0,315819.0,373845.0,322845.0
2026-04-07 17:45:38.150634,184364,1008544296,1008545479,0.864736,-0.111264,-0.013664,-3.57875,1.645,-4.52375,-11.360001,-16.104,20.824001,eccentric,3,3.0,25209.0,350005.0,315819.0,373845.0,322845.0
2026-04-07 17:45:38.153172,184365,1008553229,1008554172,0.823744,-0.122976,-0.031232,-2.205,4.05125,-4.1825,-11.288,-16.12,21.176,eccentric,3,3.0,25209.0,350005.0,315819.0,373845.0,322845.0
2026-04-07 17:45:38.207579,184366,1008562322,1008562894,0.823744,-0.122976,-0.031232,-3.5875,4.87375,-2.765,-11.288,-16.12,21.176,eccentric,3,3.0,25209.0,350005.0,315819.0,373845.0,322845.0
2026-04-07 17:45:38.210144,184367,1008577034,1008577831,0.788608,-0.150304,-0.040992,-6.81625,5.06625,-0.83125,-10.568001,-16.368,22.560001,eccentric,3,3.0,25209.0,350005.0,315819.0,373845.0,322845.0
2026-04-07 17:45:38.238659,184377,1008585956,1008586601,0.788608,-0.150304,-0.040992,-7.37625,4.62875,1.505,-10.568001,-16.368,22.560001,eccentric,3,3.0,25258.0,350703.0,316508.0,374743.0,323927.0
2026-04-07 17:45:38.240151,184378,1008595305,1008597404,0.802272,-0.150304,-0.064416,-6.055,2.59,4.41875,-11.296001,-16.776001,21.240002,eccentric,3,3.0,25258.0,350703.0,316508.0,374743.0,323927.0
2026-04-07 17:45:38.244356,184379,1008609804,1008610262,0.792512,-0.08784,-0.05856,-4.03375,0.4025,5.92375,-11.296001,-16.776001,20.936,eccentric,3,3.0,25258.0,350703.0,316508.0,374743.0,323927.0
2026-04-07 17:45:38.246102,184380,1008619126,1008621021,0.792512,-0.08784,-0.05856,-0.93625,1.11125,4.6725,-11.536,-16.08,20.936,eccentric,3,3.0,25258.0,350703.0,316508.0,374743.0,323927.0
2026-04-07 17:45:38.247632,184381,1008628121,1008629735,0.792512,-0.08784,-0.05856,1.295,1.47875,3.31625,-11.536,-16.08,20.936,eccentric,3,3.0,25258.0,350703.0,316508.0,374743.0,323927.0
2026-04-07 17:45:38.252605,184382,1008637158,1008638443,0.815936,-0.11712,-0.0488,1.09375,1.16375,2.59,-11.976001,-16.304,22.168001,eccentric,3,3.0,25258.0,350703.0,316508.0,374743.0,323927.0
2026-04-07 17:45:38.254321,184383,1008651863,1008653368,0.782752,-0.179584,-0.072224,-0.00875,1.05,1.72375,-12.064,-16.248001,22.448002,eccentric,3,3.0,25258.0,350703.0,316508.0,374743.0,323927.0
2026-04-07 17:45:38.258450,184384,1008660788,1008662102,0.782752,-0.179584,-0.072224,-0.0175,0.28,2.80875,-12.064,-16.248001,22.448002,eccentric,3,3.0,25258.0,350703.0,316508.0,374743.0,323927.0
2026-04-07 17:45:38.291242,184385,1008669778,1008670804,0.782752,-0.179584,-0.076128,0.91875,-1.65375,6.69375,-12.064,-16.248001,22.448002,eccentric,3,3.0,25258.0,350703.0,316508.0,374743.0,323927.0
2026-04-07 17:45:38.318970,184395,1008684491,1008685827,0.796416,-0.173728,-0.076128,0.34125,-3.7975,10.12375,-11.688001,-16.024,24.248001,eccentric,3,3.0,25409.0,352119.0,317692.0,376077.0,325518.0
2026-04-07 17:45:38.322343,184396,1008693380,1008694525,0.825696,-0.11712,-0.040992,-0.875,-3.7975,12.25875,-11.584001,-15.792001,20.616001,eccentric,3,3.0,25409.0,352119.0,317692.0,376077.0,325518.0
2026-04-07 17:45:38.323951,184397,1008702478,1008703228,0.825696,-0.11712,-0.040992,-0.77875,-2.65125,12.10125,-11.584001,-15.792001,20.616001,eccentric,3,3.0,25409.0,352119.0,317692.0,376077.0,325518.0
2026-04-07 17:45:38.328698,184398,1008712000,1008714066,0.794464,-0.1464,-0.064416,1.88125,-2.1175,11.2525,-11.312,-15.488001,20.712002,eccentric,3,3.0,25409.0,352119.0,317692.0,376077.0,325518.0
2026-04-07 17:45:38.331041,184399,1008726541,1008726913,0.794464,-0.1464,-0.064416,3.01,-3.045,11.05125,-11.312,-15.488001,20.712002,eccentric,3,3.0,25409.0,352119.0,317692.0,376077.0,325518.0
2026-04-07 17:45:38.334188,184400,1008735846,1008737745,0.753472,-0.169824,-0.093696,3.64875,-5.43375,12.17125,-11.848001,-15.376,20.448002,eccentric,3,3.0,25409.0,352119.0,317692.0,376077.0,325518.0
2026-04-07 17:45:38.362824,184401,1008744791,1008746453,0.753472,-0.169824,-0.093696,6.16,-8.0675,15.23375,-11.848001,-15.376,20.448002,eccentric,3,3.0,25409.0,352119.0,317692.0,376077.0,325518.0
2026-04-07 17:45:38.367461,184402,1008753726,1008755136,0.74176,-0.13664,-0.066368,5.97625,-10.24625,18.9,-11.400001,-15.808001,20.560001,eccentric,3,3.0,25409.0,352119.0,317692.0,376077.0,325518.0
2026-04-07 17:45:38.368895,184403,1008768240,1008770066,0.74176,-0.13664,-0.066368,4.4975,-12.48625,21.0875,-11.400001,-15.808001,20.560001,eccentric,3,3.0,25409.0,352119.0,317692.0,376077.0,325518.0
2026-04-07 17:45:38.376684,184404,1008777185,1008778772,0.778848,-0.163968,-0.046848,3.4125,-13.60625,23.75625,-11.8,-15.248001,19.624,eccentric,3,3.0,25409.0,352119.0,317692.0,376077.0,325518.0
2026-04-07 17:45:38.406929,184415,1008786184,1008787514,0.778848,-0.163968,-0.046848,2.14375,-13.1775,23.87875,-11.8,-15.248001,19.624,eccentric,3,3.0,26000.0,356721.0,321081.0,378929.0,327670.0
2026-04-07 17:45:38.408602,184416,1008800797,1008802548,0.749568,-0.160064,-0.06832,6.37,-11.64625,22.295,-12.128,-14.704,21.688002,eccentric,3,3.0,26000.0,356721.0,321081.0,378929.0,327670.0
2026-04-07 17:45:38.410220,184417,1008809742,1008811293,0.749568,-0.160064,-0.06832,8.07625,-12.22375,21.525,-12.128,-14.704,21.688002,eccentric,3,3.0,26000.0,356721.0,321081.0,378929.0,327670.0
2026-04-07 17:45:38.418422,184418,1008818739,1008819987,0.77104,-0.16592,-0.054656,7.27125,-14.0175,21.76125,-12.856001,-14.896001,22.048,concentric,3,3.0,26000.0,356721.0,321081.0,378929.0,327670.0
2026-04-07 17:45:38.451316,184419,1008833233,1008834949,0.806176,-0.216672,-0.08784,5.74,-15.5225,21.5775,-12.352,-14.200001,20.160002,concentric,3,3.0,26000.0,356721.0,321081.0,378929.0,327670.0
2026-04-07 17:45:38.453501,184420,1008842165,1008843636,0.806176,-0.216672,-0.08784,5.15375,-17.03625,22.33875,-12.352,-14.200001,20.160002,concentric,3,3.0,26000.0,356721.0,321081.0,378929.0,327670.0
2026-04-07 17:45:38.458095,184421,1008851121,1008852362,0.847168,-0.230336,-0.056608,4.6725,-17.5,22.47,-12.352,-13.576,20.224,concentric,3,3.0,26000.0,356721.0,321081.0,378929.0,327670.0
2026-04-07 17:45:38.464544,184422,1008865577,1008867314,0.847168,-0.230336,-0.056608,5.97625,-15.49625,21.60375,-12.368001,-13.576,20.224,concentric,3,3.0,26000.0,356721.0,321081.0,378929.0,327670.0
2026-04-07 17:45:38.522563,184423,1008874518,1008876028,0.83936,-0.191296,-0.103456,11.235,-13.5275,21.20125,-11.888001,-13.416,19.560001,concentric,3,3.0,26000.0,356721.0,321081.0,378929.0,327670.0
2026-04-07 17:45:38.548132,184433,1008883730,1008884768,0.83936,-0.191296,-0.103456,16.73875,-13.2825,19.845,-11.888001,-13.416,19.560001,concentric,3,3.0,26994.0,364932.0,327466.0,385150.0,332677.0
2026-04-07 17:45:38.549896,184434,1008892663,1008893464,0.84912,-0.20496,-0.083936,18.48875,-13.475,16.31,-12.056001,-13.784,19.552,concentric,3,3.0,26994.0,364932.0,327466.0,385150.0,332677.0
2026-04-07 17:45:38.551549,184435,1008907140,1008908345,0.84912,-0.20496,-0.083936,19.0925,-13.72,14.245,-12.056001,-13.784,19.552,concentric,3,3.0,26994.0,364932.0,327466.0,385150.0,332677.0
2026-04-07 17:45:38.555605,184436,1008916060,1008917029,0.825696,-0.240096,-0.083936,16.485,-13.886251,13.62375,-12.376,-13.064001,19.648,concentric,3,3.0,26994.0,364932.0,327466.0,385150.0,332677.0
2026-04-07 17:45:38.557335,184437,1008924969,1008925755,0.825696,-0.240096,-0.083936,15.715,-13.95625,14.0875,-12.376,-13.064001,19.648,concentric,3,3.0,26994.0,364932.0,327466.0,385150.0,332677.0
2026-04-07 17:45:38.558911,184438,1008940077,1008940731,0.841312,-0.236192,-0.03904,17.26375,-12.97625,16.625,-12.776001,-13.200001,20.832,concentric,3,3.0,26994.0,364932.0,327466.0,385150.0,332677.0
2026-04-07 17:45:38.566874,184439,1008949565,1008951545,0.841312,-0.236192,-0.03904,15.70625,-11.76,16.3275,-12.776001,-13.200001,20.832,concentric,3,3.0,26994.0,364932.0,327466.0,385150.0,332677.0
2026-04-07 17:45:38.568945,184440,1008958573,1008960275,0.796416,-0.199104,-0.074176,16.178751,-9.63375,15.155,-12.928,-12.512001,21.28,concentric,3,3.0,26994.0,364932.0,327466.0,385150.0,332677.0
2026-04-07 17:45:38.570187,184441,1008967528,1008968988,0.796416,-0.199104,-0.074176,19.01375,-9.49375,15.56625,-12.928,-12.512001,21.28,concentric,3,3.0,26994.0,364932.0,327466.0,385150.0,332677.0
2026-04-07 17:45:38.603197,184451,1008982535,1008984044,0.798368,-0.197152,-0.083936,19.06625,-10.4475,13.64125,-13.368001,-12.536,21.496,concentric,3,3.0,28030.0,373013.0,333787.0,391601.0,338126.0
2026-04-07 17:45:38.605012,184452,1008991639,1008992863,0.79056,-0.230336,-0.091744,21.34125,-11.33125,11.8125,-13.368001,-12.360001,21.688002,concentric,3,3.0,28030.0,373013.0,333787.0,391601.0,338126.0
2026-04-07 17:45:38.606421,184453,1009000550,1009001649,0.79056,-0.230336,-0.091744,25.27875,-12.66125,11.80375,-13.064001,-12.360001,21.688002,concentric,3,3.0,28030.0,373013.0,333787.0,391601.0,338126.0
2026-04-07 17:45:38.610506,184454,1009009477,1009010332,0.79056,-0.230336,-0.091744,25.2175,-14.2975,12.90625,-13.064001,-12.360001,21.688002,concentric,3,3.0,28030.0,373013.0,333787.0,391601.0,338126.0
2026-04-07 17:45:38.639047,184455,1009023949,1009025258,0.792512,-0.245952,-0.050752,23.70375,-13.7725,14.16625,-13.856001,-11.624001,19.472,concentric,3,3.0,28030.0,373013.0,333787.0,391601.0,338126.0
2026-04-07 17:45:38.643626,184456,1009032911,1009033984,0.788608,-0.212768,-0.035136,20.95625,-13.1075,16.02125,-12.568001,-11.68,18.552,concentric,3,3.0,28030.0,373013.0,333787.0,391601.0,338126.0
2026-04-07 17:45:38.645139,184457,1009041836,1009042674,0.788608,-0.212768,-0.035136,16.397501,-11.7775,15.96875,-12.568001,-11.68,18.552,concentric,3,3.0,28030.0,373013.0,333787.0,391601.0,338126.0
2026-04-07 17:45:38.676280,184458,1009056336,1009057553,0.767136,-0.22448,-0.109312,17.57,-11.2875,15.18125,-12.424001,-11.536,18.544,concentric,3,3.0,28030.0,373013.0,333787.0,391601.0,338126.0
2026-04-07 17:45:38.678509,184459,1009065261,1009066306,0.767136,-0.22448,-0.109312,18.655,-13.04625,14.79625,-12.424001,-11.536,18.544,concentric,3,3.0,28030.0,373013.0,333787.0,391601.0,338126.0
2026-04-07 17:45:38.683317,184460,1009074158,1009074995,0.825696,-0.247904,-0.054656,19.215,-15.09375,13.25625,-12.888001,-11.576,18.632,concentric,3,3.0,28030.0,373013.0,333787.0,391601.0,338126.0
2026-04-07 17:45:38.712707,184471,1009088809,1009090043,0.825696,-0.247904,-0.054656,18.90875,-15.8375,11.0775,-12.888001,-11.576,18.632,concentric,3,3.0,28824.0,379601.0,339153.0,397282.0,342944.0
2026-04-07 17:45:38.716886,184472,1009097746,1009098849,0.854976,-0.30256,-0.066368,18.865,-14.875,9.7825,-12.872001,-11.344001,19.384,concentric,3,3.0,28824.0,379601.0,339153.0,397282.0,342944.0
2026-04-07 17:45:38.718591,184473,1009106761,1009107565,0.854976,-0.30256,-0.066368,16.30125,-13.335,11.06875,-12.872001,-11.344001,19.384,concentric,3,3.0,28824.0,379601.0,339153.0,397282.0,342944.0
2026-04-07 17:45:38.720090,184474,1009121474,1009122852,0.8296,-0.28304,-0.056608,15.28625,-12.1625,12.845,-13.512001,-11.472,18.904001,concentric,3,3.0,28824.0,379601.0,339153.0,397282.0,342944.0
2026-04-07 17:45:38.751267,184475,1009130475,1009131591,0.8296,-0.28304,-0.056608,14.7875,-11.27,13.72875,-13.512001,-11.472,18.904001,concentric,3,3.0,28824.0,379601.0,339153.0,397282.0,342944.0
2026-04-07 17:45:38.755693,184476,1009139385,1009140335,0.825696,-0.238144,-0.081984,14.8225,-11.795,11.7425,-13.008,-10.328,18.84,concentric,3,3.0,28824.0,379601.0,339153.0,397282.0,342944.0
2026-04-07 17:45:38.757367,184477,1009148276,1009149083,0.825696,-0.238144,-0.081984,16.33625,-12.43375,8.35625,-13.008,-10.328,18.84,concentric,3,3.0,28824.0,379601.0,339153.0,397282.0,342944.0
2026-04-07 17:45:38.759689,184478,1009162783,1009163947,0.843264,-0.306464,-0.072224,19.8625,-13.41375,6.23,-12.888001,-10.064,17.416,concentric,3,3.0,28824.0,379601.0,339153.0,397282.0,342944.0
2026-04-07 17:45:38.807547,184479,1009171775,1009172746,0.843264,-0.306464,-0.033184,18.06875,-13.62375,5.43375,-12.888001,-10.064,17.416,concentric,3,3.0,28824.0,379601.0,339153.0,397282.0,342944.0
2026-04-07 17:45:38.809767,184480,1009180683,1009181481,0.853024,-0.294752,-0.033184,17.14125,-11.61125,5.075,-13.040001,-10.152,17.160002,concentric,3,3.0,28824.0,379601.0,339153.0,397282.0,342944.0
2026-04-07 17:45:38.836098,184490,1009195152,1009196396,0.835456,-0.290848,-0.05856,15.95125,-9.6075,4.725,-13.056001,-9.848001,17.912,concentric,3,3.0,29326.0,383771.0,342651.0,400948.0,346114.0
2026-04-07 17:45:38.837621,184491,1009204033,1009205119,0.835456,-0.290848,-0.05856,13.30875,-7.875,5.5125,-13.056001,-9.848001,17.912,concentric,3,3.0,29326.0,383771.0,342651.0,400948.0,346114.0
2026-04-07 17:45:38.842174,184492,1009212932,1009213841,0.815936,-0.27328,-0.081984,11.1825,-6.83375,5.36375,-13.8,-9.88,17.904001,concentric,3,3.0,29326.0,383771.0,342651.0,400948.0,346114.0
2026-04-07 17:45:38.848219,184493,1009227434,1009228770,0.815936,-0.27328,-0.081984,9.9925,-6.37875,3.91125,-13.8,-9.88,17.904001,concentric,3,3.0,29326.0,383771.0,342651.0,400948.0,346114.0
2026-04-07 17:45:38.849884,184494,1009236403,1009237556,0.831552,-0.284992,-0.074176,12.1975,-6.405,2.8,-13.968,-10.064,19.488,concentric,3,3.0,29326.0,383771.0,342651.0,400948.0,346114.0
2026-04-07 17:45:38.851715,184495,1009245345,1009246250,0.831552,-0.284992,-0.074176,12.24125,-7.11375,2.38875,-13.968,-10.064,19.488,concentric,3,3.0,29326.0,383771.0,342651.0,400948.0,346114.0
2026-04-07 17:45:38.859262,184496,1009259854,1009261172,0.815936,-0.304512,-0.093696,11.41,-6.0375,1.6975,-14.224001,-9.88,19.432001,concentric,3,3.0,29326.0,383771.0,342651.0,400948.0,346114.0
2026-04-07 17:45:38.887815,184497,1009268817,1009269884,0.815936,-0.304512,-0.093696,12.97625,-5.7575,1.4875,-14.224001,-9.88,19.432001,concentric,3,3.0,29326.0,383771.0,342651.0,400948.0,346114.0
2026-04-07 17:45:38.892531,184498,1009277704,1009278629,0.80032,-0.28304,-0.080032,11.06,-5.87125,1.53125,-14.360001,-10.032001,16.832,concentric,3,3.0,29326.0,383771.0,342651.0,400948.0,346114.0
2026-04-07 17:45:38.923159,184508,1009286785,1009287380,0.80032,-0.28304,-0.080032,7.63875,-5.4775,2.6425,-14.360001,-10.032001,16.832,concentric,3,3.0,29690.0,386564.0,344898.0,402833.0,348066.0
2026-04-07 17:45:38.925085,184509,1009301574,1009302306,0.80032,-0.310368,-0.089792,6.4225,-5.1975,3.42125,-13.76,-9.272,17.032001,concentric,3,3.0,29690.0,386564.0,344898.0,402833.0,348066.0
2026-04-07 17:45:38.926579,184510,1009310940,1009313065,0.80032,-0.310368,-0.089792,3.2725,-5.76625,1.82875,-13.76,-9.272,17.032001,concentric,3,3.0,29690.0,386564.0,344898.0,402833.0,348066.0
2026-04-07 17:45:38.930714,184511,1009319928,1009321764,0.79056,-0.316224,-0.089792,4.0775,-4.3225,0.95375,-14.328001,-9.368,19.992,concentric,3,3.0,29690.0,386564.0,344898.0,402833.0,348066.0
2026-04-07 17:45:38.932138,184512,1009329045,1009330609,0.79056,-0.316224,-0.089792,8.04125,-2.77375,0.41125,-14.328001,-9.368,19.992,concentric,3,3.0,29690.0,386564.0,344898.0,402833.0,348066.0
2026-04-07 17:45:38.961598,184513,1009343557,1009345540,0.831552,-0.304512,-0.07808,5.6175,-1.19,-2.6075,-14.192,-9.496,16.952002,concentric,3,3.0,29690.0,386564.0,344898.0,402833.0,348066.0
2026-04-07 17:45:38.965226,184514,1009352502,1009354225,0.831552,-0.304512,-0.093696,5.88875,3.29875,-4.41,-14.192,-9.496,16.952002,concentric,3,3.0,29690.0,386564.0,344898.0,402833.0,348066.0
2026-04-07 17:45:38.967691,184515,1009361430,1009362935,0.835456,-0.3416,-0.083936,6.685,6.7025,-4.96125,-14.344001,-9.528001,17.128,concentric,3,3.0,29690.0,386564.0,344898.0,402833.0,348066.0
2026-04-07 17:45:38.998776,184516,1009375914,1009377810,0.804224,-0.335744,-0.083936,2.905,9.8175,-5.66125,-14.976001,-9.336,18.616001,concentric,3,3.0,29690.0,386564.0,344898.0,402833.0,348066.0
2026-04-07 17:45:39.033613,184527,1009385130,1009386591,0.804224,-0.335744,-0.083936,3.08,11.8825,-5.90625,-14.976001,-9.336,18.616001,concentric,3,3.0,29954.0,388645.0,346655.0,403431.0,349681.0
2026-04-07 17:45:39.035272,184528,1009394117,1009395335,0.81008,-0.337696,-0.07808,6.0025,13.34375,-5.48625,-14.704,-9.392,17.152,concentric,3,3.0,29954.0,388645.0,346655.0,403431.0,349681.0
2026-04-07 17:45:39.037668,184529,1009408569,1009410242,0.81008,-0.337696,-0.07808,3.78875,14.035,-5.0575,-14.704,-9.392,17.152,concentric,3,3.0,29954.0,388645.0,346655.0,403431.0,349681.0
2026-04-07 17:45:39.041872,184530,1009417576,1009419016,0.817888,-0.33184,-0.0976,2.93125,15.74125,-3.64875,-15.216001,-9.416,18.616001,concentric,3,3.0,29954.0,388645.0,346655.0,403431.0,349681.0
2026-04-07 17:45:39.043634,184531,1009426511,1009427775,0.817888,-0.33184,-0.0976,2.73,17.3425,-3.64875,-15.216001,-9.416,18.616001,concentric,3,3.0,29954.0,388645.0,346655.0,403431.0,349681.0
2026-04-07 17:45:39.046078,184532,1009435553,1009436499,0.882304,-0.310368,-0.099552,4.10375,18.82125,-5.7225,-14.904,-8.848001,17.408,concentric,3,3.0,29954.0,388645.0,346655.0,403431.0,349681.0
2026-04-07 17:45:39.047658,184533,1009450160,1009451413,0.882304,-0.310368,-0.099552,6.39625,19.81875,-6.5625,-14.904,-8.848001,17.408,concentric,3,3.0,29954.0,388645.0,346655.0,403431.0,349681.0
2026-04-07 17:45:39.110087,184534,1009459149,1009460147,0.925248,-0.343552,-0.095648,6.08125,19.03125,-8.9075,-15.168001,-9.264001,17.152,concentric,3,3.0,29954.0,388645.0,346655.0,403431.0,349681.0
2026-04-07 17:45:39.114583,184535,1009468226,1009468875,0.925248,-0.343552,-0.095648,3.52625,18.445,-8.7325,-15.168001,-9.264001,17.152,concentric,3,3.0,29954.0,388645.0,346655.0,403431.0,349681.0
2026-04-07 17:45:39.148713,184545,1009483050,1009483927,0.933056,-0.3904,-0.105408,1.56625,18.40125,-8.198751,-15.216001,-9.424001,17.872002,concentric,3,3.0,29445.0,384859.0,343507.0,401715.0,346386.0
2026-04-07 17:45:39.150179,184546,1009492786,1009494734,0.933056,-0.3904,-0.105408,3.78,17.675,-8.0325,-15.216001,-9.424001,17.872002,concentric,3,3.0,29445.0,384859.0,343507.0,401715.0,346386.0
2026-04-07 17:45:39.154413,184547,1009501712,1009503437,0.905728,-0.324032,-0.099552,6.04625,15.82,-5.74875,-15.800001,-8.744,17.36,concentric,3,3.0,29445.0,384859.0,343507.0,401715.0,346386.0
2026-04-07 17:45:39.156113,184548,1009510670,1009512128,0.905728,-0.324032,-0.099552,7.21875,14.04375,-4.5675,-15.800001,-8.744,17.36,concentric,3,3.0,29445.0,384859.0,343507.0,401715.0,346386.0
2026-04-07 17:45:39.157648,184549,1009525310,1009527088,0.93696,-0.327936,-0.07808,8.82,12.81,-5.3025,-15.832001,-9.344001,18.2,concentric,3,3.0,29445.0,384859.0,343507.0,401715.0,346386.0
2026-04-07 17:45:39.161882,184550,1009534353,1009535806,0.925248,-0.32208,-0.091744,6.11625,12.67,-5.25,-16.856,-9.808001,19.976002,concentric,3,3.0,29445.0,384859.0,343507.0,401715.0,346386.0
2026-04-07 17:45:39.163619,184551,1009543435,1009544556,0.925248,-0.32208,-0.091744,6.685,13.0025,-6.1775,-16.856,-9.808001,19.976002,concentric,3,3.0,29445.0,384859.0,343507.0,401715.0,346386.0
2026-04-07 17:45:39.165148,184552,1009557996,1009559531,0.890112,-0.306464,-0.06832,8.365,14.2275,-7.42,-15.736001,-9.304001,18.064001,concentric,3,3.0,29445.0,384859.0,343507.0,401715.0,346386.0
2026-04-07 17:45:39.169288,184553,1009567014,1009568348,0.890112,-0.306464,-0.06832,8.91625,14.542501,-6.86875,-15.736001,-9.304001,18.064001,concentric,3,3.0,29445.0,384859.0,343507.0,401715.0,346386.0
2026-04-07 17:45:39.173443,184554,1009576095,1009577113,0.85888,-0.308416,-0.050752,8.67125,13.78125,-5.57375,-15.664001,-9.440001,18.072,concentric,3,3.0,29445.0,384859.0,343507.0,401715.0,346386.0
2026-04-07 17:45:39.227431,184564,1009585360,1009585819,0.85888,-0.308416,-0.050752,7.3325,12.5825,-5.705,-15.664001,-9.440001,18.072,concentric,3,3.0,28990.0,381337.0,340591.0,398583.0,343499.0
2026-04-07 17:45:39.228919,184565,1009600366,1009600778,0.833504,-0.314272,-0.052704,4.62875,10.8675,-4.865,-16.04,-9.0,18.08,concentric,3,3.0,28990.0,381337.0,340591.0,398583.0,343499.0
2026-04-07 17:45:39.233165,184566,1009609655,1009611556,0.833504,-0.314272,-0.052704,4.83,9.073751,-4.025,-16.04,-9.0,18.08,concentric,3,3.0,28990.0,381337.0,340591.0,398583.0,343499.0
2026-04-07 17:45:39.234866,184567,1009618772,1009620312,0.825696,-0.284992,-0.025376,5.6175,8.47,-3.7625,-16.624,-9.76,19.904001,concentric,3,3.0,28990.0,381337.0,340591.0,398583.0,343499.0
2026-04-07 17:45:39.236428,184568,1009627731,1009629022,0.825696,-0.284992,-0.025376,5.88,7.7,-2.77375,-16.624,-9.76,19.904001,concentric,3,3.0,28990.0,381337.0,340591.0,398583.0,343499.0
2026-04-07 17:45:39.239669,184569,1009642285,1009643967,0.815936,-0.2928,-0.060512,6.48375,7.3325,-2.8,-16.872002,-8.96,19.728,concentric,3,3.0,28990.0,381337.0,340591.0,398583.0,343499.0
2026-04-07 17:45:39.269944,184570,1009651282,1009652704,0.815936,-0.2928,-0.060512,7.875,6.2825,-4.4625,-16.872002,-8.96,19.728,concentric,3,3.0,28990.0,381337.0,340591.0,398583.0,343499.0
2026-04-07 17:45:39.272223,184571,1009660252,1009661400,0.806176,-0.314272,-0.06832,8.2425,4.725,-4.78625,-16.528,-9.064,18.288,concentric,3,3.0,28990.0,381337.0,340591.0,398583.0,343499.0
2026-04-07 17:45:39.276818,184572,1009674758,1009676274,0.808128,-0.32208,-0.072224,9.82625,3.92875,-5.915,-16.448,-8.824,18.016,concentric,3,3.0,28990.0,381337.0,340591.0,398583.0,343499.0
2026-04-07 17:45:39.306293,184583,1009683711,1009685192,0.808128,-0.32208,-0.072224,10.78,2.66875,-7.455,-16.448,-8.824,18.016,concentric,3,3.0,28404.0,376543.0,336727.0,394539.0,339859.0
2026-04-07 17:45:39.307941,184584,1009692696,1009693927,0.808128,-0.32208,-0.072224,8.26,1.54,-6.76375,-16.448,-8.824,18.016,concentric,3,3.0,28404.0,376543.0,336727.0,394539.0,339859.0
2026-04-07 17:45:39.311763,184585,1009707230,1009708976,0.823744,-0.325984,-0.033184,7.60375,0.37625,-6.93875,-16.704,-9.080001,20.072,concentric,3,3.0,28404.0,376543.0,336727.0,394539.0,339859.0
2026-04-07 17:45:39.315482,184586,1009716311,1009717685,0.83936,-0.306464,-0.015616,8.9425,-0.51625,-7.0875,-16.384,-9.384001,19.064001,concentric,3,3.0,28404.0,376543.0,336727.0,394539.0,339859.0
2026-04-07 17:45:39.347520,184587,1009725280,1009726364,0.83936,-0.306464,-0.015616,7.245,0.30625,-7.84875,-16.384,-9.384001,19.064001,concentric,3,3.0,28404.0,376543.0,336727.0,394539.0,339859.0
2026-04-07 17:45:39.351939,184588,1009734184,1009735130,0.83936,-0.306464,-0.050752,7.21875,1.4175,-8.6275,-16.384,-9.384001,19.064001,concentric,3,3.0,28404.0,376543.0,336727.0,394539.0,339859.0
2026-04-07 17:45:39.353623,184589,1009748701,1009750045,0.854976,-0.343552,-0.050752,6.9475,2.0475,-9.3625,-16.272001,-8.496,17.480001,concentric,3,3.0,28404.0,376543.0,336727.0,394539.0,339859.0
2026-04-07 17:45:39.355436,184590,1009757634,1009758770,0.85888,-0.333792,-0.01952,6.6675,2.6775,-10.535,-17.344002,-9.184,19.384,concentric,3,3.0,28404.0,376543.0,336727.0,394539.0,339859.0
2026-04-07 17:45:39.408818,184591,1009766551,1009767460,0.85888,-0.333792,-0.01952,7.81375,2.77375,-11.1125,-17.344002,-9.184,19.384,concentric,3,3.0,28404.0,376543.0,336727.0,394539.0,339859.0
2026-04-07 17:45:39.422984,184592,1009781053,1009782353,0.86864,-0.3416,-0.023424,8.11125,3.1675,-11.45375,-16.328001,-9.232,18.480001,concentric,3,3.0,28404.0,376543.0,336727.0,394539.0,339859.0
2026-04-07 17:45:39.451323,184602,1009790171,1009791167,0.86864,-0.3416,-0.023424,5.13625,3.33375,-10.94625,-16.328001,-9.232,18.480001,concentric,3,3.0,28609.0,378293.0,338186.0,396078.0,341390.0
2026-04-07 17:45:39.452830,184603,1009799119,1009799857,0.866688,-0.365024,-0.025376,4.34,3.5875,-10.71,-16.968,-9.008,18.312,concentric,3,3.0,28609.0,378293.0,338186.0,396078.0,341390.0
2026-04-07 17:45:39.454754,184604,1009808574,1009810679,0.866688,-0.365024,-0.025376,5.53875,3.99875,-10.2375,-16.968,-9.008,18.312,concentric,3,3.0,28609.0,378293.0,338186.0,396078.0,341390.0
2026-04-07 17:45:39.456343,184605,1009823107,1009823548,0.874496,-0.335744,-0.050752,6.57125,4.1125,-9.89625,-16.848001,-9.288,18.08,concentric,3,3.0,28609.0,378293.0,338186.0,396078.0,341390.0
2026-04-07 17:45:39.460618,184606,1009832470,1009834368,0.874496,-0.335744,-0.050752,6.74625,2.96625,-10.31625,-16.848001,-9.288,18.08,concentric,3,3.0,28609.0,378293.0,338186.0,396078.0,341390.0
2026-04-07 17:45:39.462322,184607,1009841565,1009843135,0.89792,-0.347456,-0.035136,5.50375,1.74125,-11.15625,-17.264,-9.616,18.320002,concentric,3,3.0,28609.0,378293.0,338186.0,396078.0,341390.0
2026-04-07 17:45:39.464013,184608,1009856120,1009858084,0.903776,-0.355264,-0.031232,6.53625,2.2575,-10.92875,-16.928001,-9.240001,18.056002,concentric,3,3.0,28609.0,378293.0,338186.0,396078.0,341390.0
2026-04-07 17:45:39.468186,184609,1009865214,1009866827,0.903776,-0.355264,-0.031232,7.35875,2.87,-10.92875,-16.928001,-9.240001,18.056002,concentric,3,3.0,28609.0,378293.0,338186.0,396078.0,341390.0
2026-04-07 17:45:39.474304,184610,1009874185,1009875522,0.903776,-0.355264,-0.031232,7.735,3.3425,-10.99,-16.928001,-9.240001,18.056002,concentric,3,3.0,28609.0,378293.0,338186.0,396078.0,341390.0
2026-04-07 17:45:39.480456,184611,1009883109,1009884268,0.88816,-0.3416,-0.046848,7.23625,3.38625,-10.22875,-16.952002,-8.976001,17.696001,concentric,3,3.0,28609.0,378293.0,338186.0,396078.0,341390.0
2026-04-07 17:45:39.506922,184621,1009897868,1009899259,0.91744,-0.378688,-0.060512,6.3175,2.905,-10.3775,-17.584002,-9.208,19.104,concentric,3,3.0,28669.0,378704.0,338508.0,396408.0,341664.0
2026-04-07 17:45:39.508442,184622,1009906788,1009907951,0.91744,-0.378688,-0.060512,4.97,2.065,-10.28125,-17.584002,-9.208,19.104,concentric,3,3.0,28669.0,378704.0,338508.0,396408.0,341664.0
2026-04-07 17:45:39.515471,184623,1009915709,1009916662,0.892064,-0.349408,-0.076128,4.76,2.35375,-9.275,-17.584002,-9.192,19.232,concentric,3,3.0,28669.0,378704.0,338508.0,396408.0,341664.0
2026-04-07 17:45:39.544266,184624,1009930234,1009931596,0.892064,-0.349408,-0.076128,5.85375,3.14125,-9.10875,-17.992,-9.192,19.232,concentric,3,3.0,28669.0,378704.0,338508.0,396408.0,341664.0
2026-04-07 17:45:39.547716,184625,1009939152,1009940298,0.91744,-0.347456,-0.060512,4.8125,3.5175,-9.45,-17.256,-9.112,18.224,concentric,3,3.0,28669.0,378704.0,338508.0,396408.0,341664.0
2026-04-07 17:45:39.550933,184626,1009948049,1009948964,0.91744,-0.347456,-0.060512,4.13,3.52625,-8.35625,-17.256,-9.112,18.224,concentric,3,3.0,28669.0,378704.0,338508.0,396408.0,341664.0
2026-04-07 17:45:39.581262,184627,1009962659,1009963938,0.874496,-0.3416,-0.081984,2.10875,4.69875,-7.42875,-17.480001,-9.384001,20.184,concentric,3,3.0,28669.0,378704.0,338508.0,396408.0,341664.0
2026-04-07 17:45:39.583564,184628,1009971569,1009972661,0.874496,-0.3416,-0.081984,1.26,4.76875,-8.085,-17.480001,-9.384001,20.184,concentric,3,3.0,28669.0,378704.0,338508.0,396408.0,341664.0
2026-04-07 17:45:39.588250,184629,1009980492,1009981336,0.909632,-0.353312,-0.103456,1.4875,4.38375,-7.62125,-17.0,-8.952001,18.136002,concentric,3,3.0,28669.0,378704.0,338508.0,396408.0,341664.0
2026-04-07 17:45:39.614043,184640,1009989834,1009992129,0.909632,-0.353312,-0.103456,1.79375,4.29625,-8.47875,-17.0,-8.952001,18.136002,concentric,3,3.0,28426.0,376912.0,337086.0,394969.0,340328.0
2026-04-07 17:45:39.618125,184641,1010004511,1010005107,0.901824,-0.320128,-0.093696,2.6425,4.69875,-9.28375,-17.344002,-9.528001,19.368,concentric,3,3.0,28426.0,376912.0,337086.0,394969.0,340328.0
2026-04-07 17:45:39.619825,184642,1010013702,1010015909,0.901824,-0.320128,-0.093696,3.7975,5.29375,-9.82625,-17.344002,-9.528001,19.368,concentric,3,3.0,28426.0,376912.0,337086.0,394969.0,340328.0
2026-04-07 17:45:39.621380,184643,1010022680,1010024620,0.905728,-0.308416,-0.089792,3.7625,5.39875,-10.77125,-16.984001,-9.064,19.336,concentric,3,3.0,28426.0,376912.0,337086.0,394969.0,340328.0
2026-04-07 17:45:39.651603,184644,1010037185,1010037510,0.919392,-0.325984,-0.083936,3.0275,4.655,-11.40125,-17.264,-8.864,17.464,concentric,3,3.0,28426.0,376912.0,337086.0,394969.0,340328.0
2026-04-07 17:45:39.656020,184645,1010046361,1010048383,0.919392,-0.325984,-0.083936,2.8,4.22625,-11.4275,-17.264,-8.864,17.464,concentric,3,3.0,28426.0,376912.0,337086.0,394969.0,340328.0
2026-04-07 17:45:39.658398,184646,1010055270,1010057085,0.919392,-0.325984,-0.083936,1.11125,3.52625,-11.4275,-17.264,-8.864,17.464,concentric,3,3.0,28426.0,376912.0,337086.0,394969.0,340328.0
2026-04-07 17:45:39.664323,184647,1010064188,1010065859,0.935008,-0.308416,-0.081984,0.90125,2.77375,-11.62875,-16.952002,-9.080001,18.44,concentric,3,3.0,28426.0,376912.0,337086.0,394969.0,340328.0
2026-04-07 17:45:39.710251,184648,1010078707,1010080777,0.94672,-0.308416,-0.083936,1.715,2.38875,-11.0775,-17.384,-9.624001,19.192001,concentric,3,3.0,28426.0,376912.0,337086.0,394969.0,340328.0
2026-04-07 17:45:39.736907,184658,1010088182,1010089532,0.94672,-0.308416,-0.083936,2.51125,1.6975,-11.0775,-17.384,-9.624001,19.192001,concentric,3,3.0,28376.0,376446.0,336767.0,394668.0,340074.0
2026-04-07 17:45:39.738626,184659,1010097167,1010098300,0.940864,-0.296704,-0.07808,3.63125,0.42875,-10.98125,-17.832,-9.8,15.56,concentric,3,3.0,28376.0,376446.0,336767.0,394668.0,340074.0
2026-04-07 17:45:39.740109,184660,1010111644,1010113183,0.940864,-0.296704,-0.07808,3.01,-0.4725,-10.3775,-17.832,-9.8,15.56,concentric,3,3.0,28376.0,376446.0,336767.0,394668.0,340074.0
2026-04-07 17:45:39.744377,184661,1010120602,1010121880,0.954528,-0.320128,-0.066368,1.81125,-1.56625,-9.8875,-16.792002,-9.64,17.832,concentric,3,3.0,28376.0,376446.0,336767.0,394668.0,340074.0
2026-04-07 17:45:39.746143,184662,1010129575,1010130634,0.954528,-0.320128,-0.066368,1.1725,-2.00375,-9.1,-16.792002,-9.64,17.832,concentric,3,3.0,28376.0,376446.0,336767.0,394668.0,340074.0
2026-04-07 17:45:39.747620,184663,1010144127,1010145566,0.952576,-0.318176,-0.076128,1.47875,-3.08875,-8.25125,-17.08,-9.496,17.448,concentric,3,3.0,28376.0,376446.0,336767.0,394668.0,340074.0
