pc_time,serial_num,sensor_ts,host_ts,ax,ay,az,gx,gy,gz,mx,my,mz,phase,rpe,weight_kg,ppg_a,ppg_b,ppg_c,ppg_d,ppg_e
2026-04-09 22:06:04.445913,191643,1294475111,1294477098,0.9272,-0.222528,0.011712,28.11375,8.3475,-28.76125,-27.584002,18.152,18.704,eccentric,6,3.0,33094.0,401195.0,122807.0,3409.0,-148.0
2026-04-09 22:06:04.448357,191644,1294484158,1294485891,0.923296,-0.279136,0.044896,23.6075,5.5475,-26.99375,-28.336,17.776001,18.76,eccentric,6,3.0,33094.0,401195.0,122807.0,3409.0,-148.0
2026-04-09 22:06:04.477078,191645,1294498701,1294500870,0.923296,-0.279136,0.044896,18.12125,4.01625,-24.22875,-28.336,17.776001,18.76,eccentric,6,3.0,33094.0,401195.0,122807.0,3409.0,-148.0
2026-04-09 22:06:04.481438,191646,1294507651,1294509568,0.94672,-0.236192,0.050752,12.74,3.61375,-21.91875,-28.704,16.856,19.36,eccentric,6,3.0,33094.0,401195.0,122807.0,3409.0,-148.0
2026-04-09 22:06:04.488532,191647,1294516569,1294518236,0.94672,-0.236192,0.050752,8.7675,3.43875,-20.09,-28.704,16.856,19.36,eccentric,6,3.0,33094.0,401195.0,122807.0,3409.0,-148.0
2026-04-09 22:06:04.490218,191648,1294531091,1294533182,0.968192,-0.20496,0.03904,4.935,2.93125,-19.59125,-27.968,17.216002,18.856,eccentric,6,3.0,33094.0,401195.0,122807.0,3409.0,-148.0
2026-04-09 22:06:04.517975,191658,1294540217,1294541957,0.968192,-0.20496,0.03904,2.77375,2.03,-18.97875,-27.968,17.216002,18.856,eccentric,6,3.0,33149.0,398468.0,120661.0,2947.0,-153.0
2026-04-09 22:06:04.522183,191659,1294549322,1294550732,0.95648,-0.298656,0.066368,3.6925,1.1725,-17.10625,-29.52,17.024,17.728,eccentric,6,3.0,33149.0,398468.0,120661.0,2947.0,-153.0
2026-04-09 22:06:04.524656,191660,1294558235,1294559421,0.95648,-0.298656,0.066368,3.9725,1.14625,-15.5575,-29.52,17.024,17.728,eccentric,6,3.0,33149.0,398468.0,120661.0,2947.0,-153.0
2026-04-09 22:06:04.528264,191661,1294572719,1294574379,0.950624,-0.249856,0.052704,5.6525,1.7675,-12.8625,-29.424002,17.464,19.84,eccentric,6,3.0,33149.0,398468.0,120661.0,2947.0,-153.0
2026-04-09 22:06:04.559926,191662,1294581664,1294583080,0.923296,-0.25376,0.056608,6.69375,2.45,-10.675,-29.424002,17.464,18.264,eccentric,6,3.0,33149.0,398468.0,120661.0,2947.0,-153.0
2026-04-09 22:06:04.563813,191663,1294590578,1294591776,0.923296,-0.25376,0.056608,6.335,3.395,-8.72375,-29.032001,17.336,18.264,eccentric,6,3.0,33149.0,398468.0,120661.0,2947.0,-153.0
2026-04-09 22:06:04.565924,191664,1294605050,1294606685,0.89792,-0.236192,0.054656,6.37875,3.71,-6.825,-28.600002,17.216002,18.496,eccentric,6,3.0,33149.0,398468.0,120661.0,2947.0,-153.0
2026-04-09 22:06:04.578559,191665,1294614004,1294615422,0.89792,-0.236192,0.054656,6.1075,4.69,-5.775,-28.600002,17.216002,18.496,eccentric,6,3.0,33149.0,398468.0,120661.0,2947.0,-153.0
2026-04-09 22:06:04.580121,191666,1294622941,1294624118,0.866688,-0.230336,0.066368,5.0925,5.0225,-5.075,-28.568,17.144001,18.808,eccentric,6,3.0,33149.0,398468.0,120661.0,2947.0,-153.0
2026-04-09 22:06:04.666438,191676,1294637895,1294639227,0.866688,-0.230336,0.066368,4.69,5.355,-3.91125,-28.568,17.144001,18.808,eccentric,6,3.0,33055.0,401251.0,123054.0,3524.0,-148.0
2026-04-09 22:06:04.669707,191677,1294646919,1294648055,0.84912,-0.255712,0.08784,4.20875,6.44875,-3.43,-28.728,17.472,18.752,eccentric,6,3.0,33055.0,401251.0,123054.0,3524.0,-148.0
2026-04-09 22:06:04.671395,191678,1294655839,1294656765,0.84912,-0.255712,0.08784,3.50875,7.44625,-3.33375,-28.728,17.472,18.752,eccentric,6,3.0,33055.0,401251.0,123054.0,3524.0,-148.0
2026-04-09 22:06:04.672954,191679,1294664741,1294665585,0.837408,-0.27328,0.080032,4.8125,8.9075,-2.33625,-28.840002,17.448,19.008001,eccentric,6,3.0,33055.0,401251.0,123054.0,3524.0,-148.0
2026-04-09 22:06:04.677165,191680,1294679800,1294680520,0.837408,-0.27328,0.080032,5.01375,9.89625,-1.5225,-28.840002,17.448,19.008001,eccentric,6,3.0,33055.0,401251.0,123054.0,3524.0,-148.0
2026-04-09 22:06:04.678905,191681,1294689170,1294691329,0.83936,-0.247904,0.05856,3.47375,10.78875,-1.7325,-28.624,17.376001,16.656,eccentric,6,3.0,33055.0,401251.0,123054.0,3524.0,-148.0
2026-04-09 22:06:04.680485,191682,1294698076,1294700066,0.83936,-0.247904,0.05856,1.1375,10.42125,-1.785,-28.624,17.376001,16.656,eccentric,6,3.0,33055.0,401251.0,123054.0,3524.0,-148.0
2026-04-09 22:06:04.684763,191683,1294706980,1294708753,0.853024,-0.288896,0.070272,-0.7525,10.6575,-1.72375,-29.272001,17.36,19.04,eccentric,6,3.0,33055.0,401251.0,123054.0,3524.0,-148.0
2026-04-09 22:06:04.686333,191684,1294721524,1294723678,0.853024,-0.288896,0.070272,-2.49375,10.22,-2.8875,-29.272001,17.36,19.04,eccentric,6,3.0,33055.0,401251.0,123054.0,3524.0,-148.0
2026-04-09 22:06:04.687937,191685,1294730455,1294732433,0.874496,-0.247904,0.046848,-2.07375,9.58125,-3.1675,-29.144001,17.76,20.944,eccentric,6,3.0,33055.0,401251.0,123054.0,3524.0,-148.0
2026-04-09 22:06:04.716345,191696,1294739492,1294741200,0.874496,-0.247904,0.046848,-1.5575,9.17,-3.5175,-29.144001,17.76,20.944,eccentric,6,3.0,32938.0,402784.0,124921.0,4046.0,-142.0
2026-04-09 22:06:04.720091,191697,1294754134,1294756145,0.894016,-0.304512,0.062464,-3.115,7.74375,-4.45375,-28.840002,17.816,18.84,eccentric,6,3.0,32938.0,402784.0,124921.0,4046.0,-142.0
2026-04-09 22:06:04.723258,191698,1294763089,1294764926,0.911584,-0.32208,0.074176,-3.80625,6.475,-4.71625,-28.512001,17.096,18.864,eccentric,6,3.0,32938.0,402784.0,124921.0,4046.0,-142.0
2026-04-09 22:06:04.728292,191699,1294772028,1294773632,0.911584,-0.32208,0.074176,-2.3625,5.355,-4.97,-28.512001,17.096,18.864,eccentric,6,3.0,32938.0,402784.0,124921.0,4046.0,-142.0
2026-04-09 22:06:04.757014,191700,1294786599,1294788532,0.938912,-0.324032,0.081984,-3.15875,3.43,-4.94375,-29.056002,17.264,18.68,eccentric,6,3.0,32938.0,402784.0,124921.0,4046.0,-142.0
2026-04-09 22:06:04.761422,191701,1294795498,1294797206,0.938912,-0.324032,0.081984,-4.3575,2.09125,-5.1625,-29.056002,17.264,18.68,eccentric,6,3.0,32938.0,402784.0,124921.0,4046.0,-142.0
2026-04-09 22:06:04.762882,191702,1294804406,1294805903,0.970144,-0.304512,0.101504,-3.00125,1.8025,-5.075,-28.52,17.28,19.048,eccentric,6,3.0,32938.0,402784.0,124921.0,4046.0,-142.0
2026-04-09 22:06:04.769669,191703,1294813436,1294814604,0.970144,-0.304512,0.101504,0.13125,1.88125,-4.61125,-28.52,17.28,19.048,eccentric,6,3.0,32938.0,402784.0,124921.0,4046.0,-142.0
2026-04-09 22:06:04.790316,191704,1294827905,1294829515,0.972096,-0.357216,0.103456,1.07625,1.54875,-3.605,-28.472002,16.816,19.848001,eccentric,6,3.0,32938.0,402784.0,124921.0,4046.0,-142.0
2026-04-09 22:06:04.847982,191714,1294836806,1294838166,0.972096,-0.357216,0.103456,-0.32375,1.72375,-3.96375,-28.472002,16.816,19.848001,eccentric,6,3.0,32884.0,402341.0,124278.0,3880.0,-155.0
2026-04-09 22:06:04.852197,191715,1294845889,1294846866,0.962336,-0.333792,0.076128,-1.47875,1.95125,-2.975,-29.456001,17.416,19.936,eccentric,6,3.0,32884.0,402341.0,124278.0,3880.0,-155.0
2026-04-09 22:06:04.853884,191716,1294860431,1294861845,0.962336,-0.333792,0.076128,-0.805,1.19,-1.4875,-29.456001,17.416,19.936,eccentric,6,3.0,32884.0,402341.0,124278.0,3880.0,-155.0
2026-04-09 22:06:04.855454,191717,1294869379,1294870545,0.954528,-0.306464,0.093696,-0.98875,1.4,0.18375,-29.048002,17.84,18.312,eccentric,6,3.0,32884.0,402341.0,124278.0,3880.0,-155.0
2026-04-09 22:06:04.859668,191718,1294878324,1294879226,0.954528,-0.306464,0.093696,-2.66875,1.925,1.505,-29.048002,17.84,18.312,eccentric,6,3.0,32884.0,402341.0,124278.0,3880.0,-155.0
2026-04-09 22:06:04.861424,191719,1294892846,1294894177,0.974048,-0.3416,0.080032,-3.85,2.7475,2.61625,-29.616001,18.144001,19.84,eccentric,6,3.0,32884.0,402341.0,124278.0,3880.0,-155.0
2026-04-09 22:06:04.863082,191720,1294901857,1294902918,0.974048,-0.3416,0.080032,-3.57,3.36,4.1825,-29.616001,18.144001,19.84,eccentric,6,3.0,32884.0,402341.0,124278.0,3880.0,-155.0
2026-04-09 22:06:04.867124,191721,1294910794,1294911645,1.011136,-0.320128,0.0,-3.00125,2.56375,4.97875,-28.944002,17.344002,20.240002,eccentric,6,3.0,32884.0,402341.0,124278.0,3880.0,-155.0
2026-04-09 22:06:04.896600,191722,1294925253,1294926538,1.048224,-0.388448,0.02928,-0.91875,0.95375,5.52125,-27.760002,17.784,19.12,eccentric,6,3.0,32884.0,402341.0,124278.0,3880.0,-155.0
2026-04-09 22:06:04.898924,191723,1294934156,1294935243,1.048224,-0.388448,0.02928,0.56,-1.47,7.39375,-27.760002,17.784,19.12,eccentric,6,3.0,32884.0,402341.0,124278.0,3880.0,-155.0
2026-04-09 22:06:04.958832,191733,1294943270,1294943987,1.05408,-0.337696,0.093696,1.5925,-2.59,9.96625,-27.760002,17.744001,21.536001,eccentric,6,3.0,32843.0,402494.0,124431.0,3905.0,-144.0
2026-04-09 22:06:04.960684,191734,1294952690,1294954849,1.05408,-0.337696,0.093696,-0.07875,-2.275,12.25,-27.248001,17.744001,21.536001,eccentric,6,3.0,32843.0,402494.0,124431.0,3905.0,-144.0
2026-04-09 22:06:04.964934,191735,1294967183,1294967765,1.05408,-0.333792,0.037088,-4.66375,-1.72375,13.0725,-27.144001,17.816,18.880001,eccentric,6,3.0,32843.0,402494.0,124431.0,3905.0,-144.0
2026-04-09 22:06:04.966433,191736,1294976404,1294978570,1.05408,-0.333792,0.037088,-7.9975,-1.11125,12.4425,-27.144001,17.816,18.880001,eccentric,6,3.0,32843.0,402494.0,124431.0,3905.0,-144.0
2026-04-09 22:06:04.967991,191737,1294985367,1294987299,1.038464,-0.366976,0.03904,-8.715,-1.51375,12.71375,-26.816002,17.608002,18.544,eccentric,6,3.0,32843.0,402494.0,124431.0,3905.0,-144.0
2026-04-09 22:06:04.972189,191738,1294999801,1295000179,1.038464,-0.366976,0.03904,-6.27375,-3.28125,14.0,-26.816002,17.608002,18.544,eccentric,6,3.0,32843.0,402494.0,124431.0,3905.0,-144.0
2026-04-09 22:06:04.973902,191739,1295009041,1295010931,1.001376,-0.357216,0.05856,-6.01125,-4.08625,15.02375,-26.656002,17.752,18.752,eccentric,6,3.0,32843.0,402494.0,124431.0,3905.0,-144.0
2026-04-09 22:06:04.976264,191740,1295018157,1295019644,1.001376,-0.357216,0.05856,-5.64375,-4.55875,15.82,-26.656002,17.752,18.752,eccentric,6,3.0,32843.0,402494.0,124431.0,3905.0,-144.0
2026-04-09 22:06:04.982121,191741,1295027104,1295028390,0.991616,-0.324032,0.037088,-6.1075,-5.22375,15.2775,-27.824001,18.728,20.064001,eccentric,6,3.0,32843.0,402494.0,124431.0,3905.0,-144.0
2026-04-09 22:06:05.041488,191752,1295042109,1295043531,0.991616,-0.324032,0.037088,-7.14875,-6.1775,15.07625,-27.824001,18.728,20.064001,eccentric,6,3.0,32755.0,403431.0,126966.0,4680.0,-142.0
2026-04-09 22:06:05.044854,191753,1295051104,1295052341,0.983808,-0.30256,0.054656,-6.9125,-6.92125,14.27125,-25.952002,18.096,18.720001,eccentric,6,3.0,32755.0,403431.0,126966.0,4680.0,-142.0
2026-04-09 22:06:05.047244,191754,1295059978,1295061062,0.983808,-0.30256,0.054656,-4.75125,-7.6825,13.055,-25.952002,18.096,18.720001,eccentric,6,3.0,32755.0,403431.0,126966.0,4680.0,-142.0
2026-04-09 22:06:05.048923,191755,1295074689,1295075984,0.931104,-0.308416,0.109312,-4.97,-8.26,11.06,-25.560001,17.880001,18.688002,eccentric,6,3.0,32755.0,403431.0,126966.0,4680.0,-142.0
2026-04-09 22:06:05.050469,191756,1295083594,1295084696,0.921344,-0.349408,0.046848,-6.97375,-9.02125,7.8225,-25.560001,17.880001,19.800001,eccentric,6,3.0,32755.0,403431.0,126966.0,4680.0,-142.0
2026-04-09 22:06:05.058529,191757,1295092660,1295093435,0.921344,-0.349408,0.046848,-7.00875,-9.17875,5.31125,-25.672,17.664001,19.800001,eccentric,6,3.0,32755.0,403431.0,126966.0,4680.0,-142.0
2026-04-09 22:06:05.060067,191758,1295102099,1295104216,0.921344,-0.349408,0.046848,-4.34,-10.01875,5.39,-25.672,17.664001,19.800001,eccentric,6,3.0,32755.0,403431.0,126966.0,4680.0,-142.0
2026-04-09 22:06:05.092341,191759,1295116583,1295117073,0.91744,-0.286944,0.011712,-1.1375,-10.0625,6.11625,-25.376001,17.424002,19.2,eccentric,6,3.0,32755.0,403431.0,126966.0,4680.0,-142.0
2026-04-09 22:06:05.093062,191760,1295125926,1295127836,0.88816,-0.251808,0.05856,3.6925,-11.08625,6.02875,-24.576,17.68,18.264,eccentric,6,3.0,32755.0,403431.0,126966.0,4680.0,-142.0
2026-04-09 22:06:05.096483,191761,1295134843,1295136539,0.88816,-0.251808,0.05856,7.0525,-12.3725,3.5,-24.576,17.68,18.264,eccentric,6,3.0,32755.0,403431.0,126966.0,4680.0,-142.0
2026-04-09 22:06:05.129516,191771,1295143890,1295145339,0.892064,-0.308416,0.046848,5.18875,-14.21,-1.19,-24.576,17.68,19.112001,eccentric,6,3.0,32636.0,403431.0,128039.0,5079.0,-134.0
2026-04-09 22:06:05.129577,191772,1295158528,1295160317,0.892064,-0.308416,0.046848,6.27375,-15.67125,-4.52375,-25.400002,18.136002,19.112001,eccentric,6,3.0,32636.0,403431.0,128039.0,5079.0,-134.0
2026-04-09 22:06:05.129670,191773,1295167513,1295169050,0.847168,-0.314272,0.138592,6.92125,-16.23125,-5.495,-25.176,17.928001,20.04,eccentric,6,3.0,32636.0,403431.0,128039.0,5079.0,-134.0
2026-04-09 22:06:05.132162,191774,1295176473,1295177812,0.847168,-0.314272,0.138592,4.095,-15.225,-4.62,-25.176,17.928001,20.04,eccentric,6,3.0,32636.0,403431.0,128039.0,5079.0,-134.0
2026-04-09 22:06:05.160623,191775,1295190989,1295192718,0.853024,-0.230336,0.015616,2.8875,-14.0175,-3.45625,-24.656002,17.640001,18.112001,eccentric,6,3.0,32636.0,403431.0,128039.0,5079.0,-134.0
2026-04-09 22:06:05.165118,191776,1295199922,1295201424,0.853024,-0.230336,0.015616,5.81875,-13.67625,-4.9875,-24.656002,17.640001,18.112001,eccentric,6,3.0,32636.0,403431.0,128039.0,5079.0,-134.0
2026-04-09 22:06:05.166704,191777,1295208859,1295210155,0.856928,-0.279136,-0.007808,8.785,-16.33625,-9.14375,-23.728,17.712,19.064001,eccentric,6,3.0,32636.0,403431.0,128039.0,5079.0,-134.0
2026-04-09 22:06:05.198049,191778,1295223414,1295225061,0.856928,-0.279136,-0.007808,11.6025,-18.94375,-13.011251,-23.728,17.712,19.064001,eccentric,6,3.0,32636.0,403431.0,128039.0,5079.0,-134.0
2026-04-09 22:06:05.199784,191779,1295232362,1295233815,0.804224,-0.281088,0.130784,14.8225,-19.495,-14.18375,-23.696001,17.240002,19.616001,eccentric,6,3.0,32636.0,403431.0,128039.0,5079.0,-134.0
2026-04-09 22:06:05.256702,191789,1295241343,1295242587,0.804224,-0.281088,0.130784,13.08125,-18.48,-14.74375,-23.696001,17.240002,19.616001,eccentric,6,3.0,32487.0,403431.0,128052.0,5094.0,-151.0
2026-04-09 22:06:05.261331,191790,1295250339,1295251280,0.827648,-0.208864,0.00976,9.93125,-16.8525,-15.89,-23.44,17.6,19.144001,eccentric,6,3.0,32487.0,403431.0,128052.0,5094.0,-151.0
2026-04-09 22:06:05.262882,191791,1295264890,1295266268,0.81008,-0.191296,0.0,7.56,-16.00375,-18.89125,-23.328001,17.648,18.688002,eccentric,6,3.0,32487.0,403431.0,128052.0,5094.0,-151.0
2026-04-09 22:06:05.267305,191792,1295273891,1295274987,0.81008,-0.191296,0.0,9.28375,-17.1675,-21.77875,-23.328001,17.648,18.688002,eccentric,6,3.0,32487.0,403431.0,128052.0,5094.0,-151.0
2026-04-09 22:06:05.268961,191793,1295282869,1295283709,0.81008,-0.191296,0.0,12.74875,-19.45125,-25.89125,-23.328001,17.648,18.688002,eccentric,6,3.0,32487.0,403431.0,128052.0,5094.0,-151.0
2026-04-09 22:06:05.271397,191794,1295297352,1295298577,0.806176,-0.306464,0.056608,19.97625,-21.3675,-28.175,-23.536001,17.144001,20.584002,eccentric,6,3.0,32487.0,403431.0,128052.0,5094.0,-151.0
2026-04-09 22:06:05.273605,191795,1295306244,1295307306,0.812032,-0.23424,0.111264,24.47375,-20.71125,-26.62625,-23.128,17.512001,19.496,eccentric,6,3.0,32487.0,403431.0,128052.0,5094.0,-151.0
2026-04-09 22:06:05.276086,191796,1295315244,1295316096,0.812032,-0.23424,0.111264,21.35875,-17.535,-24.29,-23.128,17.512001,19.496,eccentric,6,3.0,32487.0,403431.0,128052.0,5094.0,-151.0
2026-04-09 22:06:05.306613,191797,1295329782,1295331007,0.8296,-0.167872,-0.089792,13.4225,-14.945,-23.17,-23.632002,17.232,19.272001,eccentric,6,3.0,32487.0,403431.0,128052.0,5094.0,-151.0
2026-04-09 22:06:05.311084,191798,1295338755,1295339712,0.8296,-0.167872,-0.089792,11.73375,-15.7675,-25.366251,-23.632002,17.232,19.272001,eccentric,6,3.0,32487.0,403431.0,128052.0,5094.0,-151.0
2026-04-09 22:06:05.342997,191809,1295347755,1295348503,0.876448,-0.238144,0.025376,18.0425,-18.17375,-28.07,-23.176,16.864,19.752,eccentric,6,3.0,32457.0,403431.0,126373.0,4533.0,-140.0
2026-04-09 22:06:05.347280,191810,1295357206,1295359234,0.876448,-0.238144,0.025376,26.69625,-18.7775,-28.13125,-23.176,16.864,19.752,eccentric,6,3.0,32457.0,403431.0,126373.0,4533.0,-140.0
2026-04-09 22:06:05.349033,191811,1295371838,1295372210,0.798368,-0.316224,0.173728,26.08375,-15.4,-26.69625,-24.864,16.2,20.808,eccentric,6,3.0,32457.0,403431.0,126373.0,4533.0,-140.0
2026-04-09 22:06:05.351431,191812,1295381119,1295382991,0.798368,-0.316224,0.173728,21.04375,-11.095,-23.56375,-24.864,16.2,20.808,eccentric,6,3.0,32457.0,403431.0,126373.0,4533.0,-140.0
2026-04-09 22:06:05.353772,191813,1295390116,1295391680,0.853024,-0.158112,-0.12688,19.38125,-8.95125,-23.52875,-24.224,16.400002,21.072,eccentric,6,3.0,32457.0,403431.0,126373.0,4533.0,-140.0
2026-04-09 22:06:05.384074,191814,1295404737,1295406667,0.853024,-0.154208,0.0488,22.53125,-9.86125,-24.92,-24.224,16.400002,21.072,eccentric,6,3.0,32457.0,403431.0,126373.0,4533.0,-140.0
2026-04-09 22:06:05.388484,191815,1295413734,1295415402,0.85888,-0.154208,0.0488,25.9175,-10.75375,-26.67,-23.656002,16.152,20.424002,eccentric,6,3.0,32457.0,403431.0,126373.0,4533.0,-140.0
2026-04-09 22:06:05.390193,191816,1295422655,1295424088,0.85888,-0.154208,0.0488,23.68625,-8.51375,-28.98875,-23.656002,16.152,20.424002,eccentric,6,3.0,32457.0,403431.0,126373.0,4533.0,-140.0
2026-04-09 22:06:05.391721,191817,1295431563,1295432796,0.786656,-0.333792,0.154208,19.32875,-4.2175,-28.74375,-23.784,15.760001,20.592001,eccentric,6,3.0,32457.0,403431.0,126373.0,4533.0,-140.0
2026-04-09 22:06:05.417719,191827,1295446170,1295447880,0.798368,-0.162016,-0.113216,16.94875,0.07875,-25.76,-24.752,15.936001,21.904001,eccentric,6,3.0,32616.0,401388.0,122767.0,3545.0,-154.0
2026-04-09 22:06:05.419257,191828,1295455282,1295456687,0.798368,-0.162016,-0.113216,17.115,0.455,-24.33375,-24.752,15.936001,21.904001,eccentric,6,3.0,32616.0,401388.0,122767.0,3545.0,-154.0
2026-04-09 22:06:05.423338,191829,1295464260,1295465418,0.798368,-0.162016,-0.113216,19.495,-1.7325,-23.82625,-24.752,15.936001,21.904001,eccentric,6,3.0,32616.0,401388.0,122767.0,3545.0,-154.0
2026-04-09 22:06:05.451962,191830,1295478764,1295480380,0.784704,-0.13664,-0.031232,20.3175,-4.4975,-27.3,-24.256,16.12,21.136002,eccentric,6,3.0,32616.0,401388.0,122767.0,3545.0,-154.0
2026-04-09 22:06:05.466043,191831,1295487712,1295489036,0.763232,-0.316224,0.113216,20.23,-5.2325,-33.81,-23.416,15.384001,20.704,eccentric,6,3.0,32616.0,401388.0,122767.0,3545.0,-154.0
2026-04-09 22:06:05.467682,191832,1295496624,1295497713,0.763232,-0.316224,0.113216,21.30625,-3.0625,-33.80125,-23.416,15.384001,20.704,eccentric,6,3.0,32616.0,401388.0,122767.0,3545.0,-154.0
2026-04-09 22:06:05.469335,191833,1295511091,1295512616,0.808128,-0.093696,-0.080032,23.98375,0.86625,-31.885,-24.872002,15.248001,22.184002,eccentric,6,3.0,32616.0,401388.0,122767.0,3545.0,-154.0
2026-04-09 22:06:05.477113,191834,1295520080,1295521340,0.808128,-0.093696,-0.080032,25.05125,2.94,-31.22875,-24.872002,15.248001,22.184002,eccentric,6,3.0,32616.0,401388.0,122767.0,3545.0,-154.0
2026-04-09 22:06:05.505703,191835,1295529024,1295530152,0.784704,-0.081984,-0.0488,23.17,0.70875,-33.95,-24.912,15.024001,21.384,eccentric,6,3.0,32616.0,401388.0,122767.0,3545.0,-154.0
2026-04-09 22:06:05.510248,191836,1295537932,1295538859,0.784704,-0.081984,-0.0488,22.19875,-2.23125,-39.3925,-24.912,15.024001,21.384,eccentric,6,3.0,32616.0,401388.0,122767.0,3545.0,-154.0
2026-04-09 22:06:05.567989,191846,1295552607,1295553816,0.726144,-0.279136,0.10736,23.93125,-2.8175,-41.86,-24.52,14.72,22.152,eccentric,6,3.0,33000.0,396154.0,119071.0,2692.0,-137.0
2026-04-09 22:06:05.572307,191847,1295561531,1295562538,0.726144,-0.279136,0.10736,24.9375,0.21875,-41.01125,-24.52,14.72,22.152,eccentric,6,3.0,33000.0,396154.0,119071.0,2692.0,-137.0
2026-04-09 22:06:05.575231,191848,1295570515,1295571306,0.698816,-0.277184,0.027328,22.33875,3.0275,-37.87,-24.472002,14.72,21.824001,eccentric,6,3.0,33000.0,396154.0,119071.0,2692.0,-137.0
2026-04-09 22:06:05.580247,191849,1295585104,1295586240,0.698816,-0.277184,-0.140544,18.55,6.16,-33.66125,-24.472002,14.72,21.824001,eccentric,6,3.0,33000.0,396154.0,119071.0,2692.0,-137.0
2026-04-09 22:06:05.581644,191850,1295594004,1295594928,0.733952,0.113216,-0.140544,15.67125,6.7025,-31.465,-24.424002,14.352,20.880001,eccentric,6,3.0,33000.0,396154.0,119071.0,2692.0,-137.0
2026-04-09 22:06:05.584161,191851,1295602934,1295603658,0.733952,0.113216,-0.140544,18.01625,6.41375,-31.85,-24.424002,14.352,20.880001,eccentric,6,3.0,33000.0,396154.0,119071.0,2692.0,-137.0
2026-04-09 22:06:05.586682,191852,1295612268,1295614467,0.718336,-0.197152,0.011712,15.198751,6.16875,-37.79125,-24.864,13.928,22.240002,eccentric,6,3.0,33000.0,396154.0,119071.0,2692.0,-137.0
2026-04-09 22:06:05.589161,191853,1295626781,1295627293,0.708576,-0.310368,0.115168,13.825,6.09875,-42.02625,-25.6,14.624001,24.224,eccentric,6,3.0,33000.0,396154.0,119071.0,2692.0,-137.0
2026-04-09 22:06:05.591740,191854,1295636199,1295638084,0.708576,-0.310368,0.115168,16.2575,6.545,-37.905,-25.6,14.624001,24.224,eccentric,6,3.0,33000.0,396154.0,119071.0,2692.0,-137.0
2026-04-09 22:06:05.622834,191865,1295645636,1295646897,0.708576,-0.0976,-0.021472,17.2025,9.38875,-32.45375,-25.6,14.624001,24.224,eccentric,6,3.0,32665.0,400929.0,122169.0,3455.0,-145.0
2026-04-09 22:06:05.625423,191866,1295660148,1295661861,0.732,-0.0976,-0.021472,5.635,13.86875,-28.0,-24.864,13.664001,23.072,eccentric,6,3.0,32665.0,400929.0,122169.0,3455.0,-145.0
2026-04-09 22:06:05.627910,191867,1295669078,1295670623,0.675392,-0.076128,0.003904,-7.7875,17.63125,-25.66375,-26.856,13.416,24.968,eccentric,6,3.0,32665.0,400929.0,122169.0,3455.0,-145.0
2026-04-09 22:06:05.632878,191868,1295678012,1295679331,0.675392,-0.076128,0.003904,-9.91375,17.73625,-25.41875,-26.856,13.416,24.968,eccentric,6,3.0,32665.0,400929.0,122169.0,3455.0,-145.0
2026-04-09 22:06:05.663083,191869,1295686965,1295688094,0.669536,-0.232288,-0.056608,-8.085,15.12875,-28.6125,-26.896002,13.256001,26.216002,eccentric,6,3.0,32665.0,400929.0,122169.0,3455.0,-145.0
2026-04-09 22:06:05.666669,191870,1295701438,1295703017,0.669536,-0.232288,-0.056608,-3.01875,11.2525,-30.58125,-26.896002,13.256001,26.216002,eccentric,6,3.0,32665.0,400929.0,122169.0,3455.0,-145.0
2026-04-09 22:06:05.669161,191871,1295710369,1295711766,0.716384,-0.0976,-0.027328,0.2275,8.79375,-28.62125,-25.080002,13.152,22.632002,eccentric,6,3.0,32665.0,400929.0,122169.0,3455.0,-145.0
2026-04-09 22:06:05.675439,191872,1295720438,1295722572,0.716384,-0.0976,-0.027328,-5.11875,9.975,-23.52875,-25.080002,13.152,22.632002,eccentric,6,3.0,32665.0,400929.0,122169.0,3455.0,-145.0
2026-04-09 22:06:05.705672,191873,1295734925,1295735474,0.685152,-0.035136,0.021472,-18.3925,12.80125,-21.91,-25.472002,12.376,23.36,eccentric,6,3.0,32665.0,400929.0,122169.0,3455.0,-145.0
2026-04-09 22:06:05.745461,191883,1295745007,1295746294,0.685152,-0.035136,0.021472,-26.43375,14.4025,-24.7975,-25.472002,12.376,23.36,eccentric,6,3.0,32001.0,403431.0,126590.0,4787.0,-150.0
2026-04-09 22:06:05.748060,191884,1295753963,1295755059,0.70272,-0.179584,-0.085888,-24.94625,12.53875,-29.33875,-25.952002,13.240001,22.824001,eccentric,6,3.0,32001.0,403431.0,126590.0,4787.0,-150.0
2026-04-09 22:06:05.750686,191885,1295763187,1295763823,0.70272,-0.179584,-0.085888,-15.12875,7.84,-31.57875,-25.952002,13.240001,22.824001,eccentric,6,3.0,32001.0,403431.0,126590.0,4787.0,-150.0
2026-04-09 22:06:05.757174,191886,1295772583,1295774641,0.77104,-0.1952,-0.060512,-4.8475,3.07125,-29.925,-26.096,12.768001,23.152,eccentric,6,3.0,32001.0,403431.0,126590.0,4787.0,-150.0
2026-04-09 22:06:05.759845,191887,1295787108,1295787508,0.749568,-0.062464,0.05856,-6.4925,3.92875,-22.16375,-27.000002,12.088,23.792002,eccentric,6,3.0,32001.0,403431.0,126590.0,4787.0,-150.0
2026-04-09 22:06:05.761755,191888,1295796458,1295798303,0.749568,-0.062464,0.05856,-21.70875,8.61875,-15.91625,-27.000002,12.088,23.792002,eccentric,6,3.0,32001.0,403431.0,126590.0,4787.0,-150.0
2026-04-09 22:06:05.764221,191889,1295805415,1295807081,0.749568,-0.062464,0.05856,-36.74125,12.20625,-15.636251,-27.000002,12.088,23.792002,eccentric,6,3.0,32001.0,403431.0,126590.0,4787.0,-150.0
2026-04-09 22:06:05.794448,191890,1295819906,1295822029,0.776896,-0.083936,-0.085888,-43.18125,13.58,-18.9875,-26.512001,12.136001,24.216002,eccentric,6,3.0,32001.0,403431.0,126590.0,4787.0,-150.0
2026-04-09 22:06:05.799089,191891,1295828828,1295830729,0.726144,-0.245952,-0.095648,-40.20625,11.87375,-22.44375,-26.592001,11.376,22.44,eccentric,6,3.0,32001.0,403431.0,126590.0,4787.0,-150.0
2026-04-09 22:06:05.800418,191892,1295837792,1295839428,0.726144,-0.245952,-0.095648,-28.866251,7.53375,-21.98,-26.592001,11.376,22.44,eccentric,6,3.0,32001.0,403431.0,126590.0,4787.0,-150.0
2026-04-09 22:06:05.862969,191902,1295846976,1295848229,0.802272,-0.142496,-0.095648,-17.98125,2.345,-18.90875,-26.696001,11.584001,21.232,eccentric,6,3.0,31773.0,403431.0,127257.0,4999.0,-153.0
2026-04-09 22:06:05.865511,191903,1295861488,1295863246,0.802272,-0.142496,-0.095648,-15.190001,0.7175,-11.96125,-26.696001,11.584001,21.232,eccentric,6,3.0,31773.0,403431.0,127257.0,4999.0,-153.0
2026-04-09 22:06:05.867976,191904,1295870613,1295871987,0.83936,-0.040992,0.02928,-28.32375,3.19375,-6.8775,-26.680002,11.320001,21.896002,eccentric,6,3.0,31773.0,403431.0,127257.0,4999.0,-153.0
2026-04-09 22:06:05.870433,191905,1295879580,1295880759,0.83936,-0.040992,0.02928,-40.3375,7.34125,-8.21625,-26.680002,11.320001,21.896002,eccentric,6,3.0,31773.0,403431.0,127257.0,4999.0,-153.0
2026-04-09 22:06:05.875405,191906,1295894182,1295895688,0.841312,-0.148352,-0.042944,-41.545002,10.63125,-14.46375,-26.568,11.504001,21.800001,eccentric,6,3.0,31773.0,403431.0,127257.0,4999.0,-153.0
2026-04-09 22:06:05.877917,191907,1295903151,1295904448,0.841312,-0.148352,-0.042944,-36.513752,11.4625,-20.78125,-26.568,11.504001,21.800001,eccentric,6,3.0,31773.0,403431.0,127257.0,4999.0,-153.0
2026-04-09 22:06:05.880480,191908,1295912076,1295913166,0.864736,-0.255712,-0.12688,-24.82375,9.30125,-22.365,-26.576002,11.56,21.976002,eccentric,6,3.0,31773.0,403431.0,127257.0,4999.0,-153.0
2026-04-09 22:06:05.882958,191909,1295926572,1295928065,0.864736,-0.056608,-0.076128,-14.81375,6.58875,-19.64375,-26.576002,11.56,21.976002,eccentric,6,3.0,31773.0,403431.0,127257.0,4999.0,-153.0
2026-04-09 22:06:05.889222,191910,1295935542,1295936842,0.83936,-0.056608,-0.076128,-12.48625,4.48,-14.00875,-26.592001,11.160001,23.848001,eccentric,6,3.0,31773.0,403431.0,127257.0,4999.0,-153.0
2026-04-09 22:06:05.929261,191921,1295944870,1295945630,0.83936,-0.056608,-0.076128,-15.25125,4.235,-12.495,-26.592001,11.160001,23.848001,eccentric,6,3.0,32082.0,402772.0,123772.0,3867.0,-147.0
2026-04-09 22:06:05.931672,191922,1295954324,1295956421,0.843264,-0.111264,-0.005856,-21.65625,5.87125,-13.1075,-27.296001,11.264001,21.304,eccentric,6,3.0,32082.0,402772.0,123772.0,3867.0,-147.0
2026-04-09 22:06:05.934173,191923,1295968841,1295969294,0.796416,-0.197152,-0.040992,-23.485,6.3175,-13.3175,-26.976002,10.864,20.832,eccentric,6,3.0,32082.0,402772.0,123772.0,3867.0,-147.0
2026-04-09 22:06:05.936678,191924,1295978170,1295980115,0.796416,-0.197152,-0.040992,-16.975,6.15125,-13.55375,-26.976002,10.864,20.832,eccentric,6,3.0,32082.0,402772.0,123772.0,3867.0,-147.0
2026-04-09 22:06:05.943002,191925,1295987144,1295988821,0.804224,-0.091744,-0.134688,-6.965,3.84125,-11.8125,-26.976002,10.864,23.136002,eccentric,6,3.0,32082.0,402772.0,123772.0,3867.0,-147.0
2026-04-09 22:06:05.973139,191926,1295996076,1295997594,0.804224,-0.091744,-0.134688,-1.75875,1.89875,-7.7875,-28.504002,11.200001,23.136002,eccentric,6,3.0,32082.0,402772.0,123772.0,3867.0,-147.0
2026-04-09 22:06:05.976720,191927,1296010585,1296012504,0.833504,-0.021472,-0.074176,-3.92,0.42875,-5.04,-26.744001,10.832001,21.592001,eccentric,6,3.0,32082.0,402772.0,123772.0,3867.0,-147.0
2026-04-09 22:06:05.979242,191928,1296019484,1296021204,0.833504,-0.021472,-0.074176,-6.475,1.58375,-5.97625,-26.744001,10.832001,21.592001,eccentric,6,3.0,32082.0,402772.0,123772.0,3867.0,-147.0
2026-04-09 22:06:05.984237,191929,1296028435,1296029904,0.821792,-0.171776,0.023424,-7.13125,3.5525,-8.42625,-28.016,11.008,22.888,eccentric,6,3.0,32082.0,402772.0,123772.0,3867.0,-147.0
2026-04-09 22:06:06.042158,191939,1296043079,1296044892,0.821792,-0.171776,0.023424,-1.98625,5.11,-9.79125,-28.016,11.008,22.888,concentric,6,3.0,32151.0,402311.0,123168.0,3668.0,-143.0
2026-04-09 22:06:06.044150,191940,1296052003,1296053587,0.853024,-0.13664,-0.0976,8.75875,4.6725,-9.1,-27.160002,11.6,20.728,concentric,6,3.0,32151.0,402311.0,123168.0,3668.0,-143.0
2026-04-09 22:06:06.046669,191941,1296061034,1296062406,0.853024,-0.13664,-0.0976,18.2525,3.9025,-7.18375,-27.160002,11.6,20.728,concentric,6,3.0,32151.0,402311.0,123168.0,3668.0,-143.0
2026-04-09 22:06:06.049151,191942,1296075646,1296077397,0.874496,0.01952,-0.070272,23.4675,3.15,-5.74875,-27.024002,11.160001,21.456001,concentric,6,3.0,32151.0,402311.0,123168.0,3668.0,-143.0
2026-04-09 22:06:06.054571,191943,1296084636,1296086136,0.874496,0.01952,-0.070272,19.95,4.4275,-6.93,-27.024002,11.160001,21.456001,concentric,6,3.0,32151.0,402311.0,123168.0,3668.0,-143.0
2026-04-09 22:06:06.062936,191944,1296093592,1296094835,0.856928,-0.105408,-0.013664,12.425,6.685,-8.2425,-27.760002,11.160001,22.888,concentric,6,3.0,32151.0,402311.0,123168.0,3668.0,-143.0
2026-04-09 22:06:06.067748,191945,1296102608,1296103552,0.856928,-0.105408,-0.013664,9.21375,8.1025,-8.715,-27.760002,11.160001,22.888,concentric,6,3.0,32151.0,402311.0,123168.0,3668.0,-143.0
2026-04-09 22:06:06.070423,191946,1296117174,1296118533,0.835456,-0.203008,-0.03904,11.55,8.14625,-6.0025,-26.52,10.68,21.848001,concentric,6,3.0,32151.0,402311.0,123168.0,3668.0,-143.0
2026-04-09 22:06:06.095515,191947,1296126203,1296127251,0.835456,-0.203008,-0.03904,17.2025,7.21,0.07,-26.52,10.68,21.848001,concentric,6,3.0,32151.0,402311.0,123168.0,3668.0,-143.0
2026-04-09 22:06:06.101690,191948,1296135206,1296135952,0.80032,-0.076128,-0.06832,18.935,5.04,5.0225,-26.856,11.384001,21.408,concentric,6,3.0,32151.0,402311.0,123168.0,3668.0,-143.0
2026-04-09 22:06:06.161670,191958,1296150349,1296150962,0.821792,-0.037088,-0.003904,16.47625,4.1475,7.46375,-27.752,11.136001,23.000002,concentric,6,3.0,32330.0,400957.0,121532.0,3247.0,-151.0
2026-04-09 22:06:06.164158,191959,1296159740,1296161838,0.821792,-0.037088,-0.003904,13.1075,4.515,6.69375,-27.752,11.136001,23.000002,concentric,6,3.0,32330.0,400957.0,121532.0,3247.0,-151.0
2026-04-09 22:06:06.166666,191960,1296168699,1296170560,0.833504,-0.132736,-0.044896,12.85375,4.90875,5.25875,-28.992,11.72,23.696001,concentric,6,3.0,32330.0,400957.0,121532.0,3247.0,-151.0
2026-04-09 22:06:06.169161,191961,1296177619,1296179275,0.833504,-0.132736,-0.044896,16.03,4.52375,2.37125,-28.992,11.72,23.696001,concentric,6,3.0,32330.0,400957.0,121532.0,3247.0,-151.0
2026-04-09 22:06:06.171681,191962,1296192194,1296194180,0.841312,-0.08784,-0.027328,20.46625,2.6775,2.6075,-27.800001,12.016001,25.456001,concentric,6,3.0,32330.0,400957.0,121532.0,3247.0,-151.0
2026-04-09 22:06:06.177973,191963,1296201219,1296202916,0.841312,-0.08784,-0.027328,25.82125,0.49,5.6175,-27.800001,12.016001,25.456001,concentric,6,3.0,32330.0,400957.0,121532.0,3247.0,-151.0
2026-04-09 22:06:06.180460,191964,1296210145,1296211608,0.837408,-0.072224,0.007808,26.97625,0.81375,6.76375,-29.048002,12.672001,25.880001,concentric,6,3.0,32330.0,400957.0,121532.0,3247.0,-151.0
2026-04-09 22:06:06.182918,191965,1296224654,1296226570,0.837408,-0.072224,0.007808,23.00375,2.0125,5.50375,-29.048002,12.672001,25.880001,concentric,6,3.0,32330.0,400957.0,121532.0,3247.0,-151.0
2026-04-09 22:06:06.189215,191966,1296233623,1296235303,0.7808,-0.0976,-0.005856,18.795,2.975,5.03125,-27.456001,11.824,24.008001,concentric,6,3.0,32330.0,400957.0,121532.0,3247.0,-151.0
2026-04-09 22:06:06.219330,191967,1296242563,1296244016,0.7808,-0.0976,-0.005856,19.11,2.8875,5.95,-27.456001,11.824,24.008001,concentric,6,3.0,32330.0,400957.0,121532.0,3247.0,-151.0
2026-04-09 22:06:06.250379,191978,1296251511,1296252844,0.763232,-0.142496,-0.027328,20.79875,2.03875,7.77,-27.456001,12.128,24.296001,concentric,6,3.0,32516.0,398358.0,119628.0,2809.0,-133.0
2026-04-09 22:06:06.252909,191979,1296265992,1296267811,0.763232,-0.142496,-0.027328,21.0525,0.875,11.82125,-27.456001,12.128,24.296001,concentric,6,3.0,32516.0,398358.0,119628.0,2809.0,-133.0
2026-04-09 22:06:06.255422,191980,1296274921,1296276533,0.76128,-0.109312,0.001952,19.3375,0.1225,17.605,-28.768002,12.688001,23.688002,concentric,6,3.0,32516.0,398358.0,119628.0,2809.0,-133.0
2026-04-09 22:06:06.257903,191981,1296284981,1296285384,0.76128,-0.109312,0.001952,12.97625,1.225,22.5925,-28.768002,12.688001,23.688002,concentric,6,3.0,32516.0,398358.0,119628.0,2809.0,-133.0
2026-04-09 22:06:06.260424,191982,1296295277,1296296282,0.749568,-0.007808,0.003904,6.4575,2.7825,23.75625,-26.768002,12.536,24.592001,concentric,6,3.0,32516.0,398358.0,119628.0,2809.0,-133.0
2026-04-09 22:06:06.264198,191983,1296309907,1296311205,0.706624,-0.109312,-0.06832,4.5325,2.19625,21.97125,-26.816002,12.968,24.248001,concentric,6,3.0,32516.0,398358.0,119628.0,2809.0,-133.0
2026-04-09 22:06:06.294381,191984,1296318853,1296319932,0.706624,-0.109312,-0.06832,8.39125,-0.79625,21.210001,-26.816002,12.968,24.248001,concentric,6,3.0,32516.0,398358.0,119628.0,2809.0,-133.0
2026-04-09 22:06:06.297954,191985,1296327760,1296328698,0.706624,-0.109312,-0.0488,15.627501,-6.44,22.89875,-26.816002,12.968,24.248001,concentric,6,3.0,32516.0,398358.0,119628.0,2809.0,-133.0
2026-04-09 22:06:06.300427,191986,1296336713,1296337417,0.70272,-0.183488,-0.0488,20.60625,-10.84125,28.4025,-25.512001,13.648001,22.352001,concentric,6,3.0,32516.0,398358.0,119628.0,2809.0,-133.0
2026-04-09 22:06:06.325426,191996,1296351634,1296352861,0.739808,-0.177632,0.101504,20.335001,-11.865,35.48125,-26.504002,13.808001,23.288002,concentric,6,3.0,32192.0,402006.0,122650.0,3494.0,-157.0
2026-04-09 22:06:06.328012,191997,1296360566,1296361655,0.739808,-0.177632,0.101504,11.45375,-7.945,39.3925,-26.504002,13.808001,23.288002,concentric,6,3.0,32192.0,402006.0,122650.0,3494.0,-157.0
2026-04-09 22:06:06.339298,191998,1296369553,1296370402,0.763232,0.01952,-0.005856,-0.7175,-2.1,42.00875,-26.456001,14.208001,24.28,concentric,6,3.0,32192.0,402006.0,122650.0,3494.0,-157.0
2026-04-09 22:06:06.341687,191999,1296384094,1296385328,0.763232,0.01952,-0.005856,-5.73125,1.39125,38.395,-26.456001,14.208001,24.28,concentric,6,3.0,32192.0,402006.0,122650.0,3494.0,-157.0
2026-04-09 22:06:06.346693,192000,1296392994,1296394074,0.788608,-0.144448,-0.093696,-4.08625,0.39375,32.515,-24.68,14.168,21.888,concentric,6,3.0,32192.0,402006.0,122650.0,3494.0,-157.0
2026-04-09 22:06:06.376981,192001,1296401952,1296402778,0.788608,-0.144448,-0.093696,1.58375,-3.0975,30.66,-24.68,14.168,21.888,concentric,6,3.0,32192.0,402006.0,122650.0,3494.0,-157.0
2026-04-09 22:06:06.380556,192002,1296416424,1296417706,0.782752,-0.290848,0.062464,4.4275,-4.5675,32.7425,-24.304,14.400001,21.744001,concentric,6,3.0,32192.0,402006.0,122650.0,3494.0,-157.0
2026-04-09 22:06:06.382958,192003,1296425317,1296426410,0.782752,-0.290848,0.062464,-0.28,-3.3425,37.28375,-24.304,14.400001,21.744001,concentric,6,3.0,32192.0,402006.0,122650.0,3494.0,-157.0
2026-04-09 22:06:06.388011,192004,1296434261,1296435148,0.798368,-0.17568,0.08784,-13.475,1.26875,40.38125,-23.68,15.256001,21.704,concentric,6,3.0,32192.0,402006.0,122650.0,3494.0,-157.0
2026-04-09 22:06:06.418224,192005,1296443220,1296443882,0.798368,-0.17568,0.08784,-24.29,6.0025,41.72,-23.68,15.256001,21.704,concentric,6,3.0,32192.0,402006.0,122650.0,3494.0,-157.0
2026-04-09 22:06:06.480666,192015,1296458195,1296458814,0.833504,-0.062464,-0.0488,-27.71125,8.40875,39.235,-24.288002,15.488001,21.752,concentric,6,3.0,32171.0,402396.0,123179.0,3617.0,-140.0
2026-04-09 22:06:06.484515,192016,1296467392,1296469601,0.833504,-0.062464,-0.0488,-24.0975,6.64125,33.36375,-24.288002,15.488001,21.752,concentric,6,3.0,32171.0,402396.0,123179.0,3617.0,-140.0
2026-04-09 22:06:06.485438,192017,1296476293,1296478363,0.821792,-0.216672,-0.050752,-15.72375,2.6425,29.925,-23.320002,15.312,23.2,concentric,6,3.0,32171.0,402396.0,123179.0,3617.0,-140.0
2026-04-09 22:06:06.487970,192018,1296490807,1296491202,0.895968,-0.294752,0.001952,-10.29875,0.02625,28.0875,-23.640001,15.104001,21.264002,concentric,6,3.0,32171.0,402396.0,123179.0,3617.0,-140.0
2026-04-09 22:06:06.490436,192019,1296500057,1296501949,0.895968,-0.294752,0.001952,-12.2325,0.21,29.21625,-23.640001,15.104001,21.264002,concentric,6,3.0,32171.0,402396.0,123179.0,3617.0,-140.0
2026-04-09 22:06:06.492940,192020,1296509052,1296510638,0.8296,-0.284992,0.138592,-25.78625,3.59625,29.435,-23.640001,15.104001,20.408,concentric,6,3.0,32171.0,402396.0,123179.0,3617.0,-140.0
2026-04-09 22:06:06.495444,192021,1296518072,1296519336,0.8296,-0.284992,0.138592,-37.8175,7.37625,30.5725,-23.656002,15.712001,20.408,concentric,6,3.0,32171.0,402396.0,123179.0,3617.0,-140.0
2026-04-09 22:06:06.497986,192022,1296532518,1296534334,0.84912,-0.150304,-0.021472,-37.0825,10.395,30.5025,-23.864,15.64,20.640001,concentric,6,3.0,32171.0,402396.0,123179.0,3617.0,-140.0
2026-04-09 22:06:06.500585,192023,1296541481,1296543042,0.84912,-0.150304,-0.021472,-30.49375,12.2675,27.51875,-23.864,15.64,20.640001,concentric,6,3.0,32171.0,402396.0,123179.0,3617.0,-140.0
2026-04-09 22:06:06.525482,192033,1296550926,1296551910,0.802272,-0.201056,-0.05856,-20.79875,10.66625,23.765,-22.672,15.736001,20.800001,concentric,6,3.0,32358.0,401391.0,122059.0,3295.0,-136.0
2026-04-09 22:06:06.527953,192034,1296565484,1296566861,0.802272,-0.201056,-0.05856,-14.07,7.5425,19.6,-22.672,15.736001,20.800001,concentric,6,3.0,32358.0,401391.0,122059.0,3295.0,-136.0
2026-04-09 22:06:06.530494,192035,1296574410,1296575570,0.817888,-0.32208,-0.050752,-16.12625,5.78375,19.1275,-22.624,15.792001,20.192001,concentric,6,3.0,32358.0,401391.0,122059.0,3295.0,-136.0
2026-04-09 22:06:06.536717,192036,1296583341,1296584249,0.817888,-0.32208,-0.050752,-19.34625,6.44,19.95,-22.624,15.792001,20.192001,concentric,6,3.0,32358.0,401391.0,122059.0,3295.0,-136.0
2026-04-09 22:06:06.580693,192037,1296597806,1296599160,0.76128,-0.261568,0.054656,-26.27625,9.38875,19.38125,-23.368002,16.176,21.048,concentric,6,3.0,32358.0,401391.0,122059.0,3295.0,-136.0
2026-04-09 22:06:06.580936,192038,1296606718,1296607841,0.76128,-0.261568,0.054656,-29.60125,12.495,21.175,-23.368002,16.176,21.048,concentric,6,3.0,32358.0,401391.0,122059.0,3295.0,-136.0
2026-04-09 22:06:06.580980,192039,1296615600,1296616530,0.735904,-0.257664,0.033184,-32.55875,14.37625,20.36125,-22.408,16.800001,19.304,concentric,6,3.0,32358.0,401391.0,122059.0,3295.0,-136.0
2026-04-09 22:06:06.581027,192040,1296624592,1296625331,0.735904,-0.257664,0.033184,-33.32875,14.74375,18.0775,-22.408,16.800001,19.304,concentric,6,3.0,32358.0,401391.0,122059.0,3295.0,-136.0
2026-04-09 22:06:06.609497,192041,1296639545,1296640283,0.691008,-0.244,-0.005856,-27.895,14.77875,19.31125,-22.088001,16.528,20.136002,concentric,6,3.0,32358.0,401391.0,122059.0,3295.0,-136.0
2026-04-09 22:06:06.640829,192052,1296648980,1296651131,0.691008,-0.244,-0.052704,-21.07,13.93875,21.07875,-22.088001,16.528,20.136002,concentric,6,3.0,32480.0,401959.0,122923.0,3479.0,-147.0
2026-04-09 22:06:06.644752,192053,1296658031,1296659844,0.685152,-0.220576,-0.050752,-17.00125,12.94125,20.02875,-22.640001,16.328001,18.12,concentric,6,3.0,32480.0,401959.0,122923.0,3479.0,-147.0
2026-04-09 22:06:06.645408,192054,1296667000,1296668645,0.685152,-0.220576,-0.050752,-21.27125,12.6175,17.6925,-22.640001,16.328001,18.12,concentric,6,3.0,32480.0,401959.0,122923.0,3479.0,-147.0
2026-04-09 22:06:06.647915,192055,1296681498,1296683569,0.67344,-0.35136,0.001952,-29.07625,13.7375,17.08,-22.408,16.936,18.576,concentric,6,3.0,32480.0,401959.0,122923.0,3479.0,-147.0
2026-04-09 22:06:06.650424,192056,1296690449,1296692285,0.691008,-0.355264,0.0488,-32.75125,14.28875,18.31375,-22.592001,16.576,17.856,concentric,6,3.0,32480.0,401959.0,122923.0,3479.0,-147.0
2026-04-09 22:06:06.654178,192057,1296699400,1296701002,0.691008,-0.355264,0.0488,-32.69,14.51625,17.7975,-22.592001,16.576,17.856,concentric,6,3.0,32480.0,401959.0,122923.0,3479.0,-147.0
2026-04-09 22:06:06.684387,192058,1296713897,1296715877,0.732,-0.16592,0.01952,-26.25875,13.22125,17.98125,-22.032001,16.872002,18.08,concentric,6,3.0,32480.0,401959.0,122923.0,3479.0,-147.0
2026-04-09 22:06:06.687983,192059,1296722830,1296724617,0.732,-0.16592,0.01952,-14.980001,12.0575,18.13875,-22.032001,16.872002,18.08,concentric,6,3.0,32480.0,401959.0,122923.0,3479.0,-147.0
2026-04-09 22:06:06.690492,192060,1296731740,1296733340,0.735904,-0.290848,-0.076128,-9.0125,11.05125,14.51625,-22.28,17.096,18.456001,concentric,6,3.0,32480.0,401959.0,122923.0,3479.0,-147.0
2026-04-09 22:06:06.775427,192070,1296746243,1296748705,0.735904,-0.290848,-0.076128,-9.52875,9.6425,11.90875,-22.28,17.096,18.456001,concentric,6,3.0,32602.0,402313.0,123563.0,3602.0,-136.0
2026-04-09 22:06:06.777973,192071,1296755362,1296757410,0.784704,-0.376736,-0.035136,-13.46625,8.1025,9.1,-21.720001,17.544,17.496,concentric,6,3.0,32602.0,402313.0,123563.0,3602.0,-136.0
2026-04-09 22:06:06.780680,192072,1296764261,1296766167,0.784704,-0.376736,-0.035136,-15.085,7.5775,8.61875,-21.720001,17.544,17.496,concentric,6,3.0,32602.0,402313.0,123563.0,3602.0,-136.0
2026-04-09 22:06:06.783031,192073,1296778760,1296781091,0.79056,-0.318176,0.0976,-17.885,8.37375,9.68625,-22.296001,17.672,17.368,concentric,6,3.0,32602.0,402313.0,123563.0,3602.0,-136.0
2026-04-09 22:06:06.785465,192074,1296787669,1296789777,0.79056,-0.318176,0.0976,-18.97,10.42125,9.7125,-22.296001,17.672,17.368,concentric,6,3.0,32602.0,402313.0,123563.0,3602.0,-136.0
2026-04-09 22:06:06.787990,192075,1296796588,1296798456,0.792512,-0.324032,0.03904,-17.9025,11.92625,8.5575,-22.216002,17.368,17.464,concentric,6,3.0,32602.0,402313.0,123563.0,3602.0,-136.0
2026-04-09 22:06:06.790472,192076,1296805524,1296807124,0.792512,-0.324032,0.03904,-16.275,12.76625,6.3875,-22.216002,17.368,17.464,concentric,6,3.0,32602.0,402313.0,123563.0,3602.0,-136.0
2026-04-09 22:06:06.792952,192077,1296820190,1296822091,0.833504,-0.329888,-0.0488,-13.62375,13.62375,4.50625,-22.800001,17.072,18.528002,concentric,6,3.0,32602.0,402313.0,123563.0,3602.0,-136.0
2026-04-09 22:06:06.795471,192078,1296829131,1296830805,0.833504,-0.329888,-0.0488,-10.167501,14.63,5.97625,-22.800001,17.072,18.528002,concentric,6,3.0,32602.0,402313.0,123563.0,3602.0,-136.0
2026-04-09 22:06:06.798461,192079,1296838149,1296839541,0.821792,-0.476288,0.025376,-15.6975,18.0775,4.78625,-23.184002,17.192001,18.376001,concentric,6,3.0,32602.0,402313.0,123563.0,3602.0,-136.0
2026-04-09 22:06:06.825394,192089,1296852958,1296854519,0.85888,-0.3416,0.099552,-25.375,22.6975,0.8575,-23.616001,17.232,18.056002,concentric,6,3.0,32693.0,402319.0,123684.0,3612.0,-148.0
2026-04-09 22:06:06.827984,192090,1296862092,1296863286,0.85888,-0.3416,0.099552,-19.495,25.55,1.47,-23.616001,17.232,18.056002,concentric,6,3.0,32693.0,402319.0,123684.0,3612.0,-148.0
2026-04-09 22:06:06.830526,192091,1296871109,1296872012,0.851072,-0.308416,0.003904,-10.01875,27.32625,-3.115,-24.016,17.880001,18.824001,concentric,6,3.0,32693.0,402319.0,123684.0,3612.0,-148.0
2026-04-09 22:06:06.834264,192092,1296880158,1296880734,0.851072,-0.308416,0.003904,-1.1725,27.06375,-6.90375,-24.016,17.880001,18.824001,concentric,6,3.0,32693.0,402319.0,123684.0,3612.0,-148.0
2026-04-09 22:06:06.864414,192093,1296894989,1296895586,0.802272,-0.3904,0.003904,6.5275,25.66375,-7.7875,-22.928001,17.696001,16.984001,concentric,6,3.0,32693.0,402319.0,123684.0,3612.0,-148.0
2026-04-09 22:06:06.867989,192094,1296904186,1296906350,0.802272,-0.3904,0.003904,9.59,24.08875,-5.90625,-22.928001,17.696001,16.984001,concentric,6,3.0,32693.0,402319.0,123684.0,3612.0,-148.0
2026-04-09 22:06:06.870468,192095,1296913141,1296915055,0.815936,-0.353312,0.035136,9.835,23.555,-4.59375,-23.160002,17.84,17.032001,concentric,6,3.0,32693.0,402319.0,123684.0,3612.0,-148.0
2026-04-09 22:06:06.900687,192096,1296927632,1296927951,0.815936,-0.353312,0.035136,2.61625,24.64875,-7.14875,-23.160002,17.84,17.032001,concentric,6,3.0,32693.0,402319.0,123684.0,3612.0,-148.0
2026-04-09 22:06:06.904263,192097,1296936843,1296938697,0.833504,-0.314272,0.089792,-4.99625,24.4125,-12.34625,-23.888,17.416,16.880001,concentric,6,3.0,32693.0,402319.0,123684.0,3612.0,-148.0
2026-04-09 22:06:06.906723,192098,1296945762,1296947429,0.833504,-0.314272,0.089792,1.32125,22.02375,-15.49625,-23.888,17.416,16.880001,concentric,6,3.0,32693.0,402319.0,123684.0,3612.0,-148.0
2026-04-09 22:06:06.934256,192109,1296954889,1296956198,0.837408,-0.269376,-0.003904,10.7275,18.48,-18.29625,-23.968,17.304,17.296001,concentric,6,3.0,32702.0,403431.0,126215.0,4334.0,-154.0
2026-04-09 22:06:06.936718,192110,1296969436,1296971212,0.837408,-0.269376,-0.003904,14.62125,15.89875,-20.9825,-23.968,17.304,17.296001,concentric,6,3.0,32702.0,403431.0,126215.0,4334.0,-154.0
2026-04-09 22:06:06.939169,192111,1296978412,1296979960,0.85888,-0.314272,0.037088,16.28375,14.07,-21.32375,-24.272001,16.608002,16.704,concentric,6,3.0,32702.0,403431.0,126215.0,4334.0,-154.0
2026-04-09 22:06:06.941703,192112,1296987409,1296988748,0.85888,-0.314272,0.037088,16.42375,12.2325,-20.86,-24.272001,16.608002,16.704,concentric,6,3.0,32702.0,403431.0,126215.0,4334.0,-154.0
2026-04-09 22:06:06.971933,192113,1297001930,1297003697,0.854976,-0.343552,0.105408,15.72375,11.47125,-21.4025,-24.552002,17.496,17.264,concentric,6,3.0,32702.0,403431.0,126215.0,4334.0,-154.0
2026-04-09 22:06:06.975472,192114,1297010867,1297012411,0.921344,-0.244,0.07808,16.65125,11.2,-21.525,-24.552002,17.496,16.6,concentric,6,3.0,32702.0,403431.0,126215.0,4334.0,-154.0
2026-04-09 22:06:06.978027,192115,1297019829,1297021110,0.921344,-0.244,0.07808,20.85125,10.01875,-20.772501,-24.920002,17.392,16.6,concentric,6,3.0,32702.0,403431.0,126215.0,4334.0,-154.0
2026-04-09 22:06:07.010771,192116,1297034355,1297036089,0.925248,-0.318176,0.119072,24.0975,10.675,-21.04375,-25.496,18.024,18.816,concentric,6,3.0,32702.0,403431.0,126215.0,4334.0,-154.0
2026-04-09 22:06:07.014285,192117,1297043427,1297044783,0.925248,-0.318176,0.119072,23.52875,11.34875,-21.56,-25.496,18.024,18.816,concentric,6,3.0,32702.0,403431.0,126215.0,4334.0,-154.0
2026-04-09 22:06:07.071707,192127,1297052834,1297053534,0.9272,-0.288896,0.076128,19.3025,10.87625,-22.4875,-25.376001,17.208,16.448,concentric,6,3.0,32815.0,403431.0,128121.0,4975.0,-137.0
2026-04-09 22:06:07.074262,192128,1297062277,1297064285,0.9272,-0.288896,0.076128,17.84125,10.10625,-22.16375,-25.376001,17.208,16.448,concentric,6,3.0,32815.0,403431.0,128121.0,4975.0,-137.0
2026-04-09 22:06:07.076735,192129,1297076835,1297077202,0.958432,-0.306464,0.064416,19.39,8.56625,-22.225,-26.016,17.384,18.368,concentric,6,3.0,32815.0,403431.0,128121.0,4975.0,-137.0
2026-04-09 22:06:07.079214,192130,1297086082,1297087966,0.958432,-0.306464,0.064416,19.6875,6.615,-21.56,-26.016,17.384,18.368,concentric,6,3.0,32815.0,403431.0,128121.0,4975.0,-137.0
2026-04-09 22:06:07.081718,192131,1297095020,1297096661,0.952576,-0.368928,0.122976,20.04625,5.57375,-20.23875,-26.232,17.416,17.84,concentric,6,3.0,32815.0,403431.0,128121.0,4975.0,-137.0
2026-04-09 22:06:07.084215,192132,1297103928,1297105381,0.952576,-0.368928,0.122976,19.32,6.46625,-18.33125,-26.232,17.416,17.84,concentric,6,3.0,32815.0,403431.0,128121.0,4975.0,-137.0
2026-04-09 22:06:07.086724,192133,1297118440,1297120310,0.915488,-0.365024,0.148352,17.7975,7.91,-15.70625,-26.448002,17.352001,18.648,concentric,6,3.0,32815.0,403431.0,128121.0,4975.0,-137.0
2026-04-09 22:06:07.089257,192134,1297127426,1297129067,0.915488,-0.365024,0.148352,18.40125,8.6275,-15.07625,-26.448002,17.352001,18.648,concentric,6,3.0,32815.0,403431.0,128121.0,4975.0,-137.0
2026-04-09 22:06:07.091724,192135,1297136373,1297137792,0.929152,-0.339648,0.080032,19.5125,9.135,-15.3125,-27.384,17.736,18.856,concentric,6,3.0,32815.0,403431.0,128121.0,4975.0,-137.0
2026-04-09 22:06:07.145420,192145,1297150903,1297153084,0.929152,-0.339648,0.0488,20.18625,9.31,-16.37125,-27.384,17.736,18.856,concentric,6,3.0,32944.0,403431.0,129397.0,5432.0,-137.0
2026-04-09 22:06:07.147997,192146,1297159893,1297161889,0.960384,-0.353312,0.060512,21.39375,9.47625,-16.77375,-27.024002,17.248001,17.144001,concentric,6,3.0,32944.0,403431.0,129397.0,5432.0,-137.0
2026-04-09 22:06:07.150484,192147,1297168833,1297170628,0.960384,-0.353312,0.060512,19.005,11.13,-16.2575,-27.024002,17.248001,17.144001,concentric,6,3.0,32944.0,403431.0,129397.0,5432.0,-137.0
2026-04-09 22:06:07.152958,192148,1297183378,1297185595,0.90768,-0.398208,0.119072,12.45125,13.335,-17.26375,-27.312002,17.856,18.232,concentric,6,3.0,32944.0,403431.0,129397.0,5432.0,-137.0
2026-04-09 22:06:07.155459,192149,1297192370,1297194320,0.952576,-0.3416,0.023424,9.065,14.46375,-17.57875,-26.776001,17.568,17.304,concentric,6,3.0,32944.0,403431.0,129397.0,5432.0,-137.0
2026-04-09 22:06:07.157992,192150,1297201318,1297203033,0.952576,-0.3416,0.023424,11.7075,13.6325,-20.335001,-26.776001,17.568,17.304,concentric,6,3.0,32944.0,403431.0,129397.0,5432.0,-137.0
2026-04-09 22:06:07.164375,192151,1297210276,1297211761,0.952576,-0.3416,0.023424,16.63375,13.3875,-21.6825,-26.776001,17.568,17.304,concentric,6,3.0,32944.0,403431.0,129397.0,5432.0,-137.0
2026-04-09 22:06:07.194441,192152,1297224753,1297226688,0.895968,-0.407968,0.074176,18.78625,13.440001,-20.8075,-28.264002,17.480001,17.84,concentric,6,3.0,32944.0,403431.0,129397.0,5432.0,-137.0
2026-04-09 22:06:07.199397,192153,1297233666,1297235390,0.882304,-0.404064,0.115168,22.07625,15.04125,-20.4925,-27.784,17.248001,18.248001,concentric,6,3.0,32944.0,403431.0,129397.0,5432.0,-137.0
2026-04-09 22:06:07.201212,192154,1297242617,1297244139,0.882304,-0.404064,0.115168,24.9025,17.3075,-21.69125,-27.784,17.248001,18.248001,concentric,6,3.0,32944.0,403431.0,129397.0,5432.0,-137.0
2026-04-09 22:06:07.242974,192165,1297257259,1297259178,0.909632,-0.286944,0.076128,26.6175,18.69,-22.7325,-28.52,16.576,19.168001,concentric,6,3.0,32862.0,403431.0,129086.0,5332.0,-144.0
2026-04-09 22:06:07.245469,192166,1297266191,1297267870,0.909632,-0.286944,0.076128,27.2125,21.41125,-24.4825,-28.52,16.576,19.168001,concentric,6,3.0,32862.0,403431.0,129086.0,5332.0,-144.0
2026-04-09 22:06:07.247966,192167,1297275209,1297276622,0.860832,-0.396256,0.138592,26.95,24.80625,-24.491251,-30.264002,17.136002,21.696001,concentric,6,3.0,32862.0,403431.0,129086.0,5332.0,-144.0
2026-04-09 22:06:07.250481,192168,1297289746,1297291536,0.860832,-0.396256,0.138592,22.49625,27.536251,-25.0075,-30.264002,17.136002,21.696001,concentric,6,3.0,32862.0,403431.0,129086.0,5332.0,-144.0
2026-04-09 22:06:07.252983,192169,1297298713,1297300337,0.86864,-0.355264,0.101504,18.97875,29.645,-25.34,-28.832,17.160002,19.168001,concentric,6,3.0,32862.0,403431.0,129086.0,5332.0,-144.0
2026-04-09 22:06:07.284529,192170,1297307660,1297309054,0.86864,-0.355264,0.101504,20.02,31.4475,-24.57875,-28.832,17.160002,19.168001,concentric,6,3.0,32862.0,403431.0,129086.0,5332.0,-144.0
2026-04-09 22:06:07.286810,192171,1297322130,1297323944,0.864736,-0.300608,0.144448,21.83125,33.232502,-24.00125,-29.648,17.04,19.816002,concentric,6,3.0,32862.0,403431.0,129086.0,5332.0,-144.0
2026-04-09 22:06:07.289228,192172,1297331051,1297332625,0.864736,-0.300608,0.144448,22.2075,33.985,-24.89375,-29.648,17.04,19.816002,concentric,6,3.0,32862.0,403431.0,129086.0,5332.0,-144.0
2026-04-09 22:06:07.294303,192173,1297340035,1297341401,0.892064,-0.333792,0.095648,23.77375,34.79875,-26.59125,-29.392002,17.384,20.320002,concentric,6,3.0,32862.0,403431.0,129086.0,5332.0,-144.0
2026-04-09 22:06:07.366980,192174,1297348971,1297350145,0.892064,-0.333792,0.095648,25.99625,35.7525,-27.3,-29.392002,17.384,20.320002,concentric,6,3.0,32862.0,403431.0,129086.0,5332.0,-144.0
