pc_time,serial_num,sensor_ts,host_ts,ax,ay,az,gx,gy,gz,mx,my,mz,phase,rpe,weight_kg,ppg_a,ppg_b,ppg_c,ppg_d,ppg_e
2026-04-08 21:52:37.752502,272868,1609504329962544,1929929110,1.100928,0.181536,-0.013664,6.23,-1.8025,-10.98125,-25.544,19.344002,3.48,eccentric,4,3.0,24602.0,152228.0,237240.0,284520.0,265802.0
2026-04-08 21:52:37.756170,272869,1609504329971451,1929937762,1.03456,0.15616,-0.111264,6.51,-2.4325,-12.7225,-25.456001,19.12,4.184,eccentric,4,3.0,24602.0,152228.0,237240.0,284520.0,265802.0
2026-04-08 21:52:37.758573,272870,1609504329980344,1929946410,1.03456,0.15616,-0.111264,2.1175,-2.09125,-12.38125,-25.456001,19.12,4.184,eccentric,4,3.0,24602.0,152228.0,237240.0,284520.0,265802.0
2026-04-08 21:52:37.765039,272871,1609504329994811,1929961300,1.046272,0.138592,-0.015616,-1.93375,-1.715,-10.57875,-25.752,19.320002,3.176,eccentric,4,3.0,24602.0,152228.0,237240.0,284520.0,265802.0
2026-04-08 21:52:37.799809,272872,1609504330003780,1929969989,1.046272,0.138592,-0.015616,-3.98125,-1.75,-7.945,-25.752,19.320002,3.176,eccentric,4,3.0,24602.0,152228.0,237240.0,284520.0,265802.0
2026-04-08 21:52:37.827346,272883,1609504330018438,1929984997,1.056032,0.130784,-0.18544,-4.0425,-1.75,-6.02,-25.792002,19.12,3.224,eccentric,4,3.0,25268.0,153987.0,238342.0,285048.0,266070.0
2026-04-08 21:52:37.829805,272884,1609504330027392,1929993653,1.056032,0.130784,-0.18544,-3.54375,-1.2075,-4.43625,-25.792002,19.12,3.224,eccentric,4,3.0,25268.0,153987.0,238342.0,285048.0,266070.0
2026-04-08 21:52:37.832263,272885,1609504330041920,1930008527,1.087264,0.154208,-0.150304,-3.3775,-1.015,-3.99875,-25.344002,18.936,2.44,eccentric,4,3.0,25268.0,153987.0,238342.0,285048.0,266070.0
2026-04-08 21:52:37.834786,272886,1609504330050861,1930017236,1.087264,0.148352,-0.037088,0.0,-1.4525,-4.025,-25.344002,18.936,0.392,eccentric,4,3.0,25268.0,153987.0,238342.0,285048.0,266070.0
2026-04-08 21:52:37.837279,272887,1609504330059895,1930025927,1.1224,0.148352,-0.037088,1.67125,-0.8225,-3.605,-25.800001,19.224,1.112,eccentric,4,3.0,25268.0,153987.0,238342.0,285048.0,266070.0
2026-04-08 21:52:37.867785,272888,1609504330074358,1930040809,1.10288,0.132736,-0.015616,1.09375,-0.315,-2.65125,-25.704,19.104,3.848,eccentric,4,3.0,25268.0,153987.0,238342.0,285048.0,266070.0
2026-04-08 21:52:37.871383,272889,1609504330083268,1930049494,1.10288,0.132736,-0.015616,-0.37625,0.28,-0.04375,-25.704,19.104,3.848,eccentric,4,3.0,25268.0,153987.0,238342.0,285048.0,266070.0
2026-04-08 21:52:37.873683,272890,1609504330097793,1930064365,1.020896,0.154208,-0.199104,-3.1325,0.0525,2.3275,-25.272001,19.2,2.584,eccentric,4,3.0,25268.0,153987.0,238342.0,285048.0,266070.0
2026-04-08 21:52:37.877344,272891,1609504330106717,1930073079,1.020896,0.154208,-0.199104,-3.03625,-1.12875,3.07125,-25.272001,19.2,2.584,eccentric,4,3.0,25268.0,153987.0,238342.0,285048.0,266070.0
2026-04-08 21:52:37.933595,272902,1609504330116175,1930081802,1.108736,0.15616,0.015616,0.69125,-2.135,2.7125,-25.28,19.336,2.68,eccentric,4,3.0,25269.0,153888.0,238205.0,284976.0,266055.0
2026-04-08 21:52:37.938545,272903,1609504330131150,1930096756,1.108736,0.140544,-0.085888,2.79125,-1.9425,0.49,-25.28,19.336,2.68,eccentric,4,3.0,25269.0,153888.0,238205.0,284976.0,266055.0
2026-04-08 21:52:37.942220,272904,1609504330140047,1930105463,1.030656,0.142496,-0.085888,3.815,-1.60125,-2.695,-25.072,19.336,1.904,eccentric,4,3.0,25269.0,153888.0,238205.0,284976.0,266055.0
2026-04-08 21:52:37.943596,272905,1609504330154802,1930120425,1.018944,0.183488,-0.062464,9.93125,-1.28625,7.55125,-25.064001,19.088001,3.032,eccentric,4,3.0,25269.0,153888.0,238205.0,284976.0,266055.0
2026-04-08 21:52:37.949264,272906,1609504330164232,1930131184,1.018944,0.183488,-0.062464,7.385,-0.98875,12.845,-25.064001,19.088001,3.032,eccentric,4,3.0,25269.0,153888.0,238205.0,284976.0,266055.0
2026-04-08 21:52:37.950575,272907,1609504330173174,1930139845,0.958432,0.167872,-0.1464,4.8475,0.385,8.9425,-24.944,19.76,4.896,eccentric,4,3.0,25269.0,153888.0,238205.0,284976.0,266055.0
2026-04-08 21:52:37.978797,272908,1609504330187714,1930154758,0.958432,0.167872,-0.1464,7.48125,1.00625,10.08,-24.944,19.76,4.896,eccentric,4,3.0,25269.0,153888.0,238205.0,284976.0,266055.0
2026-04-08 21:52:37.982331,272909,1609504330196646,1930163428,1.022848,0.093696,-0.189344,8.225,0.35875,13.3875,-24.352001,19.472,2.704,eccentric,4,3.0,25269.0,153888.0,238205.0,284976.0,266055.0
2026-04-08 21:52:37.984839,272910,1609504330211149,1930178282,1.022848,0.093696,-0.189344,3.73625,-0.1225,12.08375,-24.352001,19.472,2.704,eccentric,4,3.0,25269.0,153888.0,238205.0,284976.0,266055.0
2026-04-08 21:52:38.012345,272921,1609504330220193,1930187067,0.958432,0.093696,-0.212768,-0.30625,-0.16625,9.98375,-24.160002,19.888,-0.192,eccentric,4,3.0,24890.0,152737.0,237282.0,284429.0,265783.0
2026-04-08 21:52:38.014848,272922,1609504330229199,1930195876,0.958432,0.093696,-0.212768,-0.16625,0.595,10.22875,-24.160002,19.888,-0.192,eccentric,4,3.0,24890.0,152737.0,237282.0,284429.0,265783.0
2026-04-08 21:52:38.017328,272923,1609504330243711,1930210801,0.9272,0.128832,-0.230336,3.6575,1.68875,11.34,-23.944,19.536001,2.728,eccentric,4,3.0,24890.0,152737.0,237282.0,284429.0,265783.0
2026-04-08 21:52:38.050093,272924,1609504330252638,1930219492,1.007232,0.103456,-0.033184,6.64125,1.32125,10.7625,-23.976002,19.568,3.16,eccentric,4,3.0,24890.0,152737.0,237282.0,284429.0,265783.0
2026-04-08 21:52:38.053661,272925,1609504330267169,1930232318,1.007232,0.103456,-0.033184,6.36125,1.085,10.6925,-23.976002,19.568,3.16,eccentric,4,3.0,24890.0,152737.0,237282.0,284429.0,265783.0
2026-04-08 21:52:38.056160,272926,1609504330276334,1930243088,1.00528,0.11712,0.027328,2.02125,0.95375,12.04,-23.880001,19.808,2.912,eccentric,4,3.0,24890.0,152737.0,237282.0,284429.0,265783.0
2026-04-08 21:52:38.059901,272927,1609504330290766,1930255926,1.00528,0.11712,0.027328,0.14,0.11375,12.215,-23.880001,19.808,2.912,eccentric,4,3.0,24890.0,152737.0,237282.0,284429.0,265783.0
2026-04-08 21:52:38.090102,272928,1609504330299916,1930266679,0.942816,0.124928,0.031232,2.26625,0.88375,12.46,-23.808,19.752,4.392,eccentric,4,3.0,24890.0,152737.0,237282.0,284429.0,265783.0
2026-04-08 21:52:38.093660,272929,1609504330308847,1930275341,0.942816,0.124928,0.031232,3.45625,1.365,13.230001,-23.808,19.752,4.392,eccentric,4,3.0,24890.0,152737.0,237282.0,284429.0,265783.0
2026-04-08 21:52:38.133338,272940,1609504330323394,1930290269,0.894016,0.154208,-0.037088,1.6275,0.8575,13.125,-23.312,19.688002,3.288,eccentric,4,3.0,24865.0,152741.0,237156.0,284342.0,265769.0
2026-04-08 21:52:38.134895,272941,1609504330332395,1930298989,0.894016,0.154208,-0.111264,1.6275,0.67375,13.72,-23.312,19.688002,3.288,eccentric,4,3.0,24865.0,152741.0,237156.0,284342.0,265769.0
2026-04-08 21:52:38.138303,272942,1609504330346870,1930313889,0.948672,0.066368,-0.111264,2.2925,1.11125,15.26,-23.312,20.048,5.096,eccentric,4,3.0,24865.0,152741.0,237156.0,284342.0,265769.0
2026-04-08 21:52:38.139889,272943,1609504330355821,1930322601,0.960384,0.06832,0.07808,-1.995,0.51625,13.08125,-23.008001,20.464,3.584,eccentric,4,3.0,24865.0,152741.0,237156.0,284342.0,265769.0
2026-04-08 21:52:38.143993,272944,1609504330364878,1930331282,0.960384,0.06832,0.07808,-2.12625,0.60375,14.761251,-23.008001,20.464,3.584,eccentric,4,3.0,24865.0,152741.0,237156.0,284342.0,265769.0
2026-04-08 21:52:38.172561,272945,1609504330379419,1930346195,0.964288,0.05856,0.03904,1.7325,0.5775,16.7475,-22.44,20.568,4.112,eccentric,4,3.0,24865.0,152741.0,237156.0,284342.0,265769.0
2026-04-08 21:52:38.177084,272946,1609504330388360,1930354864,0.964288,0.05856,0.03904,4.6025,1.1025,16.065,-22.44,20.568,4.112,eccentric,4,3.0,24865.0,152741.0,237156.0,284342.0,265769.0
2026-04-08 21:52:38.179459,272947,1609504330402817,1930369706,0.854976,0.11712,-0.0488,8.575,0.7525,15.8725,-22.288,20.28,3.384,eccentric,4,3.0,24865.0,152741.0,237156.0,284342.0,265769.0
2026-04-08 21:52:38.185186,272948,1609504330411756,1930378371,0.854976,0.11712,-0.0488,11.261251,0.35875,15.81125,-22.288,20.28,3.384,eccentric,4,3.0,24865.0,152741.0,237156.0,284342.0,265769.0
2026-04-08 21:52:38.212953,272959,1609504330426367,1930393364,0.942816,0.076128,-0.035136,10.63125,0.00875,14.49875,-22.224,20.640001,1.52,eccentric,4,3.0,24686.0,152152.0,236601.0,284034.0,265602.0
2026-04-08 21:52:38.214601,272960,1609504330435433,1930402072,0.960384,0.025376,0.054656,6.1075,-0.90125,11.865,-22.160002,20.424002,5.928001,eccentric,4,3.0,24686.0,152152.0,236601.0,284034.0,265602.0
2026-04-08 21:52:38.216188,272961,1609504330444380,1930410774,0.960384,0.025376,0.054656,0.21875,-1.4525,9.30125,-22.160002,20.424002,5.928001,eccentric,4,3.0,24686.0,152152.0,236601.0,284034.0,265602.0
2026-04-08 21:52:38.247275,272962,1609504330458883,1930425666,0.901824,0.044896,-0.01952,-2.0825,-1.60125,10.2025,-22.032001,20.696001,4.016,eccentric,4,3.0,24686.0,152152.0,236601.0,284034.0,265602.0
2026-04-08 21:52:38.251644,272963,1609504330467810,1930434324,0.901824,0.044896,-0.01952,0.3325,-2.84375,11.83875,-22.032001,20.696001,4.016,eccentric,4,3.0,24686.0,152152.0,236601.0,284034.0,265602.0
2026-04-08 21:52:38.254096,272964,1609504330482286,1930449214,0.837408,0.052704,-0.138592,8.8025,-2.73,12.8625,-21.592001,20.6,3.872,eccentric,4,3.0,24686.0,152152.0,236601.0,284034.0,265602.0
2026-04-08 21:52:38.282591,272965,1609504330491250,1930457883,0.837408,0.052704,-0.138592,16.05625,-1.68,10.8325,-21.592001,20.6,3.872,eccentric,4,3.0,24686.0,152152.0,236601.0,284034.0,265602.0
2026-04-08 21:52:38.287047,272966,1609504330505724,1930472753,0.88816,0.08784,0.10736,19.1275,-0.7175,9.14375,-21.416,20.488,3.68,eccentric,4,3.0,24686.0,152152.0,236601.0,284034.0,265602.0
2026-04-08 21:52:38.288583,272967,1609504330514625,1930481416,0.853024,0.11712,-0.181536,17.3075,-1.33875,9.345,-20.984001,20.656,4.24,eccentric,4,3.0,24686.0,152152.0,236601.0,284034.0,265602.0
2026-04-08 21:52:38.319621,272978,1609504330523618,1930490161,0.853024,0.11712,-0.181536,11.4275,-2.24875,10.59625,-20.984001,20.656,4.24,eccentric,4,3.0,24900.0,152754.0,236837.0,284081.0,265633.0
2026-04-08 21:52:38.321183,272979,1609504330538198,1930505188,0.940864,0.017568,-0.066368,7.49,-2.17,10.21125,-21.128,20.584002,4.04,eccentric,4,3.0,24900.0,152754.0,236837.0,284081.0,265633.0
2026-04-08 21:52:38.329100,272980,1609504330547134,1930513889,0.940864,0.017568,-0.066368,3.115,-1.0325,9.40625,-21.128,20.584002,4.04,eccentric,4,3.0,24900.0,152754.0,236837.0,284081.0,265633.0
2026-04-08 21:52:38.335337,272981,1609504330561642,1930528780,0.813984,0.056608,-0.06832,-3.64,0.46375,9.58125,-20.720001,20.976002,3.296,eccentric,4,3.0,24900.0,152754.0,236837.0,284081.0,265633.0
2026-04-08 21:52:38.363849,272982,1609504330570546,1930537435,0.813984,0.056608,-0.06832,-5.15375,1.65375,9.5375,-20.720001,20.976002,3.296,eccentric,4,3.0,24900.0,152754.0,236837.0,284081.0,265633.0
2026-04-08 21:52:38.368336,272983,1609504330585030,1930550243,0.817888,0.03904,-0.16592,-2.4325,1.75,9.0125,-20.784,21.12,4.872,eccentric,4,3.0,24900.0,152754.0,236837.0,284081.0,265633.0
2026-04-08 21:52:38.369783,272984,1609504330594206,1930560992,0.817888,0.085888,0.152256,0.56,2.23125,9.7125,-20.784,21.12,4.872,eccentric,4,3.0,24900.0,152754.0,236837.0,284081.0,265633.0
2026-04-08 21:52:38.375209,272985,1609504330603128,1930569651,0.854976,0.080032,0.152256,4.78625,2.8175,13.50125,-20.880001,21.008001,3.968,eccentric,4,3.0,24900.0,152754.0,236837.0,284081.0,265633.0
2026-04-08 21:52:38.431518,272996,1609504330617945,1930585106,0.845216,0.037088,-0.011712,7.07875,3.6575,15.44375,-20.344002,21.232,4.344,eccentric,4,3.0,25374.0,153928.0,237352.0,284263.0,265713.0
2026-04-08 21:52:38.432719,272997,1609504330626972,1930593773,0.845216,0.037088,-0.011712,9.40625,3.47375,14.8925,-20.344002,21.232,4.344,eccentric,4,3.0,25374.0,153928.0,237352.0,284263.0,265713.0
2026-04-08 21:52:38.436641,272998,1609504330641471,1930606607,0.892064,0.031232,0.046848,11.6025,3.9025,16.8525,-20.04,21.456001,5.152,eccentric,4,3.0,25374.0,153928.0,237352.0,284263.0,265713.0
2026-04-08 21:52:38.438315,272999,1609504330650628,1930617429,0.892064,0.031232,0.046848,7.9975,5.04,17.54375,-20.04,21.456001,5.152,eccentric,4,3.0,25374.0,153928.0,237352.0,284263.0,265713.0
2026-04-08 21:52:38.439914,273000,1609504330659675,1930626124,1.042368,0.245952,-0.05856,4.585,9.555,20.9125,-19.248001,21.648,4.728,eccentric,4,3.0,25374.0,153928.0,237352.0,284263.0,265713.0
2026-04-08 21:52:38.447797,273001,1609504330674179,1930641054,1.042368,0.245952,-0.05856,7.37625,6.335,26.88875,-19.248001,21.648,4.728,eccentric,4,3.0,25374.0,153928.0,237352.0,284263.0,265713.0
2026-04-08 21:52:38.456540,273002,1609504330683115,1930649718,0.788608,0.158112,0.00976,2.12625,3.6225,14.1225,-19.208,21.376001,4.264,eccentric,4,3.0,25374.0,153928.0,237352.0,284263.0,265713.0
2026-04-08 21:52:38.485048,273003,1609504330697592,1930664735,0.646112,-0.148352,0.132736,-2.0125,10.15,7.595,-19.504002,21.472,4.736,eccentric,4,3.0,25374.0,153928.0,237352.0,284263.0,265713.0
2026-04-08 21:52:38.492817,273004,1609504330706512,1930673423,0.646112,-0.148352,0.132736,-18.6025,10.92,15.18125,-19.504002,21.472,4.736,eccentric,4,3.0,25374.0,153928.0,237352.0,284263.0,265713.0
2026-04-08 21:52:38.518785,273015,1609504330721646,1930688282,0.648064,-0.128832,-0.060512,-30.54625,11.095,26.1975,-18.992,21.824001,4.712,eccentric,4,3.0,25003.0,152506.0,236280.0,283654.0,265394.0
2026-04-08 21:52:38.522909,273016,1609504330730663,1930697037,0.648064,-0.128832,-0.060512,-23.26625,11.7775,27.92125,-18.992,21.824001,4.712,eccentric,4,3.0,25003.0,152506.0,236280.0,283654.0,265394.0
2026-04-08 21:52:38.524621,273017,1609504330739632,1930705755,0.854976,-0.056608,-0.119072,-13.4575,11.24375,17.955,-18.824001,21.832,5.832,eccentric,4,3.0,25003.0,152506.0,236280.0,283654.0,265394.0
2026-04-08 21:52:38.526182,273018,1609504330754115,1930720716,0.854976,-0.056608,-0.119072,-7.0875,9.35375,10.24625,-18.824001,21.832,5.832,eccentric,4,3.0,25003.0,152506.0,236280.0,283654.0,265394.0
2026-04-08 21:52:38.557266,273019,1609504330763066,1930729389,0.874496,0.035136,0.16592,1.79375,8.9425,5.74875,-18.624,22.312,6.904,eccentric,4,3.0,25003.0,152506.0,236280.0,283654.0,265394.0
2026-04-08 21:52:38.561720,273020,1609504330777529,1930744274,0.772992,-0.037088,0.052704,7.56875,10.2025,6.7375,-18.720001,21.904001,4.592,eccentric,4,3.0,25003.0,152506.0,236280.0,283654.0,265394.0
2026-04-08 21:52:38.564153,273021,1609504330786454,1930752941,0.772992,-0.037088,0.052704,2.87,11.375,11.515,-18.720001,21.904001,4.592,eccentric,4,3.0,25003.0,152506.0,236280.0,283654.0,265394.0
2026-04-08 21:52:38.567762,273022,1609504330795341,1930761592,0.772992,-0.037088,0.13664,-7.77875,11.52375,10.24625,-18.720001,21.904001,4.592,eccentric,4,3.0,25003.0,152506.0,236280.0,283654.0,265394.0
2026-04-08 21:52:38.596347,273023,1609504330809917,1930776476,0.745664,-0.08784,0.13664,-18.41,11.13,7.35875,-18.384,22.376001,3.616,eccentric,4,3.0,25003.0,152506.0,236280.0,283654.0,265394.0
2026-04-08 21:52:38.636143,273034,1609504330818964,1930785147,0.776896,-0.013664,-0.070272,-26.1625,9.205,2.17,-18.128,21.880001,4.328,eccentric,4,3.0,25406.0,153881.0,237341.0,284285.0,265701.0
2026-04-08 21:52:38.638659,273035,1609504330833476,1930800090,0.776896,-0.013664,-0.070272,-26.880001,7.48125,-6.74625,-18.128,21.880001,4.328,eccentric,4,3.0,25406.0,153881.0,237341.0,284285.0,265701.0
2026-04-08 21:52:38.641112,273036,1609504330842388,1930808763,0.815936,-0.033184,-0.074176,-19.460001,7.875,-12.66125,-18.416,22.368002,6.192,eccentric,4,3.0,25406.0,153881.0,237341.0,284285.0,265701.0
2026-04-08 21:52:38.643691,273037,1609504330856907,1930823627,0.739808,-0.025376,-0.050752,-16.625,9.292501,-12.1625,-18.512001,22.128,5.008,eccentric,4,3.0,25406.0,153881.0,237341.0,284285.0,265701.0
2026-04-08 21:52:38.646160,273038,1609504330865832,1930832336,0.739808,-0.025376,-0.050752,-18.83,10.01,-7.16625,-18.512001,22.128,5.008,eccentric,4,3.0,25406.0,153881.0,237341.0,284285.0,265701.0
2026-04-08 21:52:38.649279,273039,1609504330874782,1930841150,0.739808,-0.025376,-0.050752,-23.51125,9.695,-8.35625,-18.512001,22.128,5.008,eccentric,4,3.0,25406.0,153881.0,237341.0,284285.0,265701.0
2026-04-08 21:52:38.678170,273040,1609504330889269,1930856042,0.845216,-0.05856,-0.111264,-25.99625,7.42875,-10.4475,-18.256,22.240002,4.896,eccentric,4,3.0,25406.0,153881.0,237341.0,284285.0,265701.0
2026-04-08 21:52:38.681111,273041,1609504330898200,1930864718,0.929152,-0.003904,0.052704,-25.76875,5.25,-12.1275,-18.456001,22.216002,3.92,eccentric,4,3.0,25406.0,153881.0,237341.0,284285.0,265701.0
2026-04-08 21:52:38.684884,273042,1609504330912679,1930879574,0.929152,-0.003904,0.052704,-23.63375,3.35125,-15.636251,-18.456001,22.216002,3.92,eccentric,4,3.0,25406.0,153881.0,237341.0,284285.0,265701.0
2026-04-08 21:52:38.717387,273053,1609504330922213,1930888765,0.84912,0.01952,-0.074176,-20.195,2.59875,-19.0925,-18.464,22.264002,4.176,eccentric,4,3.0,25824.0,155077.0,238195.0,284765.0,265946.0
2026-04-08 21:52:38.719859,273054,1609504330931332,1930897476,0.84912,0.01952,-0.074176,-18.75125,2.7125,-21.00875,-18.464,22.264002,4.176,eccentric,4,3.0,25824.0,155077.0,238195.0,284765.0,265946.0
2026-04-08 21:52:38.722359,273055,1609504330945819,1930912404,0.870592,0.054656,0.044896,-19.7575,1.88125,-22.12,-18.624,22.112001,4.912,eccentric,4,3.0,25824.0,155077.0,238195.0,284765.0,265946.0
2026-04-08 21:52:38.726115,273056,1609504330954741,1930921077,0.870592,0.054656,0.044896,-24.0625,0.105,-21.44625,-18.624,22.112001,4.912,eccentric,4,3.0,25824.0,155077.0,238195.0,284765.0,265946.0
2026-04-08 21:52:38.756387,273057,1609504330969241,1930935927,0.987712,-0.00976,-0.046848,-27.895,-2.21375,-20.20375,-18.92,22.080002,4.416,eccentric,4,3.0,25824.0,155077.0,238195.0,284765.0,265946.0
2026-04-08 21:52:38.759900,273058,1609504330978169,1930944623,0.880352,0.007808,-0.064416,-30.9225,-4.24375,-18.5675,-18.936,21.728,3.296,eccentric,4,3.0,25824.0,155077.0,238195.0,284765.0,265946.0
2026-04-08 21:52:38.763733,273059,1609504330992626,1930959493,0.880352,0.007808,-0.064416,-23.24875,-4.34,-17.745,-18.936,21.728,3.296,eccentric,4,3.0,25824.0,155077.0,238195.0,284765.0,265946.0
2026-04-08 21:52:38.795067,273060,1609504331001573,1930968163,0.913536,0.001952,0.0488,-7.09625,-3.29875,-16.485,-19.008001,21.68,3.632,eccentric,4,3.0,25824.0,155077.0,238195.0,284765.0,265946.0
2026-04-08 21:52:38.798616,273061,1609504331010523,1930976851,0.913536,0.001952,0.0488,0.455,-3.59625,-13.8075,-19.008001,21.68,3.632,eccentric,4,3.0,25824.0,155077.0,238195.0,284765.0,265946.0
2026-04-08 21:52:38.826161,273072,1609504331025089,1930991796,0.921344,0.06832,0.072224,-2.415,-4.27875,-15.7325,-19.248001,21.952002,3.52,concentric,4,3.0,25672.0,154958.0,238596.0,285206.0,266318.0
2026-04-08 21:52:38.829352,273073,1609504331034015,1931000485,0.921344,0.06832,0.072224,-7.72625,-4.025,-18.97875,-19.248001,21.952002,3.52,concentric,4,3.0,25672.0,154958.0,238596.0,285206.0,266318.0
2026-04-08 21:52:38.831146,273074,1609504331048598,1931015387,0.923296,0.015616,0.0976,-12.92375,-3.28125,-19.2325,-19.072,21.712002,5.296001,concentric,4,3.0,25672.0,154958.0,238596.0,285206.0,266318.0
2026-04-08 21:52:38.833587,273075,1609504331057635,1931024075,0.8296,-0.027328,-0.03904,-13.50125,-2.31,-16.485,-19.072,21.712002,5.288,concentric,4,3.0,25672.0,154958.0,238596.0,285206.0,266318.0
2026-04-08 21:52:38.838616,273076,1609504331066576,1931032769,0.837408,-0.027328,-0.03904,-10.605001,-2.1875,-14.56875,-19.856,21.504002,5.288,concentric,4,3.0,25672.0,154958.0,238596.0,285206.0,266318.0
2026-04-08 21:52:38.868868,273077,1609504331081119,1931047703,0.833504,0.056608,0.081984,-10.42125,-2.975,-13.08125,-19.824001,21.328001,3.024,concentric,4,3.0,25672.0,154958.0,238596.0,285206.0,266318.0
2026-04-08 21:52:38.872330,273078,1609504331090064,1931056369,0.833504,0.056608,0.081984,-17.85,-3.70125,-15.32125,-19.824001,21.328001,3.024,concentric,4,3.0,25672.0,154958.0,238596.0,285206.0,266318.0
2026-04-08 21:52:38.876123,273079,1609504331104541,1931071244,0.86864,0.025376,0.10736,-28.76125,-5.11,-17.4825,-19.696001,21.2,2.056,concentric,4,3.0,25672.0,154958.0,238596.0,285206.0,266318.0
2026-04-08 21:52:38.884826,273080,1609504331113416,1931079909,0.86864,0.025376,0.10736,-31.54375,-5.1625,-12.3725,-19.696001,21.2,2.056,concentric,4,3.0,25672.0,154958.0,238596.0,285206.0,266318.0
2026-04-08 21:52:38.918525,273091,1609504331127900,1931094865,0.847168,-0.003904,0.005856,-27.79,-4.22625,-8.30375,-19.84,21.288,3.24,concentric,4,3.0,25469.0,154564.0,238604.0,285341.0,266402.0
2026-04-08 21:52:38.921071,273092,1609504331136969,1931103579,0.847168,-0.003904,0.005856,-23.905,-3.0275,-10.823751,-19.84,21.288,3.24,concentric,4,3.0,25469.0,154564.0,238604.0,285341.0,266402.0
2026-04-08 21:52:38.923558,273093,1609504331145917,1931112253,0.862784,0.015616,0.091744,-22.0325,-1.4525,-14.30625,-20.088001,21.432001,5.344,concentric,4,3.0,25469.0,154564.0,238604.0,285341.0,266402.0
2026-04-08 21:52:38.953919,273094,1609504331160442,1931127113,0.843264,0.054656,-0.177632,-18.48,-1.785,-11.47125,-20.008001,21.296001,2.288,concentric,4,3.0,25469.0,154564.0,238604.0,285341.0,266402.0
2026-04-08 21:52:38.957343,273095,1609504331169381,1931135790,0.843264,0.054656,-0.177632,-19.897501,-2.54625,-8.58375,-20.008001,21.296001,2.288,concentric,4,3.0,25469.0,154564.0,238604.0,285341.0,266402.0
2026-04-08 21:52:38.959778,273096,1609504331183900,1931150672,0.929152,0.095648,0.095648,-23.14375,-3.10625,-9.24,-20.208,20.896002,1.952,concentric,4,3.0,25469.0,154564.0,238604.0,285341.0,266402.0
2026-04-08 21:52:38.963568,273097,1609504331192795,1931159354,0.929152,0.095648,0.095648,-24.053751,-2.12625,-11.15625,-20.208,20.896002,1.952,concentric,4,3.0,25469.0,154564.0,238604.0,285341.0,266402.0
2026-04-08 21:52:38.998736,273098,1609504331207396,1931174226,0.886208,0.072224,0.103456,-23.86125,-1.09375,-10.12375,-20.072,21.304,2.112,concentric,4,3.0,25469.0,154564.0,238604.0,285341.0,266402.0
2026-04-08 21:52:39.002288,273099,1609504331216291,1931182877,0.886208,0.072224,0.103456,-23.68625,0.18375,-7.09625,-20.072,21.304,2.112,concentric,4,3.0,25469.0,154564.0,238604.0,285341.0,266402.0
2026-04-08 21:52:39.029780,273110,1609504331225331,1931191610,0.84912,0.023424,-0.074176,-25.725,1.58375,-6.685,-20.04,21.568,1.432,concentric,4,3.0,25308.0,154104.0,238343.0,285188.0,266352.0
2026-04-08 21:52:39.032326,273111,1609504331239880,1931206557,0.874496,0.021472,-0.027328,-29.3825,1.26875,-6.3875,-20.336,21.312,3.744,concentric,4,3.0,25308.0,154104.0,238343.0,285188.0,266352.0
2026-04-08 21:52:39.034799,273112,1609504331248904,1931215240,0.874496,0.021472,-0.027328,-28.62125,-2.2925,-4.6025,-20.336,21.312,3.744,concentric,4,3.0,25308.0,154104.0,238343.0,285188.0,266352.0
2026-04-08 21:52:39.037297,273113,1609504331263413,1931230169,0.882304,-0.05856,-0.095648,-19.78375,-5.1625,-3.31625,-20.576,21.128,2.448,concentric,4,3.0,25308.0,154104.0,238343.0,285188.0,266352.0
2026-04-08 21:52:39.067892,273114,1609504331272353,1931238846,0.882304,-0.05856,-0.095648,-13.965,-6.83375,-5.355,-20.576,21.128,2.448,concentric,4,3.0,25308.0,154104.0,238343.0,285188.0,266352.0
2026-04-08 21:52:39.070992,273115,1609504331286836,1931253748,0.911584,-0.0488,0.140544,-9.345,-7.28875,-6.4575,-20.336,21.256,1.056,concentric,4,3.0,25308.0,154104.0,238343.0,285188.0,266352.0
2026-04-08 21:52:39.073493,273116,1609504331295740,1931262409,0.911584,-0.0488,0.140544,-3.6925,-7.34125,-6.44875,-20.336,21.256,1.056,concentric,4,3.0,25308.0,154104.0,238343.0,285188.0,266352.0
2026-04-08 21:52:39.076071,273117,1609504331304629,1931271052,0.827648,0.056608,0.013664,0.5425,-8.49625,-5.775,-20.28,21.84,1.096,concentric,4,3.0,25308.0,154104.0,238343.0,285188.0,266352.0
2026-04-08 21:52:39.106219,273118,1609504331319111,1931285916,0.827648,0.085888,-0.005856,1.67125,-11.69,-6.43125,-20.28,21.84,1.096,concentric,4,3.0,25308.0,154104.0,238343.0,285188.0,266352.0
2026-04-08 21:52:39.134774,273129,1609504331328089,1931294624,0.895968,0.085888,-0.005856,2.31875,-13.78125,-9.33625,-20.736,21.36,2.392,concentric,4,3.0,25292.0,154270.0,238572.0,285380.0,266446.0
2026-04-08 21:52:39.137320,273130,1609504331342589,1931309463,0.915488,0.027328,0.111264,3.70125,-13.5625,-12.3025,-20.696001,21.408,1.224,concentric,4,3.0,25292.0,154270.0,238572.0,285380.0,266446.0
2026-04-08 21:52:39.139809,273131,1609504331351650,1931318211,0.915488,0.027328,0.111264,3.3425,-12.1975,-13.3875,-20.696001,21.408,1.224,concentric,4,3.0,25292.0,154270.0,238572.0,285380.0,266446.0
2026-04-08 21:52:39.142624,273132,1609504331366163,1931333111,0.895968,-0.025376,-0.122976,3.535,-11.3575,-13.8075,-20.808,21.296001,1.72,concentric,4,3.0,25292.0,154270.0,238572.0,285380.0,266446.0
2026-04-08 21:52:39.147428,273133,1609504331375109,1931341802,0.895968,-0.025376,-0.122976,3.50875,-11.865,-13.23875,-20.808,21.296001,1.72,concentric,4,3.0,25292.0,154270.0,238572.0,285380.0,266446.0
2026-04-08 21:52:39.156038,273134,1609504331384081,1931350520,0.974048,0.035136,0.02928,4.19125,-11.78625,-13.60625,-20.928001,20.560001,1.184,concentric,4,3.0,25292.0,154270.0,238572.0,285380.0,266446.0
2026-04-08 21:52:39.186280,273135,1609504331398570,1931365415,0.974048,0.035136,0.02928,11.4975,-11.15625,-13.3525,-20.928001,20.560001,1.184,concentric,4,3.0,25292.0,154270.0,238572.0,285380.0,266446.0
2026-04-08 21:52:39.189863,273136,1609504331407478,1931374080,0.929152,0.113216,0.105408,17.2025,-11.68125,-11.76875,-20.968,20.928001,1.368,concentric,4,3.0,25292.0,154270.0,238572.0,285380.0,266446.0
2026-04-08 21:52:39.217348,273147,1609504331422242,1931389379,0.853024,0.07808,0.042944,18.05125,-12.11875,-10.3425,-20.936,20.544,0.72,concentric,4,3.0,25364.0,154730.0,239135.0,285779.0,266682.0
2026-04-08 21:52:39.219763,273148,1609504331431355,1931398111,0.853024,0.07808,0.042944,18.41,-11.83,-9.75625,-20.936,20.544,0.72,concentric,4,3.0,25364.0,154730.0,239135.0,285779.0,266682.0
2026-04-08 21:52:39.222682,273149,1609504331440332,1931406740,0.948672,0.083936,-0.005856,13.440001,-11.89125,-10.96375,-20.936,20.84,0.424,concentric,4,3.0,25364.0,154730.0,239135.0,285779.0,266682.0
2026-04-08 21:52:39.227195,273150,1609504331454925,1931421616,0.948672,0.083936,-0.005856,3.045,-12.4775,-13.83375,-21.344002,20.84,0.424,concentric,4,3.0,25364.0,154730.0,239135.0,285779.0,266682.0
2026-04-08 21:52:39.256389,273151,1609504331463849,1931430280,0.942816,0.103456,-0.119072,-1.11125,-9.98375,-15.89,-21.400002,20.352001,1.192,concentric,4,3.0,25364.0,154730.0,239135.0,285779.0,266682.0
2026-04-08 21:52:39.259921,273152,1609504331478362,1931445132,0.942816,0.103456,-0.119072,4.8825,-8.12875,-13.27375,-21.400002,20.352001,1.192,concentric,4,3.0,25364.0,154730.0,239135.0,285779.0,266682.0
2026-04-08 21:52:39.262304,273153,1609504331487269,1931453811,0.9272,0.031232,0.081984,11.33125,-5.425,-8.82875,-21.296001,20.592001,1.968,concentric,4,3.0,25364.0,154730.0,239135.0,285779.0,266682.0
2026-04-08 21:52:39.292491,273154,1609504331501788,1931468682,0.8296,-0.001952,0.083936,17.66625,-2.86125,-6.0375,-21.616001,20.536001,3.24,concentric,4,3.0,25364.0,154730.0,239135.0,285779.0,266682.0
2026-04-08 21:52:39.296004,273155,1609504331510724,1931477353,0.8296,-0.001952,0.083936,14.34125,-2.77375,-5.3725,-21.616001,20.536001,3.24,concentric,4,3.0,25364.0,154730.0,239135.0,285779.0,266682.0
2026-04-08 21:52:39.298506,273156,1609504331519648,1931486008,0.8296,-0.001952,0.083936,5.915,-5.27625,-6.825,-21.616001,20.536001,3.24,concentric,4,3.0,25364.0,154730.0,239135.0,285779.0,266682.0
2026-04-08 21:52:39.326139,273167,1609504331534208,1931500948,0.903776,0.113216,-0.296704,-0.41125,-9.49375,-10.85,-21.544,20.488,3.072,concentric,4,3.0,25340.0,154593.0,238902.0,285559.0,266537.0
2026-04-08 21:52:39.328719,273168,1609504331543129,1931509669,1.011136,0.167872,-0.245952,-7.3325,-10.7975,-15.715,-21.640001,20.576,1.296,concentric,4,3.0,25340.0,154593.0,238902.0,285559.0,266537.0
2026-04-08 21:52:39.331136,273169,1609504331557640,1931524604,1.011136,0.167872,-0.245952,-4.6375,-6.09,-15.12875,-21.640001,20.576,1.296,concentric,4,3.0,25340.0,154593.0,238902.0,285559.0,266537.0
2026-04-08 21:52:39.337319,273170,1609504331566574,1931533293,0.944768,0.027328,0.01952,5.3025,0.175,-9.205,-21.984001,20.536001,1.312,concentric,4,3.0,25340.0,154593.0,238902.0,285559.0,266537.0
2026-04-08 21:52:39.367487,273171,1609504331581107,1931548164,0.862784,0.027328,0.015616,8.47875,4.305,-2.3975,-21.984001,20.376001,0.944,concentric,4,3.0,25340.0,154593.0,238902.0,285559.0,266537.0
2026-04-08 21:52:39.371091,273172,1609504331590011,1931556818,0.862784,0.027328,0.015616,5.10125,3.01875,2.87,-22.000002,20.376001,0.944,concentric,4,3.0,25340.0,154593.0,238902.0,285559.0,266537.0
2026-04-08 21:52:39.373689,273173,1609504331598924,1931565490,0.862784,0.027328,0.015616,-3.21125,-0.945,2.63375,-22.000002,20.376001,0.944,concentric,4,3.0,25340.0,154593.0,238902.0,285559.0,266537.0
2026-04-08 21:52:39.403832,273174,1609504331613404,1931580382,0.854976,0.099552,-0.208864,-4.99625,-3.6575,-0.0525,-21.920002,20.592001,1.752,concentric,4,3.0,25340.0,154593.0,238902.0,285559.0,266537.0
2026-04-08 21:52:39.441060,273185,1609504331622347,1931589081,0.882304,0.08784,-0.163968,-2.75625,-4.59375,-3.43875,-21.960001,20.552,1.832,concentric,4,3.0,25400.0,154550.0,238649.0,285370.0,266436.0
2026-04-08 21:52:39.443563,273186,1609504331637235,1931604059,0.882304,0.08784,-0.163968,-5.10125,-4.4625,-4.795,-21.960001,20.552,1.832,concentric,4,3.0,25400.0,154550.0,238649.0,285370.0,266436.0
2026-04-08 21:52:39.446097,273187,1609504331646231,1931612722,0.895968,0.05856,0.005856,-2.35375,-3.29875,-4.9875,-22.424002,20.256,2.24,concentric,4,3.0,25400.0,154550.0,238649.0,285370.0,266436.0
2026-04-08 21:52:39.448558,273188,1609504331660771,1931627603,0.895968,0.05856,0.005856,8.89,-1.8375,-5.6,-22.424002,20.256,2.24,concentric,4,3.0,25400.0,154550.0,238649.0,285370.0,266436.0
2026-04-08 21:52:39.451057,273189,1609504331669700,1931636290,0.841312,0.093696,-0.070272,15.190001,-1.32125,-5.25875,-22.752,20.36,0.944,concentric,4,3.0,25400.0,154550.0,238649.0,285370.0,266436.0
2026-04-08 21:52:39.453673,273190,1609504331678649,1931645013,0.841312,0.093696,-0.070272,11.85625,-1.89875,-3.19375,-22.752,20.36,0.944,concentric,4,3.0,25400.0,154550.0,238649.0,285370.0,266436.0
2026-04-08 21:52:39.488035,273191,1609504331693205,1931659897,0.901824,0.134688,-0.197152,5.34625,-1.715,-1.54,-22.232,20.312,1.272,concentric,4,3.0,25400.0,154550.0,238649.0,285370.0,266436.0
2026-04-08 21:52:39.489638,273192,1609504331702158,1931668630,0.806176,0.158112,-0.081984,-1.21625,-0.595,-0.525,-22.6,20.560001,1.224,concentric,4,3.0,25400.0,154550.0,238649.0,285370.0,266436.0
2026-04-08 21:52:39.492118,273193,1609504331716661,1931683530,0.806176,0.158112,-0.081984,-9.16125,-0.93625,-0.32375,-22.6,20.560001,1.224,concentric,4,3.0,25400.0,154550.0,238649.0,285370.0,266436.0
2026-04-08 21:52:39.520418,273204,1609504331725728,1931692288,0.864736,-0.013664,-0.072224,-12.74,-1.42625,-1.8725,-22.408,20.312,1.864,concentric,4,3.0,24813.0,152862.0,237603.0,284921.0,266282.0
2026-04-08 21:52:39.522046,273205,1609504331734815,1931701014,0.864736,-0.013664,-0.072224,-13.43125,-2.05625,-7.21,-22.408,20.312,1.864,concentric,4,3.0,24813.0,152862.0,237603.0,284921.0,266282.0
2026-04-08 21:52:39.523644,273206,1609504331749387,1931715919,0.856928,-0.021472,-0.163968,-12.45125,-2.135,-9.73875,-22.464,20.432001,1.76,concentric,4,3.0,24813.0,152862.0,237603.0,284921.0,266282.0
2026-04-08 21:52:39.531571,273207,1609504331758322,1931724578,0.856928,-0.021472,-0.163968,-7.42,-2.40625,-7.8225,-22.464,20.432001,1.76,concentric,4,3.0,24813.0,152862.0,237603.0,284921.0,266282.0
2026-04-08 21:52:39.560120,273208,1609504331772805,1931739478,0.862784,0.140544,-0.140544,-0.875,-2.905,-8.60125,-22.592001,20.688002,0.76,concentric,4,3.0,24813.0,152862.0,237603.0,284921.0,266282.0
2026-04-08 21:52:39.564484,273209,1609504331781729,1931748169,0.862784,0.140544,-0.15616,7.49875,-2.2575,-8.70625,-22.592001,20.688002,0.76,concentric,4,3.0,24813.0,152862.0,237603.0,284921.0,266282.0
2026-04-08 21:52:39.567365,273210,1609504331796190,1931763017,0.85888,0.150304,-0.154208,11.82125,-1.53125,-6.8775,-22.800001,20.144001,-1.696,concentric,4,3.0,24813.0,152862.0,237603.0,284921.0,266282.0
2026-04-08 21:52:39.597595,273211,1609504331805102,1931771708,0.903776,0.08784,0.10736,8.2075,-1.61875,-9.275,-22.992,20.336,1.616,concentric,4,3.0,24813.0,152862.0,237603.0,284921.0,266282.0
2026-04-08 21:52:39.601097,273212,1609504331814010,1931780364,0.903776,0.08784,0.10736,4.38375,-3.3775,-11.8825,-22.992,20.336,1.616,concentric,4,3.0,24813.0,152862.0,237603.0,284921.0,266282.0
2026-04-08 21:52:39.631087,273223,1609504331828673,1931795655,0.944768,0.083936,0.015616,5.88875,-4.9175,-9.1525,-23.216002,19.856,1.064,concentric,4,3.0,24613.0,152320.0,237216.0,284715.0,266142.0
2026-04-08 21:52:39.633539,273224,1609504331837675,1931804364,0.944768,0.083936,0.015616,6.125,-5.90625,-12.53,-23.216002,19.856,1.064,concentric,4,3.0,24613.0,152320.0,237216.0,284715.0,266142.0
2026-04-08 21:52:39.636112,273225,1609504331852256,1931819294,0.870592,0.105408,-0.144448,6.265,-5.87125,-18.92625,-23.44,19.624,2.144,concentric,4,3.0,24613.0,152320.0,237216.0,284715.0,266142.0
2026-04-08 21:52:39.638578,273226,1609504331861200,1931827954,0.870592,0.105408,-0.144448,11.47125,-4.97,-17.64875,-23.44,19.624,2.144,concentric,4,3.0,24613.0,152320.0,237216.0,284715.0,266142.0
2026-04-08 21:52:39.668882,273227,1609504331875730,1931842859,0.9272,0.130784,0.066368,14.2625,-4.36625,-14.20125,-23.672,19.784,2.832,concentric,4,3.0,24613.0,152320.0,237216.0,284715.0,266142.0
2026-04-08 21:52:39.672379,273228,1609504331884638,1931851521,0.9272,0.095648,-0.00976,16.07375,-3.78875,-14.875,-23.632002,19.960001,1.112,concentric,4,3.0,24613.0,152320.0,237216.0,284715.0,266142.0
2026-04-08 21:52:39.674864,273229,1609504331893591,1931860206,0.9272,0.095648,-0.00976,17.01,-3.8675,-13.02875,-23.632002,19.960001,1.112,concentric,4,3.0,24613.0,152320.0,237216.0,284715.0,266142.0
2026-04-08 21:52:39.679808,273230,1609504331908033,1931875051,0.884256,0.154208,0.021472,13.335,-3.605,-13.39625,-23.856,19.544,1.016,concentric,4,3.0,24613.0,152320.0,237216.0,284715.0,266142.0
2026-04-08 21:52:39.715123,273231,1609504331917039,1931883721,0.884256,0.154208,0.021472,8.9075,-3.535,-18.0425,-23.856,19.544,1.016,concentric,4,3.0,24613.0,152320.0,237216.0,284715.0,266142.0
2026-04-08 21:52:39.746102,273243,1609504331931609,1931898653,0.983808,0.16592,-0.16592,6.64125,-3.745,-19.45125,-23.840002,19.776001,1.192,concentric,4,3.0,24989.0,153464.0,237978.0,285078.0,266305.0
2026-04-08 21:52:39.748595,273244,1609504331940519,1931907304,0.983808,0.16592,-0.16592,11.97875,-2.94875,-12.48625,-23.840002,19.776001,1.192,concentric,4,3.0,24989.0,153464.0,237978.0,285078.0,266305.0
2026-04-08 21:52:39.751098,273245,1609504331955095,1931922267,0.864736,0.179584,-0.031232,14.18375,-1.1025,-12.635,-24.112001,19.272001,1.448,concentric,4,3.0,24989.0,153464.0,237978.0,285078.0,266305.0
2026-04-08 21:52:39.753611,273246,1609504331964064,1931930986,0.86864,0.152256,0.109312,12.18,1.3475,-13.18625,-24.208002,19.488,0.344,concentric,4,3.0,24989.0,153464.0,237978.0,285078.0,266305.0
2026-04-08 21:52:39.756018,273247,1609504331973175,1931939709,0.86864,0.152256,0.109312,8.02375,1.225,-10.36,-24.208002,19.488,0.344,concentric,4,3.0,24989.0,153464.0,237978.0,285078.0,266305.0
2026-04-08 21:52:39.758619,273248,1609504331987697,1931954632,0.923296,0.121024,-0.201056,4.585,0.07,-10.03625,-24.416,18.904001,1.168,concentric,4,3.0,24989.0,153464.0,237978.0,285078.0,266305.0
2026-04-08 21:52:39.789780,273249,1609504331996603,1931963297,0.923296,0.121024,-0.201056,5.59125,-1.81125,-9.82625,-24.416,18.904001,1.168,concentric,4,3.0,24989.0,153464.0,237978.0,285078.0,266305.0
2026-04-08 21:52:39.792268,273250,1609504332011091,1931978186,0.991616,0.130784,-0.152256,10.535,-2.275,-9.275,-24.36,18.984001,1.384,concentric,4,3.0,24989.0,153464.0,237978.0,285078.0,266305.0
2026-04-08 21:52:39.796606,273251,1609504332020029,1931986835,0.991616,0.130784,-0.152256,11.73375,-1.61875,-10.675,-24.36,18.984001,1.384,concentric,4,3.0,24989.0,153464.0,237978.0,285078.0,266305.0
2026-04-08 21:52:39.829582,273262,1609504332029092,1931995576,0.845216,0.132736,-0.140544,16.6075,0.5425,-10.00125,-24.76,18.928001,1.488,concentric,4,3.0,24776.0,152771.0,237513.0,284803.0,266144.0
2026-04-08 21:52:39.831213,273263,1609504332043633,1932010501,0.845216,0.132736,-0.113216,20.44,2.135,-7.14875,-24.76,18.928001,1.488,concentric,4,3.0,24776.0,152771.0,237513.0,284803.0,266144.0
2026-04-08 21:52:39.835237,273264,1609504332052640,1932019224,0.851072,0.13664,-0.113216,15.5925,2.03875,-3.22875,-24.456001,18.84,-0.008,concentric,4,3.0,24776.0,152771.0,237513.0,284803.0,266144.0
2026-04-08 21:52:39.841463,273265,1609504332067196,1932034101,0.929152,0.167872,-0.085888,9.52875,0.1925,-2.91375,-25.112001,18.928001,1.984,concentric,4,3.0,24776.0,152771.0,237513.0,284803.0,266144.0
2026-04-08 21:52:39.870298,273266,1609504332076170,1932042819,0.929152,0.167872,-0.085888,8.32125,-1.12875,-6.51,-25.112001,18.928001,1.984,concentric,4,3.0,24776.0,152771.0,237513.0,284803.0,266144.0
2026-04-08 21:52:39.874549,273267,1609504332090596,1932057690,0.96624,0.124928,-0.18544,10.6575,-1.39125,-9.065,-24.848001,18.992,1.688,concentric,4,3.0,24776.0,152771.0,237513.0,284803.0,266144.0
2026-04-08 21:52:39.876090,273268,1609504332099514,1932066347,0.96624,0.124928,-0.18544,9.23125,0.74375,-8.09375,-24.848001,18.992,1.688,concentric,4,3.0,24776.0,152771.0,237513.0,284803.0,266144.0
2026-04-08 21:52:39.882721,273269,1609504332108435,1932074989,0.933056,0.13664,0.052704,4.57625,1.53125,-8.18125,-24.688002,18.84,1.312,concentric,4,3.0,24776.0,152771.0,237513.0,284803.0,266144.0
2026-04-08 21:52:39.911293,273270,1609504332122924,1932089922,0.933056,0.13664,0.052704,5.2325,2.24,-2.3975,-24.688002,18.84,1.312,concentric,4,3.0,24776.0,152771.0,237513.0,284803.0,266144.0
2026-04-08 21:52:39.973283,273281,1609504332131880,1932098643,0.894016,0.18544,0.015616,5.3025,2.10875,4.235,-25.072,18.576,0.96,concentric,4,3.0,24598.0,152229.0,237161.0,284560.0,265985.0
2026-04-08 21:52:39.977096,273282,1609504332146379,1932113503,0.909632,0.13664,-0.105408,0.0175,0.95375,-0.9625,-24.912,18.968,2.04,concentric,4,3.0,24598.0,152229.0,237161.0,284560.0,265985.0
2026-04-08 21:52:39.978762,273283,1609504332155323,1932122165,0.909632,0.13664,-0.105408,-2.2225,0.27125,-12.04,-24.912,18.968,2.04,concentric,4,3.0,24598.0,152229.0,237161.0,284560.0,265985.0
2026-04-08 21:52:39.981174,273284,1609504332170040,1932137108,0.979904,0.17568,-0.01952,3.12375,-0.72625,-6.265,-25.256,18.808,1.472,concentric,4,3.0,24598.0,152229.0,237161.0,284560.0,265985.0
2026-04-08 21:52:39.989342,273285,1609504332178928,1932145772,0.979904,0.17568,-0.01952,6.25625,-0.105,0.16625,-25.256,18.808,1.472,concentric,4,3.0,24598.0,152229.0,237161.0,284560.0,265985.0
2026-04-08 21:52:39.996701,273286,1609504332187832,1932154387,0.909632,0.163968,-0.232288,5.495,1.1025,-3.00125,-25.216002,18.768002,1.96,concentric,4,3.0,24598.0,152229.0,237161.0,284560.0,265985.0
2026-04-08 21:52:39.998318,273287,1609504332202273,1932169217,0.909632,0.163968,-0.232288,5.85375,2.0475,-0.70875,-25.216002,18.768002,1.96,concentric,4,3.0,24598.0,152229.0,237161.0,284560.0,265985.0
2026-04-08 21:52:39.999851,273288,1609504332211233,1932177918,0.913536,0.140544,-0.158112,1.365,1.4875,-4.0425,-25.152,18.352001,1.632,concentric,4,3.0,24598.0,152229.0,237161.0,284560.0,265985.0
2026-04-08 21:52:40.029424,273299,1609504332225740,1932192848,1.022848,0.152256,0.060512,-3.43,1.82875,-3.70125,-24.976002,18.848001,2.128,concentric,4,3.0,24774.0,152693.0,237550.0,284720.0,266009.0
2026-04-08 21:52:40.032573,273300,1609504332235206,1932201570,1.022848,0.152256,0.060512,-1.365,1.715,4.15625,-24.976002,18.848001,2.128,concentric,4,3.0,24774.0,152693.0,237550.0,284720.0,266009.0
2026-04-08 21:52:40.034447,273301,1609504332244152,1932210275,1.022848,0.152256,0.060512,-1.505,1.44375,5.67,-24.976002,18.848001,2.128,concentric,4,3.0,24774.0,152693.0,237550.0,284720.0,266009.0
2026-04-08 21:52:40.035734,273302,1609504332258727,1932225273,0.999424,0.119072,-0.054656,-4.8125,1.715,-0.67375,-25.168001,18.92,2.968,concentric,4,3.0,24774.0,152693.0,237550.0,284720.0,266009.0
2026-04-08 21:52:40.040243,273303,1609504332267638,1932233962,0.981856,0.101504,-0.130784,-4.38375,1.07625,-0.81375,-25.456001,19.112001,2.424,concentric,4,3.0,24774.0,152693.0,237550.0,284720.0,266009.0
2026-04-08 21:52:40.068830,273304,1609504332282099,1932248817,0.981856,0.101504,-0.130784,0.53375,0.49,3.47375,-25.456001,19.112001,2.424,concentric,4,3.0,24774.0,152693.0,237550.0,284720.0,266009.0
2026-04-08 21:52:40.073242,273305,1609504332291006,1932257511,1.026752,0.119072,0.02928,-2.10875,0.525,-3.01875,-25.608002,18.912,1.768,concentric,4,3.0,24774.0,152693.0,237550.0,284720.0,266009.0
2026-04-08 21:52:40.079031,273306,1609504332305481,1932272356,1.026752,0.232288,-0.03904,-5.06625,1.33,-10.675,-25.608002,18.912,1.768,concentric,4,3.0,24774.0,152693.0,237550.0,284720.0,266009.0
2026-04-08 21:52:40.108014,273307,1609504332314458,1932281036,1.059936,0.232288,-0.03904,3.22875,2.1525,-9.05625,-25.656002,18.816,3.384,concentric,4,3.0,24774.0,152693.0,237550.0,284720.0,266009.0
2026-04-08 21:52:40.112454,273308,1609504332323373,1932289709,1.059936,0.232288,-0.03904,12.6175,3.8675,-10.21125,-25.656002,18.816,3.384,concentric,4,3.0,24774.0,152693.0,237550.0,284720.0,266009.0
2026-04-08 21:52:40.144133,273319,1609504332337901,1932304580,1.03456,0.193248,0.007808,15.26,5.13625,-13.9125,-25.376001,18.792002,1.664,concentric,4,3.0,25219.0,154061.0,238645.0,285356.0,266313.0
2026-04-08 21:52:40.145880,273320,1609504332346899,1932313247,0.93696,0.132736,-0.181536,10.66625,6.01125,-13.8075,-25.52,18.576,1.904,concentric,4,3.0,25219.0,154061.0,238645.0,285356.0,266313.0
2026-04-08 21:52:40.147383,273321,1609504332361459,1932328249,0.93696,0.132736,-0.181536,4.13,5.48625,-13.09875,-25.52,18.576,1.904,concentric,4,3.0,25219.0,154061.0,238645.0,285356.0,266313.0
2026-04-08 21:52:40.151466,273322,1609504332370390,1932336967,0.96624,0.17568,0.02928,4.76,5.06625,-14.0875,-25.992,18.288,4.072,concentric,4,3.0,25219.0,154061.0,238645.0,285356.0,266313.0
2026-04-08 21:52:40.180057,273323,1609504332384834,1932351860,0.96624,0.17568,0.02928,8.35625,4.2875,-13.5975,-25.992,18.288,4.072,concentric,4,3.0,25219.0,154061.0,238645.0,285356.0,266313.0
2026-04-08 21:52:40.183664,273324,1609504332393761,1932360553,1.016992,0.150304,-0.10736,10.49125,4.025,-11.725,-26.136002,18.408,4.112,concentric,4,3.0,25219.0,154061.0,238645.0,285356.0,266313.0
2026-04-08 21:52:40.188581,273325,1609504332402682,1932369222,1.016992,0.150304,-0.10736,7.04375,4.43625,-10.5525,-26.136002,18.408,4.112,concentric,4,3.0,25219.0,154061.0,238645.0,285356.0,266313.0
2026-04-08 21:52:40.190565,273326,1609504332417139,1932384080,0.999424,0.13664,-0.138592,2.37125,4.515,-10.31625,-26.056002,18.44,2.672,concentric,4,3.0,25219.0,154061.0,238645.0,285356.0,266313.0
2026-04-08 21:52:40.245761,273337,1609504332426052,1932392729,0.999424,0.13664,0.011712,3.1675,4.38375,-9.52875,-26.056002,18.44,2.672,concentric,4,3.0,25729.0,155425.0,239525.0,285806.0,266562.0
2026-04-08 21:52:40.247336,273338,1609504332440571,1932407600,0.977952,0.163968,0.011712,8.05,4.2,-8.8725,-26.240002,18.176,2.064,concentric,4,3.0,25729.0,155425.0,239525.0,285806.0,266562.0
2026-04-08 21:52:40.251693,273339,1609504332449465,1932416257,1.013088,0.169824,-0.035136,11.62,4.10375,-9.17875,-26.264002,18.056002,2.776,concentric,4,3.0,25729.0,155425.0,239525.0,285806.0,266562.0
2026-04-08 21:52:40.253373,273340,1609504332463979,1932431167,1.013088,0.169824,-0.035136,13.6325,4.41,-8.74125,-26.264002,18.056002,2.776,concentric,4,3.0,25729.0,155425.0,239525.0,285806.0,266562.0
2026-04-08 21:52:40.254893,273341,1609504332472927,1932439880,0.983808,0.208864,-0.06832,14.06125,4.2875,-8.198751,-26.320002,18.320002,3.912,concentric,4,3.0,25729.0,155425.0,239525.0,285806.0,266562.0
