pc_time,serial_num,sensor_ts,host_ts,ax,ay,az,gx,gy,gz,mx,my,mz,phase,rpe,weight_kg,ppg_a,ppg_b,ppg_c,ppg_d,ppg_e
2026-04-08 21:53:04.128773,277824,1609504356337911,1956304536,0.913536,0.1464,-0.124928,-2.905,3.325,-7.8225,-26.328001,19.088001,8.896001,eccentric,4,3.0,22714.0,148865.0,236599.0,285890.0,267367.0
2026-04-08 21:53:04.132341,277825,1609504356346861,1956313207,0.954528,0.134688,-0.144448,-0.56875,2.93125,-7.5775,-26.432001,19.568,8.696,eccentric,4,3.0,22714.0,148865.0,236599.0,285890.0,267367.0
2026-04-08 21:53:04.159841,277836,1609504356361351,1956328084,0.954528,0.119072,0.021472,2.6075,2.09125,-7.69125,-26.432001,19.568,8.696,eccentric,4,3.0,22750.0,148984.0,236690.0,285936.0,267384.0
2026-04-08 21:53:04.162366,277837,1609504356370312,1956336802,1.061888,0.119072,0.021472,3.395,1.19875,-8.68875,-26.768002,19.12,7.128,eccentric,4,3.0,22750.0,148984.0,236690.0,285936.0,267384.0
2026-04-08 21:53:04.164852,277838,1609504356384812,1956351691,1.120448,0.103456,0.08784,0.65625,0.7,-9.12625,-26.992,18.776001,8.864,eccentric,4,3.0,22750.0,148984.0,236690.0,285936.0,267384.0
2026-04-08 21:53:04.167378,277839,1609504356393776,1956360364,1.120448,0.103456,0.08784,-1.82,0.665,-9.765,-26.992,18.776001,8.864,eccentric,4,3.0,22750.0,148984.0,236690.0,285936.0,267384.0
2026-04-08 21:53:04.198620,277840,1609504356402731,1956369059,1.116544,0.10736,-0.0976,0.0,0.4375,-11.01625,-27.04,18.808,8.320001,eccentric,4,3.0,22750.0,148984.0,236690.0,285936.0,267384.0
2026-04-08 21:53:04.201058,277841,1609504356417205,1956383889,1.116544,0.10736,-0.0976,2.80875,-0.21875,-10.80625,-27.04,18.808,8.320001,eccentric,4,3.0,22750.0,148984.0,236690.0,285936.0,267384.0
2026-04-08 21:53:04.203620,277842,1609504356426201,1956392571,1.067744,0.158112,-0.208864,3.92,0.1225,-10.255,-27.008001,18.640001,8.696,eccentric,4,3.0,22750.0,148984.0,236690.0,285936.0,267384.0
2026-04-08 21:53:04.235042,277843,1609504356440728,1956407521,1.067744,0.158112,-0.208864,6.22125,-0.805,-10.167501,-27.008001,18.640001,8.696,eccentric,4,3.0,22750.0,148984.0,236690.0,285936.0,267384.0
2026-04-08 21:53:04.238702,277844,1609504356449647,1956416181,1.157536,0.197152,0.062464,9.03,-1.61,-10.0625,-27.232,19.024,9.96,eccentric,4,3.0,22750.0,148984.0,236690.0,285936.0,267384.0
2026-04-08 21:53:04.335817,277855,1609504356464164,1956429432,1.128256,0.222528,0.0488,8.2775,-0.98875,-8.995,-27.096,18.504002,6.84,eccentric,4,3.0,22914.0,149306.0,236790.0,285850.0,267232.0
2026-04-08 21:53:04.340380,277856,1609504356473394,1956440182,1.128256,0.222528,0.0488,4.73375,0.1925,-7.245,-27.096,18.504002,6.84,eccentric,4,3.0,22914.0,149306.0,236790.0,285850.0,267232.0
2026-04-08 21:53:04.342743,277857,1609504356482502,1956448909,1.098976,0.222528,0.062464,2.73875,0.735,-4.80375,-27.096,18.504002,8.728001,eccentric,4,3.0,22914.0,149306.0,236790.0,285850.0,267232.0
2026-04-08 21:53:04.343665,277858,1609504356497130,1956463804,1.098976,0.222528,0.062464,0.95375,0.27125,-2.10875,-27.176,18.584002,8.728001,eccentric,4,3.0,22914.0,149306.0,236790.0,285850.0,267232.0
2026-04-08 21:53:04.349435,277859,1609504356506056,1956472467,1.192672,0.119072,0.02928,-2.51125,-0.315,-2.72125,-26.960001,18.52,8.688001,eccentric,4,3.0,22914.0,149306.0,236790.0,285850.0,267232.0
2026-04-08 21:53:04.350973,277860,1609504356520558,1956487328,1.192672,0.119072,0.02928,-3.2025,0.0525,-1.4175,-26.960001,18.52,8.688001,eccentric,4,3.0,22914.0,149306.0,236790.0,285850.0,267232.0
2026-04-08 21:53:04.352374,277861,1609504356529469,1956495971,1.143872,0.10736,-0.113216,1.295,0.30625,3.80625,-27.064001,18.84,8.64,eccentric,4,3.0,22914.0,149306.0,236790.0,285850.0,267232.0
2026-04-08 21:53:04.355121,277862,1609504356538416,1956504607,1.143872,0.10736,-0.113216,3.82375,0.49,2.40625,-27.064001,18.84,8.64,eccentric,4,3.0,22914.0,149306.0,236790.0,285850.0,267232.0
2026-04-08 21:53:04.382894,277873,1609504356552862,1956519552,1.05408,0.148352,-0.142496,5.25,0.6475,0.5775,-27.04,18.880001,9.0,eccentric,4,3.0,22709.0,148578.0,236237.0,285566.0,267135.0
2026-04-08 21:53:04.384633,277874,1609504356561767,1956528202,1.05408,0.148352,-0.142496,5.55625,-0.86625,1.96875,-27.04,18.880001,9.0,eccentric,4,3.0,22709.0,148578.0,236237.0,285566.0,267135.0
2026-04-08 21:53:04.386180,277875,1609504356576269,1956543081,1.098976,0.203008,0.00976,5.215,-0.93625,2.03875,-26.968,18.808,8.88,eccentric,4,3.0,22709.0,148578.0,236237.0,285566.0,267135.0
2026-04-08 21:53:04.390483,277876,1609504356585361,1956551838,1.143872,0.152256,-0.074176,4.76875,-0.72625,1.89875,-26.704,18.6,9.080001,eccentric,4,3.0,22709.0,148578.0,236237.0,285566.0,267135.0
2026-04-08 21:53:04.394474,277877,1609504356599876,1956566769,1.143872,0.152256,-0.074176,3.31625,-0.27125,3.56125,-26.704,18.6,9.080001,eccentric,4,3.0,22709.0,148578.0,236237.0,285566.0,267135.0
2026-04-08 21:53:04.406651,277878,1609504356608831,1956575475,1.050176,0.17568,-0.150304,0.77875,-0.3325,6.46625,-26.808,18.368,8.832001,eccentric,4,3.0,22709.0,148578.0,236237.0,285566.0,267135.0
2026-04-08 21:53:04.408294,277879,1609504356617841,1956584178,1.050176,0.17568,-0.150304,-0.21,-0.4375,7.8575,-26.808,18.368,8.832001,eccentric,4,3.0,22709.0,148578.0,236237.0,285566.0,267135.0
2026-04-08 21:53:04.409937,277880,1609504356632327,1956599091,1.167296,0.0976,-0.142496,-0.48125,-0.455,8.02375,-26.184002,19.208,8.864,eccentric,4,3.0,22709.0,148578.0,236237.0,285566.0,267135.0
2026-04-08 21:53:04.415205,277881,1609504356641224,1956607748,1.167296,0.0976,-0.142496,-3.70125,0.25375,8.14625,-26.184002,19.208,8.864,eccentric,4,3.0,22709.0,148578.0,236237.0,285566.0,267135.0
2026-04-08 21:53:04.470852,277892,1609504356656117,1956622809,1.057984,0.1464,-0.115168,-4.1475,1.435,8.6275,-26.344002,18.592001,9.816001,eccentric,4,3.0,22667.0,148511.0,236226.0,285675.0,267230.0
2026-04-08 21:53:04.472393,277893,1609504356665131,1956631469,1.036512,0.128832,-0.148352,-3.7625,2.21375,9.89625,-25.728,18.912,9.360001,eccentric,4,3.0,22667.0,148511.0,236226.0,285675.0,267230.0
2026-04-08 21:53:04.476633,277894,1609504356674074,1956640153,1.036512,0.128832,-0.148352,-4.445,2.275,12.87125,-25.728,18.912,9.360001,eccentric,4,3.0,22667.0,148511.0,236226.0,285675.0,267230.0
2026-04-08 21:53:04.478385,277895,1609504356688619,1956655073,1.040416,0.121024,-0.189344,-5.81875,1.70625,15.67125,-25.504002,19.136002,8.8,eccentric,4,3.0,22667.0,148511.0,236226.0,285675.0,267230.0
2026-04-08 21:53:04.479894,277896,1609504356697584,1956663765,1.040416,0.121024,-0.189344,-6.16,0.88375,16.66,-25.504002,19.136002,8.8,eccentric,4,3.0,22667.0,148511.0,236226.0,285675.0,267230.0
2026-04-08 21:53:04.484403,277897,1609504356712110,1956678717,1.098976,0.10736,0.013664,-4.96125,-0.09625,17.08,-24.920002,19.304,8.76,eccentric,4,3.0,22667.0,148511.0,236226.0,285675.0,267230.0
2026-04-08 21:53:04.514658,277898,1609504356721050,1956687382,1.098976,0.10736,0.013664,-0.07,-0.84,16.75625,-24.920002,19.304,8.76,eccentric,4,3.0,22667.0,148511.0,236226.0,285675.0,267230.0
2026-04-08 21:53:04.517011,277899,1609504356735522,1956702248,1.061888,0.035136,-0.152256,4.96125,-1.79375,16.66875,-25.176,19.608002,9.424001,eccentric,4,3.0,22667.0,148511.0,236226.0,285675.0,267230.0
2026-04-08 21:53:04.521608,277900,1609504356744421,1956710908,1.0248,0.08784,-0.001952,3.675,-2.35375,16.0825,-25.176,19.984001,8.768001,eccentric,4,3.0,22667.0,148511.0,236226.0,285675.0,267230.0
2026-04-08 21:53:04.525938,277901,1609504356753388,1956719698,1.0248,0.08784,-0.001952,-0.25375,-3.71875,16.07375,-24.904001,19.984001,8.768001,eccentric,4,3.0,22667.0,148511.0,236226.0,285675.0,267230.0
2026-04-08 21:53:04.551188,277912,1609504356768056,1956734644,0.987712,0.064416,-0.148352,-2.3625,-5.3725,16.30125,-24.224,19.632002,8.776,eccentric,4,3.0,22783.0,149003.0,236598.0,285880.0,267324.0
2026-04-08 21:53:04.554908,277913,1609504356776998,1956743356,0.987712,0.064416,-0.148352,-1.1025,-5.985,16.1525,-24.224,19.632002,8.776,eccentric,4,3.0,22783.0,149003.0,236598.0,285880.0,267324.0
2026-04-08 21:53:04.611049,277914,1609504356791533,1956758268,1.048224,0.0488,0.0488,0.86625,-6.8075,15.70625,-24.216002,19.672,8.92,eccentric,4,3.0,22783.0,149003.0,236598.0,285880.0,267324.0
2026-04-08 21:53:04.615358,277915,1609504356800447,1956766941,1.048224,0.0488,0.0488,3.0975,-6.92125,15.86375,-24.216002,19.672,8.92,eccentric,4,3.0,22783.0,149003.0,236598.0,285880.0,267324.0
2026-04-08 21:53:04.617112,277916,1609504356814902,1956781788,1.067744,0.040992,-0.142496,7.21,-7.90125,16.1875,-23.832,20.144001,8.816,eccentric,4,3.0,22783.0,149003.0,236598.0,285880.0,267324.0
2026-04-08 21:53:04.618785,277917,1609504356823834,1956790448,1.067744,0.040992,-0.142496,7.4025,-7.86625,15.88125,-23.832,20.144001,8.816,eccentric,4,3.0,22783.0,149003.0,236598.0,285880.0,267324.0
2026-04-08 21:53:04.622867,277918,1609504356832732,1956799084,1.016992,0.091744,-0.167872,3.8325,-6.7725,16.73,-23.616001,20.12,10.6,eccentric,4,3.0,22783.0,149003.0,236598.0,285880.0,267324.0
2026-04-08 21:53:04.624607,277919,1609504356847210,1956813979,0.989664,0.033184,-0.132736,-0.035,-5.76625,18.865,-23.304,20.096,8.864,eccentric,4,3.0,22783.0,149003.0,236598.0,285880.0,267324.0
2026-04-08 21:53:04.652829,277930,1609504356856242,1956822712,0.989664,0.033184,-0.132736,-3.99,-4.7075,22.0675,-23.304,20.096,8.864,eccentric,4,3.0,22659.0,148796.0,236626.0,286107.0,267556.0
2026-04-08 21:53:04.654649,277931,1609504356870852,1956837613,0.915488,0.042944,-0.12688,-10.36875,-5.04,24.45625,-22.896002,20.744001,9.200001,eccentric,4,3.0,22659.0,148796.0,236626.0,286107.0,267556.0
2026-04-08 21:53:04.656445,277932,1609504356879862,1956846298,0.915488,0.042944,-0.12688,-14.91,-6.44,24.98125,-22.896002,20.744001,9.200001,eccentric,4,3.0,22659.0,148796.0,236626.0,286107.0,267556.0
2026-04-08 21:53:04.687310,277933,1609504356894350,1956861167,0.950624,-0.011712,-0.203008,-10.955,-7.06125,23.86125,-22.512001,20.672,8.648001,eccentric,4,3.0,22659.0,148796.0,236626.0,286107.0,267556.0
2026-04-08 21:53:04.689520,277934,1609504356903236,1956869831,0.950624,-0.011712,-0.203008,-6.06375,-5.04875,21.7,-22.512001,20.672,8.648001,eccentric,4,3.0,22659.0,148796.0,236626.0,286107.0,267556.0
2026-04-08 21:53:04.694082,277935,1609504356912125,1956878465,0.870592,-0.005856,-0.148352,-2.695,-3.15,21.647501,-22.592001,20.888,8.280001,eccentric,4,3.0,22659.0,148796.0,236626.0,286107.0,267556.0
2026-04-08 21:53:04.700300,277936,1609504356926601,1956893378,0.931104,0.056608,0.05856,-2.9575,-3.15875,22.741251,-22.016,21.368002,12.424001,eccentric,4,3.0,22659.0,148796.0,236626.0,286107.0,267556.0
2026-04-08 21:53:04.728823,277937,1609504356935536,1956902049,0.931104,0.056608,0.05856,-5.11875,-3.8325,23.275,-22.016,21.368002,12.424001,eccentric,4,3.0,22659.0,148796.0,236626.0,286107.0,267556.0
2026-04-08 21:53:04.732386,277938,1609504356950010,1956916909,0.894016,0.025376,-0.177632,-11.61125,-4.96125,22.58375,-21.896002,21.568,8.008,eccentric,4,3.0,22659.0,148796.0,236626.0,286107.0,267556.0
2026-04-08 21:53:04.759827,277949,1609504356959437,1956925968,0.894016,0.025376,-0.177632,-19.0925,-6.18625,21.7875,-21.896002,21.568,8.008,eccentric,4,3.0,22754.0,149260.0,237084.0,286522.0,267827.0
2026-04-08 21:53:04.762341,277950,1609504356968451,1956934623,0.769088,-0.017568,-0.046848,-16.98375,-5.6875,21.385,-21.808,21.336,9.240001,eccentric,4,3.0,22754.0,149260.0,237084.0,286522.0,267827.0
2026-04-08 21:53:04.764903,277951,1609504356983005,1956949571,0.769088,-0.017568,-0.046848,-9.975,-4.41,22.19875,-21.808,21.336,9.240001,eccentric,4,3.0,22754.0,149260.0,237084.0,286522.0,267827.0
2026-04-08 21:53:04.767362,277952,1609504356991912,1956958262,0.796416,-0.02928,-0.128832,-7.07875,-3.8325,23.80875,-21.296001,21.552002,8.952001,eccentric,4,3.0,22754.0,149260.0,237084.0,286522.0,267827.0
2026-04-08 21:53:04.798760,277953,1609504357006401,1956973070,0.851072,0.03904,-0.023424,-4.94375,-5.0225,24.5875,-20.792002,21.68,7.896,eccentric,4,3.0,22754.0,149260.0,237084.0,286522.0,267827.0
2026-04-08 21:53:04.802406,277954,1609504357015356,1956981733,0.851072,0.03904,-0.023424,-0.20125,-6.29125,24.21125,-20.792002,21.68,7.896,eccentric,4,3.0,22754.0,149260.0,237084.0,286522.0,267827.0
2026-04-08 21:53:04.804840,277955,1609504357029843,1956996658,0.860832,0.007808,0.011712,-1.95125,-5.99375,21.7875,-19.960001,21.896002,7.912,eccentric,4,3.0,22754.0,149260.0,237084.0,286522.0,267827.0
2026-04-08 21:53:04.811114,277956,1609504357038794,1957005330,0.860832,0.007808,0.011712,-9.80875,-4.5675,18.3225,-19.960001,21.896002,7.912,eccentric,4,3.0,22754.0,149260.0,237084.0,286522.0,267827.0
2026-04-08 21:53:04.841307,277957,1609504357047749,1957013996,0.732,-0.007808,-0.103456,-15.435,-3.64,19.04,-20.52,22.336,7.84,eccentric,4,3.0,22754.0,149260.0,237084.0,286522.0,267827.0
2026-04-08 21:53:04.908836,277968,1609504357062381,1957028978,0.732,-0.007808,-0.103456,-17.2375,-3.1325,23.00375,-20.52,22.336,7.84,eccentric,4,3.0,22549.0,148900.0,237044.0,286734.0,268051.0
2026-04-08 21:53:04.911006,277969,1609504357071275,1957037625,0.767136,0.023424,0.017568,-14.77875,-1.47,25.27875,-19.648,22.064001,7.768001,eccentric,4,3.0,22549.0,148900.0,237044.0,286734.0,268051.0
2026-04-08 21:53:04.913632,277970,1609504357085755,1957052558,0.767136,0.023424,0.0488,-11.19125,-1.26,23.397501,-19.648,22.064001,7.768001,eccentric,4,3.0,22549.0,148900.0,237044.0,286734.0,268051.0
2026-04-08 21:53:04.916056,277971,1609504357094680,1957061325,0.884256,-0.076128,0.056608,-9.87,-1.12,19.27625,-19.672,22.208,7.592001,eccentric,4,3.0,22549.0,148900.0,237044.0,286734.0,268051.0
2026-04-08 21:53:04.918646,277972,1609504357109231,1957076209,0.847168,-0.134688,-0.113216,-10.57,-1.02375,16.37125,-19.408,22.800001,8.120001,eccentric,4,3.0,22549.0,148900.0,237044.0,286734.0,268051.0
2026-04-08 21:53:04.921087,277973,1609504357118227,1957084905,0.847168,-0.134688,-0.113216,-12.78375,-1.11125,15.75875,-19.408,22.800001,8.120001,eccentric,4,3.0,22549.0,148900.0,237044.0,286734.0,268051.0
2026-04-08 21:53:04.923593,277974,1609504357127159,1957093566,0.81008,-0.072224,-0.171776,-13.53625,-2.0125,15.25125,-18.784,23.000002,5.568,eccentric,4,3.0,22549.0,148900.0,237044.0,286734.0,268051.0
2026-04-08 21:53:04.926138,277975,1609504357141645,1957108446,0.81008,-0.072224,-0.171776,-12.1975,-3.01,13.67625,-18.784,23.000002,5.568,eccentric,4,3.0,22549.0,148900.0,237044.0,286734.0,268051.0
2026-04-08 21:53:04.928580,277976,1609504357150557,1957117122,0.83936,-0.017568,-0.091744,-11.33125,-3.59625,12.18,-18.936,22.496,9.072001,eccentric,4,3.0,22549.0,148900.0,237044.0,286734.0,268051.0
2026-04-08 21:53:04.956150,277987,1609504357165202,1957132087,0.83936,-0.017568,-0.091744,-10.2375,-2.6075,12.99375,-18.936,22.496,9.072001,eccentric,4,3.0,22497.0,148951.0,237148.0,286889.0,268169.0
2026-04-08 21:53:04.958593,277988,1609504357174395,1957140824,0.794464,-0.064416,0.099552,-11.4975,-1.00625,13.5975,-18.744001,23.192001,8.352,eccentric,4,3.0,22497.0,148951.0,237148.0,286889.0,268169.0
2026-04-08 21:53:04.963559,277989,1609504357188964,1957155774,0.737856,-0.056608,0.01952,-11.4625,0.385,15.30375,-18.720001,22.904001,5.992,eccentric,4,3.0,22497.0,148951.0,237148.0,286889.0,268169.0
2026-04-08 21:53:04.969813,277990,1609504357197912,1957164477,0.737856,-0.056608,0.01952,-12.95875,0.34125,15.95125,-18.720001,22.904001,5.992,eccentric,4,3.0,22497.0,148951.0,237148.0,286889.0,268169.0
2026-04-08 21:53:05.000002,277991,1609504357206864,1957173142,0.737856,-0.037088,0.06832,-10.75375,-1.00625,15.67125,-18.720001,22.904001,5.992,eccentric,4,3.0,22497.0,148951.0,237148.0,286889.0,268169.0
2026-04-08 21:53:05.003622,277992,1609504357221339,1957188023,0.905728,-0.037088,0.06832,-5.57375,-1.435,12.32875,-17.848001,22.992,8.112,eccentric,4,3.0,22497.0,148951.0,237148.0,286889.0,268169.0
2026-04-08 21:53:05.006090,277993,1609504357230261,1957196673,0.74176,-0.095648,0.109312,-5.5125,0.14,9.3275,-18.032001,23.080002,7.248,eccentric,4,3.0,22497.0,148951.0,237148.0,286889.0,268169.0
2026-04-08 21:53:05.036327,277994,1609504357244754,1957211553,0.74176,-0.095648,0.109312,-7.83125,1.575,12.27625,-18.032001,23.080002,7.248,eccentric,4,3.0,22497.0,148951.0,237148.0,286889.0,268169.0
2026-04-08 21:53:05.039880,277995,1609504357253649,1957220216,0.685152,-0.109312,0.119072,-6.04625,2.03,17.92,-17.632,23.152,8.224,eccentric,4,3.0,22497.0,148951.0,237148.0,286889.0,268169.0
2026-04-08 21:53:05.068873,278006,1609504357262716,1957228965,0.685152,-0.109312,0.119072,-4.85625,2.33625,14.91875,-17.632,23.152,8.224,eccentric,4,3.0,22221.0,148300.0,236809.0,286777.0,268180.0
2026-04-08 21:53:05.070866,278007,1609504357277238,1957243857,0.724192,-0.03904,0.0488,-11.2525,2.5025,3.63125,-17.800001,23.088001,7.12,eccentric,4,3.0,22221.0,148300.0,236809.0,286777.0,268180.0
2026-04-08 21:53:05.072454,278008,1609504357286223,1957252614,0.724192,-0.03904,0.0488,-12.94125,3.15,-2.87875,-17.800001,23.088001,7.12,eccentric,4,3.0,22221.0,148300.0,236809.0,286777.0,268180.0
2026-04-08 21:53:05.074810,278009,1609504357300829,1957267517,0.730048,-0.07808,-0.083936,-12.5125,3.96375,-2.7825,-17.504002,23.344002,6.872,eccentric,4,3.0,22221.0,148300.0,236809.0,286777.0,268180.0
2026-04-08 21:53:05.105151,278010,1609504357309749,1957276216,0.724192,-0.132736,0.080032,-12.90625,4.725,-1.2775,-17.408,23.208,7.992001,eccentric,4,3.0,22221.0,148300.0,236809.0,286777.0,268180.0
2026-04-08 21:53:05.108640,278011,1609504357324205,1957291078,0.724192,-0.132736,0.080032,-11.042501,5.78375,0.16625,-17.408,23.208,7.992001,eccentric,4,3.0,22221.0,148300.0,236809.0,286777.0,268180.0
2026-04-08 21:53:05.111093,278012,1609504357333109,1957299779,0.65392,-0.105408,0.089792,-8.645,6.1775,-0.90125,-17.656,23.112001,6.976,eccentric,4,3.0,22221.0,148300.0,236809.0,286777.0,268180.0
2026-04-08 21:53:05.113574,278013,1609504357342005,1957308465,0.65392,-0.105408,0.089792,-8.1725,5.88875,-3.6575,-17.656,23.112001,6.976,eccentric,4,3.0,22221.0,148300.0,236809.0,286777.0,268180.0
2026-04-08 21:53:05.143817,278014,1609504357356475,1957323326,0.65392,-0.07808,-0.027328,-5.57375,5.53,-4.62,-17.400002,23.072,6.88,eccentric,4,3.0,22221.0,148300.0,236809.0,286777.0,268180.0
2026-04-08 21:53:05.206337,278025,1609504357365423,1957332050,0.65392,-0.07808,-0.027328,0.35875,4.59375,-4.73375,-17.400002,23.072,6.88,eccentric,4,3.0,22110.0,148094.0,236727.0,286806.0,268263.0
2026-04-08 21:53:05.209897,278026,1609504357379917,1957346919,0.689056,-0.064416,-0.021472,4.27875,4.2875,-6.895,-17.616001,23.032001,7.04,eccentric,4,3.0,22110.0,148094.0,236727.0,286806.0,268263.0
2026-04-08 21:53:05.212360,278027,1609504357388886,1957355657,0.651968,-0.076128,0.031232,4.48,5.4075,-9.61625,-17.832,23.192001,8.312,eccentric,4,3.0,22110.0,148094.0,236727.0,286806.0,268263.0
2026-04-08 21:53:05.214856,278028,1609504357403370,1957368555,0.651968,-0.076128,0.031232,2.695,6.69375,-9.59875,-17.832,23.192001,8.312,eccentric,4,3.0,22110.0,148094.0,236727.0,286806.0,268263.0
2026-04-08 21:53:05.217278,278029,1609504357412546,1957379343,0.691008,-0.072224,-0.148352,-1.7675,5.67,-7.5075,-17.464,22.792002,8.064,eccentric,4,3.0,22110.0,148094.0,236727.0,286806.0,268263.0
2026-04-08 21:53:05.219816,278030,1609504357421456,1957387999,0.691008,-0.072224,-0.148352,-4.585,4.71625,-8.4875,-17.464,22.792002,8.064,eccentric,4,3.0,22110.0,148094.0,236727.0,286806.0,268263.0
2026-04-08 21:53:05.222817,278031,1609504357435908,1957402841,0.77104,-0.124928,-0.162016,-1.3125,4.29625,-13.02,-17.784,22.576,9.624001,eccentric,4,3.0,22110.0,148094.0,236727.0,286806.0,268263.0
2026-04-08 21:53:05.224846,278032,1609504357444947,1957411512,0.77104,-0.124928,-0.162016,1.4175,4.305,-16.4675,-17.784,22.576,9.624001,eccentric,4,3.0,22110.0,148094.0,236727.0,286806.0,268263.0
2026-04-08 21:53:05.254929,278043,1609504357459670,1957426816,0.776896,-0.0976,0.10736,1.645,4.71625,-17.31625,-17.928001,22.416,8.144,eccentric,4,3.0,21806.0,147299.0,236115.0,286468.0,268114.0
2026-04-08 21:53:05.257296,278044,1609504357468728,1957435568,0.854976,-0.085888,0.054656,2.485,4.865,-18.38375,-17.928001,22.416,6.416,eccentric,4,3.0,21806.0,147299.0,236115.0,286468.0,268114.0
2026-04-08 21:53:05.259789,278045,1609504357483330,1957450485,0.843264,-0.085888,0.054656,4.24375,4.6725,-20.74625,-18.072,22.328001,6.416,eccentric,4,3.0,21806.0,147299.0,236115.0,286468.0,268114.0
2026-04-08 21:53:05.266036,278046,1609504357492236,1957459141,0.895968,-0.015616,0.054656,5.57375,4.01625,-17.59625,-18.0,22.176,7.672,eccentric,4,3.0,21806.0,147299.0,236115.0,286468.0,268114.0
2026-04-08 21:53:05.272324,278047,1609504357501159,1957467826,0.895968,-0.015616,0.054656,3.8325,3.99,-17.15,-18.0,22.176,7.672,eccentric,4,3.0,21806.0,147299.0,236115.0,286468.0,268114.0
2026-04-08 21:53:05.302773,278048,1609504357515705,1957482717,0.774944,-0.03904,-0.093696,3.10625,4.06875,-20.965,-18.368,22.2,7.76,eccentric,4,3.0,21806.0,147299.0,236115.0,286468.0,268114.0
2026-04-08 21:53:05.308512,278049,1609504357524587,1957491358,0.774944,-0.03904,-0.093696,2.2225,3.22,-21.98875,-18.368,22.2,7.76,eccentric,4,3.0,21806.0,147299.0,236115.0,286468.0,268114.0
2026-04-08 21:53:05.312680,278050,1609504357539075,1957506216,0.880352,0.0,0.001952,-0.58625,1.925,-20.475,-18.560001,22.144001,7.512001,eccentric,4,3.0,21806.0,147299.0,236115.0,286468.0,268114.0
2026-04-08 21:53:05.345091,278051,1609504357548050,1957514877,0.880352,0.0,0.001952,-2.59875,0.7875,-22.855,-18.560001,22.144001,7.512001,eccentric,4,3.0,21806.0,147299.0,236115.0,286468.0,268114.0
2026-04-08 21:53:05.348612,278052,1609504357556979,1957523567,0.892064,-0.017568,-0.027328,-3.4825,0.5775,-22.91625,-18.312,21.480001,9.152,eccentric,4,3.0,21806.0,147299.0,236115.0,286468.0,268114.0
2026-04-08 21:53:05.379824,278063,1609504357571508,1957538457,0.88816,-0.040992,-0.130784,0.25375,0.3675,-13.195,-18.848001,21.656,7.456,concentric,4,3.0,21808.0,147392.0,235962.0,286218.0,267911.0
2026-04-08 21:53:05.382348,278064,1609504357580411,1957547119,0.88816,-0.040992,-0.130784,-0.65625,0.385,-13.3525,-18.848001,21.656,7.456,concentric,4,3.0,21808.0,147392.0,235962.0,286218.0,267911.0
2026-04-08 21:53:05.386119,278065,1609504357594939,1957562035,0.815936,-0.003904,-0.03904,-3.255,1.91625,-17.03625,-19.128,21.752,8.568001,concentric,4,3.0,21808.0,147392.0,235962.0,286218.0,267911.0
2026-04-08 21:53:05.387603,278066,1609504357603970,1957570718,0.815936,-0.003904,-0.03904,-7.035,1.60125,-14.9275,-19.128,21.752,8.568001,concentric,4,3.0,21808.0,147392.0,235962.0,286218.0,267911.0
2026-04-08 21:53:05.390173,278067,1609504357618518,1957585629,0.782752,-0.033184,-0.081984,-7.385,-0.72625,-11.375,-18.92,22.000002,7.424,concentric,4,3.0,21808.0,147392.0,235962.0,286218.0,267911.0
2026-04-08 21:53:05.420144,278068,1609504357627473,1957594323,0.782752,-0.033184,-0.081984,-5.43375,-4.83875,-11.9525,-18.92,22.000002,7.424,concentric,4,3.0,21808.0,147392.0,235962.0,286218.0,267911.0
2026-04-08 21:53:05.423587,278069,1609504357636405,1957602974,0.925248,-0.054656,0.119072,1.47,-8.9075,-14.1925,-18.944,21.568,7.752,concentric,4,3.0,21808.0,147392.0,235962.0,286218.0,267911.0
2026-04-08 21:53:05.426087,278070,1609504357650855,1957617804,0.99552,-0.060512,-0.072224,7.7875,-10.535,-16.26625,-19.264002,21.240002,7.504,concentric,4,3.0,21808.0,147392.0,235962.0,286218.0,267911.0
2026-04-08 21:53:05.456043,278081,1609504357659865,1957626491,0.99552,-0.060512,-0.072224,6.37,-9.87875,-18.68125,-19.264002,21.240002,7.504,concentric,4,3.0,21939.0,147948.0,236476.0,286452.0,267979.0
2026-04-08 21:53:05.458545,278082,1609504357674752,1957641464,0.815936,0.007808,-0.142496,2.3625,-7.4725,-17.70125,-19.656,21.528002,7.368001,concentric,4,3.0,21939.0,147948.0,236476.0,286452.0,267979.0
2026-04-08 21:53:05.461052,278083,1609504357683773,1957650242,0.815936,0.007808,-0.142496,0.7525,-6.43125,-14.02625,-19.656,21.528002,7.368001,concentric,4,3.0,21939.0,147948.0,236476.0,286452.0,267979.0
2026-04-08 21:53:05.506118,278084,1609504357698314,1957665131,0.876448,-0.011712,-0.074176,0.2625,-7.14,-13.405,-19.512001,21.368002,7.368001,concentric,4,3.0,21939.0,147948.0,236476.0,286452.0,267979.0
2026-04-08 21:53:05.508275,278085,1609504357707231,1957673785,0.876448,-0.011712,-0.074176,-3.01,-7.95375,-13.86875,-19.512001,21.368002,7.368001,concentric,4,3.0,21939.0,147948.0,236476.0,286452.0,267979.0
2026-04-08 21:53:05.512894,278086,1609504357716170,1957682524,0.909632,-0.027328,-0.148352,-7.37625,-8.12,-14.5075,-19.784,21.400002,7.144001,concentric,4,3.0,21939.0,147948.0,236476.0,286452.0,267979.0
2026-04-08 21:53:05.514636,278087,1609504357730630,1957697393,0.901824,-0.027328,0.080032,-11.34875,-7.2275,-15.61875,-19.784,21.320002,7.704001,concentric,4,3.0,21939.0,147948.0,236476.0,286452.0,267979.0
2026-04-08 21:53:05.516433,278088,1609504357739555,1957706049,0.901824,-0.027328,0.080032,-12.3375,-7.2975,-16.03875,-19.76,21.320002,7.704001,concentric,4,3.0,21939.0,147948.0,236476.0,286452.0,267979.0
2026-04-08 21:53:05.558580,278089,1609504357754123,1957720913,0.894016,-0.03904,0.122976,-8.54875,-8.0325,-15.54,-20.44,21.12,6.624001,concentric,4,3.0,21939.0,147948.0,236476.0,286452.0,267979.0
2026-04-08 21:53:05.587879,278100,1609504357763223,1957729649,0.894016,-0.03904,0.122976,-3.15875,-8.88125,-15.54875,-20.44,21.12,6.624001,concentric,4,3.0,21918.0,147978.0,236649.0,286528.0,268014.0
2026-04-08 21:53:05.589639,278101,1609504357772196,1957738325,0.99552,-0.037088,0.011712,-2.31875,-9.73875,-16.975,-20.504002,21.088001,7.224001,concentric,4,3.0,21918.0,147978.0,236649.0,286528.0,268014.0
2026-04-08 21:53:05.591264,278102,1609504357786643,1957753228,0.99552,-0.037088,0.011712,-3.6225,-9.03875,-18.90875,-20.504002,21.088001,7.224001,concentric,4,3.0,21918.0,147978.0,236649.0,286528.0,268014.0
2026-04-08 21:53:05.595397,278103,1609504357795539,1957761883,0.905728,0.025376,-0.042944,-4.305,-7.2625,-19.71375,-20.792002,21.176,6.616,concentric,4,3.0,21918.0,147978.0,236649.0,286528.0,268014.0
2026-04-08 21:53:05.597114,278104,1609504357810302,1957776860,0.905728,0.025376,-0.042944,-7.35,-3.89375,-19.59125,-20.792002,21.176,6.616,concentric,4,3.0,21918.0,147978.0,236649.0,286528.0,268014.0
2026-04-08 21:53:05.598659,278105,1609504357819257,1957785618,0.85888,0.02928,-0.00976,-9.10875,-2.2575,-17.15,-20.456001,21.016,7.384,concentric,4,3.0,21918.0,147978.0,236649.0,286528.0,268014.0
2026-04-08 21:53:05.630567,278106,1609504357833760,1957800499,0.91744,0.064416,0.027328,-8.12875,-2.14375,-14.06125,-20.696001,20.696001,7.704001,concentric,4,3.0,21918.0,147978.0,236649.0,286528.0,268014.0
2026-04-08 21:53:05.634440,278107,1609504357842663,1957809158,0.91744,0.064416,0.027328,-6.1075,-1.6625,-11.83875,-20.696001,20.696001,7.704001,concentric,4,3.0,21918.0,147978.0,236649.0,286528.0,268014.0
2026-04-08 21:53:05.635859,278108,1609504357851565,1957817802,0.958432,0.001952,-0.140544,-9.6775,-1.225,-12.03125,-21.240002,20.688002,7.728,concentric,4,3.0,21918.0,147978.0,236649.0,286528.0,268014.0
2026-04-08 21:53:05.665856,278120,1609504357866237,1957833139,0.958432,0.001952,-0.140544,-14.77,-1.155,-10.15875,-21.240002,20.688002,7.728,concentric,4,3.0,22210.0,148575.0,236974.0,286606.0,267969.0
2026-04-08 21:53:05.667513,278121,1609504357875272,1957841869,0.892064,-0.025376,0.089792,-10.01,-2.2925,-5.5825,-21.04,20.688002,6.592001,concentric,4,3.0,22210.0,148575.0,236974.0,286606.0,267969.0
2026-04-08 21:53:05.671645,278122,1609504357889903,1957856771,0.892064,-0.025376,0.089792,4.15625,-2.8175,-2.975,-21.04,20.688002,6.592001,concentric,4,3.0,22210.0,148575.0,236974.0,286606.0,267969.0
2026-04-08 21:53:05.673211,278123,1609504357898931,1957865437,0.851072,-0.027328,-0.031232,14.30625,-2.19625,-2.03875,-21.112001,20.808,8.032001,concentric,4,3.0,22210.0,148575.0,236974.0,286606.0,267969.0
2026-04-08 21:53:05.679444,278124,1609504357907888,1957874183,0.851072,-0.027328,-0.031232,14.67375,-2.02125,0.11375,-21.112001,20.808,8.032001,concentric,4,3.0,22210.0,148575.0,236974.0,286606.0,267969.0
2026-04-08 21:53:05.714769,278125,1609504357922385,1957889049,0.890112,0.05856,-0.218624,13.57125,-1.54,2.765,-21.12,20.560001,7.744,concentric,4,3.0,22210.0,148575.0,236974.0,286606.0,267969.0
2026-04-08 21:53:05.717006,278126,1609504357931342,1957897714,0.890112,0.05856,-0.171776,12.62625,0.595,3.52625,-21.12,20.560001,7.744,concentric,4,3.0,22210.0,148575.0,236974.0,286606.0,267969.0
2026-04-08 21:53:05.721592,278127,1609504357945809,1957912564,0.788608,0.05856,-0.171776,6.3875,2.07375,2.51125,-21.208,20.768002,6.048,concentric,4,3.0,22210.0,148575.0,236974.0,286606.0,267969.0
2026-04-08 21:53:05.729057,278128,1609504357954728,1957921241,0.825696,-0.040992,0.1464,-2.1175,3.36875,1.1725,-20.832,20.84,6.744,concentric,4,3.0,22210.0,148575.0,236974.0,286606.0,267969.0
2026-04-08 21:53:05.761655,278139,1609504357969265,1957936286,0.825696,-0.040992,0.1464,-12.04,3.85875,1.25125,-20.832,20.84,6.744,concentric,4,3.0,22252.0,148795.0,237450.0,287017.0,268233.0
2026-04-08 21:53:05.763383,278140,1609504357978358,1957944973,0.80032,-0.0976,-0.095648,-18.73375,4.57625,0.7525,-21.400002,20.992,6.56,concentric,4,3.0,22252.0,148795.0,237450.0,287017.0,268233.0
2026-04-08 21:53:05.764925,278141,1609504357987356,1957953710,0.80032,-0.0976,-0.095648,-19.2325,3.9375,-0.83125,-21.400002,20.992,6.56,concentric,4,3.0,22252.0,148795.0,237450.0,287017.0,268233.0
2026-04-08 21:53:05.804835,278142,1609504358001891,1957968620,0.76128,-0.037088,-0.183488,-14.5775,3.33375,-4.2525,-21.320002,20.968,6.688,concentric,4,3.0,22252.0,148795.0,237450.0,287017.0,268233.0
2026-04-08 21:53:05.806976,278143,1609504358010889,1957977297,0.76128,-0.037088,-0.183488,-10.22,3.52625,-8.28625,-21.320002,20.968,6.688,concentric,4,3.0,22252.0,148795.0,237450.0,287017.0,268233.0
2026-04-08 21:53:05.811639,278144,1609504358025363,1957992176,0.776896,0.027328,0.101504,-9.31875,3.15,-11.305,-21.68,21.096,6.504,concentric,4,3.0,22252.0,148795.0,237450.0,287017.0,268233.0
2026-04-08 21:53:05.814061,278145,1609504358034253,1958000821,0.710528,-0.01952,-0.064416,-10.78875,2.72125,-12.71375,-21.560001,21.112001,7.024,concentric,4,3.0,22252.0,148795.0,237450.0,287017.0,268233.0
2026-04-08 21:53:05.842532,278146,1609504358048756,1958015724,0.710528,-0.01952,-0.064416,-11.480001,1.225,-12.36375,-21.560001,21.112001,7.024,concentric,4,3.0,22252.0,148795.0,237450.0,287017.0,268233.0
2026-04-08 21:53:05.846137,278147,1609504358057670,1958024386,0.806176,-0.06832,-0.128832,-10.45625,-0.18375,-10.9375,-21.768002,20.928001,6.192,concentric,4,3.0,22252.0,148795.0,237450.0,287017.0,268233.0
2026-04-08 21:53:05.873583,278158,1609504358066693,1958033171,0.806176,-0.06832,-0.128832,-5.285,-1.33875,-9.415,-21.768002,20.928001,6.192,concentric,4,3.0,22246.0,148904.0,237582.0,287077.0,268238.0
2026-04-08 21:53:05.876051,278159,1609504358081179,1958048085,0.88816,0.00976,-0.03904,2.26625,-1.1375,-10.605001,-21.776001,20.992,6.208,concentric,4,3.0,22246.0,148904.0,237582.0,287077.0,268238.0
2026-04-08 21:53:05.878545,278160,1609504358090200,1958056808,0.88816,0.00976,-0.03904,8.12,0.53375,-12.38125,-21.776001,20.992,6.208,concentric,4,3.0,22246.0,148904.0,237582.0,287077.0,268238.0
2026-04-08 21:53:05.881081,278161,1609504358104805,1958071701,0.737856,-0.007808,-0.101504,6.41375,2.28375,-11.97875,-21.912,20.720001,6.36,concentric,4,3.0,22246.0,148904.0,237582.0,287077.0,268238.0
2026-04-08 21:53:05.884783,278162,1609504358113746,1958080405,0.765184,-0.003904,-0.085888,-0.46375,2.3975,-9.6075,-22.36,21.152,5.84,concentric,4,3.0,22246.0,148904.0,237582.0,287077.0,268238.0
2026-04-08 21:53:05.915027,278163,1609504358128209,1958095287,0.765184,-0.003904,-0.085888,-3.10625,0.6825,-8.68875,-22.36,21.152,5.84,concentric,4,3.0,22246.0,148904.0,237582.0,287077.0,268238.0
2026-04-08 21:53:05.918618,278164,1609504358137134,1958103941,0.913536,-0.011712,-0.007808,0.49,-0.4375,-10.0275,-22.488,20.576,6.808,concentric,4,3.0,22246.0,148904.0,237582.0,287077.0,268238.0
2026-04-08 21:53:05.921091,278165,1609504358146056,1958112606,0.913536,-0.011712,-0.007808,0.595,-0.28875,-12.08375,-22.488,20.576,6.808,concentric,4,3.0,22246.0,148904.0,237582.0,287077.0,268238.0
2026-04-08 21:53:05.951344,278166,1609504358160629,1958127503,0.81984,-0.011712,-0.189344,-1.67125,1.05875,-14.0525,-22.640001,20.68,5.4,concentric,4,3.0,22246.0,148904.0,237582.0,287077.0,268238.0
2026-04-08 21:53:05.987355,278177,1609504358169649,1958136189,0.81984,-0.011712,-0.189344,-0.49,1.33,-15.75875,-22.640001,20.68,5.4,concentric,4,3.0,22156.0,148478.0,237150.0,286797.0,268123.0
2026-04-08 21:53:05.989846,278178,1609504358184164,1958151044,0.813984,0.023424,0.00976,1.95125,1.12,-14.63875,-22.720001,20.736,6.392,concentric,4,3.0,22156.0,148478.0,237150.0,286797.0,268123.0
2026-04-08 21:53:05.992326,278179,1609504358193141,1958159763,0.813984,-0.054656,0.027328,2.98375,-0.11375,-14.945,-22.720001,20.736,6.392,concentric,4,3.0,22156.0,148478.0,237150.0,286797.0,268123.0
2026-04-08 21:53:05.994854,278180,1609504358207671,1958174600,0.94672,-0.056608,0.027328,5.4425,-2.21375,-16.9925,-22.880001,20.552,6.136,concentric,4,3.0,22156.0,148478.0,237150.0,286797.0,268123.0
2026-04-08 21:53:05.997352,278181,1609504358216594,1958183292,0.968192,-0.00976,-0.23424,10.77125,-3.43875,-19.460001,-23.296001,20.160002,8.008,concentric,4,3.0,22156.0,148478.0,237150.0,286797.0,268123.0
2026-04-08 21:53:05.999871,278182,1609504358225581,1958191995,0.968192,-0.00976,-0.23424,11.40125,-3.21125,-19.59125,-23.296001,20.160002,8.008,concentric,4,3.0,22156.0,148478.0,237150.0,286797.0,268123.0
2026-04-08 21:53:06.030913,278183,1609504358240076,1958206896,0.84912,0.13664,-0.210816,9.6775,-1.84625,-18.41875,-23.568,20.448002,6.672,concentric,4,3.0,22156.0,148478.0,237150.0,286797.0,268123.0
2026-04-08 21:53:06.033661,278184,1609504358249024,1958215558,0.84912,0.13664,-0.210816,10.885,0.6825,-16.23125,-23.568,20.448002,6.672,concentric,4,3.0,22156.0,148478.0,237150.0,286797.0,268123.0
2026-04-08 21:53:06.061289,278195,1609504358264011,1958230511,0.854976,0.091744,0.099552,11.94375,2.275,-13.97375,-23.44,19.904001,7.056,concentric,4,3.0,22010.0,147989.0,236827.0,286666.0,268059.0
2026-04-08 21:53:06.065358,278196,1609504358273037,1958239222,0.854976,0.091744,0.099552,8.46125,1.25125,-11.935,-23.44,19.904001,7.056,concentric,4,3.0,22010.0,147989.0,236827.0,286666.0,268059.0
2026-04-08 21:53:06.067050,278197,1609504358282103,1958247925,0.925248,0.025376,0.07808,3.3775,-0.21875,-10.89375,-24.12,20.184,9.752001,concentric,4,3.0,22010.0,147989.0,236827.0,286666.0,268059.0
2026-04-08 21:53:06.068680,278198,1609504358296666,1958262839,0.894016,0.081984,-0.070272,3.185,-1.2775,-10.19375,-24.2,20.128,8.568001,concentric,4,3.0,22010.0,147989.0,236827.0,286666.0,268059.0
2026-04-08 21:53:06.108454,278199,1609504358305583,1958271501,0.894016,0.081984,-0.070272,6.34375,-1.68,-10.28125,-24.2,20.128,8.568001,concentric,4,3.0,22010.0,147989.0,236827.0,286666.0,268059.0
2026-04-08 21:53:06.111535,278200,1609504358320043,1958286357,0.83936,0.119072,-0.035136,12.32875,-0.74375,-11.3925,-24.312,19.968,6.904,concentric,4,3.0,22010.0,147989.0,236827.0,286666.0,268059.0
2026-04-08 21:53:06.112796,278201,1609504358328940,1958295071,0.83936,0.119072,-0.035136,14.14,0.39375,-11.80375,-24.312,19.968,6.904,concentric,4,3.0,22010.0,147989.0,236827.0,286666.0,268059.0
2026-04-08 21:53:06.116486,278202,1609504358343475,1958309948,0.860832,0.040992,-0.0488,10.71875,-0.315,-12.8625,-24.552002,19.504002,7.272,concentric,4,3.0,22010.0,147989.0,236827.0,286666.0,268059.0
2026-04-08 21:53:06.158617,278203,1609504358352481,1958318684,0.860832,0.040992,-0.0488,9.5025,-1.26,-13.69375,-24.552002,19.504002,7.272,concentric,4,3.0,22010.0,147989.0,236827.0,286666.0,268059.0
2026-04-08 21:53:06.160776,278204,1609504358361419,1958327328,0.884256,0.060512,-0.162016,2.4325,-2.65125,-14.105001,-24.960001,19.552,5.048,concentric,4,3.0,22010.0,147989.0,236827.0,286666.0,268059.0
2026-04-08 21:53:06.189857,278215,1609504358375926,1958342299,0.954528,0.089792,-0.054656,-6.755,-3.71,-14.91875,-24.816002,19.656,10.032001,concentric,4,3.0,22072.0,148216.0,236928.0,286585.0,267948.0
2026-04-08 21:53:06.191836,278216,1609504358384839,1958350954,0.954528,0.089792,-0.054656,-2.835,-2.695,-16.26625,-24.816002,19.656,10.032001,concentric,4,3.0,22072.0,148216.0,236928.0,286585.0,267948.0
2026-04-08 21:53:06.193721,278217,1609504358399329,1958365860,0.835456,0.08784,-0.15616,7.455,-1.46125,-17.14125,-25.544,19.448002,8.04,concentric,4,3.0,22072.0,148216.0,236928.0,286585.0,267948.0
2026-04-08 21:53:06.197055,278218,1609504358408283,1958374590,0.835456,0.08784,-0.15616,11.92625,-1.63625,-17.255,-25.544,19.448002,8.04,concentric,4,3.0,22072.0,148216.0,236928.0,286585.0,267948.0
2026-04-08 21:53:06.198612,278219,1609504358417318,1958383284,0.925248,0.099552,-0.052704,11.6375,-2.38,-17.928751,-25.6,19.256,7.72,concentric,4,3.0,22072.0,148216.0,236928.0,286585.0,267948.0
2026-04-08 21:53:06.205245,278220,1609504358431820,1958398265,0.925248,0.099552,-0.052704,6.83375,-3.07125,-18.99625,-25.6,19.256,7.72,concentric,4,3.0,22072.0,148216.0,236928.0,286585.0,267948.0
2026-04-08 21:53:06.238547,278221,1609504358440829,1958406989,1.007232,0.158112,-0.042944,1.9775,-2.0475,-18.4625,-26.072,18.864,7.176,concentric,4,3.0,22072.0,148216.0,236928.0,286585.0,267948.0
2026-04-08 21:53:06.240761,278222,1609504358455302,1958421859,0.938912,0.245952,-0.148352,4.5325,-0.23625,-16.3625,-26.072,18.92,8.296001,concentric,4,3.0,22072.0,148216.0,236928.0,286585.0,267948.0
2026-04-08 21:53:06.274060,278233,1609504358464219,1958430500,0.938912,0.245952,-0.148352,5.74875,0.86625,-14.175,-25.896002,18.92,8.296001,concentric,4,3.0,22136.0,148133.0,236701.0,286479.0,267843.0
2026-04-08 21:53:06.275921,278234,1609504358479043,1958445403,0.958432,0.21472,-0.193248,6.965,1.00625,-9.8175,-26.152,18.720001,7.408001,concentric,4,3.0,22136.0,148133.0,236701.0,286479.0,267843.0
2026-04-08 21:53:06.277355,278235,1609504358487996,1958454077,0.958432,0.21472,-0.193248,9.44125,0.53375,-5.845,-26.152,18.720001,7.408001,concentric,4,3.0,22136.0,148133.0,236701.0,286479.0,267843.0
2026-04-08 21:53:06.281475,278236,1609504358496929,1958462762,1.097024,0.062464,0.025376,10.3775,-0.90125,-6.06375,-26.36,18.616001,9.064,concentric,4,3.0,22136.0,148133.0,236701.0,286479.0,267843.0
2026-04-08 21:53:06.287769,278237,1609504358511497,1958477665,1.097024,0.062464,0.025376,7.4725,-1.56625,-7.67375,-26.36,18.616001,9.064,concentric,4,3.0,22136.0,148133.0,236701.0,286479.0,267843.0
2026-04-08 21:53:06.291940,278238,1609504358520433,1958486350,1.040416,0.050752,-0.26352,3.5175,-1.5925,-7.7525,-26.976002,18.736,8.424001,concentric,4,3.0,22136.0,148133.0,236701.0,286479.0,267843.0
2026-04-08 21:53:06.322264,278239,1609504358534901,1958501240,1.040416,0.050752,-0.26352,1.855,-1.11125,-8.16375,-26.976002,18.736,8.424001,concentric,4,3.0,22136.0,148133.0,236701.0,286479.0,267843.0
2026-04-08 21:53:06.326530,278240,1609504358543860,1958509892,1.036512,0.099552,-0.142496,4.83,-0.0875,-8.89,-26.456001,18.744001,6.752,concentric,4,3.0,22136.0,148133.0,236701.0,286479.0,267843.0
2026-04-08 21:53:06.332809,278241,1609504358558307,1958524948,1.085312,0.169824,-0.001952,11.375,-1.225,-9.415,-26.536001,18.608002,7.304,concentric,4,3.0,22136.0,148133.0,236701.0,286479.0,267843.0
2026-04-08 21:53:06.361111,278252,1609504358567568,1958533664,1.085312,0.169824,-0.001952,14.23625,-2.835,-10.96375,-26.536001,18.608002,7.304,concentric,4,3.0,22063.0,147840.0,236436.0,286127.0,267605.0
2026-04-08 21:53:06.363591,278253,1609504358576508,1958542439,1.1224,0.154208,0.042944,16.24875,-3.56125,-14.11375,-27.04,18.480001,6.616,concentric,4,3.0,22063.0,147840.0,236436.0,286127.0,267605.0
2026-04-08 21:53:06.366066,278254,1609504358591029,1958557377,1.1224,0.154208,0.042944,13.99125,-3.01875,-17.885,-27.04,18.480001,6.616,concentric,4,3.0,22063.0,147840.0,236436.0,286127.0,267605.0
2026-04-08 21:53:06.372408,278255,1609504358599943,1958566066,1.157536,0.101504,0.005856,6.1775,-2.59875,-18.68125,-27.264002,18.232,8.552,concentric,4,3.0,22063.0,147840.0,236436.0,286127.0,267605.0
2026-04-08 21:53:06.407593,278256,1609504358614462,1958580998,1.157536,0.101504,0.005856,-0.58625,-2.695,-14.51625,-27.264002,18.232,8.552,concentric,4,3.0,22063.0,147840.0,236436.0,286127.0,267605.0
2026-04-08 21:53:06.411156,278257,1609504358623396,1958589663,1.046272,0.105408,-0.179584,-5.18875,-2.98375,-14.0875,-27.528002,17.960001,6.384,concentric,4,3.0,22063.0,147840.0,236436.0,286127.0,267605.0
2026-04-08 21:53:06.413647,278258,1609504358637883,1958604515,1.028704,0.148352,-0.193248,-3.78875,-2.91375,-15.14625,-27.808,18.128,7.624001,concentric,4,3.0,22063.0,147840.0,236436.0,286127.0,267605.0
2026-04-08 21:53:06.419868,278259,1609504358646839,1958613244,1.028704,0.148352,-0.193248,2.42375,-2.75625,-13.57125,-27.808,18.128,7.624001,concentric,4,3.0,22063.0,147840.0,236436.0,286127.0,267605.0
2026-04-08 21:53:06.450116,278260,1609504358655764,1958621949,1.028704,0.148352,-0.193248,5.285,-3.05375,-16.178751,-27.808,18.128,7.624001,concentric,4,3.0,22063.0,147840.0,236436.0,286127.0,267605.0
2026-04-08 21:53:06.481054,278271,1609504358670430,1958636835,1.077504,0.15616,-0.007808,7.32375,-2.52,-21.8925,-28.112001,17.44,8.688001,concentric,4,3.0,22009.0,147649.0,236272.0,285964.0,267498.0
2026-04-08 21:53:06.483626,278272,1609504358679351,1958645538,1.016992,0.15616,-0.1464,13.09875,-1.70625,-15.6625,-28.328001,17.048,7.76,concentric,4,3.0,22009.0,147649.0,236272.0,285964.0,267498.0
2026-04-08 21:53:06.486128,278273,1609504358693865,1958660428,1.016992,0.15616,-0.1464,12.94125,-2.1525,-12.08375,-28.328001,17.048,7.76,concentric,4,3.0,22009.0,147649.0,236272.0,285964.0,267498.0
2026-04-08 21:53:06.488608,278274,1609504358702823,1958669102,1.040416,0.111264,-0.111264,5.03125,-2.1875,-15.435,-28.568,17.264,9.592,concentric,4,3.0,22009.0,147649.0,236272.0,285964.0,267498.0
2026-04-08 21:53:06.491104,278275,1609504358711760,1958677771,1.040416,0.111264,-0.111264,-1.155,-2.63375,-18.0425,-28.568,17.264,9.592,concentric,4,3.0,22009.0,147649.0,236272.0,285964.0,267498.0
2026-04-08 21:53:06.521302,278276,1609504358726259,1958692675,1.149728,0.152256,-0.025376,-5.5125,-2.4675,-20.79875,-28.712002,17.304,8.368,concentric,4,3.0,22009.0,147649.0,236272.0,285964.0,267498.0
2026-04-08 21:53:06.524856,278277,1609504358735185,1958701334,1.149728,0.152256,-0.025376,-9.03,-0.6825,-26.5125,-28.712002,17.304,8.368,concentric,4,3.0,22009.0,147649.0,236272.0,285964.0,267498.0
2026-04-08 21:53:06.527291,278278,1609504358749703,1958716225,1.21024,0.148352,-0.093696,0.4725,0.65625,-24.745,-28.568,16.952002,6.016,concentric,4,3.0,22009.0,147649.0,236272.0,285964.0,267498.0
2026-04-08 21:53:06.529780,278279,1609504358758610,1958724933,1.09312,0.080032,-0.296704,7.09625,0.7525,-20.86875,-28.632002,16.744001,8.216001,concentric,4,3.0,22009.0,147649.0,236272.0,285964.0,267498.0
2026-04-08 21:53:06.587506,278290,1609504358773228,1958740113,1.09312,0.080032,-0.296704,7.42875,1.35625,-16.8,-28.632002,16.744001,8.216001,concentric,4,3.0,22359.0,148428.0,236828.0,286131.0,267453.0
2026-04-08 21:53:06.589655,278291,1609504358782246,1958748795,1.147776,0.261568,-0.017568,2.52,0.69125,-11.935,-29.04,16.648,7.952,concentric,4,3.0,22359.0,148428.0,236828.0,286131.0,267453.0
2026-04-08 21:53:06.591564,278292,1609504358791180,1958757449,1.147776,0.261568,-0.017568,-0.315,0.1575,-11.445,-29.04,16.648,7.952,concentric,4,3.0,22359.0,148428.0,236828.0,286131.0,267453.0
2026-04-08 21:53:06.593601,278293,1609504358805684,1958772383,1.175104,0.310368,-0.208864,7.7525,1.33875,-10.8675,-28.864002,16.232,8.664001,concentric,4,3.0,22359.0,148428.0,236828.0,286131.0,267453.0
2026-04-08 21:53:06.596016,278294,1609504358814604,1958781110,1.175104,0.310368,-0.208864,9.35375,4.41,-8.0675,-28.864002,16.232,8.664001,concentric,4,3.0,22359.0,148428.0,236828.0,286131.0,267453.0
2026-04-08 21:53:06.601126,278295,1609504358829143,1958796018,1.202432,0.277184,0.027328,2.485,6.3875,-3.5,-28.808,16.52,7.888001,concentric,4,3.0,22359.0,148428.0,236828.0,286131.0,267453.0
