pc_time,serial_num,sensor_ts,host_ts,ax,ay,az,gx,gy,gz,mx,my,mz,phase,rpe,weight_kg,ppg_a,ppg_b,ppg_c,ppg_d,ppg_e
2026-04-08 21:52:56.163953,276328,1609504348369778,1948334939,0.88816,0.105408,0.042944,13.85125,-1.1725,-8.51375,-26.696001,17.880001,8.224,eccentric,4,3.0,23861.0,152081.0,239312.0,287564.0,268304.0
2026-04-08 21:52:56.167380,276329,1609504348378966,1948345690,0.989664,0.083936,0.035136,12.87125,-2.05625,-8.33,-27.008001,17.824001,7.168,eccentric,4,3.0,23861.0,152081.0,239312.0,287564.0,268304.0
2026-04-08 21:52:56.169829,276330,1609504348387860,1948354362,0.989664,0.083936,0.035136,8.79375,-3.26375,-8.65375,-27.008001,17.824001,7.168,eccentric,4,3.0,23861.0,152081.0,239312.0,287564.0,268304.0
2026-04-08 21:52:56.174836,276331,1609504348402359,1948369206,0.977952,0.099552,-0.00976,7.42875,-3.465,-9.0125,-26.864002,17.808,7.936,eccentric,4,3.0,23861.0,152081.0,239312.0,287564.0,268304.0
2026-04-08 21:52:56.231067,276342,1609504348411497,1948377874,0.972096,0.083936,0.025376,7.1925,-2.7475,-9.205,-27.12,17.864,12.224001,eccentric,4,3.0,23596.0,151114.0,238546.0,287058.0,268022.0
2026-04-08 21:52:56.233572,276343,1609504348426036,1948392771,0.972096,0.083936,0.025376,8.636251,-2.2225,-8.82875,-27.12,17.864,12.224001,eccentric,4,3.0,23596.0,151114.0,238546.0,287058.0,268022.0
2026-04-08 21:52:56.236064,276344,1609504348434920,1948401429,0.94672,0.148352,-0.044896,12.22375,-2.33625,-8.14625,-27.384,17.560001,8.280001,eccentric,4,3.0,23596.0,151114.0,238546.0,287058.0,268022.0
2026-04-08 21:52:56.238571,276345,1609504348443974,1948410128,0.94672,0.148352,-0.044896,14.69125,-3.29875,-8.88125,-27.384,17.560001,8.280001,eccentric,4,3.0,23596.0,151114.0,238546.0,287058.0,268022.0
2026-04-08 21:52:56.241078,276346,1609504348458535,1948425056,1.020896,0.144448,-0.070272,15.82875,-3.535,-10.57875,-27.392002,17.272001,8.536,eccentric,4,3.0,23596.0,151114.0,238546.0,287058.0,268022.0
2026-04-08 21:52:56.243583,276347,1609504348467491,1948433778,1.020896,0.144448,-0.070272,13.0725,-2.45875,-10.6225,-27.392002,17.272001,8.536,eccentric,4,3.0,23596.0,151114.0,238546.0,287058.0,268022.0
2026-04-08 21:52:56.273803,276348,1609504348481996,1948448704,1.040416,0.144448,-0.007808,4.9525,-0.23625,-7.875,-27.336,17.248001,8.608001,eccentric,4,3.0,23596.0,151114.0,238546.0,287058.0,268022.0
2026-04-08 21:52:56.277313,276349,1609504348490924,1948457395,1.040416,0.154208,-0.20496,0.315,1.53125,-4.15625,-27.336,17.248001,8.608001,eccentric,4,3.0,23596.0,151114.0,238546.0,287058.0,268022.0
2026-04-08 21:52:56.279836,276350,1609504348505403,1948472237,0.942816,0.154208,-0.20496,1.26875,1.82875,-2.70375,-27.712002,16.936,8.176001,eccentric,4,3.0,23596.0,151114.0,238546.0,287058.0,268022.0
2026-04-08 21:52:56.344820,276361,1609504348514690,1948481256,0.997472,0.142496,-0.152256,2.4325,1.1725,-1.30375,-27.848001,16.76,9.6,eccentric,4,3.0,23389.0,150405.0,237983.0,286740.0,267855.0
2026-04-08 21:52:56.348383,276362,1609504348523653,1948489962,0.997472,0.142496,-0.152256,5.4425,0.8575,-0.7875,-27.848001,16.76,9.6,eccentric,4,3.0,23389.0,150405.0,237983.0,286740.0,267855.0
2026-04-08 21:52:56.350029,276363,1609504348538190,1948504935,1.018944,0.101504,-0.128832,6.4925,0.53375,-0.455,-27.928001,17.12,10.584001,eccentric,4,3.0,23389.0,150405.0,237983.0,286740.0,267855.0
2026-04-08 21:52:56.352364,276364,1609504348547099,1948513613,1.018944,0.101504,-0.128832,2.975,-0.28875,0.35,-27.928001,17.12,10.584001,eccentric,4,3.0,23389.0,150405.0,237983.0,286740.0,267855.0
2026-04-08 21:52:56.354782,276365,1609504348561566,1948528476,1.009184,0.03904,-0.179584,-0.13125,-0.665,0.1575,-27.536001,16.92,9.008,eccentric,4,3.0,23389.0,150405.0,237983.0,286740.0,267855.0
2026-04-08 21:52:56.357290,276366,1609504348570509,1948537139,1.009184,0.03904,-0.179584,-4.2525,-0.21875,-1.12,-27.536001,16.92,9.008,eccentric,4,3.0,23389.0,150405.0,237983.0,286740.0,267855.0
2026-04-08 21:52:56.359804,276367,1609504348585014,1948552058,0.962336,0.122976,-0.130784,-4.5325,0.69125,-2.3275,-27.888,17.224,10.736,eccentric,4,3.0,23389.0,150405.0,237983.0,286740.0,267855.0
2026-04-08 21:52:56.366065,276368,1609504348593965,1948560750,0.921344,0.15616,-0.1952,2.54625,1.3125,-3.4825,-27.632002,17.112001,8.904,eccentric,4,3.0,23389.0,150405.0,237983.0,286740.0,267855.0
2026-04-08 21:52:56.397410,276369,1609504348602987,1948569420,0.921344,0.15616,-0.1952,10.115,1.9425,-4.13875,-27.632002,17.112001,8.904,eccentric,4,3.0,23389.0,150405.0,237983.0,286740.0,267855.0
2026-04-08 21:52:56.424822,276380,1609504348617552,1948584337,0.989664,0.173728,-0.076128,9.3275,1.6975,-5.59125,-28.336,17.216002,8.944,eccentric,4,3.0,23173.0,149780.0,237529.0,286407.0,267636.0
2026-04-08 21:52:56.428692,276381,1609504348626502,1948593007,0.989664,0.173728,-0.076128,4.29625,1.58375,-7.98,-28.336,17.216002,8.944,eccentric,4,3.0,23173.0,149780.0,237529.0,286407.0,267636.0
2026-04-08 21:52:56.430047,276382,1609504348640990,1948607954,1.1224,0.16592,-0.101504,0.525,2.16125,-8.295,-28.176,16.824001,8.792001,eccentric,4,3.0,23173.0,149780.0,237529.0,286407.0,267636.0
2026-04-08 21:52:56.432746,276383,1609504348649921,1948616712,1.1224,0.16592,-0.101504,-0.13125,4.48,-6.9475,-28.176,16.824001,8.792001,eccentric,4,3.0,23173.0,149780.0,237529.0,286407.0,267636.0
2026-04-08 21:52:56.437363,276384,1609504348664429,1948631573,1.020896,0.240096,-0.113216,1.39125,7.49875,-4.26125,-28.144001,17.192001,9.088,eccentric,4,3.0,23173.0,149780.0,237529.0,286407.0,267636.0
2026-04-08 21:52:56.467585,276385,1609504348673428,1948640291,1.020896,0.181536,-0.197152,-0.105,7.72625,-4.4625,-28.216002,16.992,9.744,eccentric,4,3.0,23173.0,149780.0,237529.0,286407.0,267636.0
2026-04-08 21:52:56.471131,276386,1609504348682393,1948649022,1.020896,0.181536,-0.197152,-2.31875,6.50125,-1.1025,-28.216002,16.992,9.744,eccentric,4,3.0,23173.0,149780.0,237529.0,286407.0,267636.0
2026-04-08 21:52:56.473573,276387,1609504348696881,1948663878,1.114592,0.128832,0.080032,-7.34125,5.4425,4.69875,-28.104002,17.576,9.104,eccentric,4,3.0,23173.0,149780.0,237529.0,286407.0,267636.0
2026-04-08 21:52:56.477336,276388,1609504348705782,1948672542,1.114592,0.128832,0.080032,-14.9275,6.44,4.03375,-28.104002,17.576,9.104,eccentric,4,3.0,23173.0,149780.0,237529.0,286407.0,267636.0
2026-04-08 21:52:56.508163,276399,1609504348720371,1948685573,1.020896,0.122976,-0.288896,-14.096251,8.88125,2.19625,-28.088001,17.264,10.400001,eccentric,4,3.0,23339.0,150013.0,237310.0,286029.0,267301.0
2026-04-08 21:52:56.511150,276400,1609504348729670,1948696346,1.020896,0.122976,-0.288896,-7.105,9.10875,2.86125,-28.088001,17.264,10.400001,eccentric,4,3.0,23339.0,150013.0,237310.0,286029.0,267301.0
2026-04-08 21:52:56.513460,276401,1609504348738588,1948705087,1.077504,0.206912,-0.144448,-0.9275,7.35,2.065,-27.912,17.400002,10.232,eccentric,4,3.0,23339.0,150013.0,237310.0,286029.0,267301.0
2026-04-08 21:52:56.526194,276402,1609504348753035,1948720033,1.186816,0.206912,-0.003904,6.13375,7.04375,3.5175,-27.912,17.248001,9.608001,eccentric,4,3.0,23339.0,150013.0,237310.0,286029.0,267301.0
2026-04-08 21:52:56.556344,276403,1609504348761961,1948728743,1.186816,0.206912,-0.003904,3.535,7.70875,2.765,-28.12,17.248001,9.608001,eccentric,4,3.0,23339.0,150013.0,237310.0,286029.0,267301.0
2026-04-08 21:52:56.559925,276404,1609504348776460,1948743580,1.069696,0.210816,-0.130784,-3.47375,7.98875,2.485,-27.816002,17.368,9.424001,eccentric,4,3.0,23339.0,150013.0,237310.0,286029.0,267301.0
2026-04-08 21:52:56.566056,276405,1609504348785398,1948752263,1.069696,0.210816,-0.130784,-2.975,8.2425,5.48625,-27.816002,17.368,9.424001,eccentric,4,3.0,23339.0,150013.0,237310.0,286029.0,267301.0
2026-04-08 21:52:56.569804,276406,1609504348799882,1948765081,1.138016,0.210816,-0.035136,-3.0975,8.085,7.5425,-27.896002,17.592001,10.792001,eccentric,4,3.0,23339.0,150013.0,237310.0,286029.0,267301.0
2026-04-08 21:52:56.597403,276407,1609504348809095,1948775835,1.138016,0.210816,-0.035136,-6.92125,7.98,7.84875,-27.896002,17.592001,10.792001,eccentric,4,3.0,23339.0,150013.0,237310.0,286029.0,267301.0
2026-04-08 21:52:56.657328,276418,1609504348818131,1948784861,1.198528,0.177632,-0.033184,-8.2775,7.55125,8.09375,-27.256,17.496,9.144,eccentric,4,3.0,23962.0,151653.0,238363.0,286531.0,267490.0
2026-04-08 21:52:56.659980,276419,1609504348832624,1948799730,1.198528,0.177632,-0.033184,-6.85125,7.245,8.1025,-27.256,17.496,9.144,eccentric,4,3.0,23962.0,151653.0,238363.0,286531.0,267490.0
2026-04-08 21:52:56.662691,276420,1609504348841544,1948808430,1.138016,0.13664,-0.220576,-6.01125,6.895,8.26,-27.720001,17.656,11.52,eccentric,4,3.0,23962.0,151653.0,238363.0,286531.0,267490.0
2026-04-08 21:52:56.664853,276421,1609504348856012,1948821241,1.216096,0.16592,0.011712,-6.86,6.69375,8.07625,-27.072,17.696001,9.512,eccentric,4,3.0,23962.0,151653.0,238363.0,286531.0,267490.0
2026-04-08 21:52:56.668173,276422,1609504348865234,1948831959,1.216096,0.16592,0.011712,-6.2125,6.265,5.66125,-27.072,17.696001,9.512,eccentric,4,3.0,23962.0,151653.0,238363.0,286531.0,267490.0
2026-04-08 21:52:56.670701,276423,1609504348874186,1948840686,1.100928,0.162016,-0.216672,0.8575,6.22125,8.54,-26.920002,17.888,10.928,eccentric,4,3.0,23962.0,151653.0,238363.0,286531.0,267490.0
2026-04-08 21:52:56.672608,276424,1609504348888721,1948855631,1.100928,0.162016,-0.216672,0.35,6.4575,8.82,-26.920002,17.888,10.928,eccentric,4,3.0,23962.0,151653.0,238363.0,286531.0,267490.0
2026-04-08 21:52:56.674831,276425,1609504348897832,1948864383,1.124352,0.121024,-0.083936,-7.49875,6.265,5.11875,-26.920002,18.184,10.584001,eccentric,4,3.0,23962.0,151653.0,238363.0,286531.0,267490.0
2026-04-08 21:52:56.731122,276436,1609504348912308,1948879253,1.124352,0.121024,-0.083936,-10.29875,5.32875,5.4075,-26.920002,18.184,10.584001,eccentric,4,3.0,23958.0,151337.0,237982.0,286335.0,267419.0
2026-04-08 21:52:56.733605,276437,1609504348921340,1948887920,1.038464,0.140544,-0.208864,-11.57625,4.97,7.2975,-26.528002,18.12,10.248,eccentric,4,3.0,23958.0,151337.0,237982.0,286335.0,267419.0
2026-04-08 21:52:56.736250,276438,1609504348935874,1948902766,1.134112,0.158112,-0.017568,-11.68125,4.515,7.14875,-26.352001,18.208,8.68,eccentric,4,3.0,23958.0,151337.0,237982.0,286335.0,267419.0
2026-04-08 21:52:56.738584,276439,1609504348944912,1948911477,1.134112,0.158112,-0.017568,-8.6275,3.99,6.81625,-26.352001,18.208,8.68,eccentric,4,3.0,23958.0,151337.0,237982.0,286335.0,267419.0
2026-04-08 21:52:56.741086,276440,1609504348953917,1948920218,1.134112,0.171776,-0.007808,-5.36375,3.7625,6.39625,-26.352001,18.208,8.68,eccentric,4,3.0,23958.0,151337.0,237982.0,286335.0,267419.0
2026-04-08 21:52:56.743588,276441,1609504348968427,1948935085,1.08336,0.171776,-0.007808,-6.41375,4.0425,6.51875,-26.36,18.296001,10.408001,eccentric,4,3.0,23958.0,151337.0,237982.0,286335.0,267419.0
2026-04-08 21:52:56.749649,276442,1609504348977420,1948943791,1.022848,0.121024,-0.163968,-7.805,3.99875,8.015,-25.944002,18.712002,11.152,eccentric,4,3.0,23958.0,151337.0,237982.0,286335.0,267419.0
2026-04-08 21:52:56.778856,276443,1609504348991894,1948958690,1.022848,0.121024,-0.163968,-11.235,3.85,9.0825,-25.944002,18.712002,11.152,eccentric,4,3.0,23958.0,151337.0,237982.0,286335.0,267419.0
2026-04-08 21:52:56.782356,276444,1609504349000789,1948967337,1.022848,0.093696,-0.206912,-16.2575,3.12375,9.345,-25.432001,18.896002,9.552,eccentric,4,3.0,23958.0,151337.0,237982.0,286335.0,267419.0
2026-04-08 21:52:56.809804,276455,1609504349015692,1948982168,1.007232,0.08784,-0.144448,-17.43,2.72125,9.0475,-25.064001,18.92,9.272,eccentric,4,3.0,24014.0,151589.0,238147.0,286457.0,267505.0
2026-04-08 21:52:56.812375,276456,1609504349024762,1948990990,1.007232,0.08784,-0.144448,-15.995,1.89,7.95375,-25.064001,18.92,9.272,eccentric,4,3.0,24014.0,151589.0,238147.0,286457.0,267505.0
2026-04-08 21:52:56.814872,276457,1609504349033725,1948999692,1.007232,0.08784,-0.144448,-14.665,1.5575,7.1575,-25.064001,18.92,9.272,eccentric,4,3.0,24014.0,151589.0,238147.0,286457.0,267505.0
2026-04-08 21:52:56.819806,276458,1609504349048213,1949014580,1.00528,0.101504,0.005856,-10.75375,1.88125,6.69375,-25.128,19.224,9.864,eccentric,4,3.0,24014.0,151589.0,238147.0,286457.0,267505.0
2026-04-08 21:52:56.829872,276459,1609504349057158,1949023237,0.98576,0.085888,-0.134688,-8.07625,2.0475,7.32375,-24.824001,19.064001,9.360001,eccentric,4,3.0,24014.0,151589.0,238147.0,286457.0,267505.0
2026-04-08 21:52:56.858803,276460,1609504349071619,1949038094,0.98576,0.085888,-0.134688,-11.83875,0.90125,9.31,-24.824001,19.064001,9.360001,eccentric,4,3.0,24014.0,151589.0,238147.0,286457.0,267505.0
2026-04-08 21:52:56.862428,276461,1609504349080528,1949046770,0.929152,0.1464,-0.228384,-14.805,-0.04375,10.2725,-24.576,19.224,9.072001,eccentric,4,3.0,24014.0,151589.0,238147.0,286457.0,267505.0
2026-04-08 21:52:56.864867,276462,1609504349089422,1949055434,0.929152,0.1464,-0.228384,-11.36625,-0.455,10.08875,-24.576,19.224,9.072001,eccentric,4,3.0,24014.0,151589.0,238147.0,286457.0,267505.0
2026-04-08 21:52:56.894993,276463,1609504349103925,1949070292,0.921344,0.10736,-0.138592,-9.87,-0.42875,8.417501,-24.240002,19.456001,10.416,eccentric,4,3.0,24014.0,151589.0,238147.0,286457.0,267505.0
2026-04-08 21:52:56.898607,276464,1609504349112857,1949078945,0.921344,0.10736,-0.138592,-14.35,-0.39375,7.665,-24.240002,19.456001,10.416,eccentric,4,3.0,24014.0,151589.0,238147.0,286457.0,267505.0
2026-04-08 21:52:56.958540,276475,1609504349127326,1949093813,1.009184,0.0,-0.023424,-19.005,0.63,8.68875,-23.992,19.584002,8.752001,eccentric,4,3.0,24071.0,151902.0,238449.0,286819.0,267786.0
2026-04-08 21:52:56.961016,276476,1609504349136412,1949102485,0.970144,0.044896,-0.113216,-23.2925,0.51625,9.8,-23.864,19.720001,8.672001,eccentric,4,3.0,24071.0,151902.0,238449.0,286819.0,267786.0
2026-04-08 21:52:56.963576,276477,1609504349150927,1949117465,0.970144,0.044896,-0.113216,-24.01,0.27125,9.5375,-23.864,19.720001,8.672001,eccentric,4,3.0,24071.0,151902.0,238449.0,286819.0,267786.0
2026-04-08 21:52:56.966058,276478,1609504349159811,1949126120,1.007232,0.035136,0.013664,-17.22875,-0.72625,9.73875,-23.456001,20.032001,9.024,eccentric,4,3.0,24071.0,151902.0,238449.0,286819.0,267786.0
2026-04-08 21:52:56.968631,276479,1609504349168718,1949134769,1.007232,0.035136,0.013664,-11.3575,-0.83125,10.15875,-23.456001,20.032001,9.024,eccentric,4,3.0,24071.0,151902.0,238449.0,286819.0,267786.0
2026-04-08 21:52:56.971005,276480,1609504349183286,1949149640,0.845216,0.054656,-0.199104,-9.63375,-0.51625,10.91125,-23.496,20.072,8.784,eccentric,4,3.0,24071.0,151902.0,238449.0,286819.0,267786.0
2026-04-08 21:52:56.973512,276481,1609504349192357,1949158365,0.845216,0.054656,-0.199104,-9.730001,-1.11125,12.90625,-23.496,20.072,8.784,eccentric,4,3.0,24071.0,151902.0,238449.0,286819.0,267786.0
2026-04-08 21:52:56.977275,276482,1609504349206953,1949173259,0.880352,0.062464,-0.171776,-6.7375,-1.0325,14.245,-22.960001,20.080002,8.784,eccentric,4,3.0,24071.0,151902.0,238449.0,286819.0,267786.0
2026-04-08 21:52:57.033608,276493,1609504349216506,1949181986,0.821792,0.046848,-0.206912,-3.21125,-0.5775,15.0675,-22.960001,20.080002,7.664001,eccentric,4,3.0,24156.0,152440.0,238977.0,287282.0,268085.0
2026-04-08 21:52:57.036139,276494,1609504349225797,1949192753,0.821792,0.046848,-0.206912,-5.915,-0.6825,16.065,-22.752,20.048,7.664001,eccentric,4,3.0,24156.0,152440.0,238977.0,287282.0,268085.0
2026-04-08 21:52:57.038592,276495,1609504349240268,1949205657,0.81008,0.01952,-0.187392,-10.10625,-1.84625,16.8525,-22.664001,20.328001,8.464001,eccentric,4,3.0,24156.0,152440.0,238977.0,287282.0,268085.0
2026-04-08 21:52:57.041074,276496,1609504349249601,1949216440,0.81008,0.01952,-0.187392,-9.38,-2.7475,17.2025,-22.664001,20.328001,8.464001,eccentric,4,3.0,24156.0,152440.0,238977.0,287282.0,268085.0
2026-04-08 21:52:57.043547,276497,1609504349264160,1949229354,0.862784,0.007808,0.074176,-5.5825,-2.73,16.065,-22.12,19.92,8.08,eccentric,4,3.0,24156.0,152440.0,238977.0,287282.0,268085.0
2026-04-08 21:52:57.046140,276498,1609504349273359,1949240163,0.862784,0.007808,0.074176,-2.94875,-1.225,15.95125,-22.12,19.92,8.08,eccentric,4,3.0,24156.0,152440.0,238977.0,287282.0,268085.0
2026-04-08 21:52:57.076190,276499,1609504349282306,1949248833,0.792512,0.062464,-0.031232,-5.18875,-0.105,18.73375,-21.44,20.648,9.392,eccentric,4,3.0,24156.0,152440.0,238977.0,287282.0,268085.0
2026-04-08 21:52:57.079783,276500,1609504349296934,1949263756,0.843264,0.062464,-0.099552,-9.345,0.42,23.205,-21.568,20.928001,6.144,eccentric,4,3.0,24156.0,152440.0,238977.0,287282.0,268085.0
2026-04-08 21:52:57.082258,276501,1609504349305844,1949272437,0.843264,0.062464,-0.099552,-10.185,0.1225,24.2375,-21.568,20.928001,6.144,eccentric,4,3.0,24156.0,152440.0,238977.0,287282.0,268085.0
2026-04-08 21:52:57.119577,276512,1609504349320517,1949287664,0.765184,-0.02928,-0.210816,-6.44,-0.18375,24.3075,-21.464,20.960001,8.68,eccentric,4,3.0,24071.0,152412.0,239159.0,287570.0,268371.0
2026-04-08 21:52:57.121249,276513,1609504349329494,1949296389,0.765184,-0.02928,-0.210816,-7.97125,-0.27125,25.54125,-21.464,20.960001,8.68,eccentric,4,3.0,24071.0,152412.0,239159.0,287570.0,268371.0
2026-04-08 21:52:57.125360,276514,1609504349338457,1949305051,0.7808,-0.013664,0.021472,-14.0875,0.00875,25.865,-20.896002,21.232,9.424001,eccentric,4,3.0,24071.0,152412.0,239159.0,287570.0,268371.0
2026-04-08 21:52:57.126914,276515,1609504349353024,1949319940,0.7808,-0.013664,0.021472,-17.03625,0.4375,24.605,-20.896002,21.232,9.424001,eccentric,4,3.0,24071.0,152412.0,239159.0,287570.0,268371.0
2026-04-08 21:52:57.157192,276516,1609504349361935,1949328666,0.808128,-0.03904,0.013664,-18.7775,1.05875,18.4275,-20.856,21.504002,9.768001,eccentric,4,3.0,24071.0,152412.0,239159.0,287570.0,268371.0
2026-04-08 21:52:57.161694,276517,1609504349376441,1949343503,0.808128,-0.03904,-0.025376,-17.87625,2.16125,16.10875,-20.856,21.504002,9.768001,eccentric,4,3.0,24071.0,152412.0,239159.0,287570.0,268371.0
2026-04-08 21:52:57.163289,276518,1609504349385380,1949352153,0.853024,-0.064416,-0.025376,-15.8025,2.625,20.72,-20.216002,21.784,7.904,eccentric,4,3.0,24071.0,152412.0,239159.0,287570.0,268371.0
2026-04-08 21:52:57.193491,276519,1609504349399848,1949365012,0.837408,-0.070272,0.011712,-11.87375,1.25125,20.93875,-20.208,21.568,8.088,eccentric,4,3.0,24071.0,152412.0,239159.0,287570.0,268371.0
2026-04-08 21:52:57.197954,276520,1609504349409007,1949375741,0.837408,-0.070272,0.011712,-10.17625,-0.5075,14.21875,-20.208,21.568,8.088,eccentric,4,3.0,24071.0,152412.0,239159.0,287570.0,268371.0
2026-04-08 21:52:57.258573,276532,1609504349417998,1949384477,0.8296,-0.072224,-0.064416,-8.81125,-2.135,9.905,-19.792002,21.560001,9.056001,eccentric,4,3.0,23657.0,151310.0,238438.0,287260.0,268229.0
2026-04-08 21:52:57.263589,276533,1609504349432536,1949399436,0.8296,-0.072224,-0.064416,-10.07125,-2.8875,9.45,-19.792002,21.560001,9.056001,eccentric,4,3.0,23657.0,151310.0,238438.0,287260.0,268229.0
2026-04-08 21:52:57.266099,276534,1609504349441511,1949408130,0.837408,-0.031232,0.070272,-11.55,-2.905,10.185,-20.072,21.776001,9.096001,eccentric,4,3.0,23657.0,151310.0,238438.0,287260.0,268229.0
2026-04-08 21:52:57.268513,276535,1609504349455982,1949423016,0.837408,-0.031232,0.070272,-11.3575,-3.28125,9.70375,-20.072,21.776001,9.096001,eccentric,4,3.0,23657.0,151310.0,238438.0,287260.0,268229.0
2026-04-08 21:52:57.271080,276536,1609504349464942,1949431667,0.823744,-0.081984,-0.152256,-10.6225,-3.14125,10.36,-19.552,22.064001,10.016001,eccentric,4,3.0,23657.0,151310.0,238438.0,287260.0,268229.0
2026-04-08 21:52:57.273579,276537,1609504349479490,1949446593,0.730048,-0.02928,-0.011712,-11.40125,-2.1525,10.59625,-19.312,22.272001,9.016001,eccentric,4,3.0,23657.0,151310.0,238438.0,287260.0,268229.0
2026-04-08 21:52:57.276128,276538,1609504349488428,1949455256,0.730048,-0.02928,-0.011712,-12.36375,-1.21625,10.28125,-19.312,22.272001,9.016001,eccentric,4,3.0,23657.0,151310.0,238438.0,287260.0,268229.0
2026-04-08 21:52:57.278936,276539,1609504349497393,1949463977,0.730048,-0.07808,0.074176,-10.465,0.42875,10.2725,-19.312,22.272001,9.016001,eccentric,4,3.0,23657.0,151310.0,238438.0,287260.0,268229.0
2026-04-08 21:52:57.283614,276540,1609504349511917,1949478908,0.7808,-0.07808,0.074176,-10.955,0.8925,11.261251,-19.288,22.352001,11.080001,eccentric,4,3.0,23657.0,151310.0,238438.0,287260.0,268229.0
2026-04-08 21:52:57.311322,276551,1609504349521005,1949487662,0.813984,-0.064416,-0.052704,-12.845,0.69125,10.22,-19.224,21.704,7.552001,eccentric,4,3.0,23671.0,151376.0,238347.0,287214.0,268181.0
2026-04-08 21:52:57.313583,276552,1609504349535581,1949502575,0.813984,-0.064416,-0.052704,-13.99125,0.55125,8.02375,-19.224,21.704,7.552001,eccentric,4,3.0,23671.0,151376.0,238347.0,287214.0,268181.0
2026-04-08 21:52:57.316106,276553,1609504349544560,1949511296,0.769088,-0.031232,-0.015616,-14.55125,0.76125,5.29375,-18.968,21.944,7.936,eccentric,4,3.0,23671.0,151376.0,238347.0,287214.0,268181.0
2026-04-08 21:52:57.346356,276554,1609504349553511,1949519984,0.769088,-0.031232,-0.015616,-11.85625,0.90125,5.1275,-18.968,21.944,7.936,eccentric,4,3.0,23671.0,151376.0,238347.0,287214.0,268181.0
2026-04-08 21:52:57.349847,276555,1609504349568013,1949534887,0.728096,-0.142496,-0.062464,-10.08875,1.56625,5.74875,-18.696001,21.928001,8.304001,eccentric,4,3.0,23671.0,151376.0,238347.0,287214.0,268181.0
2026-04-08 21:52:57.352346,276556,1609504349576935,1949543547,0.728096,-0.142496,-0.062464,-11.34,1.2425,7.27125,-18.696001,21.928001,8.304001,eccentric,4,3.0,23671.0,151376.0,238347.0,287214.0,268181.0
2026-04-08 21:52:57.382756,276557,1609504349591438,1949558498,0.759328,-0.099552,-0.181536,-16.7475,-0.07,5.53875,-18.944,22.328001,7.728,eccentric,4,3.0,23671.0,151376.0,238347.0,287214.0,268181.0
2026-04-08 21:52:57.388013,276558,1609504349600329,1949567139,0.794464,-0.070272,-0.169824,-21.30625,-1.04125,-0.21,-18.488,22.512001,7.432,eccentric,4,3.0,23671.0,151376.0,238347.0,287214.0,268181.0
2026-04-08 21:52:57.390470,276559,1609504349614750,1949579942,0.794464,-0.070272,-0.169824,-19.60875,0.595,-5.04,-18.488,22.512001,7.432,eccentric,4,3.0,23671.0,151376.0,238347.0,287214.0,268181.0
2026-04-08 21:52:57.419777,276570,1609504349623990,1949589146,0.808128,-0.111264,0.042944,-15.085,2.31875,-4.10375,-18.328001,22.152,7.32,eccentric,4,3.0,23441.0,150716.0,237897.0,287030.0,268134.0
2026-04-08 21:52:57.422291,276571,1609504349633165,1949599945,0.808128,-0.111264,0.042944,-12.39,2.31,0.30625,-18.328001,22.152,7.32,eccentric,4,3.0,23441.0,150716.0,237897.0,287030.0,268134.0
2026-04-08 21:52:57.424821,276572,1609504349647785,1949614935,0.847168,-0.10736,0.099552,-10.43875,1.75,3.36875,-18.632,22.472,8.512,eccentric,4,3.0,23441.0,150716.0,237897.0,287030.0,268134.0
2026-04-08 21:52:57.429799,276573,1609504349656763,1949623604,0.847168,-0.10736,0.099552,-8.33,1.225,3.14125,-18.632,22.472,8.512,eccentric,4,3.0,23441.0,150716.0,237897.0,287030.0,268134.0
2026-04-08 21:52:57.459999,276574,1609504349671252,1949636498,0.854976,-0.095648,-0.150304,-9.58125,0.665,-2.14375,-18.512001,22.68,7.784,eccentric,4,3.0,23441.0,150716.0,237897.0,287030.0,268134.0
2026-04-08 21:52:57.463629,276575,1609504349680473,1949647230,0.81984,-0.074176,-0.01952,-13.0725,2.1525,-6.7375,-18.312,22.424002,6.76,eccentric,4,3.0,23441.0,150716.0,237897.0,287030.0,268134.0
2026-04-08 21:52:57.467169,276576,1609504349689376,1949655877,0.81984,-0.074176,-0.01952,-14.21875,4.05125,-5.81875,-18.312,22.424002,6.76,eccentric,4,3.0,23441.0,150716.0,237897.0,287030.0,268134.0
2026-04-08 21:52:57.496353,276577,1609504349703870,1949670746,0.847168,-0.080032,0.103456,-10.89375,5.20625,-2.14375,-18.52,22.544,7.752,eccentric,4,3.0,23441.0,150716.0,237897.0,287030.0,268134.0
2026-04-08 21:52:57.499889,276578,1609504349712789,1949679422,0.847168,-0.080032,0.103456,-9.87,5.69625,-0.65625,-18.52,22.544,7.752,eccentric,4,3.0,23441.0,150716.0,237897.0,287030.0,268134.0
2026-04-08 21:52:57.559836,276589,1609504349727318,1949694305,0.919392,-0.054656,0.02928,-11.29625,5.29375,-3.115,-18.416,22.6,6.752,eccentric,4,3.0,23655.0,151491.0,238421.0,287244.0,268211.0
2026-04-08 21:52:57.562335,276590,1609504349736252,1949703000,0.919392,-0.054656,0.02928,-11.55,4.2,-5.38125,-18.416,22.6,6.752,eccentric,4,3.0,23655.0,151491.0,238421.0,287244.0,268211.0
2026-04-08 21:52:57.564775,276591,1609504349750769,1949717887,0.90768,-0.056608,0.111264,-10.7975,3.89375,-5.32,-18.432001,22.336,6.992,eccentric,4,3.0,23655.0,151491.0,238421.0,287244.0,268211.0
2026-04-08 21:52:57.567329,276592,1609504349759701,1949726529,0.804224,-0.066368,0.054656,-9.61625,4.2,-5.845,-18.464,22.688002,7.568,eccentric,4,3.0,23655.0,151491.0,238421.0,287244.0,268211.0
2026-04-08 21:52:57.569801,276593,1609504349768626,1949735199,0.804224,-0.066368,0.054656,-8.39125,3.99,-5.29375,-18.464,22.688002,7.568,eccentric,4,3.0,23655.0,151491.0,238421.0,287244.0,268211.0
2026-04-08 21:52:57.572288,276594,1609504349783156,1949750218,0.821792,-0.040992,-0.128832,-6.09875,3.10625,-4.0425,-18.256,22.664001,7.04,eccentric,4,3.0,23655.0,151491.0,238421.0,287244.0,268211.0
2026-04-08 21:52:57.574830,276595,1609504349792100,1949758916,0.821792,-0.040992,-0.128832,-2.2225,1.86375,-3.96375,-18.256,22.664001,7.04,eccentric,4,3.0,23655.0,151491.0,238421.0,287244.0,268211.0
2026-04-08 21:52:57.579846,276596,1609504349806643,1949773790,0.905728,-0.056608,0.042944,-0.105,0.8925,-4.26125,-18.320002,22.376001,7.448,eccentric,4,3.0,23655.0,151491.0,238421.0,287244.0,268211.0
2026-04-08 21:52:57.610072,276597,1609504349815637,1949782457,0.905728,-0.056608,0.042944,-0.6125,0.6475,-6.22125,-18.320002,22.376001,7.448,eccentric,4,3.0,23655.0,151491.0,238421.0,287244.0,268211.0
2026-04-08 21:52:57.641198,276608,1609504349830185,1949795372,0.909632,-0.099552,-0.0488,-4.45375,-0.48125,-7.9275,-18.432001,22.376001,6.896,concentric,4,3.0,23537.0,151115.0,238033.0,286914.0,268018.0
2026-04-08 21:52:57.643589,276609,1609504349839354,1949806090,0.909632,-0.099552,-0.128832,-8.636251,-0.175,-8.42625,-18.432001,22.376001,6.896,concentric,4,3.0,23537.0,151115.0,238033.0,286914.0,268018.0
2026-04-08 21:52:57.646189,276610,1609504349848319,1949814799,0.831552,-0.074176,-0.128832,-9.17,0.91,-7.7175,-18.800001,22.288,7.440001,concentric,4,3.0,23537.0,151115.0,238033.0,286914.0,268018.0
2026-04-08 21:52:57.648604,276611,1609504349862919,1949829761,0.845216,0.005856,0.138592,-7.2625,1.26,-7.1225,-18.864,22.336,8.056001,concentric,4,3.0,23537.0,151115.0,238033.0,286914.0,268018.0
2026-04-08 21:52:57.651116,276612,1609504349871826,1949838471,0.845216,0.005856,0.138592,-3.50875,0.7875,-6.65875,-18.864,22.336,8.056001,concentric,4,3.0,23537.0,151115.0,238033.0,286914.0,268018.0
2026-04-08 21:52:57.683840,276613,1609504349892350,1949858290,0.882304,-0.056608,0.07808,-0.63,1.0675,-8.39125,-18.528002,22.544,6.928001,concentric,4,3.0,23537.0,151115.0,238033.0,286914.0,268018.0
2026-04-08 21:52:57.687350,276614,1609504349895780,1949862821,0.882304,-0.056608,0.07808,-4.2175,0.91875,-10.325,-18.528002,22.544,6.928001,concentric,4,3.0,23537.0,151115.0,238033.0,286914.0,268018.0
2026-04-08 21:52:57.689899,276615,1609504349904692,1949871486,0.765184,-0.042944,-0.052704,-9.02125,0.58625,-11.375,-18.560001,21.984001,7.008,concentric,4,3.0,23537.0,151115.0,238033.0,286914.0,268018.0
2026-04-08 21:52:57.719873,276626,1609504349919319,1949886431,0.765184,-0.042944,-0.052704,-11.41875,1.33,-10.00125,-18.560001,21.984001,7.008,concentric,4,3.0,23317.0,150259.0,237415.0,286569.0,267892.0
2026-04-08 21:52:57.722301,276627,1609504349928337,1949895184,0.812032,-0.050752,0.011712,-11.96125,1.00625,-8.40875,-18.896002,22.176,7.664001,concentric,4,3.0,23317.0,150259.0,237415.0,286569.0,267892.0
2026-04-08 21:52:57.724779,276628,1609504349942862,1949908104,0.837408,-0.066368,0.083936,-9.073751,0.0525,-8.33875,-18.888,22.016,8.656,concentric,4,3.0,23317.0,150259.0,237415.0,286569.0,267892.0
2026-04-08 21:52:57.727401,276629,1609504349952086,1949918856,0.837408,-0.066368,0.083936,-4.0425,-0.02625,-10.89375,-18.888,22.016,8.656,concentric,4,3.0,23317.0,150259.0,237415.0,286569.0,267892.0
2026-04-08 21:52:57.733745,276630,1609504349961048,1949927534,0.7808,-0.05856,-0.033184,-3.7275,-0.34125,-14.385,-19.128,22.104002,7.336,concentric,4,3.0,23317.0,150259.0,237415.0,286569.0,267892.0
2026-04-08 21:52:57.763817,276631,1609504349975528,1949942443,0.7808,-0.05856,-0.033184,-8.11125,0.385,-15.82,-19.128,22.104002,7.336,concentric,4,3.0,23317.0,150259.0,237415.0,286569.0,267892.0
2026-04-08 21:52:57.767350,276632,1609504349984514,1949951134,0.792512,-0.080032,-0.122976,-11.55,1.56625,-14.9275,-19.176,21.960001,6.328,concentric,4,3.0,23317.0,150259.0,237415.0,286569.0,267892.0
2026-04-08 21:52:57.771100,276633,1609504349999021,1949965978,0.792512,-0.080032,-0.122976,-10.57,1.2425,-14.48125,-19.176,21.960001,6.328,concentric,4,3.0,23317.0,150259.0,237415.0,286569.0,267892.0
2026-04-08 21:52:57.835133,276634,1609504350007972,1949974635,0.80032,-0.060512,-0.085888,-5.38125,0.315,-14.42875,-20.0,21.848001,7.896,concentric,4,3.0,23317.0,150259.0,237415.0,286569.0,267892.0
2026-04-08 21:52:57.897403,276645,1609504350022996,1949989644,0.940864,-0.031232,-0.091744,-2.07375,-0.455,-15.35625,-19.392,22.04,6.4,concentric,4,3.0,23352.0,150619.0,237738.0,286711.0,267906.0
2026-04-08 21:52:57.899865,276646,1609504350031950,1949998295,0.940864,-0.031232,-0.091744,-3.71875,-1.12,-18.47125,-19.392,22.04,6.4,concentric,4,3.0,23352.0,150619.0,237738.0,286711.0,267906.0
2026-04-08 21:52:57.902427,276647,1609504350040853,1950006945,0.940864,-0.031232,-0.144448,-6.1425,-0.41125,-20.46625,-19.392,22.04,6.4,concentric,4,3.0,23352.0,150619.0,237738.0,286711.0,267906.0
2026-04-08 21:52:57.904895,276648,1609504350055301,1950021805,0.88816,-0.02928,-0.144448,-8.37375,1.925,-19.6875,-19.912,22.224,6.592001,concentric,4,3.0,23352.0,150619.0,237738.0,286711.0,267906.0
2026-04-08 21:52:57.907362,276649,1609504350064216,1950030474,0.769088,-0.01952,-0.037088,-9.02125,2.56375,-17.745,-19.888,21.776001,6.72,concentric,4,3.0,23352.0,150619.0,237738.0,286711.0,267906.0
2026-04-08 21:52:57.909876,276650,1609504350078728,1950045354,0.769088,-0.01952,-0.037088,-8.09375,1.2775,-15.11125,-19.888,21.776001,6.72,concentric,4,3.0,23352.0,150619.0,237738.0,286711.0,267906.0
2026-04-08 21:52:57.912396,276651,1609504350087702,1950054107,0.847168,-0.027328,-0.191296,-5.215,-0.34125,-12.7225,-20.488,21.744001,7.392,concentric,4,3.0,23352.0,150619.0,237738.0,286711.0,267906.0
2026-04-08 21:52:57.914898,276652,1609504350096728,1950062777,0.847168,-0.027328,-0.191296,-2.4325,-2.21375,-14.105001,-20.488,21.744001,7.392,concentric,4,3.0,23352.0,150619.0,237738.0,286711.0,267906.0
2026-04-08 21:52:57.917370,276653,1609504350111198,1950077621,0.952576,-0.0488,-0.101504,0.46375,-1.785,-16.65125,-20.44,21.44,6.512,concentric,4,3.0,23352.0,150619.0,237738.0,286711.0,267906.0
2026-04-08 21:52:57.952575,276664,1609504350120338,1950086267,0.952576,-0.0488,-0.101504,1.54875,0.51625,-16.8,-20.44,21.44,6.512,concentric,4,3.0,23213.0,150093.0,237280.0,286447.0,267783.0
2026-04-08 21:52:57.954819,276665,1609504350134860,1950101136,0.91744,-0.005856,0.062464,1.8375,0.665,-14.60375,-20.36,21.736002,6.84,concentric,4,3.0,23213.0,150093.0,237280.0,286447.0,267783.0
2026-04-08 21:52:57.957287,276666,1609504350143806,1950109860,0.93696,0.003904,0.06832,0.86625,0.23625,-13.886251,-20.288,21.44,6.712,concentric,4,3.0,23213.0,150093.0,237280.0,286447.0,267783.0
2026-04-08 21:52:57.959801,276667,1609504350158365,1950124861,0.93696,0.003904,0.06832,-2.835,0.21,-14.105001,-20.288,21.44,6.712,concentric,4,3.0,23213.0,150093.0,237280.0,286447.0,267783.0
2026-04-08 21:52:57.962354,276668,1609504350167315,1950133589,0.983808,-0.005856,0.037088,-7.735,0.28,-15.42625,-20.152,21.416,6.832,concentric,4,3.0,23213.0,150093.0,237280.0,286447.0,267783.0
2026-04-08 21:52:57.964805,276669,1609504350176281,1950142253,0.983808,-0.005856,0.037088,-8.47,2.54625,-15.7675,-20.152,21.416,6.832,concentric,4,3.0,23213.0,150093.0,237280.0,286447.0,267783.0
2026-04-08 21:52:57.967292,276670,1609504350190806,1950157127,0.774944,0.005856,-0.18544,-6.8775,4.3925,-14.6125,-20.904001,21.272001,7.824,concentric,4,3.0,23213.0,150093.0,237280.0,286447.0,267783.0
2026-04-08 21:52:57.971034,276671,1609504350199719,1950165795,0.774944,0.005856,-0.18544,-5.46,3.9375,-11.917501,-20.904001,21.272001,7.824,concentric,4,3.0,23213.0,150093.0,237280.0,286447.0,267783.0
2026-04-08 21:52:58.001250,276672,1609504350214204,1950180685,0.835456,0.033184,0.095648,-1.53125,2.72125,-9.3975,-20.68,21.048,6.56,concentric,4,3.0,23213.0,150093.0,237280.0,286447.0,267783.0
2026-04-08 21:52:58.032395,276683,1609504350223527,1950189549,0.972096,-0.005856,-0.03904,0.4725,1.8025,-9.6075,-20.936,21.376001,4.32,concentric,4,3.0,23316.0,150461.0,237650.0,286724.0,267946.0
2026-04-08 21:52:58.034787,276684,1609504350232449,1950198227,0.972096,-0.005856,-0.03904,-5.53875,0.77,-11.99625,-20.936,21.376001,4.32,concentric,4,3.0,23316.0,150461.0,237650.0,286724.0,267946.0
2026-04-08 21:52:58.037281,276685,1609504350247006,1950213160,0.837408,0.015616,0.083936,-10.185,2.8175,-13.16,-21.296001,21.208,7.256001,concentric,4,3.0,23316.0,150461.0,237650.0,286724.0,267946.0
2026-04-08 21:52:58.039823,276686,1609504350256023,1950221879,0.837408,0.015616,0.083936,-10.99875,4.45375,-11.9,-21.296001,21.208,7.256001,concentric,4,3.0,23316.0,150461.0,237650.0,286724.0,267946.0
2026-04-08 21:52:58.042290,276687,1609504350270530,1950236809,0.851072,0.003904,0.074176,-11.7775,3.745,-8.67125,-21.096,21.464,7.2,concentric,4,3.0,23316.0,150461.0,237650.0,286724.0,267946.0
2026-04-08 21:52:58.072574,276688,1609504350279479,1950245479,0.851072,0.003904,0.074176,-8.91625,1.74125,-6.85125,-21.096,21.464,7.2,concentric,4,3.0,23316.0,150461.0,237650.0,286724.0,267946.0
2026-04-08 21:52:58.076159,276689,1609504350294013,1950260339,0.895968,0.007808,0.0976,-3.815,-0.4375,-7.0525,-21.552002,21.536001,6.672,concentric,4,3.0,23316.0,150461.0,237650.0,286724.0,267946.0
2026-04-08 21:52:58.078621,276690,1609504350302889,1950268978,0.933056,0.01952,0.005856,-1.54,-1.32125,-8.82875,-21.552002,21.536001,6.704001,concentric,4,3.0,23316.0,150461.0,237650.0,286724.0,267946.0
2026-04-08 21:52:58.082351,276691,1609504350311761,1950277646,0.933056,0.01952,0.005856,-1.6975,-0.875,-10.745,-21.344002,21.528002,6.704001,concentric,4,3.0,23316.0,150461.0,237650.0,286724.0,267946.0
2026-04-08 21:52:58.161086,276702,1609504350326355,1950292790,0.854976,0.017568,0.037088,-1.65375,1.32125,-10.49125,-21.584002,21.28,7.496,concentric,4,3.0,23302.0,150442.0,237741.0,286851.0,268041.0
2026-04-08 21:52:58.163586,276703,1609504350335326,1950301486,0.854976,0.017568,0.037088,-1.63625,2.94875,-7.76125,-21.584002,21.28,7.496,concentric,4,3.0,23302.0,150442.0,237741.0,286851.0,268041.0
2026-04-08 21:52:58.166093,276704,1609504350349781,1950316341,0.83936,0.037088,0.111264,-4.6725,2.94875,-4.76,-21.536001,21.512001,6.432,concentric,4,3.0,23302.0,150442.0,237741.0,286851.0,268041.0
2026-04-08 21:52:58.168625,276705,1609504350358732,1950325001,0.83936,0.037088,0.111264,-7.63,2.14375,-4.33125,-21.536001,21.512001,6.432,concentric,4,3.0,23302.0,150442.0,237741.0,286851.0,268041.0
2026-04-08 21:52:58.170998,276706,1609504350373236,1950339895,0.938912,-0.023424,-0.121024,-7.35875,1.575,-5.4425,-21.480001,21.352001,6.04,concentric,4,3.0,23302.0,150442.0,237741.0,286851.0,268041.0
2026-04-08 21:52:58.173579,276707,1609504350382160,1950348593,0.938912,-0.023424,-0.121024,-7.69125,1.7675,-7.55125,-21.480001,21.352001,6.04,concentric,4,3.0,23302.0,150442.0,237741.0,286851.0,268041.0
2026-04-08 21:52:58.176110,276708,1609504350391096,1950357307,0.899872,-0.00976,-0.109312,-6.9825,2.415,-9.05625,-21.824001,21.84,6.56,concentric,4,3.0,23302.0,150442.0,237741.0,286851.0,268041.0
2026-04-08 21:52:58.178613,276709,1609504350405646,1950372189,0.872544,0.0488,0.132736,-4.12125,2.8175,-8.5225,-22.032001,21.352001,6.416,concentric,4,3.0,23302.0,150442.0,237741.0,286851.0,268041.0
2026-04-08 21:52:58.208772,276710,1609504350414610,1950380906,0.872544,0.0488,0.132736,0.1925,2.54625,-6.5625,-22.032001,21.352001,6.416,concentric,4,3.0,23302.0,150442.0,237741.0,286851.0,268041.0
2026-04-08 21:52:58.243591,276721,1609504350429218,1950395819,0.833504,0.0488,-0.072224,2.415,1.12875,-5.32,-22.088001,20.960001,6.392,concentric,4,3.0,23247.0,150369.0,237792.0,286854.0,268033.0
2026-04-08 21:52:58.246036,276722,1609504350438155,1950404484,0.833504,0.0488,-0.072224,2.70375,-1.085,-5.5475,-22.088001,20.960001,6.392,concentric,4,3.0,23247.0,150369.0,237792.0,286854.0,268033.0
2026-04-08 21:52:58.248544,276723,1609504350452717,1950419376,0.851072,0.027328,-0.12688,2.58125,-2.37125,-7.04375,-21.936,21.544,6.544,concentric,4,3.0,23247.0,150369.0,237792.0,286854.0,268033.0
2026-04-08 21:52:58.251016,276724,1609504350461653,1950428056,0.851072,0.027328,-0.12688,1.35625,-1.365,-8.25125,-21.936,21.544,6.544,concentric,4,3.0,23247.0,150369.0,237792.0,286854.0,268033.0
2026-04-08 21:52:58.253517,276725,1609504350470616,1950436758,0.788608,0.066368,0.015616,0.6825,-0.13125,-8.07625,-22.632002,21.416,6.984,concentric,4,3.0,23247.0,150369.0,237792.0,286854.0,268033.0
2026-04-08 21:52:58.256012,276726,1609504350485120,1950451671,0.808128,0.091744,-0.113216,2.84375,0.67375,-6.95625,-22.336,21.136002,9.552,concentric,4,3.0,23247.0,150369.0,237792.0,286854.0,268033.0
2026-04-08 21:52:58.286272,276727,1609504350494073,1950460341,0.808128,0.091744,-0.113216,8.9775,0.385,-5.59125,-22.336,21.136002,9.552,concentric,4,3.0,23247.0,150369.0,237792.0,286854.0,268033.0
2026-04-08 21:52:58.289819,276728,1609504350508639,1950475209,0.989664,0.070272,0.070272,11.698751,0.21,-4.52375,-22.352001,21.184002,6.416,concentric,4,3.0,23247.0,150369.0,237792.0,286854.0,268033.0
2026-04-08 21:52:58.292283,276729,1609504350517578,1950483873,0.989664,0.070272,0.070272,6.2125,2.03,-6.88625,-22.352001,21.184002,6.416,concentric,4,3.0,23247.0,150369.0,237792.0,286854.0,268033.0
2026-04-08 21:52:58.319761,276740,1609504350532154,1950498932,0.827648,0.037088,-0.144448,-2.8175,4.865,-7.7875,-22.464,21.44,6.68,concentric,4,3.0,23481.0,151143.0,238390.0,287152.0,268121.0
2026-04-08 21:52:58.322282,276741,1609504350541071,1950507622,0.827648,0.037088,-0.144448,-10.21125,7.105,-6.3875,-22.464,21.44,6.68,concentric,4,3.0,23481.0,151143.0,238390.0,287152.0,268121.0
2026-04-08 21:52:58.324808,276742,1609504350550024,1950516319,0.987712,-0.005856,-0.081984,-10.71875,8.72375,-5.10125,-22.720001,21.312,6.8,concentric,4,3.0,23481.0,151143.0,238390.0,287152.0,268121.0
2026-04-08 21:52:58.354987,276743,1609504350564583,1950531199,1.022848,0.111264,-0.22448,-5.6175,10.15,-3.99875,-22.720001,21.312,8.136001,concentric,4,3.0,23481.0,151143.0,238390.0,287152.0,268121.0
2026-04-08 21:52:58.358558,276744,1609504350573480,1950539831,1.022848,0.111264,-0.22448,-2.5375,10.955,-4.99625,-22.960001,21.312,8.136001,concentric,4,3.0,23481.0,151143.0,238390.0,287152.0,268121.0
2026-04-08 21:52:58.361086,276745,1609504350587992,1950554693,0.95648,0.124928,0.099552,-1.925,12.53875,-6.0375,-22.784,21.448002,6.68,concentric,4,3.0,23481.0,151143.0,238390.0,287152.0,268121.0
2026-04-08 21:52:58.391219,276746,1609504350596926,1950563371,0.95648,0.124928,0.099552,-3.03625,13.7375,-4.76,-22.784,21.448002,6.68,concentric,4,3.0,23481.0,151143.0,238390.0,287152.0,268121.0
2026-04-08 21:52:58.430011,276747,1609504350611398,1950578232,0.864736,-0.001952,-0.093696,-10.66625,12.32875,-2.94,-22.920002,21.112001,7.088,concentric,4,3.0,23481.0,151143.0,238390.0,287152.0,268121.0
2026-04-08 21:52:58.443644,276748,1609504350620283,1950586910,0.864736,-0.001952,-0.093696,-21.41125,9.2575,-0.79625,-22.920002,21.112001,7.088,concentric,4,3.0,23481.0,151143.0,238390.0,287152.0,268121.0
2026-04-08 21:52:58.471062,276759,1609504350629338,1950595709,0.933056,-0.013664,0.001952,-25.8475,5.6525,0.5425,-22.848001,21.688002,6.968,concentric,4,3.0,22994.0,149406.0,236857.0,286226.0,267663.0
2026-04-08 21:52:58.473536,276760,1609504350643816,1950610568,0.933056,-0.013664,0.001952,-19.88875,1.925,-2.7475,-22.848001,21.688002,6.968,concentric,4,3.0,22994.0,149406.0,236857.0,286226.0,267663.0
2026-04-08 21:52:58.476073,276761,1609504350652711,1950619235,0.942816,-0.005856,0.062464,-5.59125,-0.1225,-7.90125,-23.248001,21.232,6.712,concentric,4,3.0,22994.0,149406.0,236857.0,286226.0,267663.0
2026-04-08 21:52:58.478771,276762,1609504350667222,1950634072,0.886208,0.013664,-0.124928,5.04875,-1.9775,-11.64625,-23.208,21.272001,5.752,concentric,4,3.0,22994.0,149406.0,236857.0,286226.0,267663.0
2026-04-08 21:52:58.481061,276763,1609504350676142,1950642746,0.886208,0.013664,-0.124928,8.4,-4.19125,-12.97625,-23.208,21.272001,5.752,concentric,4,3.0,22994.0,149406.0,236857.0,286226.0,267663.0
2026-04-08 21:52:58.483604,276764,1609504350690753,1950657641,0.935008,0.052704,-0.130784,11.48875,-5.64375,-12.6,-23.616001,21.248001,6.432,concentric,4,3.0,22994.0,149406.0,236857.0,286226.0,267663.0
2026-04-08 21:52:58.486122,276765,1609504350699818,1950666327,0.935008,0.052704,-0.130784,11.1125,-6.8425,-12.0925,-23.616001,21.248001,6.432,concentric,4,3.0,22994.0,149406.0,236857.0,286226.0,267663.0
2026-04-08 21:52:58.488593,276766,1609504350708866,1950675022,0.874496,0.152256,-0.119072,9.33625,-7.3675,-13.08125,-23.672,21.304,6.888001,concentric,4,3.0,22994.0,149406.0,236857.0,286226.0,267663.0
2026-04-08 21:52:58.523564,276777,1609504350723413,1950689929,0.874496,0.152256,-0.119072,7.02625,-7.65625,-19.32875,-23.672,21.304,6.888001,concentric,4,3.0,22900.0,149088.0,236684.0,286263.0,267726.0
2026-04-08 21:52:58.526045,276778,1609504350732434,1950698716,0.88816,0.037088,-0.148352,3.5875,-6.76375,-20.0025,-23.792002,21.176,6.216,concentric,4,3.0,22900.0,149088.0,236684.0,286263.0,267726.0
2026-04-08 21:52:58.528547,276779,1609504350746952,1950713648,0.864736,0.037088,-0.12688,7.74375,-6.30875,-3.955,-24.288002,20.752,6.920001,concentric,4,3.0,22900.0,149088.0,236684.0,286263.0,267726.0
2026-04-08 21:52:58.531054,276780,1609504350755899,1950722358,0.864736,0.037088,-0.12688,5.39,-7.0875,-2.73,-24.288002,20.752,6.920001,concentric,4,3.0,22900.0,149088.0,236684.0,286263.0,267726.0
2026-04-08 21:52:58.537311,276781,1609504350764807,1950731039,0.864736,0.037088,-0.12688,3.0625,-7.20125,-11.96125,-24.288002,20.752,6.920001,concentric,4,3.0,22900.0,149088.0,236684.0,286263.0,267726.0
2026-04-08 21:52:58.567503,276782,1609504350779289,1950745993,0.968192,0.044896,0.056608,2.0475,-6.79,-18.99625,-24.424002,20.800001,6.608,concentric,4,3.0,22900.0,149088.0,236684.0,286263.0,267726.0
2026-04-08 21:52:58.571149,276783,1609504350788236,1950754681,1.013088,0.052704,0.060512,1.2425,-5.64375,-22.04125,-24.624,20.784,6.8,concentric,4,3.0,22900.0,149088.0,236684.0,286263.0,267726.0
2026-04-08 21:52:58.576100,276784,1609504350802713,1950769524,1.013088,0.052704,0.060512,8.14625,-4.08625,-12.0225,-24.624,20.784,6.8,concentric,4,3.0,22900.0,149088.0,236684.0,286263.0,267726.0
2026-04-08 21:52:58.606293,276785,1609504350811636,1950778284,0.98576,0.07808,0.0,8.636251,-2.765,-7.7175,-24.184002,20.504002,6.856,concentric,4,3.0,22900.0,149088.0,236684.0,286263.0,267726.0
2026-04-08 21:52:58.634831,276796,1609504350826699,1950793253,0.942816,0.115168,0.105408,4.0775,-2.1525,-12.0925,-25.128,20.752,5.976,concentric,4,3.0,22823.0,148936.0,236692.0,286247.0,267703.0
2026-04-08 21:52:58.637339,276797,1609504350835674,1950801941,0.942816,0.115168,0.105408,1.6975,-2.03,-11.94375,-25.128,20.752,5.976,concentric,4,3.0,22823.0,148936.0,236692.0,286247.0,267703.0
2026-04-08 21:52:58.639802,276798,1609504350844572,1950810646,0.942816,0.115168,0.105408,-2.2925,-2.93125,-9.03,-25.128,20.752,5.976,concentric,4,3.0,22823.0,148936.0,236692.0,286247.0,267703.0
2026-04-08 21:52:58.642323,276799,1609504350859285,1950825585,0.983808,0.056608,0.093696,-4.01625,-3.57,-10.94625,-25.016,20.624,7.960001,concentric,4,3.0,22823.0,148936.0,236692.0,286247.0,267703.0
2026-04-08 21:52:58.644853,276800,1609504350868269,1950834321,0.911584,0.040992,-0.119072,-2.0825,-3.36,-13.39625,-25.344002,20.408,6.584,concentric,4,3.0,22823.0,148936.0,236692.0,286247.0,267703.0
2026-04-08 21:52:58.675097,276801,1609504350882759,1950849194,0.911584,0.040992,-0.119072,-1.91625,-2.87,-12.17125,-25.344002,20.408,6.584,concentric,4,3.0,22823.0,148936.0,236692.0,286247.0,267703.0
2026-04-08 21:52:58.678703,276802,1609504350891663,1950857844,0.899872,0.056608,-0.10736,3.15,-2.03,-11.03375,-25.2,20.392,6.424,concentric,4,3.0,22823.0,148936.0,236692.0,286247.0,267703.0
2026-04-08 21:52:58.681050,276803,1609504350900600,1950866503,0.899872,0.056608,-0.10736,9.61625,-1.785,-11.55,-25.2,20.392,6.424,concentric,4,3.0,22823.0,148936.0,236692.0,286247.0,267703.0
2026-04-08 21:52:58.686130,276804,1609504350915082,1950881409,0.899872,0.130784,-0.005856,11.06,-1.42625,-11.76,-25.464,20.080002,6.776001,concentric,4,3.0,22823.0,148936.0,236692.0,286247.0,267703.0
2026-04-08 21:52:58.764893,276815,1609504350924014,1950890088,0.899872,0.130784,-0.005856,10.7975,-1.8025,-12.1625,-25.464,20.080002,6.776001,concentric,4,3.0,22933.0,149389.0,237024.0,286321.0,267681.0
2026-04-08 21:52:58.771041,276816,1609504350938828,1950904974,0.899872,0.081984,-0.15616,11.3225,-1.8725,-12.34625,-25.44,20.128,7.648,concentric,4,3.0,22933.0,149389.0,237024.0,286321.0,267681.0
2026-04-08 21:52:58.773542,276817,1609504350947778,1950913660,0.944768,0.074176,0.02928,10.52625,-2.275,-12.775,-26.136002,20.032001,8.104,concentric,4,3.0,22933.0,149389.0,237024.0,286321.0,267681.0
2026-04-08 21:52:58.776060,276818,1609504350962236,1950928518,0.944768,0.074176,0.02928,7.7175,-2.6425,-13.230001,-26.136002,20.032001,8.104,concentric,4,3.0,22933.0,149389.0,237024.0,286321.0,267681.0
2026-04-08 21:52:58.778730,276819,1609504350971135,1950937209,1.003328,0.05856,-0.035136,6.62375,-2.17,-13.4575,-26.008001,19.800001,6.992,concentric,4,3.0,22933.0,149389.0,237024.0,286321.0,267681.0
2026-04-08 21:52:58.784839,276820,1609504350980098,1950945874,1.003328,0.05856,-0.035136,10.4475,-1.54875,-13.448751,-26.008001,19.800001,6.992,concentric,4,3.0,22933.0,149389.0,237024.0,286321.0,267681.0
2026-04-08 21:52:58.787293,276821,1609504350994632,1950960977,1.00528,0.11712,-0.031232,13.99125,0.2625,-14.0,-26.536001,19.720001,7.176,concentric,4,3.0,22933.0,149389.0,237024.0,286321.0,267681.0
2026-04-08 21:52:58.789808,276822,1609504351003570,1950969674,1.00528,0.11712,-0.031232,13.011251,1.65375,-12.775,-26.536001,19.720001,7.176,concentric,4,3.0,22933.0,149389.0,237024.0,286321.0,267681.0
2026-04-08 21:52:58.792301,276823,1609504351018024,1950984581,0.895968,0.17568,-0.05856,11.33125,1.88125,-11.0075,-26.408,20.144001,8.016001,concentric,4,3.0,22933.0,149389.0,237024.0,286321.0,267681.0
2026-04-08 21:52:58.819834,276834,1609504351027181,1950993301,0.895968,0.17568,-0.089792,9.3625,2.1875,-9.44125,-26.408,20.144001,8.016001,concentric,4,3.0,22976.0,149362.0,236851.0,286129.0,267535.0
2026-04-08 21:52:58.822335,276835,1609504351041787,1951008276,0.974048,0.085888,-0.081984,2.9225,2.03875,-8.6275,-26.136002,19.44,7.496,concentric,4,3.0,22976.0,149362.0,236851.0,286129.0,267535.0
2026-04-08 21:52:58.824840,276836,1609504351050788,1951016971,0.972096,0.050752,-0.15616,-4.025,1.28625,-8.365,-26.856,19.528002,7.992001,concentric,4,3.0,22976.0,149362.0,236851.0,286129.0,267535.0
2026-04-08 21:52:58.831284,276837,1609504351059738,1951025643,0.972096,0.050752,-0.15616,-4.26125,1.4875,-8.8725,-26.856,19.528002,7.992001,concentric,4,3.0,22976.0,149362.0,236851.0,286129.0,267535.0
2026-04-08 21:52:58.861378,276838,1609504351074282,1951040515,1.046272,0.0488,-0.042944,0.5425,2.09125,-9.33625,-26.552002,19.264002,7.224001,concentric,4,3.0,22976.0,149362.0,236851.0,286129.0,267535.0
2026-04-08 21:52:58.864921,276839,1609504351083186,1951049153,1.046272,0.0488,-0.042944,7.72625,2.555,-9.86125,-26.552002,19.264002,7.224001,concentric,4,3.0,22976.0,149362.0,236851.0,286129.0,267535.0
2026-04-08 21:52:58.868622,276840,1609504351097632,1951064002,1.036512,0.12688,0.103456,16.8,2.59,-9.9925,-26.928001,19.216002,7.528,concentric,4,3.0,22976.0,149362.0,236851.0,286129.0,267535.0
2026-04-08 21:52:58.898796,276841,1609504351106543,1951072741,1.036512,0.12688,0.103456,22.12875,2.59,-9.24,-26.928001,19.216002,7.528,concentric,4,3.0,22976.0,149362.0,236851.0,286129.0,267535.0
2026-04-08 21:52:58.902489,276842,1609504351115456,1951081386,0.935008,0.177632,-0.109312,20.23,2.10875,-8.0675,-26.984001,19.064001,10.488001,concentric,4,3.0,22976.0,149362.0,236851.0,286129.0,267535.0
2026-04-08 21:52:58.929791,276853,1609504351130057,1951096310,1.011136,0.134688,0.085888,15.28625,1.4525,-6.755,-26.992,18.728,7.824,concentric,4,3.0,22966.0,149054.0,236522.0,285845.0,267342.0
2026-04-08 21:52:58.932281,276854,1609504351138999,1951105034,1.011136,0.134688,0.085888,8.365,1.14625,-5.74,-26.992,18.728,7.824,concentric,4,3.0,22966.0,149054.0,236522.0,285845.0,267342.0
2026-04-08 21:52:58.934794,276855,1609504351153544,1951119951,0.989664,0.066368,-0.162016,1.9425,1.02375,-5.565,-27.632002,19.168001,8.768001,concentric,4,3.0,22966.0,149054.0,236522.0,285845.0,267342.0
2026-04-08 21:52:58.937293,276856,1609504351162503,1951128672,0.989664,0.066368,-0.162016,1.89875,1.02375,-6.055,-27.632002,19.168001,8.768001,concentric,4,3.0,22966.0,149054.0,236522.0,285845.0,267342.0
2026-04-08 21:52:58.967569,276857,1609504351177006,1951143593,1.016992,0.111264,-0.173728,8.1375,1.53125,-6.44875,-27.320002,19.024,8.96,concentric,4,3.0,22966.0,149054.0,236522.0,285845.0,267342.0
2026-04-08 21:52:58.971069,276858,1609504351185917,1951152250,1.016992,0.111264,-0.173728,12.565,2.19625,-7.07,-27.320002,19.024,8.96,concentric,4,3.0,22966.0,149054.0,236522.0,285845.0,267342.0
2026-04-08 21:52:58.973577,276859,1609504351194808,1951160898,1.003328,0.154208,-0.163968,15.91625,3.12375,-6.9825,-27.008001,19.184,8.448,concentric,4,3.0,22966.0,149054.0,236522.0,285845.0,267342.0
2026-04-08 21:52:59.031355,276860,1609504351209322,1951175781,0.983808,0.201056,-0.003904,13.60625,4.13,-4.305,-27.472002,18.736,9.192,concentric,4,3.0,22966.0,149054.0,236522.0,285845.0,267342.0
2026-04-08 21:52:59.034915,276861,1609504351218271,1951184475,0.983808,0.201056,-0.003904,5.64375,4.62,-1.6275,-27.472002,18.736,9.192,concentric,4,3.0,22966.0,149054.0,236522.0,285845.0,267342.0
