pc_time,serial_num,sensor_ts,host_ts,ax,ay,az,gx,gy,gz,mx,my,mz,phase,rpe,weight_kg,ppg_a,ppg_b,ppg_c,ppg_d,ppg_e
2026-04-09 22:22:52.123644,375405,2302094652,2302096357,-1.040416,0.152256,0.023424,5.8625,4.31375,-1.3825,25.792002,-0.688,19.848001,inter_set_rest,6,5.0,20114.0,403431.0,217488.0,78854.0,6429.0
2026-04-09 22:22:52.153867,375406,2302103581,2302105056,-1.040416,0.152256,0.023424,5.4075,3.98125,-1.1375,25.792002,-0.688,19.848001,inter_set_rest,6,5.0,20114.0,403431.0,217488.0,78854.0,6429.0
2026-04-09 22:22:52.179829,375416,2302112582,2302113830,-1.071648,0.062464,0.001952,-3.6575,3.1325,-2.2925,26.216002,-0.608,19.448002,inter_set_rest,6,5.0,20092.0,403431.0,218155.0,79416.0,6642.0
2026-04-09 22:22:52.182422,375417,2302127164,2302128999,-1.071648,0.062464,0.001952,-9.35375,2.31875,-2.6425,26.216002,-0.608,19.448002,inter_set_rest,6,5.0,20092.0,403431.0,218155.0,79416.0,6642.0
2026-04-09 22:22:52.184977,375418,2302136265,2302137878,-1.071648,0.033184,0.011712,-6.335,2.275,-3.36875,26.488,-0.224,18.336,inter_set_rest,6,5.0,20092.0,403431.0,218155.0,79416.0,6642.0
2026-04-09 22:22:52.222780,375419,2302145223,2302146627,-1.071648,0.033184,0.011712,-1.14625,3.12375,-2.63375,26.488,-0.224,18.336,inter_set_rest,6,5.0,20092.0,403431.0,218155.0,79416.0,6642.0
2026-04-09 22:22:52.248830,375420,2302154210,2302155341,-1.042368,0.091744,0.017568,5.64375,4.15625,-2.59,25.728,-0.36,18.616001,inter_set_rest,6,5.0,20092.0,403431.0,218155.0,79416.0,6642.0
2026-04-09 22:22:52.251176,375421,2302168746,2302170290,-1.042368,0.091744,0.017568,8.19,4.45375,-2.87,25.728,-0.36,18.616001,inter_set_rest,6,5.0,20092.0,403431.0,218155.0,79416.0,6642.0
2026-04-09 22:22:52.253608,375422,2302177693,2302179079,-1.056032,0.103456,0.021472,8.95125,4.61125,-3.05375,26.288002,-1.12,18.696001,inter_set_rest,6,5.0,20092.0,403431.0,218155.0,79416.0,6642.0
2026-04-09 22:22:52.256069,375423,2302186604,2302187762,-1.056032,0.103456,0.021472,5.7225,5.22375,-3.64,26.288002,-1.12,18.696001,inter_set_rest,6,5.0,20092.0,403431.0,218155.0,79416.0,6642.0
2026-04-09 22:22:52.258771,375424,2302201109,2302202643,-1.042368,0.083936,0.013664,1.2425,4.76,-3.80625,26.096,-0.688,18.296001,inter_set_rest,6,5.0,20092.0,403431.0,218155.0,79416.0,6642.0
2026-04-09 22:22:52.261171,375425,2302210056,2302211373,-1.042368,0.083936,0.013664,-0.60375,4.66375,-3.84125,26.096,-0.688,18.296001,inter_set_rest,6,5.0,20092.0,403431.0,218155.0,79416.0,6642.0
2026-04-09 22:22:52.288600,375436,2302218991,2302220124,-1.056032,0.072224,0.005856,-0.06125,4.76,-4.12125,26.264002,-0.936,18.76,inter_set_rest,6,5.0,20056.0,403431.0,218942.0,80134.0,6918.0
2026-04-09 22:22:52.291198,375437,2302233636,2302235064,-1.06384,0.07808,0.001952,1.085,5.005,-4.17375,25.952002,-0.816,20.456001,inter_set_rest,6,5.0,20056.0,403431.0,218942.0,80134.0,6918.0
2026-04-09 22:22:52.293620,375438,2302242690,2302243867,-1.06384,0.07808,0.001952,2.45,5.43375,-3.7975,25.952002,-0.816,20.456001,inter_set_rest,6,5.0,20056.0,403431.0,218942.0,80134.0,6918.0
2026-04-09 22:22:52.296100,375439,2302251733,2302252572,-1.06384,0.07808,0.001952,3.61375,5.18,-4.375,25.952002,-0.816,20.456001,inter_set_rest,6,5.0,20056.0,403431.0,218942.0,80134.0,6918.0
2026-04-09 22:22:52.298656,375440,2302260691,2302261375,-1.059936,0.091744,0.003904,3.42125,5.32,-4.5325,25.776001,-0.664,19.592001,inter_set_rest,6,5.0,20056.0,403431.0,218942.0,80134.0,6918.0
2026-04-09 22:22:52.304871,375441,2302275772,2302276287,-1.08336,0.095648,0.033184,3.7975,5.29375,-4.24375,24.984001,-0.464,19.552,inter_set_rest,6,5.0,20056.0,403431.0,218942.0,80134.0,6918.0
2026-04-09 22:22:52.335164,375442,2302285170,2302287144,-1.08336,0.095648,0.033184,4.2875,5.36375,-4.5675,24.984001,-0.464,19.552,inter_set_rest,6,5.0,20056.0,403431.0,218942.0,80134.0,6918.0
2026-04-09 22:22:52.338631,375443,2302294130,2302295839,-1.069696,0.093696,0.035136,5.20625,4.97,-5.2675,25.976002,-0.96,18.216002,inter_set_rest,6,5.0,20056.0,403431.0,218942.0,80134.0,6918.0
2026-04-09 22:22:52.341198,375444,2302308621,2302310730,-1.069696,0.093696,0.035136,4.66375,5.3025,-5.32,25.976002,-0.96,18.216002,inter_set_rest,6,5.0,20056.0,403431.0,218942.0,80134.0,6918.0
2026-04-09 22:22:52.366067,375454,2302317667,2302319510,-1.057984,0.101504,0.017568,4.19125,5.95875,-5.97625,26.192001,-1.352,18.424002,inter_set_rest,6,5.0,19956.0,403431.0,219934.0,80759.0,7065.0
2026-04-09 22:22:52.368617,375455,2302326725,2302328271,-1.057984,0.101504,0.017568,2.10875,6.74625,-6.8425,26.192001,-1.352,18.424002,inter_set_rest,6,5.0,19956.0,403431.0,219934.0,80759.0,7065.0
2026-04-09 22:22:52.371104,375456,2302335671,2302336986,-1.095072,0.074176,-0.033184,0.11375,7.1925,-6.76375,25.688002,-0.776,19.392,inter_set_rest,6,5.0,19956.0,403431.0,219934.0,80759.0,7065.0
2026-04-09 22:22:52.401304,375457,2302350251,2302351970,-1.095072,0.074176,-0.033184,-2.30125,7.16625,-6.4225,25.688002,-0.776,19.392,inter_set_rest,6,5.0,19956.0,403431.0,219934.0,80759.0,7065.0
2026-04-09 22:22:52.404948,375458,2302359221,2302360747,-1.069696,0.060512,-0.021472,-1.42625,7.18375,-5.83625,26.080002,-0.904,17.568,inter_set_rest,6,5.0,19956.0,403431.0,219934.0,80759.0,7065.0
2026-04-09 22:22:52.407413,375459,2302368131,2302369452,-1.069696,0.060512,-0.021472,2.9925,6.5275,-5.985,26.080002,-0.904,17.568,inter_set_rest,6,5.0,19956.0,403431.0,219934.0,80759.0,7065.0
2026-04-09 22:22:52.412375,375460,2302382624,2302384388,-1.08336,0.091744,0.005856,5.6175,6.65,-6.125,25.832,-0.76,18.352001,inter_set_rest,6,5.0,19956.0,403431.0,219934.0,80759.0,7065.0
2026-04-09 22:22:52.442581,375461,2302391626,2302393098,-1.08336,0.091744,0.005856,5.8975,6.755,-6.7025,25.832,-0.76,18.352001,inter_set_rest,6,5.0,19956.0,403431.0,219934.0,80759.0,7065.0
2026-04-09 22:22:52.446155,375462,2302400554,2302401834,-1.075552,0.089792,0.01952,5.4425,6.0025,-7.35875,26.072,-0.736,17.472,inter_set_rest,6,5.0,19956.0,403431.0,219934.0,80759.0,7065.0
2026-04-09 22:22:52.482368,375472,2302415084,2302416808,-1.071648,0.08784,0.033184,3.8325,5.67,-8.04125,26.400002,-0.576,17.584002,inter_set_rest,6,5.0,19907.0,403431.0,220611.0,81257.0,7212.0
2026-04-09 22:22:52.484977,375473,2302424084,2302425560,-1.071648,0.08784,0.033184,3.94625,5.7925,-7.88375,26.400002,-0.576,17.584002,inter_set_rest,6,5.0,19907.0,403431.0,220611.0,81257.0,7212.0
2026-04-09 22:22:52.518940,375474,2302433060,2302434308,-1.0736,0.11712,0.040992,4.64625,5.7225,-8.5925,26.400002,-0.552,19.248001,inter_set_rest,6,5.0,19907.0,403431.0,220611.0,81257.0,7212.0
2026-04-09 22:22:52.522429,375475,2302441982,2302443060,-1.0736,0.11712,0.040992,4.5675,6.1075,-8.79375,25.760002,-0.552,19.248001,inter_set_rest,6,5.0,19907.0,403431.0,220611.0,81257.0,7212.0
2026-04-09 22:22:52.524919,375476,2302456563,2302457999,-1.081408,0.12688,0.042944,3.6925,6.1775,-9.63375,25.584002,-0.528,19.072,inter_set_rest,6,5.0,19907.0,403431.0,220611.0,81257.0,7212.0
2026-04-09 22:22:52.527511,375477,2302465488,2302466710,-1.081408,0.12688,0.042944,2.02125,6.475,-9.9225,25.584002,-0.528,19.072,inter_set_rest,6,5.0,19907.0,403431.0,220611.0,81257.0,7212.0
2026-04-09 22:22:52.529942,375478,2302474392,2302475433,-1.071648,0.091744,0.013664,-1.14625,6.43125,-9.93125,26.632002,-0.936,18.352001,inter_set_rest,6,5.0,19907.0,403431.0,220611.0,81257.0,7212.0
2026-04-09 22:22:52.534446,375479,2302488953,2302490347,-1.071648,0.091744,0.013664,-4.64625,5.845,-9.205,26.632002,-0.936,18.352001,inter_set_rest,6,5.0,19907.0,403431.0,220611.0,81257.0,7212.0
2026-04-09 22:22:52.534865,375480,2302497852,2302499034,-1.081408,0.040992,0.031232,-5.95,4.9875,-8.14625,26.704,-0.752,18.04,inter_set_rest,6,5.0,19907.0,403431.0,220611.0,81257.0,7212.0
2026-04-09 22:22:52.537428,375481,2302506762,2302507757,-1.081408,0.040992,0.031232,-3.43,4.24375,-7.665,26.704,-0.752,18.04,inter_set_rest,6,5.0,19907.0,403431.0,220611.0,81257.0,7212.0
2026-04-09 22:22:52.567382,375492,2302521440,2302523231,-1.069696,0.115168,0.056608,3.35125,3.815,-8.3825,25.472002,-0.384,18.792002,inter_set_rest,6,5.0,19895.0,403431.0,221053.0,81716.0,7445.0
2026-04-09 22:22:52.569955,375493,2302530465,2302531982,-1.069696,0.115168,0.056608,10.45625,3.2025,-9.3275,25.472002,-0.384,18.792002,inter_set_rest,6,5.0,19895.0,403431.0,221053.0,81716.0,7445.0
2026-04-09 22:22:52.572390,375494,2302539439,2302540689,-1.08336,0.177632,0.056608,12.635,3.40375,-9.135,25.248001,-0.424,19.648,inter_set_rest,6,5.0,19895.0,403431.0,221053.0,81716.0,7445.0
2026-04-09 22:22:52.576206,375495,2302548349,2302549431,-1.08336,0.177632,0.056608,8.89875,2.24875,-9.03,25.248001,-0.424,19.648,inter_set_rest,6,5.0,19895.0,403431.0,221053.0,81716.0,7445.0
2026-04-09 22:22:52.606477,375496,2302562818,2302564349,-1.08336,0.122976,0.050752,2.8175,1.2775,-9.17,26.848001,-0.368,18.800001,inter_set_rest,6,5.0,19895.0,403431.0,221053.0,81716.0,7445.0
2026-04-09 22:22:52.609998,375497,2302571730,2302573054,-1.08336,0.122976,0.050752,-1.54,0.14875,-9.555,26.848001,-0.368,18.800001,inter_set_rest,6,5.0,19895.0,403431.0,221053.0,81716.0,7445.0
2026-04-09 22:22:52.612429,375498,2302580691,2302581769,-1.067744,0.101504,0.054656,-3.07125,-1.25125,-9.10875,26.128002,0.08,20.936,inter_set_rest,6,5.0,19895.0,403431.0,221053.0,81716.0,7445.0
2026-04-09 22:22:52.642664,375499,2302595152,2302596682,-1.067744,0.076128,0.074176,-3.36,-2.10875,-8.155,25.04,-0.224,18.728,inter_set_rest,6,5.0,19895.0,403431.0,221053.0,81716.0,7445.0
2026-04-09 22:22:52.646171,375500,2302604074,2302605362,-1.067744,0.076128,0.074176,-1.68,-2.66875,-6.04625,25.04,-0.224,18.728,inter_set_rest,6,5.0,19895.0,403431.0,221053.0,81716.0,7445.0
2026-04-09 22:22:52.648684,375501,2302613029,2302614051,-1.067744,0.076128,0.042944,2.7825,-2.7825,-6.09,25.04,-0.224,18.728,inter_set_rest,6,5.0,19895.0,403431.0,221053.0,81716.0,7445.0
2026-04-09 22:22:52.682434,375511,2302627546,2302629010,-1.081408,0.109312,0.040992,3.4825,-3.03625,-7.14875,25.872002,-0.288,19.784,inter_set_rest,6,5.0,19788.0,403431.0,222252.0,82622.0,7759.0
2026-04-09 22:22:52.684938,375512,2302636448,2302637682,-1.071648,0.095648,0.017568,1.6975,-3.8325,-3.89375,26.016,-0.76,18.648,inter_set_rest,6,5.0,19788.0,403431.0,222252.0,82622.0,7759.0
2026-04-09 22:22:52.687447,375513,2302645454,2302646498,-1.071648,0.095648,0.017568,0.525,-4.48,-0.30625,26.016,-0.76,18.648,inter_set_rest,6,5.0,19788.0,403431.0,222252.0,82622.0,7759.0
2026-04-09 22:22:52.689972,375514,2302659959,2302661452,-1.067744,0.060512,0.021472,-0.58625,-4.73375,1.63625,26.032001,-0.68,19.488,inter_set_rest,6,5.0,19788.0,403431.0,222252.0,82622.0,7759.0
2026-04-09 22:22:52.720117,375515,2302668889,2302670190,-1.067744,0.060512,0.021472,-1.6625,-5.36375,2.1175,26.032001,-0.68,19.488,inter_set_rest,6,5.0,19788.0,403431.0,222252.0,82622.0,7759.0
2026-04-09 22:22:52.723644,375516,2302677789,2302678880,-1.046272,0.101504,0.050752,-1.4175,-5.1975,1.015,26.240002,-0.96,18.896002,inter_set_rest,6,5.0,19788.0,403431.0,222252.0,82622.0,7759.0
2026-04-09 22:22:52.726183,375517,2302686698,2302687565,-1.046272,0.101504,0.050752,-1.4525,-4.80375,4.01625,26.240002,-0.96,18.896002,inter_set_rest,6,5.0,19788.0,403431.0,222252.0,82622.0,7759.0
2026-04-09 22:22:52.728716,375518,2302701183,2302702500,-1.061888,0.109312,0.046848,-0.1225,-4.585,3.61375,26.368002,-0.84,18.672,inter_set_rest,6,5.0,19788.0,403431.0,222252.0,82622.0,7759.0
2026-04-09 22:22:52.758936,375519,2302710176,2302711208,-1.061888,0.109312,0.046848,-4.7775,-4.935,1.98625,26.368002,-0.84,18.672,inter_set_rest,6,5.0,19788.0,403431.0,222252.0,82622.0,7759.0
2026-04-09 22:22:52.818976,375529,2302719250,2302720216,-1.056032,0.076128,0.013664,-7.735,-5.4075,3.03625,26.656002,-0.328,18.944,concentric,6,5.0,19803.0,403431.0,222139.0,82590.0,7772.0
2026-04-09 22:22:52.822467,375530,2302733753,2302735151,-1.056032,0.044896,0.00976,-10.03625,-4.90875,5.73125,26.656002,-0.328,18.944,concentric,6,5.0,19803.0,403431.0,222139.0,82590.0,7772.0
2026-04-09 22:22:52.824975,375531,2302742732,2302743879,-1.077504,0.03904,0.00976,-10.185,-5.46875,6.0375,26.680002,-0.872,18.76,concentric,6,5.0,19803.0,403431.0,222139.0,82590.0,7772.0
2026-04-09 22:22:52.827479,375532,2302751656,2302752618,-1.077504,0.03904,0.00976,-7.88375,-6.06375,5.145,26.680002,-0.872,18.76,concentric,6,5.0,19803.0,403431.0,222139.0,82590.0,7772.0
2026-04-09 22:22:52.832333,375533,2302766168,2302767528,-1.075552,0.093696,0.001952,-4.0425,-6.04625,5.52125,25.696001,-1.256,20.160002,concentric,6,5.0,19803.0,403431.0,222139.0,82590.0,7772.0
2026-04-09 22:22:52.834664,375534,2302775095,2302776227,-1.110688,0.089792,0.021472,-1.67125,-5.0925,6.965,26.608002,-1.104,17.112001,concentric,6,5.0,19803.0,403431.0,222139.0,82590.0,7772.0
2026-04-09 22:22:52.835507,375535,2302783983,2302784914,-1.110688,0.089792,0.021472,-1.0325,-5.075,7.0875,26.608002,-1.104,17.112001,concentric,6,5.0,19803.0,403431.0,222139.0,82590.0,7772.0
2026-04-09 22:22:52.837431,375536,2302798456,2302799838,-1.136064,0.011712,0.02928,-3.14125,-5.04875,8.02375,26.560001,-1.168,19.12,concentric,6,5.0,19803.0,403431.0,222139.0,82590.0,7772.0
2026-04-09 22:22:52.839943,375537,2302807415,2302808556,-1.136064,0.011712,0.02928,-5.64375,-6.02875,9.40625,26.560001,-1.168,19.12,concentric,6,5.0,19803.0,403431.0,222139.0,82590.0,7772.0
2026-04-09 22:22:52.868614,375548,2302816402,2302817217,-1.130208,-0.017568,0.035136,-6.67625,-6.2825,13.055,26.560001,-1.888,19.712002,concentric,6,5.0,19904.0,403431.0,220971.0,81966.0,7673.0
2026-04-09 22:22:52.871227,375549,2302825440,2302825995,-1.130208,-0.017568,0.035136,-4.5675,-6.1425,15.67125,26.560001,-1.888,19.712002,concentric,6,5.0,19904.0,403431.0,220971.0,81966.0,7673.0
2026-04-09 22:22:52.873697,375550,2302840470,2302840933,-1.118496,0.015616,0.021472,-0.34125,-3.94625,17.745,25.864,-1.72,20.44,concentric,6,5.0,19904.0,403431.0,220971.0,81966.0,7673.0
2026-04-09 22:22:52.880034,375551,2302849818,2302851733,-1.118496,0.015616,0.021472,6.65,-2.47625,19.92375,25.864,-1.72,20.44,concentric,6,5.0,19904.0,403431.0,220971.0,81966.0,7673.0
2026-04-09 22:22:52.912207,375552,2302858779,2302860428,-1.163392,0.10736,0.027328,10.07125,-1.1725,19.85375,26.264002,-1.824,19.752,concentric,6,5.0,19904.0,403431.0,220971.0,81966.0,7673.0
2026-04-09 22:22:52.913950,375553,2302873294,2302875380,-1.163392,0.10736,0.027328,8.1025,-0.13125,19.495,26.264002,-1.824,19.752,concentric,6,5.0,19904.0,403431.0,220971.0,81966.0,7673.0
2026-04-09 22:22:52.916066,375554,2302882202,2302884073,-1.159488,0.099552,0.011712,3.85,0.42,19.678751,26.680002,-2.24,18.936,concentric,6,5.0,19904.0,403431.0,220971.0,81966.0,7673.0
2026-04-09 22:22:52.919978,375555,2302891127,2302892778,-1.159488,0.099552,0.011712,-5.7225,0.8925,19.705,26.680002,-2.24,18.936,concentric,6,5.0,19904.0,403431.0,220971.0,81966.0,7673.0
2026-04-09 22:22:52.953628,375556,2302900127,2302901504,-1.147776,0.025376,0.01952,-12.565,1.04125,19.53875,25.328001,-2.96,20.992,concentric,6,5.0,19904.0,403431.0,220971.0,81966.0,7673.0
2026-04-09 22:22:52.958938,375557,2302914714,2302916428,-1.116544,0.050752,0.035136,-10.92875,2.1175,19.460001,25.328001,-2.96,18.944,concentric,6,5.0,19904.0,403431.0,220971.0,81966.0,7673.0
2026-04-09 22:22:52.984697,375567,2302923639,2302925158,-1.114592,0.050752,0.035136,-6.895,3.325,18.97,26.424002,-2.896,19.064001,concentric,6,5.0,20008.0,403431.0,219909.0,81515.0,7710.0
2026-04-09 22:22:52.986426,375568,2302932645,2302933881,-1.114592,0.050752,0.035136,0.4725,4.41,18.69875,26.424002,-2.896,19.064001,concentric,6,5.0,20008.0,403431.0,219909.0,81515.0,7710.0
2026-04-09 22:22:52.991282,375569,2302947155,2302948844,-1.120448,0.124928,0.027328,5.41625,5.215,17.56125,24.992,-3.728,20.976002,concentric,6,5.0,20008.0,403431.0,219909.0,81515.0,7710.0
2026-04-09 22:22:52.995109,375570,2302956099,2302957549,-1.128256,0.093696,0.037088,4.66375,5.50375,16.26625,25.312,-3.192,20.784,concentric,6,5.0,20008.0,403431.0,219909.0,81515.0,7710.0
2026-04-09 22:22:52.995978,375571,2302965103,2302966245,-1.128256,0.093696,0.037088,0.1575,5.7225,15.96,25.312,-3.192,20.784,concentric,6,5.0,20008.0,403431.0,219909.0,81515.0,7710.0
2026-04-09 22:22:53.023978,375572,2302979667,2302981240,-1.100928,0.056608,0.031232,-3.675,5.43375,15.56625,26.376001,-3.824,19.216002,concentric,6,5.0,20008.0,403431.0,219909.0,81515.0,7710.0
2026-04-09 22:22:53.027486,375573,2302988610,2302989952,-1.100928,0.056608,0.031232,-7.735,5.25,15.1725,26.376001,-3.824,19.216002,concentric,6,5.0,20008.0,403431.0,219909.0,81515.0,7710.0
2026-04-09 22:22:53.029943,375574,2302997556,2302998685,-1.097024,0.095648,0.02928,-8.86375,5.22375,15.295,26.632002,-4.2,19.12,concentric,6,5.0,20008.0,403431.0,219909.0,81515.0,7710.0
2026-04-09 22:22:53.035007,375575,2303006573,2303007369,-1.097024,0.095648,0.02928,-4.27,5.8975,15.25125,26.632002,-4.2,19.12,concentric,6,5.0,20008.0,403431.0,219909.0,81515.0,7710.0
2026-04-09 22:22:53.120253,375585,2303021242,2303022394,-1.118496,0.169824,0.050752,-0.35875,7.09625,14.67375,26.488,-4.376,20.04,concentric,6,5.0,20004.0,403431.0,219687.0,81382.0,7664.0
2026-04-09 22:22:53.123722,375586,2303030200,2303031098,-1.118496,0.169824,0.050752,-0.4375,8.085,13.0375,26.488,-4.376,20.04,concentric,6,5.0,20004.0,403431.0,219687.0,81382.0,7664.0
2026-04-09 22:22:53.126250,375587,2303039167,2303039795,-1.186816,0.134688,0.052704,-2.82625,8.6625,10.22,26.088001,-4.792,18.944,concentric,6,5.0,20004.0,403431.0,219687.0,81382.0,7664.0
2026-04-09 22:22:53.128757,375588,2303054028,2303054716,-1.186816,0.134688,0.052704,-8.89,8.8025,7.58625,26.088001,-4.792,18.944,concentric,6,5.0,20004.0,403431.0,219687.0,81382.0,7664.0
2026-04-09 22:22:53.131212,375589,2303063401,2303065511,-1.18096,0.10736,0.046848,-16.765,8.54875,7.04375,25.512001,-4.88,20.032001,concentric,6,5.0,20004.0,403431.0,219687.0,81382.0,7664.0
2026-04-09 22:22:53.133686,375590,2303072348,2303074282,-1.18096,0.10736,0.046848,-18.83,8.86375,6.265,25.512001,-4.88,20.032001,concentric,6,5.0,20004.0,403431.0,219687.0,81382.0,7664.0
2026-04-09 22:22:53.136170,375591,2303081295,2303082968,-1.138016,0.083936,0.00976,-15.11125,8.33,3.59625,25.880001,-4.936,18.728,concentric,6,5.0,20004.0,403431.0,219687.0,81382.0,7664.0
2026-04-09 22:22:53.138660,375592,2303095777,2303097852,-1.15168,0.154208,0.03904,-10.1325,8.95125,1.8375,25.880001,-4.952,19.008001,concentric,6,5.0,20004.0,403431.0,219687.0,81382.0,7664.0
2026-04-09 22:22:53.141152,375593,2303104907,2303106616,-1.15168,0.154208,0.03904,-7.76125,8.86375,1.9075,26.024002,-4.952,19.008001,concentric,6,5.0,20004.0,403431.0,219687.0,81382.0,7664.0
2026-04-09 22:22:53.143672,375594,2303113859,2303115315,-1.15168,0.154208,0.03904,-6.1775,9.31,0.9275,26.024002,-4.952,19.008001,concentric,6,5.0,20004.0,403431.0,219687.0,81382.0,7664.0
2026-04-09 22:22:53.176150,375605,2303128565,2303130287,-1.147776,0.134688,0.033184,-7.7525,9.35375,-1.39125,25.432001,-5.472,17.336,concentric,6,5.0,19997.0,403431.0,220257.0,81867.0,7837.0
2026-04-09 22:22:53.178659,375606,2303137605,2303139011,-1.098976,0.113216,0.046848,-11.025,8.70625,-3.08875,26.024002,-5.464,18.424002,concentric,6,5.0,19997.0,403431.0,220257.0,81867.0,7837.0
2026-04-09 22:22:53.181139,375607,2303146520,2303147751,-1.098976,0.113216,0.046848,-12.32,7.8925,-3.7975,26.024002,-5.464,18.424002,concentric,6,5.0,19997.0,403431.0,220257.0,81867.0,7837.0
2026-04-09 22:22:53.184886,375608,2303155406,2303156504,-1.098976,0.081984,0.040992,-11.5325,7.5775,-4.15625,26.024002,-5.464,18.424002,concentric,6,5.0,19997.0,403431.0,220257.0,81867.0,7837.0
2026-04-09 22:22:53.215091,375609,2303169892,2303171497,-1.091168,0.091744,0.040992,-8.68875,7.09625,-3.43,25.624,-5.4,18.712002,concentric,6,5.0,19997.0,403431.0,220257.0,81867.0,7837.0
2026-04-09 22:22:53.218763,375610,2303178809,2303180223,-1.09312,0.093696,0.033184,-6.76375,6.60625,-4.1475,24.856,-5.608,18.408,concentric,6,5.0,19997.0,403431.0,220257.0,81867.0,7837.0
2026-04-09 22:22:53.222033,375611,2303187699,2303188915,-1.09312,0.093696,0.033184,-7.06125,5.24125,-6.16875,24.856,-5.608,18.408,concentric,6,5.0,19997.0,403431.0,220257.0,81867.0,7837.0
2026-04-09 22:22:53.252259,375612,2303202232,2303203808,-1.08336,0.10736,-0.02928,-7.3325,3.66625,-7.21,25.232,-5.768,18.112001,concentric,6,5.0,19997.0,403431.0,220257.0,81867.0,7837.0
2026-04-09 22:22:53.254622,375613,2303211165,2303212518,-1.08336,0.10736,-0.02928,-6.99125,3.5175,-6.6675,25.232,-5.768,18.112001,concentric,6,5.0,19997.0,403431.0,220257.0,81867.0,7837.0
2026-04-09 22:22:53.280942,375623,2303220578,2303221297,-1.10288,0.10736,0.031232,-3.56125,2.72125,-7.70875,24.832,-6.04,17.912,concentric,6,5.0,20161.0,403431.0,218234.0,80237.0,7202.0
2026-04-09 22:22:53.282493,375624,2303235591,2303236291,-1.10288,0.10736,0.093696,-1.1725,2.8,-10.6225,24.832,-6.04,17.912,concentric,6,5.0,20161.0,403431.0,218234.0,80237.0,7202.0
2026-04-09 22:22:53.286764,375625,2303244971,2303247178,-1.0736,0.134688,0.0976,1.7325,2.3625,-11.33125,23.752,-6.28,17.224,concentric,6,5.0,20161.0,403431.0,218234.0,80237.0,7202.0
2026-04-09 22:22:53.289133,375626,2303253909,2303255898,-1.0736,0.134688,0.0976,3.78875,1.46125,-12.52125,23.752,-6.28,17.224,concentric,6,5.0,20161.0,403431.0,218234.0,80237.0,7202.0
2026-04-09 22:22:53.293316,375627,2303262891,2303264641,-1.077504,0.119072,0.0,-1.65375,0.86625,-14.533751,23.568,-6.368001,19.12,concentric,6,5.0,20161.0,403431.0,218234.0,80237.0,7202.0
2026-04-09 22:22:53.328076,375628,2303277385,2303279585,-1.116544,0.103456,-0.01952,-5.78375,0.8925,-13.57125,24.688002,-5.76,17.808,concentric,6,5.0,20161.0,403431.0,218234.0,80237.0,7202.0
2026-04-09 22:22:53.329732,375629,2303286298,2303288273,-1.116544,0.103456,-0.01952,-4.71625,1.8725,-12.94125,24.688002,-5.76,17.808,concentric,6,5.0,20161.0,403431.0,218234.0,80237.0,7202.0
2026-04-09 22:22:53.331251,375630,2303295170,2303296967,-1.116544,0.103456,-0.01952,-2.28375,3.43,-12.43375,24.688002,-5.76,17.808,concentric,6,5.0,20161.0,403431.0,218234.0,80237.0,7202.0
2026-04-09 22:22:53.341611,375631,2303309744,2303311889,-1.106784,0.158112,0.05856,0.58625,3.2725,-16.26625,23.912,-6.248,17.08,concentric,6,5.0,20161.0,403431.0,218234.0,80237.0,7202.0
2026-04-09 22:22:53.427208,375641,2303318714,2303320634,-1.116544,0.197152,0.035136,4.33125,3.8675,-23.03875,24.168001,-6.088,18.024,concentric,6,5.0,19977.0,403431.0,219932.0,80999.0,7194.0
2026-04-09 22:22:53.429731,375642,2303328173,2303329332,-1.116544,0.197152,0.035136,2.8875,5.355,-27.23875,24.168001,-6.088,18.024,concentric,6,5.0,19977.0,403431.0,219932.0,80999.0,7194.0
2026-04-09 22:22:53.431178,375643,2303337084,2303338046,-1.188768,0.103456,0.031232,-2.63375,5.66125,-31.57875,23.944,-6.24,17.464,concentric,6,5.0,19977.0,403431.0,219932.0,80999.0,7194.0
2026-04-09 22:22:53.435501,375644,2303351717,2303352958,-1.188768,0.103456,0.031232,-10.57,6.60625,-35.69125,23.944,-6.24,17.464,concentric,6,5.0,19977.0,403431.0,219932.0,80999.0,7194.0
2026-04-09 22:22:53.437166,375645,2303360622,2303361765,-1.186816,0.10736,0.011712,-11.3225,8.58375,-34.11625,23.064001,-6.16,18.568,concentric,6,5.0,19977.0,403431.0,219932.0,80999.0,7194.0
2026-04-09 22:22:53.438760,375646,2303369524,2303370514,-1.186816,0.10736,0.011712,-7.1575,10.3075,-33.04,23.064001,-6.16,18.568,concentric,6,5.0,19977.0,403431.0,219932.0,80999.0,7194.0
2026-04-09 22:22:53.443058,375647,2303384085,2303385444,-1.139968,0.191296,0.021472,-1.1725,12.64375,-36.5225,23.576,-5.888001,19.416,concentric,6,5.0,19977.0,403431.0,219932.0,80999.0,7194.0
2026-04-09 22:22:53.444660,375648,2303392997,2303394138,-1.139968,0.191296,0.021472,1.23375,13.9125,-40.08375,23.576,-5.888001,19.416,concentric,6,5.0,19977.0,403431.0,219932.0,80999.0,7194.0
2026-04-09 22:22:53.446221,375649,2303401951,2303402891,-1.194624,0.154208,0.042944,-1.085,15.33,-43.77625,23.128,-5.864,17.480001,concentric,6,5.0,19977.0,403431.0,219932.0,80999.0,7194.0
2026-04-09 22:22:53.448780,375650,2303416505,2303417878,-1.194624,0.10736,0.007808,-5.4425,15.61875,-46.40125,23.128,-5.864,17.480001,concentric,6,5.0,19977.0,403431.0,219932.0,80999.0,7194.0
2026-04-09 22:22:53.511541,375661,2303425532,2303426681,-1.214144,0.101504,0.007808,-5.9675,16.5375,-47.6525,22.088001,-5.064,20.0,concentric,6,5.0,19812.0,403431.0,221938.0,82412.0,7661.0
2026-04-09 22:22:53.515086,375662,2303434549,2303435397,-1.214144,0.101504,0.007808,-1.35625,17.57875,-48.545002,22.088001,-5.064,20.0,concentric,6,5.0,19812.0,403431.0,221938.0,82412.0,7661.0
2026-04-09 22:22:53.517495,375663,2303443584,2303444226,-1.194624,0.187392,0.03904,0.46375,17.955,-48.48375,22.68,-4.808,17.68,concentric,6,5.0,19812.0,403431.0,221938.0,82412.0,7661.0
2026-04-09 22:22:53.519988,375664,2303458512,2303459162,-1.188768,0.115168,-0.005856,-2.17,18.025,-50.89875,23.28,-4.92,16.856,concentric,6,5.0,19812.0,403431.0,221938.0,82412.0,7661.0
2026-04-09 22:22:53.522507,375665,2303467791,2303469938,-1.188768,0.115168,-0.005856,-8.855001,17.9025,-54.7575,23.28,-4.92,16.856,concentric,6,5.0,19812.0,403431.0,221938.0,82412.0,7661.0
2026-04-09 22:22:53.527471,375666,2303476698,2303478670,-1.188768,0.115168,0.052704,-10.3775,18.19125,-57.3125,23.28,-4.92,16.856,concentric,6,5.0,19812.0,403431.0,221938.0,82412.0,7661.0
2026-04-09 22:22:53.529988,375667,2303485628,2303487388,-1.18096,0.052704,0.052704,-8.785,17.885,-57.3125,22.632002,-4.888,16.672,concentric,6,5.0,19812.0,403431.0,221938.0,82412.0,7661.0
2026-04-09 22:22:53.532469,375668,2303500131,2303502336,-1.1224,0.167872,-0.05856,-6.11625,17.54375,-54.46,22.104002,-4.384,16.36,concentric,6,5.0,19812.0,403431.0,221938.0,82412.0,7661.0
2026-04-09 22:22:53.538728,375669,2303509054,2303511049,-1.1224,0.167872,-0.05856,-4.13,16.8175,-54.5125,22.104002,-4.384,16.36,concentric,6,5.0,19812.0,403431.0,221938.0,82412.0,7661.0
2026-04-09 22:22:53.568997,375670,2303518039,2303519749,-1.139968,0.119072,-0.062464,-3.05375,16.7825,-56.30625,20.456001,-4.2,17.592001,concentric,6,5.0,19812.0,403431.0,221938.0,82412.0,7661.0
2026-04-09 22:22:53.594983,375680,2303532555,2303534715,-1.139968,0.119072,-0.062464,-2.89625,17.07125,-57.82875,20.456001,-4.2,17.592001,concentric,6,5.0,19879.0,403431.0,221328.0,82250.0,7731.0
2026-04-09 22:22:53.597443,375681,2303541465,2303543407,-1.173152,0.076128,0.035136,-5.94125,16.2225,-59.7975,21.256,-4.328,16.184,concentric,6,5.0,19879.0,403431.0,221328.0,82250.0,7731.0
2026-04-09 22:22:53.599937,375682,2303550480,2303552139,-1.173152,0.076128,0.035136,-2.19625,17.42125,-58.8875,21.256,-4.328,16.184,concentric,6,5.0,19879.0,403431.0,221328.0,82250.0,7731.0
2026-04-09 22:22:53.602447,375683,2303565009,2303567084,-1.065792,0.076128,0.066368,3.64,18.3225,-58.87,21.336,-4.04,13.8,concentric,6,5.0,19879.0,403431.0,221328.0,82250.0,7731.0
2026-04-09 22:22:53.604994,375684,2303573947,2303575798,-1.065792,0.076128,0.066368,-2.2225,18.0775,-60.99625,21.336,-4.04,13.8,concentric,6,5.0,19879.0,403431.0,221328.0,82250.0,7731.0
2026-04-09 22:22:53.611288,375685,2303582901,2303584486,-1.091168,0.0976,-0.093696,-8.74125,18.095,-60.515,20.68,-3.488,15.544001,concentric,6,5.0,19879.0,403431.0,221328.0,82250.0,7731.0
2026-04-09 22:22:53.641357,375686,2303597376,2303599399,-1.091168,0.089792,-0.042944,-6.1425,18.45375,-60.05125,20.68,-3.488,15.544001,concentric,6,5.0,19879.0,403431.0,221328.0,82250.0,7731.0
2026-04-09 22:22:53.644974,375687,2303606290,2303608095,-1.097024,0.089792,-0.042944,-1.02375,19.7225,-60.322502,21.016,-3.376,12.848001,concentric,6,5.0,19879.0,403431.0,221328.0,82250.0,7731.0
2026-04-09 22:22:53.647508,375688,2303615203,2303616778,-1.097024,0.089792,-0.042944,1.11125,20.22125,-60.541252,21.016,-3.376,12.848001,concentric,6,5.0,19879.0,403431.0,221328.0,82250.0,7731.0
2026-04-09 22:22:53.676167,375698,2303624539,2303625604,-1.124352,0.0488,-0.076128,-0.98875,20.58875,-61.11875,20.192001,-3.112,15.744,concentric,6,5.0,19962.0,403431.0,220215.0,81702.0,7705.0
2026-04-09 22:22:53.678762,375699,2303639094,2303640574,-1.126304,-0.013664,-0.085888,-2.00375,20.0025,-61.4775,19.928001,-2.848,15.264001,concentric,6,5.0,19962.0,403431.0,220215.0,81702.0,7705.0
2026-04-09 22:22:53.681169,375700,2303648048,2303649306,-1.126304,-0.013664,-0.085888,-0.90125,16.3275,-59.42125,19.928001,-2.848,15.264001,concentric,6,5.0,19962.0,403431.0,220215.0,81702.0,7705.0
2026-04-09 22:22:53.686265,375701,2303657011,2303658035,-1.126304,-0.013664,-0.085888,-0.0175,11.8125,-55.83375,19.928001,-2.848,15.264001,concentric,6,5.0,19962.0,403431.0,220215.0,81702.0,7705.0
2026-04-09 22:22:53.722706,375702,2303671519,2303672970,-1.056032,-0.056608,-0.080032,3.5875,8.81125,-55.58875,19.192001,-2.504,15.408001,concentric,6,5.0,19962.0,403431.0,220215.0,81702.0,7705.0
2026-04-09 22:22:53.735072,375703,2303680453,2303681661,-1.14192,0.064416,-0.07808,8.46125,8.42625,-53.22625,19.384,-2.344,14.792001,concentric,6,5.0,19962.0,403431.0,220215.0,81702.0,7705.0
2026-04-09 22:22:53.737537,375704,2303689361,2303690353,-1.14192,0.064416,-0.07808,17.2025,8.9075,-48.53625,19.384,-2.344,14.792001,concentric,6,5.0,19962.0,403431.0,220215.0,81702.0,7705.0
2026-04-09 22:22:53.739923,375705,2303703844,2303705249,-1.108736,0.0488,0.007808,20.53625,8.9775,-49.175,19.448002,-1.592,14.968,concentric,6,5.0,19962.0,403431.0,220215.0,81702.0,7705.0
2026-04-09 22:22:53.742434,375706,2303712921,2303713887,-1.108736,0.0488,0.007808,14.21875,9.4325,-52.89375,19.448002,-1.592,14.968,concentric,6,5.0,19962.0,403431.0,220215.0,81702.0,7705.0
2026-04-09 22:22:53.798865,375717,2303722374,2303724708,-1.040416,-0.08784,-0.035136,7.0175,8.68,-52.482502,18.856,-1.544,15.408001,concentric,6,5.0,19935.0,403431.0,219720.0,81457.0,7674.0
2026-04-09 22:22:53.801225,375718,2303731322,2303733422,-1.040416,-0.08784,-0.035136,0.4375,6.4575,-49.83125,18.856,-1.544,15.408001,concentric,6,5.0,19935.0,403431.0,219720.0,81457.0,7674.0
2026-04-09 22:22:53.803749,375719,2303745835,2303746247,-1.08336,-0.081984,-0.148352,-5.495,5.0925,-45.00125,18.568,-1.648,15.000001,concentric,6,5.0,19935.0,403431.0,219720.0,81457.0,7674.0
2026-04-09 22:22:53.806176,375720,2303755157,2303757091,-1.08336,-0.081984,-0.148352,-2.68625,2.59,-44.826252,18.568,-1.648,15.000001,concentric,6,5.0,19935.0,403431.0,219720.0,81457.0,7674.0
2026-04-09 22:22:53.808706,375721,2303764191,2303765841,-1.013088,-0.0976,-0.013664,7.55125,3.29,-45.08875,18.712002,-1.688,14.504001,concentric,6,5.0,19935.0,403431.0,219720.0,81457.0,7674.0
2026-04-09 22:22:53.811249,375722,2303778721,2303780784,-1.042368,-0.01952,0.031232,13.405,4.50625,-45.185,18.560001,-1.496,12.448001,concentric,6,5.0,19935.0,403431.0,219720.0,81457.0,7674.0
2026-04-09 22:22:53.817611,375723,2303787663,2303789484,-1.042368,-0.01952,0.031232,16.72125,6.545,-44.31875,18.560001,-1.496,12.448001,concentric,6,5.0,19935.0,403431.0,219720.0,81457.0,7674.0
2026-04-09 22:22:53.847830,375724,2303796590,2303798220,-1.042368,-0.01952,0.031232,22.2075,10.01875,-45.03625,18.560001,-1.496,12.448001,concentric,6,5.0,19935.0,403431.0,219720.0,81457.0,7674.0
2026-04-09 22:22:53.851346,375725,2303805533,2303806952,-0.983808,-0.00976,0.01952,20.02,14.58625,-45.77125,17.048,-1.544,15.136001,concentric,6,5.0,19935.0,403431.0,219720.0,81457.0,7674.0
2026-04-09 22:22:53.853706,375726,2303820043,2303821858,-1.01504,-0.169824,-0.115168,6.65,15.61875,-48.055,18.640001,-1.336,14.528001,concentric,6,5.0,19935.0,403431.0,219720.0,81457.0,7674.0
2026-04-09 22:22:53.882505,375736,2303828971,2303830590,-1.01504,-0.169824,-0.115168,-6.86,13.72875,-49.35,18.640001,-1.336,14.528001,concentric,6,5.0,19969.0,403431.0,218996.0,80967.0,7552.0
2026-04-09 22:22:53.885091,375737,2303837969,2303839346,-1.01504,-0.169824,-0.115168,-8.715,11.6375,-50.19875,18.640001,-1.336,14.528001,concentric,6,5.0,19969.0,403431.0,218996.0,80967.0,7552.0
2026-04-09 22:22:53.887733,375738,2303852576,2303854308,-0.890112,-0.122976,-0.031232,7.525,12.5475,-49.0,18.096,-0.176,15.616001,concentric,6,5.0,19969.0,403431.0,218996.0,80967.0,7552.0
2026-04-09 22:22:53.891276,375739,2303861504,2303863035,-0.950624,-0.105408,-0.03904,25.43625,15.14625,-45.9725,16.880001,0.128,14.704,concentric,6,5.0,19969.0,403431.0,218996.0,80967.0,7552.0
2026-04-09 22:22:53.921522,375740,2303870521,2303871781,-0.950624,-0.105408,-0.03904,27.0375,14.4025,-44.555,16.880001,0.128,14.704,concentric,6,5.0,19969.0,403431.0,218996.0,80967.0,7552.0
2026-04-09 22:22:53.925011,375741,2303885013,2303886726,-0.909632,-0.128832,-0.101504,19.635,12.7575,-43.04125,17.896,-0.2,14.296001,concentric,6,5.0,19969.0,403431.0,218996.0,80967.0,7552.0
2026-04-09 22:22:53.927605,375742,2303893908,2303895419,-0.909632,-0.128832,-0.101504,14.761251,10.61375,-42.98875,17.896,-0.2,14.296001,concentric,6,5.0,19969.0,403431.0,218996.0,80967.0,7552.0
2026-04-09 22:22:53.932518,375743,2303902890,2303904129,-0.870592,-0.150304,-0.16592,10.40375,6.5975,-42.84,17.456001,-0.72,14.032001,concentric,6,5.0,19969.0,403431.0,218996.0,80967.0,7552.0
2026-04-09 22:22:53.962818,375744,2303911831,2303912849,-0.870592,-0.150304,-0.16592,13.615,1.5925,-38.0275,17.456001,-0.72,14.032001,concentric,6,5.0,19969.0,403431.0,218996.0,80967.0,7552.0
2026-04-09 22:22:54.023745,375754,2303926472,2303927748,-0.831552,-0.152256,0.074176,21.20125,-2.19625,-35.175,17.224,0.096,13.904,concentric,6,5.0,19967.0,403431.0,218501.0,80591.0,7448.0
2026-04-09 22:22:54.026251,375755,2303935463,2303936549,-0.831552,-0.152256,0.074176,30.73875,-0.2625,-36.21625,17.224,0.096,13.904,concentric,6,5.0,19967.0,403431.0,218501.0,80591.0,7448.0
2026-04-09 22:22:54.028778,375756,2303944405,2303945261,-0.915488,-0.056608,0.027328,32.655,3.5,-30.09125,17.352001,-0.016,14.672001,concentric,6,5.0,19967.0,403431.0,218501.0,80591.0,7448.0
2026-04-09 22:22:54.033102,375757,2303958967,2303960233,-0.915488,-0.122976,-0.093696,23.616251,6.37,-28.25375,17.352001,-0.016,12.624001,concentric,6,5.0,19967.0,403431.0,218501.0,80591.0,7448.0
2026-04-09 22:22:54.035425,375758,2303967984,2303969072,-0.841312,-0.122976,-0.093696,12.3375,7.83125,-31.38625,16.704,0.24,13.432001,concentric,6,5.0,19967.0,403431.0,218501.0,80591.0,7448.0
2026-04-09 22:22:54.036379,375759,2303976916,2303977750,-0.841312,-0.122976,-0.093696,-0.105,5.45125,-32.9,16.704,0.24,13.432001,concentric,6,5.0,19967.0,403431.0,218501.0,80591.0,7448.0
2026-04-09 22:22:54.042474,375760,2303991405,2303992679,-0.847168,-0.23424,-0.06832,-2.12625,1.5925,-34.125,16.808,0.296,13.288001,concentric,6,5.0,19967.0,403431.0,218501.0,80591.0,7448.0
2026-04-09 22:22:54.045037,375761,2304000350,2304001405,-0.862784,-0.162016,-0.02928,10.386251,0.0175,-26.7225,16.312,1.16,16.144001,concentric,6,5.0,19967.0,403431.0,218501.0,80591.0,7448.0
2026-04-09 22:22:54.047491,375762,2304009289,2304010177,-0.862784,-0.162016,-0.02928,28.0,0.35875,-17.73625,16.312,1.16,16.144001,concentric,6,5.0,19967.0,403431.0,218501.0,80591.0,7448.0
2026-04-09 22:22:54.074941,375773,2304024403,2304025269,-0.778848,-0.181536,0.115168,32.2,1.4,-17.0975,17.024,1.216,13.872001,concentric,6,5.0,20067.0,403431.0,217144.0,79446.0,7024.0
2026-04-09 22:22:54.077557,375774,2304033604,2304034087,-0.778848,-0.181536,0.115168,26.53875,5.92375,-19.3025,17.024,1.216,13.872001,concentric,6,5.0,20067.0,403431.0,217144.0,79446.0,7024.0
2026-04-09 22:22:54.080031,375775,2304042998,2304044949,-0.90768,-0.07808,0.0,19.145,9.66875,-17.2375,16.776001,0.4,13.952001,concentric,6,5.0,20067.0,403431.0,217144.0,79446.0,7024.0
2026-04-09 22:22:54.082592,375776,2304052013,2304053655,-0.90768,-0.07808,0.0,11.83875,10.73625,-16.065,16.776001,0.4,13.952001,concentric,6,5.0,20067.0,403431.0,217144.0,79446.0,7024.0
2026-04-09 22:22:54.116587,375777,2304060944,2304062418,-0.854976,-0.179584,-0.119072,8.6275,7.74375,-15.86375,16.792002,0.928,13.416,concentric,6,5.0,20067.0,403431.0,217144.0,79446.0,7024.0
2026-04-09 22:22:54.120004,375778,2304075407,2304077292,-0.854976,-0.179584,-0.119072,5.94125,3.80625,-13.04625,16.792002,0.928,13.416,concentric,6,5.0,20067.0,403431.0,217144.0,79446.0,7024.0
2026-04-09 22:22:54.122504,375779,2304084341,2304086043,-0.94672,-0.265472,-0.007808,3.71,1.46125,-8.6975,16.504002,0.592,14.224001,concentric,6,5.0,20067.0,403431.0,217144.0,79446.0,7024.0
2026-04-09 22:22:54.124986,375780,2304093265,2304094769,-0.94672,-0.265472,-0.007808,13.74625,2.4325,-3.56125,16.504002,0.592,14.224001,concentric,6,5.0,20067.0,403431.0,217144.0,79446.0,7024.0
2026-04-09 22:22:54.155288,375781,2304107750,2304109695,-0.833504,-0.218624,0.230336,22.3825,4.54125,-0.14,16.416,0.816,14.256001,concentric,6,5.0,20067.0,403431.0,217144.0,79446.0,7024.0
2026-04-09 22:22:54.158686,375782,2304116682,2304118409,-0.833504,-0.218624,0.230336,17.96375,6.1075,0.3675,16.416,0.816,14.256001,concentric,6,5.0,20067.0,403431.0,217144.0,79446.0,7024.0
2026-04-09 22:22:54.183663,375792,2304126151,2304127451,-0.845216,-0.064416,-0.015616,10.57875,8.198751,1.6625,16.632,0.712,13.832001,concentric,6,5.0,20254.0,403431.0,215360.0,77976.0,6487.0
2026-04-09 22:22:54.186227,375793,2304140834,2304142480,-1.067744,-0.103456,-0.17568,1.2075,6.72,3.01,15.552001,1.2,15.320001,concentric,6,5.0,20254.0,403431.0,215360.0,77976.0,6487.0
2026-04-09 22:22:54.189573,375794,2304149865,2304151270,-1.067744,-0.103456,-0.17568,-3.22875,2.33625,4.4625,15.552001,1.2,15.320001,concentric,6,5.0,20254.0,403431.0,215360.0,77976.0,6487.0
2026-04-09 22:22:54.191536,375795,2304158797,2304160028,-1.067744,-0.103456,-0.17568,-2.10875,-1.58375,3.92875,15.552001,1.2,15.320001,concentric,6,5.0,20254.0,403431.0,215360.0,77976.0,6487.0
2026-04-09 22:22:54.197535,375796,2304167742,2304168723,-0.890112,-0.417728,0.074176,-5.99375,-6.74625,0.28,15.584001,1.128,13.824,concentric,6,5.0,20254.0,403431.0,215360.0,77976.0,6487.0
2026-04-09 22:22:54.227623,375797,2304182249,2304183655,-0.964288,-0.193248,0.046848,-0.84,-5.8625,4.82125,16.784,1.016,14.240001,concentric,6,5.0,20254.0,403431.0,215360.0,77976.0,6487.0
2026-04-09 22:22:54.231300,375798,2304191161,2304192414,-0.964288,-0.193248,0.046848,13.92125,-2.2225,14.00875,16.784,1.016,14.240001,concentric,6,5.0,20254.0,403431.0,215360.0,77976.0,6487.0
2026-04-09 22:22:54.233742,375799,2304200059,2304201127,-1.056032,-0.050752,-0.115168,23.2925,-1.9075,16.5725,16.784,1.016,14.880001,concentric,6,5.0,20254.0,403431.0,215360.0,77976.0,6487.0
2026-04-09 22:22:54.263974,375800,2304214554,2304216024,-1.056032,-0.050752,-0.115168,20.23875,-5.52125,12.4425,17.208,0.952,14.880001,concentric,6,5.0,20254.0,403431.0,215360.0,77976.0,6487.0
2026-04-09 22:22:54.326195,375810,2304223475,2304224949,-1.003328,-0.277184,0.091744,9.58125,-9.0825,10.03625,16.752,0.536,14.376,concentric,6,5.0,20044.0,403431.0,217424.0,79514.0,6971.0
2026-04-09 22:22:54.328718,375811,2304232381,2304233587,-1.003328,-0.277184,0.091744,0.39375,-8.5925,8.16375,16.752,0.536,14.376,concentric,6,5.0,20044.0,403431.0,217424.0,79514.0,6971.0
2026-04-09 22:22:54.331214,375812,2304246878,2304248526,-0.974048,-0.32208,0.07808,-8.1375,-6.43125,9.19625,16.944,0.776,15.032001,concentric,6,5.0,20044.0,403431.0,217424.0,79514.0,6971.0
2026-04-09 22:22:54.333735,375813,2304255795,2304257301,-0.974048,-0.32208,0.07808,-7.48125,-4.0775,14.11375,16.944,0.776,15.032001,concentric,6,5.0,20044.0,403431.0,217424.0,79514.0,6971.0
2026-04-09 22:22:54.336176,375814,2304264794,2304265993,-0.981856,-0.085888,0.023424,3.5525,-1.715,15.32125,17.192001,0.28,15.496,concentric,6,5.0,20044.0,403431.0,217424.0,79514.0,6971.0
2026-04-09 22:22:54.338711,375815,2304279269,2304280873,-0.981856,-0.085888,0.023424,11.52375,0.41125,12.425,17.192001,0.28,15.496,concentric,6,5.0,20044.0,403431.0,217424.0,79514.0,6971.0
2026-04-09 22:22:54.341229,375816,2304288178,2304289669,-0.987712,-0.11712,-0.076128,9.31,0.72625,8.37375,16.968,0.32,16.984001,concentric,6,5.0,20044.0,403431.0,217424.0,79514.0,6971.0
2026-04-09 22:22:54.343678,375817,2304297082,2304298340,-0.987712,-0.11712,-0.076128,-2.21375,-0.88375,7.315,16.968,0.32,16.984001,concentric,6,5.0,20044.0,403431.0,217424.0,79514.0,6971.0
2026-04-09 22:22:54.346219,375818,2304306060,2304307106,-1.061888,-0.363072,-0.093696,-12.915,-2.485,10.0275,16.784,0.368,14.088,concentric,6,5.0,20044.0,403431.0,217424.0,79514.0,6971.0
2026-04-09 22:22:54.350710,375819,2304320634,2304322090,-0.882304,-0.300608,0.06832,-13.886251,-5.64375,11.10375,16.784,0.464,13.944,concentric,6,5.0,20044.0,403431.0,217424.0,79514.0,6971.0
