pc_time,serial_num,sensor_ts,host_ts,ax,ay,az,gx,gy,gz,mx,my,mz,phase,rpe,weight_kg,ppg_a,ppg_b,ppg_c,ppg_d,ppg_e
2026-04-09 22:23:03.050300,377443,2312977590,2312978442,-0.954528,-0.105408,-0.080032,18.29625,9.84375,-10.535,17.032001,-1.504,13.096001,eccentric,6,5.0,19776.0,403431.0,214095.0,76133.0,5709.0
2026-04-09 22:23:03.052810,377444,2312992083,2312993357,-0.954528,-0.105408,-0.080032,1.07625,7.3325,-14.98875,17.032001,-1.504,13.096001,eccentric,6,5.0,19776.0,403431.0,214095.0,76133.0,5709.0
2026-04-09 22:23:03.057358,377445,2313001111,2313002087,-1.13216,-0.218624,-0.314272,-6.78125,3.185,-9.12625,16.944,-1.912,13.216001,eccentric,6,5.0,19776.0,403431.0,214095.0,76133.0,5709.0
2026-04-09 22:23:03.057785,377446,2313010212,2313010927,-1.13216,-0.218624,-0.314272,-3.50875,-0.98875,-3.40375,16.944,-1.912,13.216001,eccentric,6,5.0,19776.0,403431.0,214095.0,76133.0,5709.0
2026-04-09 22:23:03.060300,377447,2313025202,2313026001,-0.972096,-0.269376,-0.015616,4.94375,-4.8475,-2.33625,16.336,-1.944,14.000001,eccentric,6,5.0,19776.0,403431.0,214095.0,76133.0,5709.0
2026-04-09 22:23:03.063115,377448,2313034120,2313034739,-0.972096,-0.269376,-0.015616,15.04125,-3.6925,-2.1,16.336,-1.944,14.000001,eccentric,6,5.0,19776.0,403431.0,214095.0,76133.0,5709.0
2026-04-09 22:23:03.093034,377449,2313043382,2313045554,-0.977952,-0.001952,0.12688,25.82125,3.1325,1.11125,16.704,-1.424,13.912001,eccentric,6,5.0,19776.0,403431.0,214095.0,76133.0,5709.0
2026-04-09 22:23:03.096539,377450,2313052311,2313054251,-0.977952,-0.001952,0.12688,22.40875,8.56625,-0.02625,16.704,-1.424,13.912001,eccentric,6,5.0,19776.0,403431.0,214095.0,76133.0,5709.0
2026-04-09 22:23:03.099066,377451,2313066771,2313067102,-1.042368,-0.023424,-0.138592,7.0875,10.14125,-3.64,16.552,-1.336,13.152,eccentric,6,5.0,19776.0,403431.0,214095.0,76133.0,5709.0
2026-04-09 22:23:03.129001,377462,2313076406,2313077955,-1.052128,-0.230336,-0.251808,-12.08375,6.51875,-4.3925,17.176,-1.464,13.480001,eccentric,6,5.0,19846.0,403431.0,213277.0,75425.0,5500.0
2026-04-09 22:23:03.131554,377463,2313085505,2313086812,-1.052128,-0.230336,-0.251808,-19.74,1.75875,-0.9275,17.176,-1.464,13.480001,eccentric,6,5.0,19846.0,403431.0,213277.0,75425.0,5500.0
2026-04-09 22:23:03.134061,377464,2313094573,2313095577,-1.052128,-0.230336,-0.251808,-15.14625,-2.16125,-2.14375,17.176,-1.464,13.480001,eccentric,6,5.0,19846.0,403431.0,213277.0,75425.0,5500.0
2026-04-09 22:23:03.139006,377465,2313109091,2313110495,-1.003328,-0.290848,-0.005856,-0.97125,-1.42625,-1.42625,17.08,-1.568,14.000001,eccentric,6,5.0,19846.0,403431.0,213277.0,75425.0,5500.0
2026-04-09 22:23:03.169241,377466,2313118006,2313119193,-0.997472,0.023424,0.040992,12.915,2.555,5.25,16.424002,-1.488,13.104001,eccentric,6,5.0,19846.0,403431.0,213277.0,75425.0,5500.0
2026-04-09 22:23:03.172748,377467,2313126952,2313127928,-0.997472,0.023424,0.040992,18.025,7.58625,6.3875,16.424002,-1.488,13.104001,eccentric,6,5.0,19846.0,403431.0,213277.0,75425.0,5500.0
2026-04-09 22:23:03.175265,377468,2313141418,2313142823,-1.016992,-0.01952,-0.15616,12.6175,10.14125,1.26,17.048,-1.688,13.144001,eccentric,6,5.0,19846.0,403431.0,213277.0,75425.0,5500.0
2026-04-09 22:23:03.180278,377469,2313150338,2313151526,-1.016992,-0.01952,-0.15616,-3.26375,8.53125,-1.79375,17.048,-1.688,13.144001,eccentric,6,5.0,19846.0,403431.0,213277.0,75425.0,5500.0
2026-04-09 22:23:03.210459,377470,2313159313,2313160269,-1.032608,-0.249856,-0.169824,-18.8475,5.36375,-2.47625,16.576,-1.736,13.072001,eccentric,6,5.0,19846.0,403431.0,213277.0,75425.0,5500.0
2026-04-09 22:23:03.236546,377480,2313173813,2313175197,-1.032608,-0.249856,-0.169824,-22.12875,1.37375,-1.16375,16.576,-1.736,13.072001,eccentric,6,5.0,19865.0,403431.0,212735.0,74848.0,5290.0
2026-04-09 22:23:03.239064,377481,2313182748,2313183911,-0.921344,-0.15616,-0.027328,-11.85625,2.2225,0.97125,16.84,-1.528,12.776001,eccentric,6,5.0,19865.0,403431.0,212735.0,74848.0,5290.0
2026-04-09 22:23:03.241547,377482,2313191669,2313192620,-0.921344,-0.15616,-0.027328,0.7875,4.75125,4.4975,16.84,-1.528,12.776001,eccentric,6,5.0,19865.0,403431.0,212735.0,74848.0,5290.0
2026-04-09 22:23:03.244047,377483,2313206341,2313207539,-1.007232,0.050752,-0.074176,4.73375,6.3875,6.335,16.872002,-1.696,13.472001,eccentric,6,5.0,19865.0,403431.0,212735.0,74848.0,5290.0
2026-04-09 22:23:03.246551,377484,2313215241,2313216365,-1.007232,0.050752,-0.074176,2.30125,6.475,5.57375,16.872002,-1.696,13.472001,eccentric,6,5.0,19865.0,403431.0,212735.0,74848.0,5290.0
2026-04-09 22:23:03.276663,377485,2313224182,2313225063,-0.964288,-0.1464,-0.1464,-10.68375,4.68125,0.3675,17.08,-2.312,13.472001,eccentric,6,5.0,19865.0,403431.0,212735.0,74848.0,5290.0
2026-04-09 22:23:03.280312,377486,2313233156,2313233898,-0.964288,-0.1464,-0.1464,-18.1125,2.275,-1.44375,17.08,-2.312,13.472001,eccentric,6,5.0,19865.0,403431.0,212735.0,74848.0,5290.0
2026-04-09 22:23:03.282857,377487,2313248078,2313248814,-0.970144,-0.193248,-0.109312,-13.0725,1.4875,-1.75875,17.288,-2.072,13.312,eccentric,6,5.0,19865.0,403431.0,212735.0,74848.0,5290.0
2026-04-09 22:23:03.317964,377488,2313257419,2313259570,-1.00528,-0.015616,-0.119072,-5.15375,1.96,2.45875,16.424002,-2.112,13.56,eccentric,6,5.0,19865.0,403431.0,212735.0,74848.0,5290.0
2026-04-09 22:23:03.321583,377489,2313266462,2313268261,-1.00528,-0.015616,-0.119072,0.5425,1.88125,8.3125,16.424002,-2.112,13.56,eccentric,6,5.0,19865.0,403431.0,212735.0,74848.0,5290.0
2026-04-09 22:23:03.346472,377499,2313281041,2313283216,-0.99552,-0.081984,-0.138592,2.1175,0.84,9.8,17.296001,-2.248,13.216001,eccentric,6,5.0,19893.0,403431.0,212066.0,74270.0,5113.0
2026-04-09 22:23:03.349070,377500,2313289955,2313291903,-0.99552,-0.081984,-0.138592,-0.6475,-1.19875,5.60875,17.296001,-2.248,13.216001,eccentric,6,5.0,19893.0,403431.0,212066.0,74270.0,5113.0
2026-04-09 22:23:03.351526,377501,2313298890,2313300616,-0.970144,-0.158112,-0.07808,-2.7825,-2.07375,3.9375,16.784,-2.272,14.248001,eccentric,6,5.0,19893.0,403431.0,212066.0,74270.0,5113.0
2026-04-09 22:23:03.353965,377502,2313307832,2313309353,-0.970144,-0.158112,-0.07808,-3.61375,-1.70625,5.5475,16.784,-2.272,14.248001,eccentric,6,5.0,19893.0,403431.0,212066.0,74270.0,5113.0
2026-04-09 22:23:03.356495,377503,2313322377,2313324333,-0.972096,-0.044896,-0.07808,-1.295,0.3325,7.735,17.272001,-2.144,14.248001,eccentric,6,5.0,19893.0,403431.0,212066.0,74270.0,5113.0
2026-04-09 22:23:03.360328,377504,2313331326,2313333052,-0.972096,-0.044896,-0.07808,-0.1925,1.4,7.09625,17.272001,-2.144,14.248001,eccentric,6,5.0,19893.0,403431.0,212066.0,74270.0,5113.0
2026-04-09 22:23:03.391172,377505,2313340307,2313341761,-1.065792,0.066368,-0.191296,-0.665,2.14375,8.26,17.168001,-2.288,13.376,eccentric,6,5.0,19893.0,403431.0,212066.0,74270.0,5113.0
2026-04-09 22:23:03.394079,377506,2313354861,2313356647,-1.065792,0.066368,-0.191296,0.56875,0.91,8.68,17.168001,-2.288,13.376,eccentric,6,5.0,19893.0,403431.0,212066.0,74270.0,5113.0
2026-04-09 22:23:03.396591,377507,2313363842,2313365367,-0.944768,-0.17568,-0.091744,-4.82125,-1.40875,4.75125,17.304,-2.816,13.336,eccentric,6,5.0,19893.0,403431.0,212066.0,74270.0,5113.0
2026-04-09 22:23:03.401602,377508,2313372818,2313374118,-0.944768,-0.17568,-0.091744,-12.0575,-1.81125,3.14125,17.304,-2.816,13.336,eccentric,6,5.0,19893.0,403431.0,212066.0,74270.0,5113.0
2026-04-09 22:23:03.428983,377519,2313387419,2313389153,-1.022848,-0.15616,-0.08784,-11.3225,-1.11125,6.74625,17.536001,-2.232,14.160001,eccentric,6,5.0,19860.0,403431.0,212285.0,74715.0,5361.0
2026-04-09 22:23:03.431620,377520,2313396457,2313397887,-1.022848,-0.15616,-0.11712,-2.7125,0.42,10.63125,17.536001,-2.232,14.160001,eccentric,6,5.0,19860.0,403431.0,212285.0,74715.0,5361.0
2026-04-09 22:23:03.435365,377521,2313405448,2313406672,-1.016992,0.042944,-0.11712,7.91,1.505,14.2275,16.888,-2.296,14.896001,eccentric,6,5.0,19860.0,403431.0,212285.0,74715.0,5361.0
2026-04-09 22:23:03.465968,377522,2313414349,2313415395,-1.016992,0.042944,-0.11712,7.97125,1.12875,9.98375,16.888,-2.296,14.896001,eccentric,6,5.0,19860.0,403431.0,212285.0,74715.0,5361.0
2026-04-09 22:23:03.469680,377523,2313428914,2313430323,-0.989664,-0.080032,-0.021472,-0.95375,1.33,5.6525,17.048,-3.032,14.112,eccentric,6,5.0,19860.0,403431.0,212285.0,74715.0,5361.0
2026-04-09 22:23:03.472312,377524,2313437825,2313439017,-1.026752,-0.080032,-0.189344,-7.5425,0.5075,10.64,17.368,-2.52,13.112,eccentric,6,5.0,19860.0,403431.0,212285.0,74715.0,5361.0
2026-04-09 22:23:03.476632,377525,2313446768,2313447730,-1.026752,-0.080032,-0.189344,-9.0475,-0.79625,16.5725,17.368,-2.52,13.112,eccentric,6,5.0,19860.0,403431.0,212285.0,74715.0,5361.0
2026-04-09 22:23:03.508049,377526,2313461315,2313462696,-1.067744,-0.091744,-0.064416,-6.2125,-3.47375,17.64,18.04,-2.8,13.280001,eccentric,6,5.0,19860.0,403431.0,212285.0,74715.0,5361.0
2026-04-09 22:23:03.511583,377527,2313470239,2313471411,-1.067744,-0.091744,-0.064416,0.2975,-4.89125,14.56875,18.04,-2.8,13.280001,eccentric,6,5.0,19860.0,403431.0,212285.0,74715.0,5361.0
2026-04-09 22:23:03.536612,377537,2313479656,2313480183,-1.032608,-0.013664,-0.10736,8.9425,-6.405,13.685,18.728,-2.912,13.448001,eccentric,6,5.0,19792.0,403431.0,212746.0,75183.0,5527.0
2026-04-09 22:23:03.542821,377538,2313489078,2313490945,-1.032608,-0.013664,-0.10736,9.45,-8.28625,14.035,18.728,-2.912,13.448001,eccentric,6,5.0,19792.0,403431.0,212746.0,75183.0,5527.0
2026-04-09 22:23:03.545422,377539,2313503704,2313505884,-1.0248,-0.07808,-0.05856,3.71875,-11.82125,11.3225,18.136002,-3.0,14.776001,eccentric,6,5.0,19792.0,403431.0,212746.0,75183.0,5527.0
2026-04-09 22:23:03.547862,377540,2313512746,2313514606,-1.0248,-0.07808,-0.05856,-0.81375,-12.73125,12.11,18.136002,-3.0,14.776001,eccentric,6,5.0,19792.0,403431.0,212746.0,75183.0,5527.0
2026-04-09 22:23:03.552566,377541,2313521724,2313523328,-1.118496,0.035136,-0.083936,3.00125,-13.1775,16.7825,17.856,-3.32,14.888001,eccentric,6,5.0,19792.0,403431.0,212746.0,75183.0,5527.0
2026-04-09 22:23:03.581771,377542,2313536232,2313538245,-1.118496,0.035136,-0.083936,8.68,-13.16875,16.4675,17.856,-3.32,14.888001,eccentric,6,5.0,19792.0,403431.0,212746.0,75183.0,5527.0
2026-04-09 22:23:03.616812,377543,2313545174,2313546983,-0.977952,-0.027328,-0.064416,8.25125,-15.42625,14.0,18.968,-3.248,14.6,eccentric,6,5.0,19792.0,403431.0,212746.0,75183.0,5527.0
2026-04-09 22:23:03.620395,377544,2313554092,2313555686,-0.977952,-0.027328,-0.064416,3.43875,-16.275,12.2675,18.968,-3.248,14.6,eccentric,6,5.0,19792.0,403431.0,212746.0,75183.0,5527.0
2026-04-09 22:23:03.622752,377545,2313568592,2313570597,-0.940864,-0.091744,0.023424,0.34125,-15.9075,10.92875,19.216002,-2.912,13.704,eccentric,6,5.0,19792.0,403431.0,212746.0,75183.0,5527.0
2026-04-09 22:23:03.647911,377555,2313577937,2313579556,-1.21024,0.150304,-0.1464,0.56875,-15.00625,12.83625,19.216002,-2.912,15.040001,eccentric,6,5.0,19787.0,403431.0,212914.0,75317.0,5582.0
2026-04-09 22:23:03.650483,377556,2313586964,2313588307,-1.21024,0.150304,-0.1464,6.95625,-14.5075,20.16,18.728,-3.008,15.040001,eccentric,6,5.0,19787.0,403431.0,212914.0,75317.0,5582.0
2026-04-09 22:23:03.652915,377557,2313595874,2313597031,-1.21024,0.150304,-0.1464,14.805,-15.14625,22.435,18.728,-3.008,15.040001,eccentric,6,5.0,19787.0,403431.0,212914.0,75317.0,5582.0
2026-04-09 22:23:03.655305,377558,2313610438,2313611985,-0.919392,-0.03904,-0.056608,6.95625,-18.305,13.6325,18.936,-3.016,15.296001,eccentric,6,5.0,19787.0,403431.0,212914.0,75317.0,5582.0
2026-04-09 22:23:03.657854,377559,2313619465,2313620748,-0.968192,-0.074176,0.023424,-5.3375,-20.0375,12.9325,19.152,-3.344,15.840001,eccentric,6,5.0,19787.0,403431.0,212914.0,75317.0,5582.0
2026-04-09 22:23:03.660961,377560,2313628402,2313629513,-0.968192,-0.074176,0.023424,-0.28875,-19.565,17.64875,19.152,-3.344,15.840001,eccentric,6,5.0,19787.0,403431.0,212914.0,75317.0,5582.0
2026-04-09 22:23:03.691771,377561,2313642980,2313644443,-1.237568,0.189344,-0.167872,8.9425,-18.17375,17.78875,19.176,-3.224,15.992001,eccentric,6,5.0,19787.0,403431.0,212914.0,75317.0,5582.0
2026-04-09 22:23:03.695450,377562,2313651976,2313653163,-1.237568,0.189344,-0.167872,20.67625,-18.06875,24.52625,19.176,-3.224,15.992001,eccentric,6,5.0,19787.0,403431.0,212914.0,75317.0,5582.0
2026-04-09 22:23:03.697892,377563,2313660912,2313661854,-0.968192,0.015616,-0.074176,25.585001,-22.11125,25.8825,20.216002,-3.112,15.216001,eccentric,6,5.0,19787.0,403431.0,212914.0,75317.0,5582.0
2026-04-09 22:23:03.700342,377564,2313669832,2313670571,-0.968192,0.015616,-0.074176,14.3325,-26.80125,16.59875,20.216002,-3.112,15.216001,eccentric,6,5.0,19787.0,403431.0,212914.0,75317.0,5582.0
2026-04-09 22:23:03.775384,377575,2313684814,2313685578,-0.935008,-0.064416,0.119072,4.19125,-28.0525,15.3825,19.488,-3.488,16.312,eccentric,6,5.0,19688.0,403431.0,213968.0,76101.0,5778.0
2026-04-09 22:23:03.777851,377576,2313694295,2313696402,-0.935008,-0.064416,0.119072,9.16125,-24.99875,19.145,19.488,-3.488,16.312,eccentric,6,5.0,19688.0,403431.0,213968.0,76101.0,5778.0
2026-04-09 22:23:03.780402,377577,2313703222,2313705096,-1.27856,0.244,-0.06832,21.44625,-21.18375,21.210001,20.656,-3.688,15.584001,eccentric,6,5.0,19688.0,403431.0,213968.0,76101.0,5778.0
2026-04-09 22:23:03.782865,377578,2313717682,2313719968,-1.27856,0.244,0.01952,33.46,-17.7625,27.67625,20.656,-3.688,15.584001,eccentric,6,5.0,19688.0,403431.0,213968.0,76101.0,5778.0
2026-04-09 22:23:03.785322,377579,2313726603,2313728723,-0.948672,0.099552,0.01952,29.19,-18.33125,23.44125,20.808,-3.688,16.008001,eccentric,6,5.0,19688.0,403431.0,213968.0,76101.0,5778.0
2026-04-09 22:23:03.787897,377580,2313735530,2313737436,-0.948672,0.099552,0.01952,7.49875,-18.13875,11.1825,20.808,-3.688,16.008001,eccentric,6,5.0,19688.0,403431.0,213968.0,76101.0,5778.0
2026-04-09 22:23:03.790328,377581,2313744435,2313746138,-0.96624,-0.011712,0.121024,1.44375,-16.415,13.4575,21.024,-3.264,15.376,eccentric,6,5.0,19688.0,403431.0,213968.0,76101.0,5778.0
2026-04-09 22:23:03.794644,377582,2313758993,2313761101,-1.284416,0.244,-0.035136,5.04875,-13.50125,16.87,20.328001,-3.592,17.128,eccentric,6,5.0,19688.0,403431.0,213968.0,76101.0,5778.0
2026-04-09 22:23:03.797879,377583,2313767926,2313769852,-1.284416,0.244,-0.035136,14.56875,-10.47375,20.46625,20.328001,-3.592,17.128,eccentric,6,5.0,19688.0,403431.0,213968.0,76101.0,5778.0
2026-04-09 22:23:03.851659,377593,2313776851,2313778579,-1.284416,0.244,-0.035136,27.86875,-9.948751,29.54,20.328001,-3.592,17.128,eccentric,6,5.0,19576.0,403431.0,215320.0,76873.0,5888.0
2026-04-09 22:23:03.856601,377594,2313791401,2313793491,-1.042368,0.169824,-0.027328,22.00625,-13.4575,21.81375,21.6,-3.6,15.904,eccentric,6,5.0,19576.0,403431.0,215320.0,76873.0,5888.0
2026-04-09 22:23:03.859075,377595,2313800314,2313802186,-1.020896,-0.025376,0.037088,1.89875,-15.77625,9.2225,21.768002,-3.808,16.320002,eccentric,6,5.0,19576.0,403431.0,215320.0,76873.0,5888.0
2026-04-09 22:23:03.861621,377596,2313809241,2313810880,-1.020896,-0.025376,0.037088,-0.86625,-14.63875,13.58,21.768002,-3.808,16.320002,eccentric,6,5.0,19576.0,403431.0,215320.0,76873.0,5888.0
2026-04-09 22:23:03.864116,377597,2313823832,2313825790,-1.2688,0.070272,0.109312,3.22875,-13.13375,15.05875,21.752,-3.456,16.832,eccentric,6,5.0,19576.0,403431.0,215320.0,76873.0,5888.0
2026-04-09 22:23:03.866630,377598,2313832755,2313834503,-1.2688,0.070272,0.109312,13.055,-9.625,16.835001,21.752,-3.456,16.832,eccentric,6,5.0,19576.0,403431.0,215320.0,76873.0,5888.0
2026-04-09 22:23:03.874769,377599,2313841718,2313843203,-1.10288,0.27328,-0.015616,28.53375,-6.34375,26.85375,22.288,-3.392,17.688002,eccentric,6,5.0,19576.0,403431.0,215320.0,76873.0,5888.0
2026-04-09 22:23:03.915589,377600,2313856223,2313858127,-1.10288,0.27328,-0.015616,24.15,-6.09,24.00125,22.288,-3.392,17.688002,eccentric,6,5.0,19576.0,403431.0,215320.0,76873.0,5888.0
2026-04-09 22:23:03.919185,377601,2313865119,2313866813,-1.042368,0.021472,0.081984,4.13,-6.7725,13.90375,22.496,-3.936,17.312,eccentric,6,5.0,19576.0,403431.0,215320.0,76873.0,5888.0
2026-04-09 22:23:03.921541,377602,2313874016,2313875504,-1.042368,0.021472,0.081984,-2.38,-5.06625,17.03625,22.496,-3.936,17.312,eccentric,6,5.0,19576.0,403431.0,215320.0,76873.0,5888.0
2026-04-09 22:23:03.946821,377612,2313883111,2313884240,-1.071648,0.091744,0.128832,-5.075,-3.1675,21.42,21.960001,-3.632,16.936,eccentric,6,5.0,19560.0,403431.0,215301.0,77130.0,6086.0
2026-04-09 22:23:03.949111,377613,2313897598,2313899208,-1.071648,0.091744,0.128832,-1.19,-0.90125,21.91875,21.960001,-3.632,16.936,eccentric,6,5.0,19560.0,403431.0,215301.0,77130.0,6086.0
2026-04-09 22:23:03.952968,377614,2313906559,2313907947,-1.247328,0.325984,-0.095648,7.735,-0.8225,28.411251,22.624,-3.688,17.944,eccentric,6,5.0,19560.0,403431.0,215301.0,77130.0,6086.0
2026-04-09 22:23:03.956350,377615,2313915493,2313916696,-1.247328,0.325984,-0.095648,10.7625,-4.4625,31.6575,22.624,-3.688,17.944,eccentric,6,5.0,19560.0,403431.0,215301.0,77130.0,6086.0
2026-04-09 22:23:03.959110,377616,2313929969,2313931655,-1.04432,0.062464,-0.050752,-3.12375,-8.95125,24.64,22.016,-4.008,18.448,eccentric,6,5.0,19560.0,403431.0,215301.0,77130.0,6086.0
2026-04-09 22:23:03.989369,377617,2313938900,2313940373,-1.04432,0.031232,0.05856,-7.1575,-12.005,23.30125,22.016,-4.008,16.400002,eccentric,6,5.0,19560.0,403431.0,215301.0,77130.0,6086.0
2026-04-09 22:23:03.992869,377618,2313947805,2313949052,-1.0248,0.031232,0.05856,3.36,-12.5125,23.8,23.104002,-4.576,16.976002,eccentric,6,5.0,19560.0,403431.0,215301.0,77130.0,6086.0
2026-04-09 22:23:03.995432,377619,2313962250,2313963957,-1.29808,0.296704,0.025376,13.11625,-11.17375,24.01875,23.312,-4.216,17.512001,eccentric,6,5.0,19560.0,403431.0,215301.0,77130.0,6086.0
2026-04-09 22:23:04.000385,377620,2313971197,2313972699,-1.29808,0.296704,0.025376,23.35375,-10.05375,30.397501,23.312,-4.216,17.512001,eccentric,6,5.0,19560.0,403431.0,215301.0,77130.0,6086.0
2026-04-09 22:23:04.034594,377631,2313980502,2313981847,-1.042368,0.18544,0.0488,23.44125,-10.10625,35.37625,23.568,-4.424,20.264002,eccentric,6,5.0,19464.0,403431.0,216458.0,77912.0,6250.0
2026-04-09 22:23:04.036540,377632,2313989530,2313990601,-1.042368,0.18544,0.0488,3.28125,-14.1925,30.415,23.568,-4.424,20.264002,eccentric,6,5.0,19464.0,403431.0,216458.0,77912.0,6250.0
2026-04-09 22:23:04.038099,377633,2314004167,2314005537,-1.059936,0.103456,0.07808,-6.92125,-14.875,27.25625,24.024002,-4.92,17.888,eccentric,6,5.0,19464.0,403431.0,216458.0,77912.0,6250.0
2026-04-09 22:23:04.042836,377634,2314013185,2314014247,-1.059936,0.103456,0.07808,-1.4875,-12.67875,28.02625,24.024002,-4.92,17.888,eccentric,6,5.0,19464.0,403431.0,216458.0,77912.0,6250.0
2026-04-09 22:23:04.074044,377635,2314022140,2314022980,-1.134112,0.242048,0.103456,0.4725,-10.68375,28.63875,23.672,-5.128,18.472,eccentric,6,5.0,19464.0,403431.0,216458.0,77912.0,6250.0
2026-04-09 22:23:04.076263,377636,2314036677,2314037858,-1.134112,0.242048,0.103456,1.3475,-10.42125,30.52875,23.672,-5.128,18.472,eccentric,6,5.0,19464.0,403431.0,216458.0,77912.0,6250.0
2026-04-09 22:23:04.080958,377637,2314045568,2314046552,-1.27856,0.257664,-0.07808,7.18375,-10.12375,35.595,24.256,-5.128,18.84,eccentric,6,5.0,19464.0,403431.0,216458.0,77912.0,6250.0
2026-04-09 22:23:04.087085,377638,2314054503,2314055225,-1.27856,0.257664,-0.07808,6.08125,-11.795,38.6225,24.256,-5.128,18.84,eccentric,6,5.0,19464.0,403431.0,216458.0,77912.0,6250.0
2026-04-09 22:23:04.116277,377639,2314069332,2314070164,-0.999424,0.095648,0.142496,-7.3675,-15.225,31.115,24.328001,-5.08,18.672,eccentric,6,5.0,19464.0,403431.0,216458.0,77912.0,6250.0
2026-04-09 22:23:04.120073,377640,2314078210,2314078872,-0.999424,0.095648,0.142496,-6.65,-14.14875,27.08125,24.328001,-5.08,18.672,eccentric,6,5.0,19464.0,403431.0,216458.0,77912.0,6250.0
2026-04-09 22:23:04.144278,377650,2314087518,2314089648,-1.147776,0.199104,0.081984,2.82625,-10.0625,28.665,24.008001,-5.616,19.464,eccentric,6,5.0,19408.0,403431.0,217411.0,78442.0,6349.0
2026-04-09 22:23:04.148485,377651,2314096423,2314098348,-1.147776,0.199104,0.081984,2.2575,-6.93,31.57,24.008001,-5.616,19.464,eccentric,6,5.0,19408.0,403431.0,217411.0,78442.0,6349.0
2026-04-09 22:23:04.150058,377652,2314110970,2314113244,-1.149728,0.2928,0.122976,-2.73875,-4.9,31.6225,24.104002,-6.032,20.160002,eccentric,6,5.0,19408.0,403431.0,217411.0,78442.0,6349.0
2026-04-09 22:23:04.151676,377653,2314120028,2314121955,-1.296128,0.218624,-0.066368,-4.795,-2.86125,31.80625,24.104002,-6.072001,20.52,eccentric,6,5.0,19408.0,403431.0,217411.0,78442.0,6349.0
2026-04-09 22:23:04.183140,377654,2314129000,2314130677,-1.296128,0.218624,-0.066368,-7.93625,-4.6375,35.7525,24.000002,-6.072001,20.52,eccentric,6,5.0,19408.0,403431.0,217411.0,78442.0,6349.0
2026-04-09 22:23:04.217824,377655,2314143466,2314145566,-1.020896,0.044896,0.113216,-18.83,-9.47625,38.43875,25.096,-6.4,19.792002,eccentric,6,5.0,19408.0,403431.0,217411.0,78442.0,6349.0
2026-04-09 22:23:04.220039,377656,2314152494,2314154308,-1.020896,0.044896,0.113216,-22.63625,-11.85625,34.11625,25.096,-6.4,19.792002,eccentric,6,5.0,19408.0,403431.0,217411.0,78442.0,6349.0
2026-04-09 22:23:04.224674,377657,2314161425,2314163022,-1.19072,0.191296,0.099552,-9.16125,-9.7825,30.79125,25.048,-6.904,20.648,eccentric,6,5.0,19408.0,403431.0,217411.0,78442.0,6349.0
2026-04-09 22:23:04.227301,377658,2314175900,2314177909,-1.19072,0.191296,0.099552,5.6,-5.88,33.71375,25.048,-6.904,20.648,eccentric,6,5.0,19408.0,403431.0,217411.0,78442.0,6349.0
2026-04-09 22:23:04.253927,377668,2314184978,2314187056,-1.126304,0.296704,0.115168,3.73625,-3.77125,36.96,25.480001,-7.08,19.808,eccentric,6,5.0,19321.0,403431.0,218846.0,79380.0,6541.0
2026-04-09 22:23:04.255439,377669,2314193955,2314195738,-1.126304,0.296704,0.115168,-6.1075,-2.05625,35.63,25.480001,-7.08,19.808,eccentric,6,5.0,19321.0,403431.0,218846.0,79380.0,6541.0
2026-04-09 22:23:04.259738,377670,2314202998,2314204495,-1.153632,0.23424,0.072224,-16.065,-0.74375,33.85375,24.608002,-7.552001,20.728,eccentric,6,5.0,19321.0,403431.0,218846.0,79380.0,6541.0
2026-04-09 22:23:04.261399,377671,2314217558,2314219428,-1.153632,0.23424,0.072224,-22.085001,-1.155,33.6525,24.608002,-7.552001,20.728,eccentric,6,5.0,19321.0,403431.0,218846.0,79380.0,6541.0
2026-04-09 22:23:04.263952,377672,2314226545,2314228154,-1.079456,0.144448,0.044896,-24.99875,-3.675,33.565,24.648,-8.144,21.608002,eccentric,6,5.0,19321.0,403431.0,218846.0,79380.0,6541.0
2026-04-09 22:23:04.266259,377673,2314235558,2314236920,-1.079456,0.144448,0.044896,-20.8775,-5.32875,31.82375,24.648,-8.144,21.608002,eccentric,6,5.0,19321.0,403431.0,218846.0,79380.0,6541.0
2026-04-09 22:23:04.296622,377674,2314250218,2314251888,-1.097024,0.206912,0.072224,-9.35375,-4.9,31.115,24.272001,-7.896,21.376001,eccentric,6,5.0,19321.0,403431.0,218846.0,79380.0,6541.0
2026-04-09 22:23:04.298856,377675,2314259146,2314260593,-1.097024,0.206912,0.072224,0.8575,-4.97,30.3275,24.272001,-7.896,21.376001,eccentric,6,5.0,19321.0,403431.0,218846.0,79380.0,6541.0
2026-04-09 22:23:04.303385,377676,2314268172,2314269293,-1.098976,0.296704,0.109312,3.91125,-4.24375,29.2775,25.552002,-8.568001,19.464,eccentric,6,5.0,19321.0,403431.0,218846.0,79380.0,6541.0
2026-04-09 22:23:04.307612,377677,2314277132,2314277980,-1.098976,0.296704,0.109312,0.51625,-3.7625,26.94125,25.552002,-8.568001,19.464,eccentric,6,5.0,19321.0,403431.0,218846.0,79380.0,6541.0
2026-04-09 22:23:04.335905,377688,2314291812,2314292941,-1.087264,0.25376,0.081984,-7.28875,-4.76,24.08875,26.056002,-9.128,21.016,eccentric,6,5.0,19260.0,403431.0,219287.0,79726.0,6656.0
2026-04-09 22:23:04.337599,377689,2314300858,2314301670,-1.061888,0.17568,0.060512,-14.875,-6.1425,20.20375,25.624,-9.016001,20.720001,eccentric,6,5.0,19260.0,403431.0,219287.0,79726.0,6656.0
2026-04-09 22:23:04.339182,377690,2314309845,2314310366,-1.061888,0.17568,0.060512,-18.095,-7.27125,20.08125,25.624,-9.016001,20.720001,eccentric,6,5.0,19260.0,403431.0,219287.0,79726.0,6656.0
2026-04-09 22:23:04.370359,377691,2314324848,2314325274,-1.067744,0.189344,0.080032,-13.20375,-7.8925,20.405,26.048,-9.032001,22.112001,eccentric,6,5.0,19260.0,403431.0,219287.0,79726.0,6656.0
2026-04-09 22:23:04.374698,377692,2314334156,2314336072,-1.067744,0.189344,0.080032,-4.445,-6.9475,18.92625,26.048,-9.032001,22.112001,eccentric,6,5.0,19260.0,403431.0,219287.0,79726.0,6656.0
2026-04-09 22:23:04.376219,377693,2314343128,2314344775,-1.059936,0.26352,0.109312,2.94,-5.81,19.9325,26.416,-8.832001,21.512001,eccentric,6,5.0,19260.0,403431.0,219287.0,79726.0,6656.0
2026-04-09 22:23:04.381691,377694,2314352064,2314353471,-1.059936,0.26352,0.109312,5.705,-5.5125,20.71125,26.416,-8.832001,21.512001,eccentric,6,5.0,19260.0,403431.0,219287.0,79726.0,6656.0
2026-04-09 22:23:04.412858,377695,2314366591,2314368366,-1.075552,0.244,0.06832,1.95125,-6.1075,20.02,26.168001,-9.264001,21.568,eccentric,6,5.0,19260.0,403431.0,219287.0,79726.0,6656.0
2026-04-09 22:23:04.415088,377696,2314375538,2314377091,-1.075552,0.244,0.06832,-2.8175,-6.39625,20.01125,26.168001,-9.264001,21.568,eccentric,6,5.0,19260.0,403431.0,219287.0,79726.0,6656.0
2026-04-09 22:23:04.443918,377706,2314384905,2314386087,-1.042368,0.206912,0.085888,-5.495,-7.11375,19.38125,25.816002,-9.824,21.864,eccentric,6,5.0,19217.0,403431.0,220023.0,80274.0,6845.0
2026-04-09 22:23:04.445412,377707,2314399451,2314401119,-1.042368,0.206912,0.085888,-4.795,-5.95,18.64625,25.816002,-9.824,21.864,eccentric,6,5.0,19217.0,403431.0,220023.0,80274.0,6845.0
2026-04-09 22:23:04.449711,377708,2314408541,2314409843,-1.056032,0.251808,0.093696,0.2975,-4.54125,17.50875,25.008001,-9.72,22.144001,eccentric,6,5.0,19217.0,403431.0,220023.0,80274.0,6845.0
2026-04-09 22:23:04.452243,377709,2314417535,2314418585,-1.056032,0.251808,0.093696,2.59,-3.7625,15.2075,25.008001,-9.72,22.144001,eccentric,6,5.0,19217.0,403431.0,220023.0,80274.0,6845.0
2026-04-09 22:23:04.456251,377710,2314426454,2314427290,-1.077504,0.279136,0.0976,2.485,-3.12375,12.78375,25.976002,-10.136001,22.728,eccentric,6,5.0,19217.0,403431.0,220023.0,80274.0,6845.0
2026-04-09 22:23:04.515443,377711,2314441029,2314442239,-1.124352,0.228384,0.089792,0.5425,-2.17,11.45375,25.976002,-10.136001,21.608002,eccentric,6,5.0,19217.0,403431.0,220023.0,80274.0,6845.0
2026-04-09 22:23:04.517573,377712,2314450059,2314450922,-1.114592,0.228384,0.089792,-2.6075,-0.39375,11.4625,26.240002,-9.976001,21.608002,eccentric,6,5.0,19217.0,403431.0,220023.0,80274.0,6845.0
2026-04-09 22:23:04.522190,377713,2314458960,2314459691,-1.114592,0.228384,0.089792,-6.825,0.60375,10.5,26.240002,-9.976001,21.608002,eccentric,6,5.0,19217.0,403431.0,220023.0,80274.0,6845.0
2026-04-09 22:23:04.523866,377714,2314473883,2314474605,-1.03456,0.191296,0.115168,-8.645,1.04125,7.945,26.640001,-10.576,22.056002,eccentric,6,5.0,19217.0,403431.0,220023.0,80274.0,6845.0
2026-04-09 22:23:04.549714,377724,2314483295,2314485402,-1.095072,0.236192,0.089792,-4.06,2.52875,5.6175,26.608002,-9.504001,21.632002,eccentric,6,5.0,19140.0,403431.0,220738.0,80830.0,7016.0
2026-04-09 22:23:04.552426,377725,2314492270,2314494081,-1.095072,0.236192,0.089792,-0.34125,3.815,4.6025,26.608002,-9.504001,21.632002,eccentric,6,5.0,19140.0,403431.0,220738.0,80830.0,7016.0
2026-04-09 22:23:04.558425,377726,2314501248,2314502901,-1.087264,0.230336,0.064416,-0.98,4.24375,5.075,26.608002,-9.504001,24.976002,eccentric,6,5.0,19140.0,403431.0,220738.0,80830.0,7016.0
2026-04-09 22:23:04.560264,377727,2314515753,2314517864,-1.087264,0.230336,0.064416,-4.3925,4.235,4.83875,25.792002,-10.168,24.976002,eccentric,6,5.0,19140.0,403431.0,220738.0,80830.0,7016.0
2026-04-09 22:23:04.561738,377728,2314524695,2314526577,-1.061888,0.169824,0.050752,-6.39625,4.13875,4.50625,26.184002,-10.712001,22.248001,eccentric,6,5.0,19140.0,403431.0,220738.0,80830.0,7016.0
2026-04-09 22:23:04.565755,377729,2314533699,2314535317,-1.061888,0.169824,0.050752,-6.4225,3.255,3.955,26.184002,-10.712001,22.248001,eccentric,6,5.0,19140.0,403431.0,220738.0,80830.0,7016.0
2026-04-09 22:23:04.594647,377730,2314548199,2314550227,-1.065792,0.163968,0.08784,-3.17625,1.63625,3.6225,25.752,-10.536,20.656,eccentric,6,5.0,19140.0,403431.0,220738.0,80830.0,7016.0
2026-04-09 22:23:04.598828,377731,2314557186,2314558918,-1.065792,0.163968,0.08784,5.90625,0.735,2.73875,25.752,-10.536,20.656,eccentric,6,5.0,19140.0,403431.0,220738.0,80830.0,7016.0
2026-04-09 22:23:04.600403,377732,2314566093,2314567651,-1.075552,0.22448,0.121024,14.02625,1.54875,1.05875,26.448002,-10.464001,22.256,eccentric,6,5.0,19140.0,403431.0,220738.0,80830.0,7016.0
2026-04-09 22:23:04.661363,377743,2314580609,2314582980,-1.075552,0.22448,0.121024,15.07625,3.28125,0.30625,26.448002,-10.464001,22.256,eccentric,6,5.0,19078.0,403431.0,221218.0,81156.0,7124.0
2026-04-09 22:23:04.662969,377744,2314589605,2314591695,-1.048224,0.212768,0.122976,9.03875,4.73375,-0.79625,26.648,-10.72,22.024,eccentric,6,5.0,19078.0,403431.0,221218.0,81156.0,7124.0
2026-04-09 22:23:04.667154,377745,2314598540,2314600398,-1.048224,0.212768,0.122976,2.49375,6.125,-2.625,26.648,-10.72,22.024,eccentric,6,5.0,19078.0,403431.0,221218.0,81156.0,7124.0
2026-04-09 22:23:04.669724,377746,2314607457,2314609067,-1.067744,0.187392,0.124928,-1.96,7.455,-4.095,26.352001,-10.272,22.288,eccentric,6,5.0,19078.0,403431.0,221218.0,81156.0,7124.0
2026-04-09 22:23:04.671590,377747,2314622074,2314624001,-1.050176,0.189344,0.060512,-3.2375,8.18125,-5.90625,27.128002,-10.128,21.320002,eccentric,6,5.0,19078.0,403431.0,221218.0,81156.0,7124.0
2026-04-09 22:23:04.673836,377748,2314631018,2314632764,-1.050176,0.189344,0.060512,-1.67125,8.61875,-7.53375,27.128002,-10.128,21.320002,eccentric,6,5.0,19078.0,403431.0,221218.0,81156.0,7124.0
2026-04-09 22:23:04.675332,377749,2314639998,2314641492,-1.050176,0.189344,0.060512,1.89,8.4525,-9.77375,27.128002,-10.128,21.320002,eccentric,6,5.0,19078.0,403431.0,221218.0,81156.0,7124.0
2026-04-09 22:23:04.706519,377750,2314654598,2314656438,-1.075552,0.179584,0.062464,6.3,9.33625,-11.515,26.936,-10.232,19.512001,concentric,6,5.0,19078.0,403431.0,221218.0,81156.0,7124.0
2026-04-09 22:23:04.724640,377751,2314663523,2314665171,-1.067744,0.210816,0.089792,9.03875,9.02125,-13.02875,26.12,-10.744,21.84,concentric,6,5.0,19078.0,403431.0,221218.0,81156.0,7124.0
2026-04-09 22:23:04.726345,377752,2314672497,2314673857,-1.067744,0.210816,0.089792,9.65125,8.77625,-14.9275,26.12,-10.744,21.84,concentric,6,5.0,19078.0,403431.0,221218.0,81156.0,7124.0
2026-04-09 22:23:04.751729,377762,2314687197,2314688835,-1.052128,0.183488,0.083936,11.40125,8.68,-16.94875,26.256,-10.504001,21.952002,concentric,6,5.0,19033.0,403431.0,222103.0,81779.0,7308.0
2026-04-09 22:23:04.752916,377763,2314696114,2314697511,-1.052128,0.183488,0.083936,9.485,8.5225,-19.81,26.256,-10.504001,21.952002,concentric,6,5.0,19033.0,403431.0,222103.0,81779.0,7308.0
2026-04-09 22:23:04.757119,377764,2314705150,2314706218,-1.050176,0.201056,0.052704,7.69125,9.09125,-21.735,25.672,-10.528001,21.272001,concentric,6,5.0,19033.0,403431.0,222103.0,81779.0,7308.0
2026-04-09 22:23:04.758809,377765,2314714096,2314714956,-1.050176,0.201056,0.052704,8.2425,10.56125,-23.30125,25.672,-10.528001,21.272001,concentric,6,5.0,19033.0,403431.0,222103.0,81779.0,7308.0
2026-04-09 22:23:04.760360,377766,2314728585,2314729874,-1.085312,0.199104,0.072224,7.00875,12.136251,-25.2525,25.464,-10.088,21.032001,concentric,6,5.0,19033.0,403431.0,222103.0,81779.0,7308.0
2026-04-09 22:23:04.817770,377767,2314737494,2314738707,-1.085312,0.199104,0.072224,8.2775,12.06625,-25.29625,25.464,-10.088,21.032001,concentric,6,5.0,19033.0,403431.0,222103.0,81779.0,7308.0
2026-04-09 22:23:04.820010,377768,2314746395,2314747495,-1.061888,0.18544,0.091744,11.725,11.0775,-25.62875,25.976002,-9.896001,21.160002,concentric,6,5.0,19033.0,403431.0,222103.0,81779.0,7308.0
2026-04-09 22:23:04.824584,377769,2314760844,2314762404,-1.061888,0.18544,0.091744,13.667501,10.3075,-25.99625,25.976002,-9.896001,21.160002,concentric,6,5.0,19033.0,403431.0,222103.0,81779.0,7308.0
2026-04-09 22:23:04.827035,377770,2314769766,2314771115,-1.067744,0.275232,0.091744,16.70375,11.29625,-26.5125,25.624,-8.992001,20.168001,concentric,6,5.0,19033.0,403431.0,222103.0,81779.0,7308.0
2026-04-09 22:23:04.827936,377771,2314778766,2314779860,-1.067744,0.275232,0.091744,18.50625,12.145,-29.435,25.624,-8.992001,20.168001,concentric,6,5.0,19033.0,403431.0,222103.0,81779.0,7308.0
2026-04-09 22:23:04.857639,377781,2314793347,2314794803,-1.081408,0.300608,0.089792,15.39125,13.27375,-32.4975,25.976002,-8.856,20.344002,concentric,6,5.0,19009.0,403431.0,222303.0,81896.0,7347.0
2026-04-09 22:23:04.859170,377782,2314802316,2314803557,-1.081408,0.257664,0.08784,10.94625,13.755,-34.72875,25.976002,-8.856,22.392,concentric,6,5.0,19009.0,403431.0,222303.0,81896.0,7347.0
2026-04-09 22:23:04.863415,377783,2314811221,2314812304,-1.069696,0.257664,0.08784,8.155,14.06125,-37.51125,25.464,-9.200001,21.088001,concentric,6,5.0,19009.0,403431.0,222303.0,81896.0,7347.0
2026-04-09 22:23:04.865090,377784,2314825710,2314827272,-1.085312,0.259616,0.054656,6.95625,15.00625,-38.78875,24.928001,-8.272,20.816002,concentric,6,5.0,19009.0,403431.0,222303.0,81896.0,7347.0
2026-04-09 22:23:04.866662,377785,2314834700,2314835967,-1.085312,0.259616,0.054656,7.8225,14.752501,-39.17375,24.928001,-8.272,20.816002,concentric,6,5.0,19009.0,403431.0,222303.0,81896.0,7347.0
2026-04-09 22:23:04.897767,377786,2314843611,2314844700,-1.075552,0.251808,0.037088,8.8025,13.886251,-40.69625,25.056002,-8.08,20.160002,concentric,6,5.0,19009.0,403431.0,222303.0,81896.0,7347.0
2026-04-09 22:23:04.902185,377787,2314852528,2314853463,-1.075552,0.251808,0.037088,9.905,12.88,-41.58875,25.056002,-8.08,20.160002,concentric,6,5.0,19009.0,403431.0,222303.0,81896.0,7347.0
2026-04-09 22:23:04.903839,377788,2314867007,2314868361,-1.104832,0.259616,0.074176,11.64625,12.62625,-41.86,25.752,-7.968,19.640001,concentric,6,5.0,19009.0,403431.0,222303.0,81896.0,7347.0
2026-04-09 22:23:04.906040,377789,2314875898,2314877053,-1.104832,0.259616,0.074176,13.25625,12.5825,-42.201252,25.752,-7.968,19.640001,concentric,6,5.0,19009.0,403431.0,222303.0,81896.0,7347.0
2026-04-09 22:23:04.961842,377800,2314885477,2314885785,-1.089216,0.277184,0.1464,11.66375,13.2125,-42.65625,24.536001,-7.912,20.312,concentric,6,5.0,18933.0,403431.0,223389.0,82638.0,7538.0
2026-04-09 22:23:04.965943,377801,2314900257,2314900757,-1.089216,0.277184,0.1464,9.37125,14.595,-43.00625,24.536001,-7.912,20.312,concentric,6,5.0,18933.0,403431.0,223389.0,82638.0,7538.0
2026-04-09 22:23:04.967591,377802,2314909604,2314911525,-1.104832,0.275232,0.056608,6.76375,16.345,-43.30375,24.872002,-7.448,19.448002,concentric,6,5.0,18933.0,403431.0,223389.0,82638.0,7538.0
2026-04-09 22:23:04.969217,377803,2314918545,2314920264,-1.104832,0.275232,0.056608,2.45875,16.94875,-43.60125,24.872002,-7.448,19.448002,concentric,6,5.0,18933.0,403431.0,223389.0,82638.0,7538.0
2026-04-09 22:23:04.973458,377804,2314927498,2314929014,-1.114592,0.23424,0.056608,-0.76125,17.1325,-44.1175,25.44,-7.464,19.184,concentric,6,5.0,18933.0,403431.0,223389.0,82638.0,7538.0
2026-04-09 22:23:04.975011,377805,2314942062,2314944007,-1.114592,0.23424,0.056608,-0.8575,17.85,-45.0625,25.44,-7.464,19.184,concentric,6,5.0,18933.0,403431.0,223389.0,82638.0,7538.0
2026-04-09 22:23:04.982118,377806,2314951078,2314952748,-1.11264,0.261568,0.0976,2.19625,18.96125,-45.045002,24.768002,-7.104001,19.224,concentric,6,5.0,18933.0,403431.0,223389.0,82638.0,7538.0
2026-04-09 22:23:05.024092,377807,2314960043,2314961464,-1.11264,0.261568,0.0976,5.915,20.2125,-45.43875,24.768002,-7.104001,19.224,concentric,6,5.0,18933.0,403431.0,223389.0,82638.0,7538.0
2026-04-09 22:23:05.026318,377808,2314974522,2314976361,-1.128256,0.257664,0.037088,4.13875,20.0375,-44.98375,24.112001,-6.88,19.432001,concentric,6,5.0,18933.0,403431.0,223389.0,82638.0,7538.0
2026-04-09 22:23:05.053780,377818,2314983440,2314985229,-1.116544,0.208864,0.044896,-0.175,18.96125,-44.61625,24.472002,-6.512,15.824,concentric,6,5.0,18871.0,403431.0,224225.0,83262.0,7763.0
2026-04-09 22:23:05.056057,377819,2314992385,2314993909,-1.116544,0.208864,0.044896,-2.24875,18.69,-44.09125,24.472002,-6.512,15.824,concentric,6,5.0,18871.0,403431.0,224225.0,83262.0,7763.0
2026-04-09 22:23:05.057685,377820,2315001342,2315002654,-1.116544,0.208864,0.044896,-1.5225,17.75375,-44.31875,24.472002,-6.512,15.824,concentric,6,5.0,18871.0,403431.0,224225.0,83262.0,7763.0
2026-04-09 22:23:05.059192,377821,2315015901,2315017610,-1.143872,0.222528,0.031232,1.39125,16.98375,-44.45875,24.136002,-6.272,18.328001,concentric,6,5.0,18871.0,403431.0,224225.0,83262.0,7763.0
2026-04-09 22:23:05.063507,377822,2315024855,2315026377,-1.149728,0.218624,0.054656,4.62,16.56375,-43.3125,24.096,-6.216,18.608002,concentric,6,5.0,18871.0,403431.0,224225.0,83262.0,7763.0
2026-04-09 22:23:05.065877,377823,2315033922,2315035180,-1.149728,0.218624,0.054656,6.08125,15.37375,-41.825,24.096,-6.216,18.608002,concentric,6,5.0,18871.0,403431.0,224225.0,83262.0,7763.0
2026-04-09 22:23:05.119153,377824,2315048477,2315050131,-1.134112,0.183488,0.033184,5.1625,14.2275,-41.11625,24.184002,-5.792,17.568,concentric,6,5.0,18871.0,403431.0,224225.0,83262.0,7763.0
2026-04-09 22:23:05.121354,377825,2315057422,2315058887,-1.134112,0.183488,0.033184,4.1475,11.5675,-40.005,24.184002,-5.792,17.568,concentric,6,5.0,18871.0,403431.0,224225.0,83262.0,7763.0
2026-04-09 22:23:05.125956,377826,2315066341,2315067583,-1.118496,0.1952,0.0488,4.40125,10.0625,-39.29625,24.264002,-5.4,17.512001,concentric,6,5.0,18871.0,403431.0,224225.0,83262.0,7763.0
2026-04-09 22:23:05.127709,377827,2315080810,2315082529,-1.118496,0.1952,0.0488,4.38375,10.15875,-38.75375,24.264002,-5.4,17.512001,concentric,6,5.0,18871.0,403431.0,224225.0,83262.0,7763.0
2026-04-09 22:23:05.153501,377837,2315089921,2315091258,-1.100928,0.226432,0.099552,4.445,12.1625,-38.57,23.160002,-5.816001,17.792002,concentric,6,5.0,18787.0,403431.0,225519.0,84091.0,8035.0
2026-04-09 22:23:05.156598,377838,2315098934,2315099968,-1.100928,0.226432,0.099552,4.61125,15.715,-38.68375,23.160002,-5.816001,17.792002,concentric,6,5.0,18787.0,403431.0,225519.0,84091.0,8035.0
2026-04-09 22:23:05.157618,377839,2315108015,2315108814,-1.106784,0.232288,0.0976,1.00625,19.32,-38.535,22.808,-5.696,18.224,concentric,6,5.0,18787.0,403431.0,225519.0,84091.0,8035.0
2026-04-09 22:23:05.159166,377840,2315123186,2315123805,-1.106784,0.232288,0.066368,-3.77125,23.0825,-38.01875,22.808,-5.696,18.224,concentric,6,5.0,18787.0,403431.0,225519.0,84091.0,8035.0
2026-04-09 22:23:05.164684,377841,2315132502,2315134594,-1.085312,0.206912,0.076128,-9.33625,25.4625,-39.7425,22.68,-4.8,17.944,concentric,6,5.0,18787.0,403431.0,225519.0,84091.0,8035.0
2026-04-09 22:23:05.175919,377842,2315141472,2315143288,-1.085312,0.206912,0.076128,-13.265,27.23,-39.69875,22.68,-4.8,17.944,concentric,6,5.0,18787.0,403431.0,225519.0,84091.0,8035.0
2026-04-09 22:23:05.182128,377843,2315150496,2315152035,-1.097024,0.193248,0.007808,-16.14375,28.28875,-39.0075,22.160002,-4.976,16.912,concentric,6,5.0,18787.0,403431.0,225519.0,84091.0,8035.0
2026-04-09 22:23:05.210521,377844,2315164981,2315166957,-1.114592,0.17568,0.03904,-16.9575,29.286251,-39.82125,21.984001,-4.784,19.344002,concentric,6,5.0,18787.0,403431.0,225519.0,84091.0,8035.0
2026-04-09 22:23:05.215175,377845,2315173895,2315175643,-1.114592,0.17568,0.03904,-13.895,30.40625,-37.8875,21.984001,-4.784,19.344002,concentric,6,5.0,18787.0,403431.0,225519.0,84091.0,8035.0
2026-04-09 22:23:05.216656,377846,2315182839,2315184322,-1.114592,0.17568,0.03904,-11.795,30.65125,-37.75625,21.984001,-4.784,19.344002,concentric,6,5.0,18787.0,403431.0,225519.0,84091.0,8035.0
2026-04-09 22:23:05.246708,377857,2315197362,2315199243,-1.075552,0.171776,-0.001952,-12.95,30.03,-38.08,22.656,-4.736,16.432001,concentric,6,5.0,18801.0,403431.0,225273.0,84032.0,8042.0
2026-04-09 22:23:05.250976,377858,2315206359,2315207992,-1.1224,0.148352,-0.02928,-12.6,29.33875,-36.575,21.432001,-4.512,16.656,concentric,6,5.0,18801.0,403431.0,225273.0,84032.0,8042.0
2026-04-09 22:23:05.252526,377859,2315215529,2315216841,-1.1224,0.148352,-0.02928,-12.55625,27.8075,-36.8025,21.432001,-4.512,16.656,concentric,6,5.0,18801.0,403431.0,225273.0,84032.0,8042.0
2026-04-09 22:23:05.281906,377860,2315230114,2315231830,-1.09312,0.154208,-0.0488,-11.13875,27.20375,-35.06125,21.232,-4.432,16.968,concentric,6,5.0,18801.0,403431.0,225273.0,84032.0,8042.0
2026-04-09 22:23:05.285482,377861,2315239102,2315240535,-1.09312,0.154208,-0.0488,-8.785,26.32875,-34.4225,21.232,-4.432,16.968,concentric,6,5.0,18801.0,403431.0,225273.0,84032.0,8042.0
2026-04-09 22:23:05.287916,377862,2315248104,2315249248,-1.11264,0.122976,-0.025376,-7.5425,25.3225,-36.05,21.616001,-4.704,15.912001,concentric,6,5.0,18801.0,403431.0,225273.0,84032.0,8042.0
2026-04-09 22:23:05.290400,377863,2315257012,2315257946,-1.11264,0.122976,-0.025376,-6.1075,25.10375,-35.0875,21.616001,-4.704,15.912001,concentric,6,5.0,18801.0,403431.0,225273.0,84032.0,8042.0
2026-04-09 22:23:05.320646,377864,2315271533,2315272862,-1.130208,0.132736,-0.060512,-3.47375,24.61375,-33.32,21.072,-4.888,14.784,concentric,6,5.0,18801.0,403431.0,225273.0,84032.0,8042.0
2026-04-09 22:23:05.324197,377865,2315280460,2315281579,-1.130208,0.132736,-0.060512,-3.85,23.75625,-33.3725,21.072,-4.888,14.784,concentric,6,5.0,18801.0,403431.0,225273.0,84032.0,8042.0
2026-04-09 22:23:05.349163,377875,2315289897,2315290382,-1.104832,0.122976,-0.054656,-4.2175,23.73,-33.3725,21.68,-4.2,15.264001,concentric,6,5.0,18848.0,403431.0,223985.0,83118.0,7740.0
2026-04-09 22:23:05.351616,377876,2315304873,2315305338,-1.118496,0.122976,-0.015616,-7.4375,23.21375,-33.55625,19.672,-4.552,16.088001,concentric,6,5.0,18848.0,403431.0,223985.0,83118.0,7740.0
2026-04-09 22:23:05.354131,377877,2315314351,2315316097,-1.118496,0.122976,-0.015616,-10.43875,23.54625,-33.48625,19.672,-4.552,16.088001,concentric,6,5.0,18848.0,403431.0,223985.0,83118.0,7740.0
2026-04-09 22:23:05.356748,377878,2315323315,2315324864,-1.118496,0.122976,-0.015616,-8.46125,25.305,-33.7225,19.672,-4.552,16.088001,concentric,6,5.0,18848.0,403431.0,223985.0,83118.0,7740.0
2026-04-09 22:23:05.363014,377879,2315332257,2315333586,-1.057984,0.113216,0.013664,-9.073751,27.2825,-35.84,19.584002,-4.576,16.336,concentric,6,5.0,18848.0,403431.0,223985.0,83118.0,7740.0
2026-04-09 22:23:05.416970,377880,2315346763,2315348549,-1.09312,0.128832,-0.089792,-12.81875,30.26625,-37.35375,20.12,-3.672,14.624001,concentric,6,5.0,18848.0,403431.0,223985.0,83118.0,7740.0
2026-04-09 22:23:05.420457,377881,2315355724,2315357274,-1.09312,0.128832,-0.089792,-18.69875,32.1125,-35.7525,20.12,-3.672,14.624001,concentric,6,5.0,18848.0,403431.0,223985.0,83118.0,7740.0
2026-04-09 22:23:05.422954,377882,2315364653,2315365986,-1.077504,0.015616,-0.203008,-26.20625,29.18125,-34.615,20.12,-3.672,13.8,concentric,6,5.0,18848.0,403431.0,223985.0,83118.0,7740.0
2026-04-09 22:23:05.425482,377883,2315379146,2315380862,-1.077504,0.015616,-0.203008,-32.7775,23.87875,-34.5275,19.864,-3.928,13.8,concentric,6,5.0,18848.0,403431.0,223985.0,83118.0,7740.0
2026-04-09 22:23:05.450369,377893,2315388313,2315389750,-1.077504,0.025376,-0.111264,-27.9825,18.99625,-32.52375,19.768002,-4.328,14.096001,concentric,6,5.0,18917.0,403431.0,223381.0,82940.0,7822.0
2026-04-09 22:23:05.452952,377894,2315397264,2315398477,-1.077504,0.025376,-0.111264,-13.1075,15.56625,-30.66875,19.768002,-4.328,14.096001,concentric,6,5.0,18917.0,403431.0,223381.0,82940.0,7822.0
2026-04-09 22:23:05.455317,377895,2315406256,2315407205,-1.091168,0.074176,-0.066368,0.5075,14.07875,-30.54625,19.896002,-4.056,14.792001,concentric,6,5.0,18917.0,403431.0,223381.0,82940.0,7822.0
2026-04-09 22:23:05.457883,377896,2315420990,2315422097,-1.091168,0.074176,-0.066368,6.15125,12.6525,-29.35625,19.896002,-4.056,14.792001,concentric,6,5.0,18917.0,403431.0,223381.0,82940.0,7822.0
2026-04-09 22:23:05.460510,377897,2315429936,2315430826,-1.056032,0.033184,-0.054656,6.04625,12.73125,-29.75875,19.056002,-4.192,14.928,concentric,6,5.0,18917.0,403431.0,223381.0,82940.0,7822.0
2026-04-09 22:23:05.471755,377898,2315438883,2315439575,-1.056032,0.033184,-0.054656,1.33,13.965,-30.66875,19.056002,-4.192,14.928,concentric,6,5.0,18917.0,403431.0,223381.0,82940.0,7822.0
2026-04-09 22:23:05.500717,377899,2315453769,2315454447,-1.050176,0.052704,-0.015616,-0.595,16.8875,-30.5725,19.328001,-4.088,13.904,concentric,6,5.0,18917.0,403431.0,223381.0,82940.0,7822.0
2026-04-09 22:23:05.504189,377900,2315463114,2315465220,-1.050176,0.052704,-0.015616,-2.6075,18.9,-30.84375,19.328001,-4.088,13.904,concentric,6,5.0,18917.0,403431.0,223381.0,82940.0,7822.0
2026-04-09 22:23:05.506648,377901,2315472057,2315473954,-1.130208,0.062464,-0.083936,-3.77125,18.9175,-28.63875,19.36,-3.784,14.248001,concentric,6,5.0,18917.0,403431.0,223381.0,82940.0,7822.0
2026-04-09 22:23:05.510407,377902,2315480987,2315482651,-1.130208,0.062464,-0.083936,-5.075,19.18,-30.23125,19.36,-3.784,14.248001,concentric,6,5.0,18917.0,403431.0,223381.0,82940.0,7822.0
2026-04-09 22:23:05.540413,377913,2315495577,2315497623,-1.013088,-0.001952,-0.044896,-6.29125,19.94125,-32.27875,19.080002,-3.84,13.464001,concentric,6,5.0,18986.0,403431.0,221985.0,81778.0,7348.0
2026-04-09 22:23:05.542930,377914,2315504521,2315506336,-1.013088,-0.001952,-0.044896,-5.43375,21.83125,-32.66375,19.080002,-3.84,13.464001,concentric,6,5.0,18986.0,403431.0,221985.0,81778.0,7348.0
2026-04-09 22:23:05.545469,377915,2315513469,2315515089,-1.075552,0.003904,-0.046848,-3.99,24.36,-32.85625,17.92,-3.632,13.56,concentric,6,5.0,18986.0,403431.0,221985.0,81778.0,7348.0
2026-04-09 22:23:05.578167,377916,2315527971,2315529989,-1.0248,0.03904,-0.113216,-3.57,24.94625,-31.7275,18.744001,-3.536,13.296001,concentric,6,5.0,18986.0,403431.0,221985.0,81778.0,7348.0
2026-04-09 22:23:05.581672,377917,2315536868,2315538715,-1.0248,0.03904,-0.113216,-4.9525,23.4325,-31.59625,18.744001,-3.536,13.296001,concentric,6,5.0,18986.0,403431.0,221985.0,81778.0,7348.0
2026-04-09 22:23:05.584143,377918,2315545795,2315547387,-1.095072,0.103456,-0.072224,-4.73375,22.4175,-31.4125,18.448,-3.968,11.984,concentric,6,5.0,18986.0,403431.0,221985.0,81778.0,7348.0
2026-04-09 22:23:05.590411,377919,2315560400,2315562334,-1.095072,0.103456,-0.072224,0.90125,22.91625,-30.1175,18.448,-3.968,11.984,concentric,6,5.0,18986.0,403431.0,221985.0,81778.0,7348.0
2026-04-09 22:23:05.620697,377920,2315569316,2315571029,-1.011136,-0.035136,-0.134688,0.14875,22.04125,-32.6725,17.76,-3.552,14.256001,concentric,6,5.0,18986.0,403431.0,221985.0,81778.0,7348.0
2026-04-09 22:23:05.624215,377921,2315578215,2315579708,-1.011136,-0.035136,-0.134688,-8.8725,20.53625,-35.9275,17.76,-3.552,14.256001,concentric,6,5.0,18986.0,403431.0,221985.0,81778.0,7348.0
2026-04-09 22:23:05.649188,377931,2315592831,2315594893,-1.032608,-0.105408,-0.089792,-12.59125,18.9875,-35.23625,18.016,-3.984,12.712001,concentric,6,5.0,19001.0,403431.0,221307.0,81508.0,7361.0
2026-04-09 22:23:05.651630,377932,2315601755,2315603627,-1.032608,-0.105408,-0.089792,-6.25625,17.19375,-33.5125,18.016,-3.984,12.712001,concentric,6,5.0,19001.0,403431.0,221307.0,81508.0,7361.0
2026-04-09 22:23:05.654198,377933,2315610688,2315612395,-1.139968,0.064416,-0.119072,2.63375,16.6425,-30.065,17.808,-3.272,12.920001,concentric,6,5.0,19001.0,403431.0,221307.0,81508.0,7361.0
2026-04-09 22:23:05.656962,377934,2315619801,2315621111,-1.139968,0.064416,-0.119072,10.03625,16.52,-26.17125,17.808,-3.272,12.920001,concentric,6,5.0,19001.0,403431.0,221307.0,81508.0,7361.0
2026-04-09 22:23:05.664273,377935,2315634291,2315636083,-0.997472,-0.046848,-0.111264,9.56375,13.51,-28.665,17.936,-3.384,12.464001,concentric,6,5.0,19001.0,403431.0,221307.0,81508.0,7361.0
2026-04-09 22:23:05.715868,377936,2315643234,2315644814,-0.997472,-0.046848,-0.111264,0.32375,11.17375,-32.03375,17.936,-3.384,12.464001,concentric,6,5.0,19001.0,403431.0,221307.0,81508.0,7361.0
2026-04-09 22:23:05.719310,377937,2315652167,2315653519,-1.091168,-0.111264,-0.124928,-2.63375,9.065,-28.7875,17.448,-2.888,12.192,concentric,6,5.0,19001.0,403431.0,221307.0,81508.0,7361.0
2026-04-09 22:23:05.721720,377938,2315666639,2315668430,-1.013088,-0.056608,-0.140544,2.135,7.7525,-23.59,17.816,-3.328,13.312,concentric,6,5.0,19001.0,403431.0,221307.0,81508.0,7361.0
2026-04-09 22:23:05.724089,377939,2315675582,2315677132,-1.013088,-0.056608,-0.140544,9.58125,7.42,-20.20375,17.816,-3.328,13.312,concentric,6,5.0,19001.0,403431.0,221307.0,81508.0,7361.0
2026-04-09 22:23:05.726677,377940,2315684487,2315685822,-1.013088,-0.056608,-0.140544,10.78875,5.62625,-21.25375,17.816,-3.328,13.312,concentric,6,5.0,19001.0,403431.0,221307.0,81508.0,7361.0
2026-04-09 22:23:05.756563,377950,2315699153,2315700778,-1.022848,-0.011712,-0.109312,13.86875,4.73375,-20.51,17.664001,-3.352,12.656,concentric,6,5.0,19030.0,403431.0,220411.0,80897.0,7206.0
2026-04-09 22:23:05.759133,377951,2315708153,2315709517,-1.038464,-0.060512,-0.12688,16.65125,3.5,-20.72,17.768002,-2.912,13.744,concentric,6,5.0,19030.0,403431.0,220411.0,80897.0,7206.0
2026-04-09 22:23:05.761640,377952,2315717202,2315718288,-1.038464,-0.060512,-0.12688,12.69625,1.98625,-20.79875,17.768002,-2.912,13.744,concentric,6,5.0,19030.0,403431.0,220411.0,80897.0,7206.0
2026-04-09 22:23:05.764287,377953,2315726128,2315727036,-0.929152,-0.095648,-0.031232,10.94625,1.6625,-19.92375,17.768002,-2.912,13.344001,concentric,6,5.0,19030.0,403431.0,220411.0,80897.0,7206.0
2026-04-09 22:23:05.770459,377954,2315740727,2315741975,-0.935008,-0.095648,-0.031232,12.46,3.68375,-20.09,16.976002,-2.936,13.344001,concentric,6,5.0,19030.0,403431.0,220411.0,80897.0,7206.0
2026-04-09 22:23:05.800690,377955,2315749618,2315750711,-1.120448,0.01952,-0.160064,11.24375,7.42875,-20.09875,16.496,-2.824,12.6,concentric,6,5.0,19030.0,403431.0,220411.0,80897.0,7206.0
2026-04-09 22:23:05.804262,377956,2315758541,2315759407,-1.120448,0.01952,-0.160064,11.235,8.4,-15.9425,16.496,-2.824,12.6,concentric,6,5.0,19030.0,403431.0,220411.0,80897.0,7206.0
2026-04-09 22:23:05.806591,377957,2315773038,2315774336,-0.960384,-0.119072,-0.193248,13.37875,6.48375,-14.88375,16.968,-3.112,14.144001,concentric,6,5.0,19030.0,403431.0,220411.0,80897.0,7206.0
2026-04-09 22:23:05.811734,377958,2315781959,2315783034,-0.960384,-0.119072,-0.193248,7.0175,1.575,-20.25625,16.968,-3.112,14.144001,concentric,6,5.0,19030.0,403431.0,220411.0,80897.0,7206.0
2026-04-09 22:23:05.840429,377968,2315791532,2315791918,-0.911584,-0.179584,-0.10736,6.18625,-2.03,-18.15625,17.056002,-2.064,12.696001,concentric,6,5.0,19086.0,403431.0,219014.0,80021.0,7012.0
2026-04-09 22:23:05.843002,377969,2315801038,2315802816,-0.911584,-0.179584,-0.10736,11.261251,-0.41125,-12.32875,17.056002,-2.064,12.696001,concentric,6,5.0,19086.0,403431.0,219014.0,80021.0,7012.0
2026-04-09 22:23:05.845648,377970,2315815548,2315817739,-1.075552,0.1464,0.076128,23.87875,6.1775,-8.39125,17.464,-2.512,12.176001,concentric,6,5.0,19086.0,403431.0,219014.0,80021.0,7012.0
2026-04-09 22:23:05.875912,377971,2315824543,2315826440,-1.075552,0.1464,0.076128,31.85875,14.44625,-8.9075,17.464,-2.512,12.176001,concentric,6,5.0,19086.0,403431.0,219014.0,80021.0,7012.0
2026-04-09 22:23:05.879235,377972,2315833414,2315835129,-0.903776,0.021472,-0.255712,13.36125,16.4325,-17.053751,17.336,-2.552,12.992001,concentric,6,5.0,19086.0,403431.0,219014.0,80021.0,7012.0
2026-04-09 22:23:05.881745,377973,2315847885,2315850025,-0.989664,-0.386496,-0.171776,-16.37125,11.698751,-20.991251,16.512001,-2.536,12.6,concentric,6,5.0,19086.0,403431.0,219014.0,80021.0,7012.0
2026-04-09 22:23:05.886732,377974,2315856821,2315858812,-0.989664,-0.386496,-0.171776,-29.49625,5.31125,-19.13625,16.512001,-2.536,12.6,concentric,6,5.0,19086.0,403431.0,219014.0,80021.0,7012.0
2026-04-09 22:23:05.916936,377975,2315865739,2315867518,-0.989664,-0.386496,-0.171776,-20.3875,1.7675,-12.3025,16.512001,-2.536,12.6,concentric,6,5.0,19086.0,403431.0,219014.0,80021.0,7012.0
2026-04-09 22:23:05.920461,377976,2315880241,2315882432,-1.1224,-0.021472,-0.257664,13.46625,0.55125,1.0325,16.872002,-2.352,11.384001,concentric,6,5.0,19086.0,403431.0,219014.0,80021.0,7012.0
2026-04-09 22:23:05.955623,377987,2315889154,2315891177,-0.919392,0.001952,-0.113216,38.7625,-1.155,4.17375,16.904001,-2.448,12.648001,concentric,6,5.0,19164.0,403431.0,217813.0,79560.0,7091.0
2026-04-09 22:23:05.957425,377988,2315898579,2315899964,-0.919392,0.001952,-0.113216,38.17625,-4.94375,-3.91125,16.904001,-2.448,12.648001,concentric,6,5.0,19164.0,403431.0,217813.0,79560.0,7091.0
2026-04-09 22:23:05.959282,377989,2315907607,2315908739,-1.003328,-0.244,-0.103456,22.7325,-8.3125,-5.215,17.016,-2.28,12.76,concentric,6,5.0,19164.0,403431.0,217813.0,79560.0,7091.0
2026-04-09 22:23:05.961759,377990,2315922116,2315923685,-1.003328,-0.244,-0.103456,11.095,-11.1125,-3.15875,17.016,-2.28,12.76,concentric,6,5.0,19164.0,403431.0,217813.0,79560.0,7091.0
2026-04-09 22:23:05.964228,377991,2315931048,2315932404,-1.009184,-0.072224,-0.050752,12.25875,-9.765,-0.35875,15.944001,-2.632,13.64,concentric,6,5.0,19164.0,403431.0,217813.0,79560.0,7091.0
2026-04-09 22:23:05.970451,377992,2315940213,2315941175,-1.009184,-0.072224,-0.050752,21.7,-6.58875,6.01125,15.944001,-2.632,13.64,concentric,6,5.0,19164.0,403431.0,217813.0,79560.0,7091.0
2026-04-09 22:23:06.019452,377993,2315954662,2315956169,-0.997472,0.0,-0.18544,19.99375,-5.5825,5.7925,16.808,-2.296,12.528001,concentric,6,5.0,19164.0,403431.0,217813.0,79560.0,7091.0
2026-04-09 22:23:06.022972,377994,2315963619,2315964879,-0.997472,0.0,-0.18544,12.99375,-6.5975,3.43875,16.808,-2.296,12.528001,concentric,6,5.0,19164.0,403431.0,217813.0,79560.0,7091.0
2026-04-09 22:23:06.025457,377995,2315972564,2315973625,-0.950624,-0.212768,-0.12688,7.525,-8.1025,-0.035,17.336,-2.328,12.968,concentric,6,5.0,19164.0,403431.0,217813.0,79560.0,7091.0
2026-04-09 22:23:06.028089,377996,2315981498,2315982319,-0.950624,-0.212768,-0.12688,7.7875,-6.86875,-0.245,17.336,-2.328,12.968,concentric,6,5.0,19164.0,403431.0,217813.0,79560.0,7091.0
2026-04-09 22:23:06.052865,378006,2315996039,2315997243,-1.056032,-0.121024,-0.12688,11.515,-2.65125,4.75125,17.68,-2.536,13.000001,concentric,6,5.0,19220.0,403431.0,216722.0,78623.0,6745.0
2026-04-09 22:23:06.055425,378007,2316005023,2316006008,-1.056032,-0.121024,-0.12688,12.60875,-0.41125,7.77,17.68,-2.536,13.000001,concentric,6,5.0,19220.0,403431.0,216722.0,78623.0,6745.0
2026-04-09 22:23:06.057880,378008,2316013966,2316014748,-0.944768,-0.093696,-0.11712,11.34875,-1.5225,6.3875,17.08,-2.584,12.144001,concentric,6,5.0,19220.0,403431.0,216722.0,78623.0,6745.0
2026-04-09 22:23:06.060428,378009,2316028480,2316029680,-0.968192,-0.189344,-0.109312,7.14875,-1.51375,-0.21,16.76,-2.704,15.512001,concentric,6,5.0,19220.0,403431.0,216722.0,78623.0,6745.0
2026-04-09 22:23:06.090652,378010,2316037472,2316038401,-0.968192,-0.189344,-0.109312,3.78,-0.1225,-1.07625,16.76,-2.704,15.512001,concentric,6,5.0,19220.0,403431.0,216722.0,78623.0,6745.0
2026-04-09 22:23:06.094236,378011,2316046451,2316047120,-0.968192,-0.189344,-0.109312,3.57875,1.35625,2.205,16.76,-2.704,15.512001,concentric,6,5.0,19220.0,403431.0,216722.0,78623.0,6745.0
2026-04-09 22:23:06.096680,378012,2316061362,2316062031,-1.052128,-0.095648,-0.240096,10.96375,2.7825,4.3225,16.784,-2.672,11.424001,concentric,6,5.0,19220.0,403431.0,216722.0,78623.0,6745.0
2026-04-09 22:23:06.101788,378013,2316070654,2316072811,-0.931104,-0.171776,-0.072224,11.0775,0.44625,0.9625,17.272001,-2.368,12.776001,concentric,6,5.0,19220.0,403431.0,216722.0,78623.0,6745.0
2026-04-09 22:23:06.131925,378014,2316079654,2316081549,-0.931104,-0.171776,-0.072224,7.27125,-0.35,-2.65125,17.272001,-2.368,12.776001,concentric,6,5.0,19220.0,403431.0,216722.0,78623.0,6745.0
2026-04-09 22:23:06.135503,378015,2316088668,2316090294,-1.00528,-0.050752,-0.062464,14.7875,1.61,-2.2225,17.608002,-2.072,14.264001,concentric,6,5.0,19220.0,403431.0,216722.0,78623.0,6745.0
2026-04-09 22:23:06.162972,378026,2316103211,2316105210,-1.00528,-0.050752,-0.062464,19.2325,4.2875,-3.325,17.608002,-2.072,14.264001,concentric,6,5.0,19208.0,403431.0,216354.0,78415.0,6705.0
2026-04-09 22:23:06.166179,378027,2316112152,2316113960,-0.979904,-0.074176,-0.148352,17.4125,7.51625,-4.235,17.336,-2.808,13.088,concentric,6,5.0,19208.0,403431.0,216354.0,78415.0,6705.0
2026-04-09 22:23:06.168785,378028,2316121232,2316122714,-0.979904,-0.074176,-0.148352,8.505,8.54,-8.67125,17.336,-2.808,13.088,concentric,6,5.0,19208.0,403431.0,216354.0,78415.0,6705.0
2026-04-09 22:23:06.170509,378029,2316135779,2316137725,-1.01504,-0.179584,-0.0976,-4.4975,8.21625,-8.39125,16.576,-2.744,14.664001,concentric,6,5.0,19208.0,403431.0,216354.0,78415.0,6705.0
2026-04-09 22:23:06.175463,378030,2316144747,2316146435,-1.01504,-0.179584,-0.0976,-4.3225,8.09375,-5.4775,16.576,-2.744,14.664001,concentric,6,5.0,19208.0,403431.0,216354.0,78415.0,6705.0
