pc_time,serial_num,sensor_ts,host_ts,ax,ay,az,gx,gy,gz,mx,my,mz,phase,rpe,weight_kg,ppg_a,ppg_b,ppg_c,ppg_d,ppg_e
2026-04-09 22:23:06.205596,378031,2316153782,2316155166,-0.993568,-0.076128,-0.130784,2.30125,8.68,-5.04,16.616001,-2.28,15.128,eccentric,6,5.0,19208.0,403431.0,216354.0,78415.0,6705.0
2026-04-09 22:23:06.209933,378032,2316162732,2316163897,-0.993568,-0.076128,-0.130784,9.4325,8.0325,-6.67625,16.616001,-2.28,15.128,eccentric,6,5.0,19208.0,403431.0,216354.0,78415.0,6705.0
2026-04-09 22:23:06.211669,378033,2316177248,2316178802,-0.948672,-0.095648,-0.046848,7.105,7.42,-9.21375,17.264,-2.536,13.040001,eccentric,6,5.0,19208.0,403431.0,216354.0,78415.0,6705.0
2026-04-09 22:23:06.217898,378034,2316186223,2316187535,-0.948672,-0.095648,-0.046848,2.61625,7.9275,-7.7,17.264,-2.536,13.040001,eccentric,6,5.0,19208.0,403431.0,216354.0,78415.0,6705.0
2026-04-09 22:23:06.242966,378044,2316195584,2316196784,-1.022848,-0.056608,-0.101504,3.1675,10.05375,-5.32875,17.048,-2.528,12.872001,eccentric,6,5.0,19233.0,403431.0,216011.0,78251.0,6740.0
2026-04-09 22:23:06.245405,378045,2316210173,2316211801,-0.99552,-0.080032,-0.119072,1.98625,10.0975,-6.99125,15.816001,-2.112,13.944,eccentric,6,5.0,19233.0,403431.0,216011.0,78251.0,6740.0
2026-04-09 22:23:06.247846,378046,2316219165,2316220558,-0.99552,-0.080032,-0.119072,-2.65125,8.6975,-7.81375,15.816001,-2.112,13.944,eccentric,6,5.0,19233.0,403431.0,216011.0,78251.0,6740.0
2026-04-09 22:23:06.331613,378047,2316228091,2316229250,-0.99552,-0.083936,-0.091744,-0.14875,7.02625,-5.38125,15.816001,-2.112,13.944,eccentric,6,5.0,19233.0,403431.0,216011.0,78251.0,6740.0
2026-04-09 22:23:06.333919,378048,2316242579,2316244135,-0.979904,-0.083936,-0.091744,3.4125,5.6,-6.76375,17.496,-2.336,12.968,eccentric,6,5.0,19233.0,403431.0,216011.0,78251.0,6740.0
2026-04-09 22:23:06.346384,378049,2316251537,2316252857,-0.98576,-0.054656,-0.076128,3.66625,5.08375,-6.79,17.392,-2.848,12.712001,eccentric,6,5.0,19233.0,403431.0,216011.0,78251.0,6740.0
2026-04-09 22:23:06.349482,378050,2316260453,2316261574,-0.98576,-0.054656,-0.076128,2.4675,5.41625,-4.82125,17.392,-2.848,12.712001,eccentric,6,5.0,19233.0,403431.0,216011.0,78251.0,6740.0
2026-04-09 22:23:06.350716,378051,2316269355,2316270288,-0.983808,-0.056608,-0.101504,2.59,5.81,-4.36625,16.880001,-2.528,12.752001,eccentric,6,5.0,19233.0,403431.0,216011.0,78251.0,6740.0
2026-04-09 22:23:06.353067,378052,2316283811,2316285184,-0.983808,-0.056608,-0.101504,-0.875,5.1975,-5.355,16.880001,-2.528,12.752001,eccentric,6,5.0,19233.0,403431.0,216011.0,78251.0,6740.0
2026-04-09 22:23:06.378931,378062,2316293034,2316293864,-0.997472,-0.044896,-0.173728,-4.85625,2.3975,-3.78,17.224,-2.128,12.664001,eccentric,6,5.0,19266.0,403431.0,215502.0,77860.0,6590.0
2026-04-09 22:23:06.380506,378063,2316302002,2316302579,-0.997472,-0.044896,-0.173728,-5.5475,0.04375,-1.505,17.224,-2.128,12.664001,eccentric,6,5.0,19266.0,403431.0,215502.0,77860.0,6590.0
2026-04-09 22:23:06.384680,378064,2316316805,2316317545,-1.001376,-0.101504,-0.0976,-6.53625,-1.88125,-2.40625,17.36,-2.576,13.488001,eccentric,6,5.0,19266.0,403431.0,215502.0,77860.0,6590.0
2026-04-09 22:23:06.386418,378065,2316326298,2316328378,-1.001376,-0.101504,-0.0976,-1.925,-2.00375,-0.5075,17.36,-2.576,13.488001,eccentric,6,5.0,19266.0,403431.0,215502.0,77860.0,6590.0
2026-04-09 22:23:06.388875,378066,2316335333,2316337127,-1.026752,-0.02928,-0.025376,5.88,-0.07,1.93375,17.104,-2.544,14.824,eccentric,6,5.0,19266.0,403431.0,215502.0,77860.0,6590.0
2026-04-09 22:23:06.390366,378067,2316344381,2316345832,-1.026752,-0.02928,-0.025376,6.685,2.1175,2.3275,17.104,-2.544,14.824,eccentric,6,5.0,19266.0,403431.0,215502.0,77860.0,6590.0
2026-04-09 22:23:06.394577,378068,2316359093,2316360871,-0.958432,-0.050752,-0.080032,-0.2625,2.82625,1.645,16.720001,-2.152,13.976001,eccentric,6,5.0,19266.0,403431.0,215502.0,77860.0,6590.0
2026-04-09 22:23:06.398766,378069,2316368110,2316369588,-0.958432,-0.050752,-0.080032,-9.61625,2.93125,1.93375,16.720001,-2.152,13.976001,eccentric,6,5.0,19266.0,403431.0,215502.0,77860.0,6590.0
2026-04-09 22:23:06.429997,378070,2316377040,2316378281,-1.065792,-0.025376,-0.179584,-12.78375,2.42375,6.2125,16.992,-2.264,12.424001,eccentric,6,5.0,19266.0,403431.0,215502.0,77860.0,6590.0
2026-04-09 22:23:06.455955,378080,2316391556,2316393657,-1.046272,-0.076128,-0.150304,-11.20875,-0.0875,9.03875,17.752,-2.496,12.912001,eccentric,6,5.0,19287.0,403431.0,214998.0,77340.0,6358.0
2026-04-09 22:23:06.457648,378081,2316400551,2316402370,-1.046272,-0.076128,-0.150304,-7.0,-3.955,8.28625,17.752,-2.496,12.912001,eccentric,6,5.0,19287.0,403431.0,214998.0,77340.0,6358.0
2026-04-09 22:23:06.459207,378082,2316409502,2316411093,-0.989664,-0.06832,-0.007808,-0.525,-5.5475,7.665,17.232,-2.744,15.488001,eccentric,6,5.0,19287.0,403431.0,214998.0,77340.0,6358.0
2026-04-09 22:23:06.463538,378083,2316418495,2316419865,-0.989664,-0.06832,-0.007808,4.41,-5.76625,7.42875,17.232,-2.744,15.488001,eccentric,6,5.0,19287.0,403431.0,214998.0,77340.0,6358.0
2026-04-09 22:23:06.465890,378084,2316433067,2316434826,-1.020896,0.017568,-0.085888,6.08125,-4.15625,10.17625,17.064001,-2.528,14.080001,eccentric,6,5.0,19287.0,403431.0,214998.0,77340.0,6358.0
2026-04-09 22:23:06.495723,378085,2316442019,2316443587,-1.020896,0.017568,-0.085888,2.33625,-2.38875,11.042501,17.064001,-2.528,14.080001,eccentric,6,5.0,19287.0,403431.0,214998.0,77340.0,6358.0
2026-04-09 22:23:06.499221,378086,2316451026,2316452295,-1.059936,-0.035136,-0.222528,-5.3725,-3.33375,12.92375,18.136002,-3.28,13.160001,eccentric,6,5.0,19287.0,403431.0,214998.0,77340.0,6358.0
2026-04-09 22:23:06.501668,378087,2316465492,2316467220,-1.059936,-0.035136,-0.222528,-9.31,-8.44375,12.7225,18.136002,-3.28,13.160001,eccentric,6,5.0,19287.0,403431.0,214998.0,77340.0,6358.0
2026-04-09 22:23:06.507919,378088,2316474406,2316476827,-0.989664,-0.10736,-0.109312,-7.665,-13.29125,11.62,18.264,-2.92,13.448001,eccentric,6,5.0,19287.0,403431.0,214998.0,77340.0,6358.0
2026-04-09 22:23:06.514487,378089,2316483438,2316485529,-0.989664,-0.10736,-0.109312,2.45875,-15.47,14.28875,18.264,-2.92,13.448001,eccentric,6,5.0,19287.0,403431.0,214998.0,77340.0,6358.0
2026-04-09 22:23:06.624209,378100,2316498076,2316498521,-0.99552,-0.031232,-0.064416,12.11875,-15.8375,15.49625,17.44,-2.848,14.728001,eccentric,6,5.0,19312.0,403431.0,214655.0,77434.0,6572.0
2026-04-09 22:23:06.629283,378101,2316507396,2316509276,-0.99552,-0.031232,-0.064416,16.178751,-14.4025,17.22875,17.44,-2.848,14.728001,eccentric,6,5.0,19312.0,403431.0,214655.0,77434.0,6572.0
2026-04-09 22:23:06.640530,378102,2316516292,2316517958,-1.20048,0.05856,-0.238144,16.10875,-16.7825,19.53875,18.808,-2.368,13.104001,eccentric,6,5.0,19312.0,403431.0,214655.0,77434.0,6572.0
2026-04-09 22:23:06.642955,378103,2316525178,2316526661,-1.20048,0.05856,-0.238144,10.64875,-22.3825,22.89875,18.808,-2.368,13.104001,eccentric,6,5.0,19312.0,403431.0,214655.0,77434.0,6572.0
2026-04-09 22:23:06.645579,378104,2316539694,2316541564,-1.018944,-0.109312,-0.183488,6.4575,-30.03875,21.1925,18.68,-2.384,13.68,eccentric,6,5.0,19312.0,403431.0,214655.0,77434.0,6572.0
2026-04-09 22:23:06.648013,378105,2316548877,2316550315,-1.018944,-0.109312,-0.183488,6.7725,-34.48375,18.2525,18.68,-2.384,13.68,eccentric,6,5.0,19312.0,403431.0,214655.0,77434.0,6572.0
2026-04-09 22:23:06.655532,378106,2316557788,2316559012,-1.065792,-0.10736,0.027328,17.12375,-33.95875,22.365,17.912,-2.816,15.632001,eccentric,6,5.0,19312.0,403431.0,214655.0,77434.0,6572.0
2026-04-09 22:23:06.657896,378107,2316572224,2316573951,-1.050176,0.15616,-0.017568,28.9275,-29.26,27.18625,19.912,-3.104,14.552001,eccentric,6,5.0,19312.0,403431.0,214655.0,77434.0,6572.0
2026-04-09 22:23:06.660433,378108,2316581144,2316582638,-1.050176,0.15616,-0.017568,34.6325,-23.616251,26.7575,19.912,-3.104,14.552001,eccentric,6,5.0,19312.0,403431.0,214655.0,77434.0,6572.0
2026-04-09 22:23:06.663290,378109,2316590087,2316591331,-1.087264,0.0976,-0.101504,24.185,-20.553751,20.01125,19.512001,-3.288,14.256001,eccentric,6,5.0,19312.0,403431.0,214655.0,77434.0,6572.0
2026-04-09 22:23:06.694212,378119,2316604817,2316606297,-1.087264,0.0976,-0.101504,9.68625,-20.86875,17.29875,19.512001,-3.288,14.256001,eccentric,6,5.0,19299.0,403431.0,214814.0,77821.0,6834.0
2026-04-09 22:23:06.696681,378120,2316613754,2316615013,-1.020896,-0.080032,-0.001952,6.3525,-21.0875,16.8875,19.888,-3.392,14.776001,eccentric,6,5.0,19299.0,403431.0,214814.0,77821.0,6834.0
2026-04-09 22:23:06.704791,378121,2316622843,2316623716,-1.020896,-0.080032,-0.001952,6.23875,-20.4225,13.60625,19.888,-3.392,14.776001,eccentric,6,5.0,19299.0,403431.0,214814.0,77821.0,6834.0
2026-04-09 22:23:06.706438,378122,2316631802,2316632509,-1.048224,0.0488,-0.015616,11.480001,-19.0575,18.7425,19.880001,-3.144,16.912,eccentric,6,5.0,19299.0,403431.0,214814.0,77821.0,6834.0
2026-04-09 22:23:06.707972,378123,2316646835,2316647459,-1.048224,0.0488,-0.015616,20.16875,-16.21375,22.88125,19.880001,-3.144,16.912,eccentric,6,5.0,19299.0,403431.0,214814.0,77821.0,6834.0
2026-04-09 22:23:06.712265,378124,2316656071,2316658240,-0.993568,0.072224,0.001952,23.205,-13.09,21.27125,19.736,-3.032,15.824,eccentric,6,5.0,19299.0,403431.0,214814.0,77821.0,6834.0
2026-04-09 22:23:06.713991,378125,2316665045,2316667000,-0.993568,0.072224,0.001952,16.59,-11.55875,16.33625,19.736,-3.032,15.824,eccentric,6,5.0,19299.0,403431.0,214814.0,77821.0,6834.0
2026-04-09 22:23:06.715526,378126,2316674099,2316675746,-1.13216,0.099552,-0.119072,8.12,-12.3725,15.96,19.672,-2.76,15.232,eccentric,6,5.0,19299.0,403431.0,214814.0,77821.0,6834.0
2026-04-09 22:23:06.720880,378127,2316688703,2316690761,-1.13216,0.099552,-0.119072,10.0275,-14.2625,21.28,19.672,-2.76,15.232,eccentric,6,5.0,19299.0,403431.0,214814.0,77821.0,6834.0
2026-04-09 22:23:06.747548,378137,2316698435,2316699612,-1.057984,-0.007808,-0.07808,12.59125,-18.2525,19.53,19.92,-2.832,14.6,eccentric,6,5.0,19314.0,403431.0,214767.0,77959.0,6987.0
2026-04-09 22:23:06.748906,378138,2316707396,2316708385,-1.057984,-0.007808,-0.07808,13.658751,-21.210001,17.22875,19.92,-2.832,14.6,eccentric,6,5.0,19314.0,403431.0,214767.0,77959.0,6987.0
2026-04-09 22:23:06.754143,378139,2316721913,2316723338,-1.040416,0.02928,0.072224,19.6175,-21.455,20.5625,20.552,-3.216,16.800001,eccentric,6,5.0,19314.0,403431.0,214767.0,77959.0,6987.0
2026-04-09 22:23:06.762137,378140,2316730928,2316732036,-1.106784,0.121024,0.042944,25.9175,-19.60875,20.5975,19.888,-3.16,17.952002,eccentric,6,5.0,19314.0,403431.0,214767.0,77959.0,6987.0
2026-04-09 22:23:06.769665,378141,2316739870,2316740763,-1.106784,0.121024,0.042944,26.880001,-15.855001,22.25125,19.888,-3.16,17.952002,eccentric,6,5.0,19314.0,403431.0,214767.0,77959.0,6987.0
2026-04-09 22:23:06.801252,378142,2316748829,2316749482,-1.106784,0.121024,0.042944,21.07875,-13.8425,23.14375,19.888,-3.16,17.952002,eccentric,6,5.0,19314.0,403431.0,214767.0,77959.0,6987.0
2026-04-09 22:23:06.802752,378143,2316763660,2316764394,-1.097024,0.121024,-0.001952,11.27,-13.055,21.1925,21.424002,-3.656,19.2,eccentric,6,5.0,19314.0,403431.0,214767.0,77959.0,6987.0
2026-04-09 22:23:06.804331,378144,2316773009,2316775152,-1.139968,0.0976,0.025376,8.5925,-12.36375,20.93,21.496,-4.088,16.616001,eccentric,6,5.0,19314.0,403431.0,214767.0,77959.0,6987.0
2026-04-09 22:23:06.837393,378145,2316782075,2316783859,-1.139968,0.0976,0.025376,10.08,-13.08125,19.13625,21.496,-4.088,16.616001,eccentric,6,5.0,19314.0,403431.0,214767.0,77959.0,6987.0
2026-04-09 22:23:06.839048,378146,2316791034,2316792625,-1.026752,0.076128,0.001952,12.97625,-12.355001,21.04375,22.416,-3.144,17.912,eccentric,6,5.0,19314.0,403431.0,214767.0,77959.0,6987.0
2026-04-09 22:23:06.881107,378157,2316805550,2316807553,-1.026752,0.076128,0.001952,13.85125,-11.445,20.265,22.416,-3.144,17.912,eccentric,6,5.0,19159.0,403431.0,215574.0,78284.0,6965.0
2026-04-09 22:23:06.882777,378158,2316814470,2316816260,-0.989664,0.076128,0.050752,11.4275,-10.465,17.54375,22.664001,-3.448,16.184,eccentric,6,5.0,19159.0,403431.0,215574.0,78284.0,6965.0
2026-04-09 22:23:06.884247,378159,2316823447,2316824993,-0.989664,0.076128,0.050752,10.115,-9.8,15.30375,22.664001,-3.448,16.184,eccentric,6,5.0,19159.0,403431.0,215574.0,78284.0,6965.0
2026-04-09 22:23:06.918350,378160,2316838005,2316839958,-1.149728,0.203008,-0.056608,7.49,-9.1525,13.9125,21.792002,-3.96,14.368001,eccentric,6,5.0,19159.0,403431.0,215574.0,78284.0,6965.0
2026-04-09 22:23:06.922697,378161,2316847034,2316848755,-1.149728,0.203008,-0.056608,10.35125,-9.1525,14.875,21.792002,-3.96,14.368001,eccentric,6,5.0,19159.0,403431.0,215574.0,78284.0,6965.0
2026-04-09 22:23:06.925199,378162,2316855997,2316857469,-1.056032,0.181536,-0.021472,23.45875,-9.86125,16.07375,21.304,-3.328,17.816,eccentric,6,5.0,19159.0,403431.0,215574.0,78284.0,6965.0
2026-04-09 22:23:06.926700,378163,2316870508,2316872367,-1.056032,0.025376,0.042944,20.1075,-12.4775,7.1575,21.304,-3.328,17.816,eccentric,6,5.0,19159.0,403431.0,215574.0,78284.0,6965.0
2026-04-09 22:23:06.931074,378164,2316879483,2316881073,-1.022848,0.027328,0.042944,8.3825,-14.2625,4.22625,21.048,-3.632,17.616001,eccentric,6,5.0,19159.0,403431.0,215574.0,78284.0,6965.0
2026-04-09 22:23:06.932823,378165,2316888404,2316889755,-1.022848,0.027328,0.042944,9.275,-13.615,6.74625,21.048,-3.632,17.616001,eccentric,6,5.0,19159.0,403431.0,215574.0,78284.0,6965.0
2026-04-09 22:23:06.960488,378175,2316902965,2316904738,-1.057984,0.134688,0.089792,10.92875,-11.0775,4.97,22.560001,-3.728,17.6,eccentric,6,5.0,19102.0,403431.0,215987.0,78359.0,6845.0
2026-04-09 22:23:06.964839,378176,2316911968,2316913536,-1.155584,0.189344,-0.01952,14.63875,-6.88625,8.61,22.624,-3.704,18.672,eccentric,6,5.0,19102.0,403431.0,215987.0,78359.0,6845.0
2026-04-09 22:23:06.966466,378177,2316921023,2316922304,-1.155584,0.189344,-0.01952,9.730001,-5.32875,11.20875,22.624,-3.704,18.672,eccentric,6,5.0,19102.0,403431.0,215987.0,78359.0,6845.0
2026-04-09 22:23:06.968029,378178,2316930085,2316931011,-1.155584,0.189344,-0.01952,0.55125,-6.5625,12.18875,22.624,-3.704,18.672,eccentric,6,5.0,19102.0,403431.0,215987.0,78359.0,6845.0
2026-04-09 22:23:06.975866,378179,2316944612,2316945970,-1.067744,0.11712,0.0,1.89875,-9.23125,10.465,22.152,-3.368,15.976001,eccentric,6,5.0,19102.0,403431.0,215987.0,78359.0,6845.0
2026-04-09 22:23:07.004524,378180,2316953612,2316954676,-1.1224,0.113216,0.023424,2.94,-11.235,6.23,22.464,-3.768,18.424002,eccentric,6,5.0,19102.0,403431.0,215987.0,78359.0,6845.0
2026-04-09 22:23:07.008907,378181,2316962591,2316963373,-1.1224,0.113216,0.023424,6.78125,-12.48625,8.26,22.464,-3.768,18.424002,eccentric,6,5.0,19102.0,403431.0,215987.0,78359.0,6845.0
2026-04-09 22:23:07.010451,378182,2316977092,2316978252,-1.157536,0.17568,0.021472,12.9675,-13.0375,10.96375,24.032001,-2.856,17.848001,eccentric,6,5.0,19102.0,403431.0,215987.0,78359.0,6845.0
2026-04-09 22:23:07.016223,378183,2316986016,2316986980,-1.157536,0.17568,0.021472,16.52875,-11.55,10.91125,24.032001,-2.856,17.848001,eccentric,6,5.0,19102.0,403431.0,215987.0,78359.0,6845.0
2026-04-09 22:23:07.044497,378184,2316994978,2316995700,-1.11264,0.163968,0.081984,14.28875,-10.19375,9.61625,22.984001,-3.04,18.728,eccentric,6,5.0,19102.0,403431.0,215987.0,78359.0,6845.0
2026-04-09 22:23:07.074495,378194,2317004322,2317006511,-1.11264,0.163968,0.081984,9.3625,-9.205,7.25375,22.984001,-3.04,18.728,eccentric,6,5.0,19000.0,403431.0,217336.0,78858.0,6694.0
2026-04-09 22:23:07.076521,378195,2317018838,2317019350,-1.104832,0.11712,0.070272,6.615,-7.44625,6.22125,23.912,-3.272,17.936,eccentric,6,5.0,19000.0,403431.0,217336.0,78858.0,6694.0
2026-04-09 22:23:07.078949,378196,2317028432,2317030220,-1.104832,0.11712,0.070272,1.51375,-6.9125,6.685,23.912,-3.272,17.936,eccentric,6,5.0,19000.0,403431.0,217336.0,78858.0,6694.0
2026-04-09 22:23:07.080470,378197,2317037476,2317038915,-1.128256,0.0976,-0.015616,-0.4375,-6.615,8.417501,23.752,-3.408,18.664001,eccentric,6,5.0,19000.0,403431.0,217336.0,78858.0,6694.0
2026-04-09 22:23:07.082975,378198,2317053042,2317053932,-1.130208,0.089792,0.060512,3.07125,-6.825,10.9025,24.248001,-4.584,18.424002,eccentric,6,5.0,19000.0,403431.0,217336.0,78858.0,6694.0
2026-04-09 22:23:07.113191,378199,2317062018,2317062752,-1.130208,0.089792,0.060512,8.49625,-6.4575,12.83625,24.248001,-4.584,18.424002,eccentric,6,5.0,19000.0,403431.0,217336.0,78858.0,6694.0
2026-04-09 22:23:07.116820,378200,2317071357,2317073565,-1.130208,0.132736,0.105408,11.13,-5.495,15.1375,24.248001,-4.584,18.424002,eccentric,6,5.0,19000.0,403431.0,217336.0,78858.0,6694.0
2026-04-09 22:23:07.120073,378201,2317080288,2317082276,-1.100928,0.132736,0.105408,8.95125,-4.1125,16.905,24.184002,-4.224,17.800001,eccentric,6,5.0,19000.0,403431.0,217336.0,78858.0,6694.0
2026-04-09 22:23:07.128598,378202,2317094823,2317095149,-1.10288,0.13664,0.070272,5.845,-2.8175,17.84125,24.296001,-3.688,20.552,eccentric,6,5.0,19000.0,403431.0,217336.0,78858.0,6694.0
2026-04-09 22:23:07.155222,378213,2317104123,2317106030,-1.10288,0.13664,0.070272,4.59375,-2.1875,17.96375,24.296001,-3.688,20.552,eccentric,6,5.0,18948.0,403431.0,218287.0,79319.0,6707.0
2026-04-09 22:23:07.158472,378214,2317113130,2317114812,-1.126304,0.150304,0.070272,0.32375,-1.54875,18.47125,23.272001,-3.856,20.0,eccentric,6,5.0,18948.0,403431.0,218287.0,79319.0,6707.0
2026-04-09 22:23:07.160980,378215,2317122175,2317123557,-1.126304,0.150304,0.070272,-0.74375,-1.12,19.635,23.272001,-3.856,20.0,eccentric,6,5.0,18948.0,403431.0,218287.0,79319.0,6707.0
2026-04-09 22:23:07.216672,378216,2317136661,2317138499,-1.110688,0.15616,0.056608,0.30625,-1.58375,19.1625,23.672,-3.952,20.016,eccentric,6,5.0,18948.0,403431.0,218287.0,79319.0,6707.0
2026-04-09 22:23:07.221099,378217,2317145672,2317147207,-1.110688,0.15616,0.056608,0.84,-2.35375,18.40125,23.672,-3.952,20.016,eccentric,6,5.0,18948.0,403431.0,218287.0,79319.0,6707.0
2026-04-09 22:23:07.222733,378218,2317154572,2317155946,-1.114592,0.160064,0.056608,4.06,-2.73,18.34875,25.304,-4.192,19.080002,eccentric,6,5.0,18948.0,403431.0,218287.0,79319.0,6707.0
2026-04-09 22:23:07.224310,378219,2317169053,2317170848,-1.114592,0.160064,0.056608,7.8925,-2.73,17.07125,25.304,-4.192,19.080002,eccentric,6,5.0,18948.0,403431.0,218287.0,79319.0,6707.0
2026-04-09 22:23:07.229650,378220,2317178015,2317179542,-1.14192,0.177632,0.105408,9.135,-3.80625,15.72375,25.488,-4.432,19.272001,eccentric,6,5.0,18948.0,403431.0,218287.0,79319.0,6707.0
2026-04-09 22:23:07.230233,378221,2317186920,2317188216,-1.14192,0.177632,0.105408,9.2575,-3.9375,15.225,25.488,-4.432,19.272001,eccentric,6,5.0,18948.0,403431.0,218287.0,79319.0,6707.0
2026-04-09 22:23:07.231801,378222,2317195814,2317196935,-1.163392,0.17568,0.113216,7.455,-3.10625,13.83375,25.088001,-4.192,19.608002,eccentric,6,5.0,18948.0,403431.0,218287.0,79319.0,6707.0
2026-04-09 22:23:07.260211,378232,2317210402,2317211912,-1.163392,0.17568,0.113216,5.0225,-3.7275,13.15125,25.088001,-4.192,19.608002,eccentric,6,5.0,18905.0,403431.0,218949.0,79584.0,6662.0
2026-04-09 22:23:07.262063,378233,2317219401,2317220640,-1.139968,0.158112,0.101504,3.2375,-3.4825,10.28125,24.816002,-4.216,20.168001,eccentric,6,5.0,18905.0,403431.0,218949.0,79584.0,6662.0
2026-04-09 22:23:07.265872,378234,2317228311,2317229382,-1.139968,0.158112,0.101504,0.3675,-3.6925,10.35125,24.816002,-4.216,20.168001,eccentric,6,5.0,18905.0,403431.0,218949.0,79584.0,6662.0
2026-04-09 22:23:07.294437,378235,2317242823,2317244297,-1.157536,0.144448,0.07808,-1.54,-2.695,12.1625,24.944,-3.744,20.464,eccentric,6,5.0,18905.0,403431.0,218949.0,79584.0,6662.0
2026-04-09 22:23:07.299072,378236,2317251731,2317253023,-1.157536,0.144448,0.07808,-1.93375,-3.21125,12.50375,24.944,-3.744,20.464,eccentric,6,5.0,18905.0,403431.0,218949.0,79584.0,6662.0
2026-04-09 22:23:07.300539,378237,2317260629,2317261726,-1.14192,0.109312,0.083936,0.3675,-3.885,13.37,26.072,-4.512,16.584002,eccentric,6,5.0,18905.0,403431.0,218949.0,79584.0,6662.0
2026-04-09 22:23:07.305923,378238,2317275137,2317276666,-1.14192,0.162016,0.076128,4.92625,-4.62,16.19625,25.240002,-4.544,21.12,eccentric,6,5.0,18905.0,403431.0,218949.0,79584.0,6662.0
2026-04-09 22:23:07.334492,378239,2317284074,2317285430,-1.14192,0.162016,0.076128,9.16125,-4.48,17.1325,25.240002,-4.544,21.12,eccentric,6,5.0,18905.0,403431.0,218949.0,79584.0,6662.0
2026-04-09 22:23:07.337990,378240,2317293004,2317294104,-1.138016,0.169824,0.083936,11.22625,-4.61125,17.70125,26.272001,-4.856,20.104,eccentric,6,5.0,18905.0,403431.0,218949.0,79584.0,6662.0
2026-04-09 22:23:07.363030,378250,2317307633,2317309167,-1.138016,0.169824,0.083936,9.765,-5.4075,17.63125,26.272001,-4.856,20.104,eccentric,6,5.0,18848.0,403431.0,219729.0,80156.0,6866.0
2026-04-09 22:23:07.367249,378251,2317316647,2317317946,-1.126304,0.150304,0.111264,6.92125,-5.6525,17.325,25.552002,-4.816001,21.320002,eccentric,6,5.0,18848.0,403431.0,219729.0,80156.0,6866.0
2026-04-09 22:23:07.368949,378252,2317325659,2317326699,-1.126304,0.150304,0.111264,3.465,-5.45125,17.272501,25.552002,-4.816001,21.320002,eccentric,6,5.0,18848.0,403431.0,219729.0,80156.0,6866.0
2026-04-09 22:23:07.370473,378253,2317334589,2317335412,-1.138016,0.1464,0.103456,0.9625,-4.7425,17.2025,25.768002,-4.872,21.088001,eccentric,6,5.0,18848.0,403431.0,219729.0,80156.0,6866.0
2026-04-09 22:23:07.401705,378254,2317349605,2317350381,-1.138016,0.1464,0.103456,2.66875,-4.20875,17.94625,25.768002,-4.872,21.088001,eccentric,6,5.0,18848.0,403431.0,219729.0,80156.0,6866.0
2026-04-09 22:23:07.404348,378255,2317358975,2317361143,-1.11264,0.1464,0.080032,3.9375,-3.42125,17.14125,26.456001,-4.696,20.736,eccentric,6,5.0,18848.0,403431.0,219729.0,80156.0,6866.0
2026-04-09 22:23:07.412343,378256,2317367856,2317369826,-1.11264,0.1464,0.080032,2.8175,-3.54375,16.59,26.456001,-4.696,20.736,eccentric,6,5.0,18848.0,403431.0,219729.0,80156.0,6866.0
2026-04-09 22:23:07.413869,378257,2317382376,2317382710,-1.100928,0.119072,0.091744,0.7875,-3.43,17.01,26.296001,-5.584,20.584002,eccentric,6,5.0,18848.0,403431.0,219729.0,80156.0,6866.0
2026-04-09 22:23:07.444245,378258,2317391630,2317393517,-1.100928,0.119072,0.091744,0.83125,-3.6575,17.61375,26.296001,-5.584,20.584002,eccentric,6,5.0,18848.0,403431.0,219729.0,80156.0,6866.0
2026-04-09 22:23:07.474371,378269,2317401065,2317402246,-1.091168,0.13664,0.076128,1.81125,-3.84125,17.82375,26.856,-5.424,21.776001,eccentric,6,5.0,18792.0,403431.0,220409.0,80778.0,7129.0
2026-04-09 22:23:07.475402,378270,2317410083,2317410999,-1.091168,0.13664,0.076128,4.655,-4.26125,18.3225,26.856,-5.424,21.776001,eccentric,6,5.0,18792.0,403431.0,220409.0,80778.0,7129.0
2026-04-09 22:23:07.476838,378271,2317424707,2317426103,-1.085312,0.163968,0.093696,6.86,-3.15875,18.38375,26.792002,-6.104,21.336,eccentric,6,5.0,18792.0,403431.0,220409.0,80778.0,7129.0
2026-04-09 22:23:07.481116,378272,2317433792,2317434831,-1.069696,0.160064,0.0976,5.88,-2.61625,17.52625,26.760002,-6.128,21.176,eccentric,6,5.0,18792.0,403431.0,220409.0,80778.0,7129.0
2026-04-09 22:23:07.482739,378273,2317442867,2317443565,-1.069696,0.160064,0.0976,2.70375,-2.2225,16.24,26.760002,-6.128,21.176,eccentric,6,5.0,18792.0,403431.0,220409.0,80778.0,7129.0
2026-04-09 22:23:07.484286,378274,2317452328,2317454454,-1.069696,0.160064,0.0976,-0.945,-1.44375,14.735,26.760002,-6.128,21.176,eccentric,6,5.0,18792.0,403431.0,220409.0,80778.0,7129.0
2026-04-09 22:23:07.519149,378275,2317466803,2317467381,-1.075552,0.142496,0.074176,-3.45625,-1.54875,14.542501,26.736002,-5.864,21.024,eccentric,6,5.0,18792.0,403431.0,220409.0,80778.0,7129.0
2026-04-09 22:23:07.521428,378276,2317475929,2317478142,-1.077504,0.11712,0.06832,-3.5875,-1.295,14.28875,26.816002,-6.184001,21.784,eccentric,6,5.0,18792.0,403431.0,220409.0,80778.0,7129.0
2026-04-09 22:23:07.526064,378277,2317484848,2317486838,-1.077504,0.11712,0.06832,-2.26625,-0.88375,13.965,26.816002,-6.184001,21.784,eccentric,6,5.0,18792.0,403431.0,220409.0,80778.0,7129.0
2026-04-09 22:23:07.552119,378287,2317499680,2317502000,-1.085312,0.132736,0.074176,-1.30375,-0.9975,13.93875,27.248001,-6.624001,21.544,eccentric,6,5.0,18669.0,403431.0,221685.0,81742.0,7447.0
2026-04-09 22:23:07.553933,378288,2317508682,2317510791,-1.085312,0.132736,0.074176,0.91875,-0.97125,13.79875,27.248001,-6.624001,21.544,eccentric,6,5.0,18669.0,403431.0,221685.0,81742.0,7447.0
2026-04-09 22:23:07.555343,378289,2317517662,2317519490,-1.081408,0.132736,0.083936,1.47875,-0.9625,13.230001,27.2,-6.688,21.68,eccentric,6,5.0,18669.0,403431.0,221685.0,81742.0,7447.0
2026-04-09 22:23:07.590366,378290,2317526626,2317528224,-1.081408,0.132736,0.083936,0.7875,-0.8925,13.22125,27.2,-6.688,21.68,eccentric,6,5.0,18669.0,403431.0,221685.0,81742.0,7447.0
2026-04-09 22:23:07.595033,378291,2317541137,2317543148,-1.069696,0.1464,0.072224,0.35,-0.735,13.09875,27.416,-6.368001,22.184002,eccentric,6,5.0,18669.0,403431.0,221685.0,81742.0,7447.0
2026-04-09 22:23:07.601078,378292,2317550069,2317551847,-1.069696,0.1464,0.072224,-0.6125,0.385,11.61125,27.416,-6.368001,22.184002,eccentric,6,5.0,18669.0,403431.0,221685.0,81742.0,7447.0
2026-04-09 22:23:07.602752,378293,2317558996,2317560572,-1.081408,0.130784,0.081984,-3.07125,0.48125,10.78875,27.072,-6.736001,21.296001,eccentric,6,5.0,18669.0,403431.0,221685.0,81742.0,7447.0
2026-04-09 22:23:07.605231,378294,2317573516,2317575547,-1.065792,0.111264,0.080032,-4.45375,0.0875,10.815,27.072,-6.736001,21.296001,eccentric,6,5.0,18669.0,403431.0,221685.0,81742.0,7447.0
2026-04-09 22:23:07.634378,378295,2317582452,2317584268,-1.071648,0.111264,0.080032,-4.9175,0.95375,10.40375,26.448002,-6.696,22.416,eccentric,6,5.0,18669.0,403431.0,221685.0,81742.0,7447.0
2026-04-09 22:23:07.637967,378296,2317591410,2317592973,-1.071648,0.111264,0.080032,-5.915,1.18125,9.4325,26.448002,-6.696,22.416,eccentric,6,5.0,18669.0,403431.0,221685.0,81742.0,7447.0
2026-04-09 22:23:07.671638,378306,2317606008,2317607872,-1.0736,0.113216,0.054656,-4.80375,1.6625,9.16125,27.328001,-7.136,21.496,concentric,6,5.0,18633.0,403431.0,222361.0,82163.0,7572.0
2026-04-09 22:23:07.674234,378307,2317614986,2317616586,-1.079456,0.132736,0.0976,-3.49125,2.30125,8.18125,27.064001,-7.328001,21.240002,concentric,6,5.0,18633.0,403431.0,222361.0,82163.0,7572.0
2026-04-09 22:23:07.676614,378308,2317623984,2317625350,-1.079456,0.132736,0.0976,-2.8175,2.66,7.0875,27.064001,-7.328001,21.240002,concentric,6,5.0,18633.0,403431.0,222361.0,82163.0,7572.0
2026-04-09 22:23:07.680299,378309,2317632956,2317634100,-1.079456,0.132736,0.0976,-1.77625,4.69875,6.4225,27.064001,-7.328001,21.240002,concentric,6,5.0,18633.0,403431.0,222361.0,82163.0,7572.0
2026-04-09 22:23:07.681703,378310,2317647501,2317649013,-1.098976,0.142496,0.081984,-2.51125,6.09,5.04875,27.144001,-7.400001,21.624,concentric,6,5.0,18633.0,403431.0,222361.0,82163.0,7572.0
2026-04-09 22:23:07.693746,378311,2317656610,2317657704,-1.085312,0.11712,0.052704,-8.198751,6.15125,3.885,25.808,-6.84,22.816002,concentric,6,5.0,18633.0,403431.0,222361.0,82163.0,7572.0
2026-04-09 22:23:07.694197,378312,2317665543,2317666413,-1.085312,0.11712,0.052704,-11.94375,6.57125,2.44125,25.808,-6.84,22.816002,concentric,6,5.0,18633.0,403431.0,222361.0,82163.0,7572.0
2026-04-09 22:23:07.724423,378313,2317680064,2317681325,-1.089216,0.101504,0.03904,-11.92625,6.2475,0.3675,27.296001,-7.224001,21.864,concentric,6,5.0,18633.0,403431.0,222361.0,82163.0,7572.0
2026-04-09 22:23:07.727926,378314,2317688978,2317690089,-1.089216,0.101504,0.03904,-9.45,5.87125,-1.8025,27.296001,-7.224001,21.864,concentric,6,5.0,18633.0,403431.0,222361.0,82163.0,7572.0
2026-04-09 22:23:07.730415,378315,2317697899,2317698770,-1.087264,0.113216,0.07808,-5.01375,5.48625,-2.51125,26.768002,-7.048,21.856,concentric,6,5.0,18633.0,403431.0,222361.0,82163.0,7572.0
2026-04-09 22:23:07.757934,378326,2317712546,2317713734,-1.087264,0.113216,0.07808,-0.28875,6.16,-2.82625,26.768002,-7.048,21.856,concentric,6,5.0,18557.0,403431.0,223407.0,82814.0,7726.0
2026-04-09 22:23:07.760415,378327,2317721605,2317722497,-1.04432,0.144448,0.103456,2.17,6.58,-4.1125,26.424002,-7.696001,22.152,concentric,6,5.0,18557.0,403431.0,223407.0,82814.0,7726.0
2026-04-09 22:23:07.762893,378328,2317730538,2317731218,-1.04432,0.144448,0.103456,4.17375,7.53375,-5.8625,26.424002,-7.696001,22.152,concentric,6,5.0,18557.0,403431.0,223407.0,82814.0,7726.0
2026-04-09 22:23:07.816889,378329,2317739899,2317741992,-1.061888,0.17568,0.070272,2.61625,8.75875,-8.77625,26.056002,-7.584001,21.048,concentric,6,5.0,18557.0,403431.0,223407.0,82814.0,7726.0
2026-04-09 22:23:07.820518,378330,2317754410,2317754805,-1.116544,0.124928,0.052704,-3.43,9.4675,-11.43625,26.056002,-7.584001,20.240002,concentric,6,5.0,18557.0,403431.0,223407.0,82814.0,7726.0
2026-04-09 22:23:07.822881,378331,2317763744,2317765585,-1.116544,0.124928,0.052704,-6.685,9.87,-13.4225,26.432001,-7.512001,20.240002,concentric,6,5.0,18557.0,403431.0,223407.0,82814.0,7726.0
2026-04-09 22:23:07.825509,378332,2317772738,2317774298,-1.116544,0.124928,0.052704,-8.54,9.87,-15.39125,26.432001,-7.512001,20.240002,concentric,6,5.0,18557.0,403431.0,223407.0,82814.0,7726.0
2026-04-09 22:23:07.828058,378333,2317787227,2317789200,-1.081408,0.103456,0.064416,-6.3,9.96625,-16.59,26.560001,-7.744,21.232,concentric,6,5.0,18557.0,403431.0,223407.0,82814.0,7726.0
2026-04-09 22:23:07.830451,378334,2317796139,2317797901,-1.108736,0.15616,0.083936,-0.84,11.38375,-18.12125,26.416,-7.744,22.256,concentric,6,5.0,18557.0,403431.0,223407.0,82814.0,7726.0
2026-04-09 22:23:07.855513,378344,2317805223,2317806739,-1.108736,0.15616,0.083936,2.975,12.18,-19.90625,26.416,-7.744,22.256,concentric,6,5.0,18518.0,403431.0,224122.0,83213.0,7799.0
2026-04-09 22:23:07.857955,378345,2317814247,2317815531,-1.108736,0.15616,0.050752,1.47,13.23875,-20.76375,26.416,-7.744,22.256,concentric,6,5.0,18518.0,403431.0,224122.0,83213.0,7799.0
2026-04-09 22:23:07.860463,378346,2317828789,2317830544,-1.153632,0.1464,0.050752,-4.33125,12.88875,-21.98,26.136002,-6.784,20.84,concentric,6,5.0,18518.0,403431.0,224122.0,83213.0,7799.0
2026-04-09 22:23:07.890670,378347,2317837794,2317839287,-1.124352,0.128832,0.10736,-6.37,13.0375,-23.397501,26.352001,-7.008,21.056002,concentric,6,5.0,18518.0,403431.0,224122.0,83213.0,7799.0
2026-04-09 22:23:07.894249,378348,2317846726,2317847944,-1.124352,0.128832,0.10736,-6.405,13.78125,-25.52375,26.352001,-7.008,21.056002,concentric,6,5.0,18518.0,403431.0,224122.0,83213.0,7799.0
2026-04-09 22:23:07.896744,378349,2317861237,2317862835,-1.130208,0.160064,0.0488,-4.1475,14.9625,-27.16875,25.688002,-6.456,20.04,concentric,6,5.0,18518.0,403431.0,224122.0,83213.0,7799.0
2026-04-09 22:23:07.899249,378350,2317870178,2317871613,-1.130208,0.160064,0.0488,-1.505,15.8725,-28.56875,25.688002,-6.456,20.04,concentric,6,5.0,18518.0,403431.0,224122.0,83213.0,7799.0
2026-04-09 22:23:07.929401,378351,2317879117,2317880306,-1.15168,0.183488,0.0488,-2.09125,16.1525,-30.66875,24.920002,-6.672,19.488,concentric,6,5.0,18518.0,403431.0,224122.0,83213.0,7799.0
2026-04-09 22:23:07.933045,378352,2317893640,2317895241,-1.15168,0.183488,0.0488,-0.9975,16.35375,-31.955,24.920002,-6.672,19.488,concentric,6,5.0,18518.0,403431.0,224122.0,83213.0,7799.0
2026-04-09 22:23:07.957897,378362,2317903046,2317904387,-1.143872,0.201056,0.076128,-1.11125,17.40375,-34.51875,25.016,-7.216001,21.488,concentric,6,5.0,18448.0,403431.0,225554.0,84228.0,8157.0
2026-04-09 22:23:07.960540,378363,2317912077,2317913181,-1.143872,0.201056,0.076128,-0.3325,17.98125,-37.35375,25.016,-7.216001,21.488,concentric,6,5.0,18448.0,403431.0,225554.0,84228.0,8157.0
2026-04-09 22:23:07.966802,378364,2317921146,2317921903,-1.159488,0.193248,0.060512,-0.35875,18.515,-38.9375,24.192001,-6.512,20.304,concentric,6,5.0,18448.0,403431.0,225554.0,84228.0,8157.0
2026-04-09 22:23:07.969192,378365,2317936122,2317936796,-1.147776,0.163968,0.042944,-3.80625,18.45375,-41.36125,24.056002,-6.336,20.712002,concentric,6,5.0,18448.0,403431.0,225554.0,84228.0,8157.0
2026-04-09 22:23:07.975611,378366,2317945360,2317947597,-1.147776,0.163968,0.042944,-7.98875,17.89375,-42.34125,24.056002,-6.336,20.712002,concentric,6,5.0,18448.0,403431.0,225554.0,84228.0,8157.0
2026-04-09 22:23:08.005693,378367,2317954293,2317956323,-1.147776,0.163968,0.042944,-7.98875,18.27,-43.225,24.056002,-6.336,20.712002,concentric,6,5.0,18448.0,403431.0,225554.0,84228.0,8157.0
2026-04-09 22:23:08.009248,378368,2317963227,2317965023,-1.165344,0.203008,0.037088,-5.8275,18.41,-44.35375,24.992,-6.072001,18.768002,concentric,6,5.0,18448.0,403431.0,225554.0,84228.0,8157.0
2026-04-09 22:23:08.011800,378369,2317977686,2317979866,-1.1712,0.242048,0.066368,-2.86125,18.7075,-46.1825,24.672,-5.928001,18.576,concentric,6,5.0,18448.0,403431.0,225554.0,84228.0,8157.0
2026-04-09 22:23:08.016851,378370,2317986613,2317988655,-1.1712,0.242048,0.066368,-0.2625,20.58,-47.67875,24.672,-5.928001,18.576,concentric,6,5.0,18448.0,403431.0,225554.0,84228.0,8157.0
2026-04-09 22:23:08.048306,378371,2317995541,2317997374,-1.155584,0.201056,0.095648,-3.52625,21.4025,-50.015,24.672,-5.536,17.936,concentric,6,5.0,18448.0,403431.0,225554.0,84228.0,8157.0
2026-04-09 22:23:08.076693,378382,2318010094,2318012310,-1.155584,0.201056,0.095648,-5.9675,21.79625,-51.52875,24.048,-5.536,17.936,concentric,6,5.0,18378.0,403431.0,226493.0,84922.0,8404.0
2026-04-09 22:23:08.079284,378383,2318019032,2318021017,-1.179008,0.148352,-0.007808,-9.91375,21.72625,-52.15875,24.608002,-5.808,18.448,concentric,6,5.0,18378.0,403431.0,226493.0,84922.0,8404.0
2026-04-09 22:23:08.081770,378384,2318027949,2318029757,-1.179008,0.148352,-0.007808,-13.4225,20.335001,-53.375,24.608002,-5.808,18.448,concentric,6,5.0,18378.0,403431.0,226493.0,84922.0,8404.0
2026-04-09 22:23:08.084293,378385,2318042470,2318044746,-1.157536,0.206912,0.02928,-8.155,19.45125,-54.10125,24.024002,-5.68,18.104,concentric,6,5.0,18378.0,403431.0,226493.0,84922.0,8404.0
2026-04-09 22:23:08.119523,378386,2318051515,2318053484,-1.157536,0.206912,0.02928,2.38,20.545,-56.525,24.024002,-5.68,18.104,concentric,6,5.0,18378.0,403431.0,226493.0,84922.0,8404.0
2026-04-09 22:23:08.122999,378387,2318060475,2318062213,-1.1224,0.177632,0.132736,2.6425,20.7025,-58.94,23.736002,-5.248,17.256,concentric,6,5.0,18378.0,403431.0,226493.0,84922.0,8404.0
2026-04-09 22:23:08.140518,378388,2318069383,2318070935,-1.1224,0.177632,0.132736,-1.37375,21.56,-59.12375,23.736002,-5.248,17.256,concentric,6,5.0,18378.0,403431.0,226493.0,84922.0,8404.0
2026-04-09 22:23:08.143016,378389,2318083851,2318085840,-1.11264,0.173728,0.035136,-5.9675,21.42,-58.72125,23.384,-4.656,17.592001,concentric,6,5.0,18378.0,403431.0,226493.0,84922.0,8404.0
2026-04-09 22:23:08.145532,378390,2318092751,2318094533,-1.11264,0.173728,0.035136,-8.98625,22.1725,-58.8875,23.384,-4.656,17.592001,concentric,6,5.0,18378.0,403431.0,226493.0,84922.0,8404.0
2026-04-09 22:23:08.174192,378400,2318101708,2318103289,-1.118496,0.163968,0.085888,-9.24875,22.645,-58.42375,23.688002,-4.568,17.248001,concentric,6,5.0,18393.0,403431.0,226346.0,84824.0,8407.0
2026-04-09 22:23:08.176713,378401,2318116345,2318118248,-1.114592,0.16592,0.033184,-8.4,24.22,-58.73875,22.672,-3.904,16.720001,concentric,6,5.0,18393.0,403431.0,226346.0,84824.0,8407.0
2026-04-09 22:23:08.181683,378402,2318125258,2318127039,-1.114592,0.16592,0.033184,-9.30125,25.22625,-59.19375,22.672,-3.904,16.720001,concentric,6,5.0,18393.0,403431.0,226346.0,84824.0,8407.0
2026-04-09 22:23:08.184179,378403,2318134170,2318135721,-1.114592,0.16592,0.033184,-11.24375,25.2,-57.35625,22.672,-3.904,16.720001,concentric,6,5.0,18393.0,403431.0,226346.0,84824.0,8407.0
2026-04-09 22:23:08.186663,378404,2318148778,2318150675,-1.138016,0.154208,0.017568,-11.480001,24.9725,-57.86375,22.44,-3.88,16.472,concentric,6,5.0,18393.0,403431.0,226346.0,84824.0,8407.0
2026-04-09 22:23:08.190102,378405,2318157789,2318159410,-1.118496,0.122976,0.109312,-9.05625,25.40125,-58.9225,22.792002,-3.528,16.224,concentric,6,5.0,18393.0,403431.0,226346.0,84824.0,8407.0
2026-04-09 22:23:08.219331,378406,2318166713,2318168115,-1.118496,0.122976,0.109312,-8.295,27.1425,-58.93125,22.792002,-3.528,16.224,concentric,6,5.0,18393.0,403431.0,226346.0,84824.0,8407.0
2026-04-09 22:23:08.222951,378407,2318181221,2318183023,-1.118496,0.128832,0.03904,-10.64,29.4175,-58.6775,21.920002,-3.384,16.36,concentric,6,5.0,18393.0,403431.0,226346.0,84824.0,8407.0
2026-04-09 22:23:08.225537,378408,2318190157,2318191718,-1.118496,0.128832,0.03904,-13.685,30.03,-57.2075,21.920002,-3.384,16.36,concentric,6,5.0,18393.0,403431.0,226346.0,84824.0,8407.0
2026-04-09 22:23:08.230441,378409,2318199099,2318200394,-1.159488,0.113216,-0.076128,-18.17375,29.6625,-55.0025,21.640001,-3.248,15.704,concentric,6,5.0,18393.0,403431.0,226346.0,84824.0,8407.0
2026-04-09 22:23:08.259229,378419,2318208242,2318209144,-1.159488,0.113216,-0.076128,-20.02875,27.16,-52.115,21.640001,-3.248,15.704,concentric,6,5.0,18441.0,403431.0,225714.0,84479.0,8306.0
2026-04-09 22:23:08.261700,378420,2318222814,2318224161,-1.118496,0.035136,-0.017568,-15.16375,24.64,-53.62875,20.416,-2.728,16.552,concentric,6,5.0,18441.0,403431.0,225714.0,84479.0,8306.0
2026-04-09 22:23:08.264257,378421,2318231822,2318232900,-1.118496,0.035136,-0.017568,-10.7975,23.45875,-52.395,20.416,-2.728,16.552,concentric,6,5.0,18441.0,403431.0,225714.0,84479.0,8306.0
2026-04-09 22:23:08.271746,378422,2318240787,2318241607,-1.124352,0.121024,0.07808,-4.375,24.31625,-48.93,20.576,-2.832,16.336,concentric,6,5.0,18441.0,403431.0,225714.0,84479.0,8306.0
2026-04-09 22:23:08.300619,378423,2318255283,2318256554,-1.124352,0.121024,0.07808,1.44375,26.27625,-47.145,20.576,-2.832,16.336,concentric,6,5.0,18441.0,403431.0,225714.0,84479.0,8306.0
2026-04-09 22:23:08.304203,378424,2318264205,2318265285,-1.139968,0.132736,-0.035136,0.105,27.67625,-47.74,21.208,-2.72,14.512001,concentric,6,5.0,18441.0,403431.0,225714.0,84479.0,8306.0
2026-04-09 22:23:08.306716,378425,2318273131,2318273972,-1.139968,0.132736,-0.035136,-8.49625,26.705,-46.235,21.208,-2.72,14.512001,concentric,6,5.0,18441.0,403431.0,225714.0,84479.0,8306.0
2026-04-09 22:23:08.336941,378426,2318287591,2318288867,-1.143872,0.01952,-0.10736,-15.2075,24.63125,-45.22,20.904001,-2.208,14.984001,concentric,6,5.0,18441.0,403431.0,225714.0,84479.0,8306.0
2026-04-09 22:23:08.340535,378427,2318296497,2318297595,-1.206336,0.044896,0.01952,-15.18125,23.6075,-43.4175,20.904001,-2.208,15.128,concentric,6,5.0,18441.0,403431.0,225714.0,84479.0,8306.0
2026-04-09 22:23:08.367979,378438,2318305977,2318306626,-1.218048,0.044896,0.01952,-8.74125,24.64875,-39.85625,20.488,-2.864,15.128,concentric,6,5.0,18626.0,403431.0,222967.0,82536.0,7619.0
2026-04-09 22:23:08.372981,378439,2318315278,2318317446,-1.218048,0.044896,0.01952,-0.23625,26.6175,-36.98625,20.488,-2.864,15.128,concentric,6,5.0,18626.0,403431.0,222967.0,82536.0,7619.0
2026-04-09 22:23:08.375520,378440,2318329765,2318330346,-1.138016,0.044896,-0.054656,-0.14,27.16,-36.12,19.696001,-2.264,15.072001,concentric,6,5.0,18626.0,403431.0,222967.0,82536.0,7619.0
2026-04-09 22:23:08.378047,378441,2318339302,2318341179,-1.110688,-0.095648,-0.101504,-14.93625,23.80875,-39.5325,19.992,-2.552,14.584001,concentric,6,5.0,18626.0,403431.0,222967.0,82536.0,7619.0
2026-04-09 22:23:08.380464,378442,2318348328,2318349911,-1.110688,-0.095648,-0.101504,-24.4825,21.79625,-37.66,19.992,-2.552,14.584001,concentric,6,5.0,18626.0,403431.0,222967.0,82536.0,7619.0
2026-04-09 22:23:08.419241,378443,2318357276,2318358675,-1.052128,0.02928,-0.050752,-17.6575,21.0525,-33.27625,19.192001,-2.056,14.632001,concentric,6,5.0,18626.0,403431.0,222967.0,82536.0,7619.0
2026-04-09 22:23:08.421458,378444,2318371820,2318373597,-1.052128,0.02928,-0.050752,-2.89625,23.31875,-32.025,19.192001,-2.056,14.632001,concentric,6,5.0,18626.0,403431.0,222967.0,82536.0,7619.0
2026-04-09 22:23:08.426717,378445,2318380764,2318382358,-1.09312,0.171776,0.005856,9.75625,26.69625,-32.19125,19.608002,-2.104,13.664001,concentric,6,5.0,18626.0,403431.0,222967.0,82536.0,7619.0
2026-04-09 22:23:08.433042,378446,2318389674,2318391071,-1.09312,0.171776,0.005856,16.205,31.42125,-29.58375,19.608002,-2.104,13.664001,concentric,6,5.0,18626.0,403431.0,222967.0,82536.0,7619.0
2026-04-09 22:23:08.456487,378456,2318404199,2318405999,-0.968192,-0.017568,-0.066368,7.385,34.2475,-31.89375,18.368,-1.88,13.880001,concentric,6,5.0,18851.0,403431.0,218976.0,80107.0,7079.0
2026-04-09 22:23:08.458044,378457,2318413516,2318414756,-0.968192,-0.017568,-0.066368,-12.39,34.44875,-37.8,18.368,-1.88,13.880001,concentric,6,5.0,18851.0,403431.0,218976.0,80107.0,7079.0
2026-04-09 22:23:08.462198,378458,2318422535,2318423554,-0.981856,-0.095648,-0.134688,-16.91375,34.53625,-36.19875,18.744001,-2.192,12.688001,concentric,6,5.0,18851.0,403431.0,218976.0,80107.0,7079.0
2026-04-09 22:23:08.468396,378459,2318437046,2318438473,-0.981856,0.056608,-0.212768,-11.92625,33.5475,-34.95625,18.744001,-2.192,12.688001,concentric,6,5.0,18851.0,403431.0,218976.0,80107.0,7079.0
2026-04-09 22:23:08.496982,378460,2318446001,2318447160,-1.145824,0.056608,-0.212768,1.02375,31.8325,-30.0125,18.384,-2.008,13.848001,concentric,6,5.0,18851.0,403431.0,218976.0,80107.0,7079.0
2026-04-09 22:23:08.500516,378461,2318454959,2318455877,-1.145824,0.056608,-0.212768,15.26,28.28875,-24.185,18.384,-2.008,13.848001,concentric,6,5.0,18851.0,403431.0,218976.0,80107.0,7079.0
2026-04-09 22:23:08.502953,378462,2318463881,2318464599,-0.968192,-0.072224,-0.064416,12.50375,23.26625,-29.04125,17.744001,-1.848,12.712001,concentric,6,5.0,18851.0,403431.0,218976.0,80107.0,7079.0
2026-04-09 22:23:08.508063,378463,2318478786,2318479505,-0.974048,-0.0976,-0.081984,7.70875,21.07875,-32.59375,17.04,-1.88,13.352,concentric,6,5.0,18851.0,403431.0,218976.0,80107.0,7079.0
2026-04-09 22:23:08.541777,378464,2318488152,2318490287,-0.974048,-0.0976,-0.081984,6.18625,21.11375,-32.36625,17.04,-1.88,13.352,concentric,6,5.0,18851.0,403431.0,218976.0,80107.0,7079.0
2026-04-09 22:23:08.543909,378465,2318497154,2318498898,-0.974048,0.105408,-0.218624,3.8325,20.615,-29.54875,17.04,-1.88,13.352,concentric,6,5.0,18851.0,403431.0,218976.0,80107.0,7079.0
2026-04-09 22:23:08.571857,378475,2318506398,2318507780,-1.098976,0.0976,-0.218624,12.41625,20.615,-21.93625,17.968,-1.808,12.272,concentric,6,5.0,18965.0,403431.0,217094.0,79035.0,6908.0
2026-04-09 22:23:08.576050,378476,2318521197,2318522848,-0.944768,-0.142496,-0.138592,11.83875,17.6575,-22.33875,17.528002,-1.704,12.8,concentric,6,5.0,18965.0,403431.0,217094.0,79035.0,6908.0
2026-04-09 22:23:08.577761,378477,2318530365,2318531636,-0.944768,-0.142496,-0.138592,1.7675,12.005,-28.98875,17.528002,-1.704,12.8,concentric,6,5.0,18965.0,403431.0,217094.0,79035.0,6908.0
2026-04-09 22:23:08.579340,378478,2318539427,2318540443,-0.989664,-0.128832,0.011712,0.42875,9.948751,-30.03,18.024,-1.784,12.312,concentric,6,5.0,18965.0,403431.0,217094.0,79035.0,6908.0
2026-04-09 22:23:08.585923,378479,2318553951,2318555366,-0.989664,-0.128832,0.011712,9.7475,12.495,-23.5025,18.024,-1.784,12.312,concentric,6,5.0,18965.0,403431.0,217094.0,79035.0,6908.0
2026-04-09 22:23:08.614574,378480,2318562904,2318564074,-1.056032,0.093696,-0.119072,22.05875,16.35375,-18.6375,17.84,-1.008,12.456,concentric,6,5.0,18965.0,403431.0,217094.0,79035.0,6908.0
2026-04-09 22:23:08.619024,378481,2318571823,2318572768,-1.056032,0.093696,-0.119072,24.33375,18.3225,-18.62875,17.84,-1.008,12.456,concentric,6,5.0,18965.0,403431.0,217094.0,79035.0,6908.0
2026-04-09 22:23:08.620516,378482,2318580768,2318581485,-0.94672,-0.160064,-0.181536,10.815,16.03875,-25.17375,17.480001,-1.144,12.72,concentric,6,5.0,18965.0,403431.0,217094.0,79035.0,6908.0
2026-04-09 22:23:08.627179,378483,2318595673,2318596400,-0.94672,-0.160064,-0.181536,-8.25125,11.4975,-28.91,17.480001,-1.144,12.72,concentric,6,5.0,18965.0,403431.0,217094.0,79035.0,6908.0
2026-04-09 22:23:08.683584,378494,2318605024,2318607201,-1.020896,-0.201056,-0.12688,-9.73875,8.61,-24.08875,16.464,-0.968,14.608001,concentric,6,5.0,18880.0,403431.0,217617.0,79692.0,7253.0
2026-04-09 22:23:08.686152,378495,2318614517,2318615953,-1.020896,-0.201056,-0.12688,4.655,8.855001,-16.905,16.464,-0.968,14.608001,concentric,6,5.0,18880.0,403431.0,217617.0,79692.0,7253.0
2026-04-09 22:23:08.722990,378496,2318623496,2318624646,-0.993568,0.011712,-0.17568,25.795,10.5875,-12.7225,16.968,-1.648,12.712001,concentric,6,5.0,18880.0,403431.0,217617.0,79692.0,7253.0
2026-04-09 22:23:08.727349,378497,2318638091,2318639553,-0.915488,-0.183488,-0.015616,27.125,10.61375,-15.61,16.968,-1.408,12.264001,concentric,6,5.0,18880.0,403431.0,217617.0,79692.0,7253.0
2026-04-09 22:23:08.729022,378498,2318647209,2318648295,-0.915488,-0.183488,-0.015616,14.9625,9.5025,-21.3325,16.392,-1.408,12.264001,concentric,6,5.0,18880.0,403431.0,217617.0,79692.0,7253.0
2026-04-09 22:23:08.730558,378499,2318656259,2318656997,-0.915488,-0.183488,-0.015616,7.525,10.21125,-22.19,16.392,-1.408,12.264001,concentric,6,5.0,18880.0,403431.0,217617.0,79692.0,7253.0
2026-04-09 22:23:08.734223,378500,2318671212,2318671963,-1.04432,-0.119072,-0.1464,2.31875,11.042501,-18.3225,16.504002,-0.776,11.856001,concentric,6,5.0,18880.0,403431.0,217617.0,79692.0,7253.0
2026-04-09 22:23:08.735614,378501,2318680582,2318682761,-0.983808,-0.08784,-0.26352,4.75125,10.21125,-14.84875,16.504002,-1.0,12.040001,concentric,6,5.0,18880.0,403431.0,217617.0,79692.0,7253.0
2026-04-09 22:23:08.739830,378502,2318689505,2318691449,-0.983808,-0.08784,-0.26352,2.9925,5.005,-16.2925,16.504002,-1.0,12.040001,concentric,6,5.0,18880.0,403431.0,217617.0,79692.0,7253.0
2026-04-09 22:23:08.741610,378503,2318698462,2318700159,-0.950624,-0.240096,-0.07808,6.16,0.4375,-16.3275,14.456,-1.104,10.496,concentric,6,5.0,18880.0,403431.0,217617.0,79692.0,7253.0
2026-04-09 22:23:08.769906,378513,2318713122,2318715216,-0.950624,-0.240096,-0.07808,12.15375,0.07,-17.185,16.168001,-1.104,10.496,concentric,6,5.0,18816.0,403431.0,217557.0,79635.0,7251.0
2026-04-09 22:23:08.771541,378514,2318722104,2318723937,-0.919392,-0.206912,-0.025376,10.885,0.0875,-17.465,15.744,-0.192,13.280001,concentric,6,5.0,18816.0,403431.0,217557.0,79635.0,7251.0
2026-04-09 22:23:08.773024,378515,2318731195,2318732721,-0.919392,-0.206912,-0.025376,14.07,2.87875,-13.877501,15.744,-0.192,13.280001,concentric,6,5.0,18816.0,403431.0,217557.0,79635.0,7251.0
2026-04-09 22:23:08.778415,378516,2318745887,2318747660,-1.046272,-0.011712,-0.277184,12.78375,2.23125,-13.51,16.032001,-0.904,13.056001,concentric,6,5.0,18816.0,403431.0,217557.0,79635.0,7251.0
2026-04-09 22:23:08.806980,378517,2318754812,2318756362,-1.046272,-0.011712,-0.277184,9.4325,-2.09125,-10.22875,16.032001,-0.904,13.056001,concentric,6,5.0,18816.0,403431.0,217557.0,79635.0,7251.0
2026-04-09 22:23:08.811470,378518,2318763768,2318765081,-0.968192,-0.1952,-0.193248,7.4025,-7.35,-14.323751,16.536001,-0.92,13.392,concentric,6,5.0,18816.0,403431.0,217557.0,79635.0,7251.0
2026-04-09 22:23:08.813024,378519,2318772669,2318773801,-0.968192,-0.1952,-0.193248,5.075,-10.6925,-15.9075,16.536001,-0.92,13.392,concentric,6,5.0,18816.0,403431.0,217557.0,79635.0,7251.0
2026-04-09 22:23:08.819641,378520,2318787131,2318788702,-0.929152,-0.286944,0.042944,6.67625,-9.66,-16.24875,16.536001,-0.8,12.744,concentric,6,5.0,18816.0,403431.0,217557.0,79635.0,7251.0
2026-04-09 22:23:08.856681,378521,2318796100,2318797401,-0.929152,-0.286944,0.042944,14.88375,-3.91125,-14.37625,16.536001,-0.8,12.744,concentric,6,5.0,18816.0,403431.0,217557.0,79635.0,7251.0
2026-04-09 22:23:08.859005,378522,2318805014,2318806166,-0.979904,-0.03904,-0.054656,21.07875,1.4875,-9.135,16.032001,-0.448,13.464001,concentric,6,5.0,18816.0,403431.0,217557.0,79635.0,7251.0
2026-04-09 22:23:08.884453,378532,2318819554,2318821079,-0.997472,-0.099552,-0.347456,15.09375,1.8375,-12.215,16.088001,-0.872,12.768001,concentric,6,5.0,18920.0,403431.0,215624.0,77886.0,6564.0
2026-04-09 22:23:08.888630,378533,2318828515,2318829771,-0.997472,-0.099552,-0.347456,3.01,-2.65125,-14.5775,16.088001,-0.872,12.768001,concentric,6,5.0,18920.0,403431.0,215624.0,77886.0,6564.0
2026-04-09 22:23:08.891055,378534,2318837389,2318838521,-0.997472,-0.099552,-0.347456,-6.62375,-9.17875,-17.2025,16.088001,-0.872,12.768001,concentric,6,5.0,18920.0,403431.0,215624.0,77886.0,6564.0
2026-04-09 22:23:08.892798,378535,2318851952,2318853477,-0.979904,-0.343552,-0.050752,-2.3975,-12.69625,-21.04375,16.184,-0.216,13.912001,concentric,6,5.0,18920.0,403431.0,215624.0,77886.0,6564.0
2026-04-09 22:23:08.894317,378536,2318860951,2318862251,-0.886208,-0.193248,0.056608,13.57125,-8.28625,-15.11125,15.552001,-0.464,13.056001,concentric,6,5.0,18920.0,403431.0,215624.0,77886.0,6564.0
2026-04-09 22:23:08.902259,378537,2318869881,2318870983,-0.886208,-0.193248,0.056608,22.5925,-2.59,-9.292501,15.552001,-0.464,13.056001,concentric,6,5.0,18920.0,403431.0,215624.0,77886.0,6564.0
2026-04-09 22:23:08.930783,378538,2318884454,2318885970,-0.940864,-0.037088,-0.115168,19.0575,2.52,-11.5325,16.192001,-0.032,12.832001,concentric,6,5.0,18920.0,403431.0,215624.0,77886.0,6564.0
2026-04-09 22:23:08.935315,378539,2318893462,2318894679,-0.940864,-0.037088,-0.115168,12.495,6.41375,-11.52375,16.192001,-0.032,12.832001,concentric,6,5.0,18920.0,403431.0,215624.0,77886.0,6564.0
2026-04-09 22:23:08.936900,378540,2318902319,2318903414,-1.01504,-0.160064,-0.203008,4.2875,5.11,-12.67875,16.216002,-0.368,12.824,concentric,6,5.0,18920.0,403431.0,215624.0,77886.0,6564.0
2026-04-09 22:23:08.967079,378551,2318911444,2318912185,-1.01504,-0.160064,-0.203008,1.2425,3.395,-13.1425,16.216002,-0.368,12.824,concentric,6,5.0,18948.0,403431.0,215294.0,77806.0,6608.0
2026-04-09 22:23:08.971111,378552,2318926380,2318927136,-0.853024,-0.376736,0.0,-8.12875,1.4,-18.90875,15.904,-0.368,13.632001,concentric,6,5.0,18948.0,403431.0,215294.0,77806.0,6608.0
2026-04-09 22:23:08.972614,378553,2318935822,2318937925,-0.853024,-0.376736,0.0,-3.94625,4.2175,-13.93875,15.904,-0.368,13.632001,concentric,6,5.0,18948.0,403431.0,215294.0,77806.0,6608.0
2026-04-09 22:23:08.976435,378554,2318944782,2318946632,-1.011136,0.003904,-0.111264,12.74,8.995,-6.58875,15.440001,-0.04,14.424001,concentric,6,5.0,18948.0,403431.0,215294.0,77806.0,6608.0
2026-04-09 22:23:08.985067,378555,2318953743,2318955341,-1.011136,0.003904,-0.111264,21.2625,11.698751,-5.4075,15.440001,-0.04,14.424001,concentric,6,5.0,18948.0,403431.0,215294.0,77806.0,6608.0
2026-04-09 22:23:09.018075,378556,2318968241,2318970272,-0.915488,-0.162016,-0.208864,10.52625,8.6975,-12.792501,15.880001,-0.128,13.216001,concentric,6,5.0,18948.0,403431.0,215294.0,77806.0,6608.0
2026-04-09 22:23:09.020253,378557,2318977186,2318978977,-0.915488,-0.162016,-0.208864,-6.09875,3.91125,-14.41125,15.880001,-0.128,13.216001,concentric,6,5.0,18948.0,403431.0,215294.0,77806.0,6608.0
2026-04-09 22:23:09.024782,378558,2318986099,2318987671,-0.919392,-0.349408,-0.091744,-9.345,-0.6125,-9.7125,15.960001,-0.176,11.664001,concentric,6,5.0,18948.0,403431.0,215294.0,77806.0,6608.0
2026-04-09 22:23:09.037603,378559,2319000641,2319002629,-0.925248,-0.050752,-0.064416,5.55625,-0.5775,-8.015,15.896001,0.104,12.8,concentric,6,5.0,18948.0,403431.0,215294.0,77806.0,6608.0
2026-04-09 22:23:09.066369,378569,2319009991,2319011396,-0.925248,-0.050752,-0.064416,21.63,1.96875,-1.2775,15.896001,0.104,12.8,concentric,6,5.0,19042.0,403431.0,213815.0,76763.0,6360.0
2026-04-09 22:23:09.068840,378570,2319019039,2319020226,-0.925248,-0.050752,-0.103456,24.6225,2.2575,0.3325,15.896001,0.104,12.8,concentric,6,5.0,19042.0,403431.0,213815.0,76763.0,6360.0
2026-04-09 22:23:09.069346,378571,2319033657,2319035137,-0.90768,-0.074176,-0.103456,14.74375,0.6825,-4.55875,16.560001,-0.528,12.944,concentric,6,5.0,19042.0,403431.0,213815.0,76763.0,6360.0
2026-04-09 22:23:09.074520,378572,2319042566,2319043857,-0.921344,-0.298656,-0.040992,0.27125,-1.14625,-7.27125,16.240002,-0.032,12.648001,concentric,6,5.0,19042.0,403431.0,213815.0,76763.0,6360.0
2026-04-09 22:23:09.102280,378573,2319051498,2319052605,-0.921344,-0.298656,-0.040992,-6.92125,-0.8575,-6.13375,16.240002,-0.032,12.648001,concentric,6,5.0,19042.0,403431.0,213815.0,76763.0,6360.0
2026-04-09 22:23:09.106493,378574,2319060424,2319061330,-0.983808,-0.091744,-0.12688,-0.42875,1.89875,0.00875,16.344,-0.424,12.080001,concentric,6,5.0,19042.0,403431.0,213815.0,76763.0,6360.0
2026-04-09 22:23:09.108041,378575,2319074868,2319076325,-0.983808,-0.091744,-0.12688,7.37625,3.57875,7.02625,16.344,-0.424,12.080001,concentric,6,5.0,19042.0,403431.0,213815.0,76763.0,6360.0
2026-04-09 22:23:09.116096,378576,2319083798,2319085063,-0.911584,-0.099552,-0.042944,8.30375,2.54625,6.335,16.480001,-0.16,13.480001,concentric,6,5.0,19042.0,403431.0,213815.0,76763.0,6360.0
