pc_time,serial_num,sensor_ts,host_ts,ax,ay,az,gx,gy,gz,mx,my,mz,phase,rpe,weight_kg,ppg_a,ppg_b,ppg_c,ppg_d,ppg_e
2026-04-08 21:39:48.146888,128150,1609503560334833,1160301379,-1.036512,0.20496,0.220576,10.47375,0.8925,24.70125,24.312,-25.04,7.072001,eccentric,5,3.0,22832.0,154821.0,245458.0,292899.0,269694.0
2026-04-08 21:39:48.149396,128151,1609503560343820,1160310130,-0.919392,0.152256,0.259616,8.07625,-2.38,22.75,23.912,-25.216002,7.192,eccentric,5,3.0,22832.0,154821.0,245458.0,292899.0,269694.0
2026-04-08 21:39:48.151846,128152,1609503560358327,1160325027,-0.919392,0.152256,0.259616,5.6175,-5.11875,19.3025,23.912,-25.216002,7.192,eccentric,5,3.0,22832.0,154821.0,245458.0,292899.0,269694.0
2026-04-08 21:39:48.154311,128153,1609503560367223,1160333691,-0.983808,0.169824,0.17568,5.85375,-6.755,16.35375,24.128,-25.272001,6.28,eccentric,5,3.0,22832.0,154821.0,245458.0,292899.0,269694.0
2026-04-08 21:39:48.156858,128154,1609503560381652,1160348548,-0.876448,0.1952,0.413824,5.6875,-7.48125,14.1925,23.712002,-25.52,7.224001,eccentric,5,3.0,22832.0,154821.0,245458.0,292899.0,269694.0
2026-04-08 21:39:48.159357,128155,1609503560390561,1160357230,-0.876448,0.1952,0.413824,1.6275,-8.05,11.9,23.712002,-25.52,7.224001,eccentric,5,3.0,22832.0,154821.0,245458.0,292899.0,269694.0
2026-04-08 21:39:48.161853,128156,1609503560399468,1160365882,-0.876448,0.1952,0.413824,-1.26,-6.58,9.68625,23.712002,-25.52,7.224001,eccentric,5,3.0,22832.0,154821.0,245458.0,292899.0,269694.0
2026-04-08 21:39:48.164440,128157,1609503560414016,1160380787,-1.030656,0.210816,0.226432,-3.01875,-5.5475,6.90375,23.840002,-25.456001,6.24,eccentric,5,3.0,22832.0,154821.0,245458.0,292899.0,269694.0
2026-04-08 21:39:48.170601,128158,1609503560422943,1160389556,-0.991616,0.191296,0.257664,-2.45875,-5.0575,4.7425,23.096,-25.456001,10.592001,eccentric,5,3.0,22832.0,154821.0,245458.0,292899.0,269694.0
2026-04-08 21:39:48.200602,128169,1609503560437500,1160404548,-0.991616,0.191296,0.257664,1.11125,-3.4125,3.1325,23.096,-25.456001,10.592001,eccentric,5,3.0,22644.0,153883.0,244103.0,291915.0,269130.0
2026-04-08 21:39:48.203123,128170,1609503560446444,1160413250,-0.991616,0.222528,0.259616,1.82875,-1.11125,0.49,23.608002,-25.616001,6.264,eccentric,5,3.0,22644.0,153883.0,244103.0,291915.0,269130.0
2026-04-08 21:39:48.208129,128171,1609503560460946,1160426105,-0.991616,0.222528,0.259616,-0.97125,0.2625,0.07875,23.608002,-25.616001,6.264,eccentric,5,3.0,22644.0,153883.0,244103.0,291915.0,269130.0
2026-04-08 21:39:48.240999,128172,1609503560470087,1160436857,-1.0248,0.298656,0.519232,-1.9775,0.945,0.06125,23.936,-25.36,4.36,eccentric,5,3.0,22644.0,153883.0,244103.0,291915.0,269130.0
2026-04-08 21:39:48.244437,128173,1609503560478990,1160445500,-1.0248,0.298656,0.519232,-2.695,-0.1225,-0.06125,23.936,-25.36,4.36,eccentric,5,3.0,22644.0,153883.0,244103.0,291915.0,269130.0
2026-04-08 21:39:48.246888,128174,1609503560493474,1160460369,-1.028704,0.238144,0.511424,-4.305,-2.1,-2.09125,23.808,-25.464,6.024,eccentric,5,3.0,22644.0,153883.0,244103.0,291915.0,269130.0
2026-04-08 21:39:48.250586,128175,1609503560502410,1160469033,-1.110688,0.236192,0.36112,-5.215,-2.59,-5.20625,23.808,-25.424002,9.096001,eccentric,5,3.0,22644.0,153883.0,244103.0,291915.0,269130.0
2026-04-08 21:39:48.280870,128176,1609503560516925,1160483977,-1.110688,0.236192,0.36112,-2.77375,-0.315,-5.99375,23.808,-25.424002,9.096001,eccentric,5,3.0,22644.0,153883.0,244103.0,291915.0,269130.0
2026-04-08 21:39:48.284373,128177,1609503560525873,1160492640,-1.138016,0.333792,0.525088,0.8925,2.135,-5.88,23.648,-25.624,6.248,eccentric,5,3.0,22644.0,153883.0,244103.0,291915.0,269130.0
2026-04-08 21:39:48.345609,128188,1609503560540431,1160505609,-1.138016,0.333792,0.525088,3.24625,4.48,-6.41375,23.648,-25.624,6.248,eccentric,5,3.0,22095.0,151422.0,241019.0,289720.0,267870.0
2026-04-08 21:39:48.348155,128189,1609503560549624,1160516377,-1.128256,0.329888,0.534848,0.11375,4.375,-3.85875,23.512001,-25.432001,5.768,eccentric,5,3.0,22095.0,151422.0,241019.0,289720.0,267870.0
2026-04-08 21:39:48.351073,128190,1609503560558586,1160525100,-1.128256,0.329888,0.534848,-3.49125,2.30125,-2.03875,23.512001,-25.432001,5.768,eccentric,5,3.0,22095.0,151422.0,241019.0,289720.0,267870.0
2026-04-08 21:39:48.353317,128191,1609503560573028,1160539965,-1.192672,0.265472,0.30256,-4.1475,1.05875,-2.42375,23.6,-25.424002,6.152,eccentric,5,3.0,22095.0,151422.0,241019.0,289720.0,267870.0
2026-04-08 21:39:48.355594,128192,1609503560581941,1160548664,-1.192672,0.265472,0.30256,-5.8975,0.95375,-1.225,23.6,-25.424002,6.152,eccentric,5,3.0,22095.0,151422.0,241019.0,289720.0,267870.0
2026-04-08 21:39:48.358048,128193,1609503560596490,1160563541,-1.284416,0.329888,0.33184,-7.42,1.21625,1.98625,23.424002,-25.176,4.144,eccentric,5,3.0,22095.0,151422.0,241019.0,289720.0,267870.0
2026-04-08 21:39:48.360568,128194,1609503560605409,1160572237,-1.163392,0.306464,0.501664,-7.8225,1.93375,4.27875,23.024,-24.960001,7.864,eccentric,5,3.0,22095.0,151422.0,241019.0,289720.0,267870.0
2026-04-08 21:39:48.363074,128195,1609503560614393,1160580937,-1.163392,0.306464,0.501664,-9.073751,2.82625,4.24375,23.024,-24.960001,7.864,eccentric,5,3.0,22095.0,151422.0,241019.0,289720.0,267870.0
2026-04-08 21:39:48.421854,128206,1609503560628899,1160595765,-1.233664,0.23424,0.363072,-10.05375,2.42375,3.7275,22.920002,-25.176,8.568001,eccentric,5,3.0,21801.0,150033.0,239184.0,288342.0,267022.0
2026-04-08 21:39:48.424365,128207,1609503560637881,1160604463,-1.233664,0.23424,0.363072,-8.4525,2.1875,5.27625,22.920002,-25.176,8.568001,eccentric,5,3.0,21801.0,150033.0,239184.0,288342.0,267022.0
2026-04-08 21:39:48.426822,128208,1609503560652324,1160619309,-1.247328,0.242048,0.290848,-5.2325,0.88375,8.505,23.248001,-25.336,6.544,eccentric,5,3.0,21801.0,150033.0,239184.0,288342.0,267022.0
2026-04-08 21:39:48.430602,128209,1609503560661228,1160628008,-1.247328,0.242048,0.290848,-1.1725,-0.4725,10.75375,23.248001,-25.336,6.544,eccentric,5,3.0,21801.0,150033.0,239184.0,288342.0,267022.0
2026-04-08 21:39:48.431985,128210,1609503560675727,1160640921,-1.169248,0.240096,0.40016,-0.21875,-1.085,10.61375,22.824001,-25.288002,6.744,eccentric,5,3.0,21801.0,150033.0,239184.0,288342.0,267022.0
2026-04-08 21:39:48.434905,128211,1609503560685051,1160651666,-1.21024,0.261568,0.407968,-3.99,-0.21,10.15875,22.336,-25.064001,6.512,eccentric,5,3.0,21801.0,150033.0,239184.0,288342.0,267022.0
2026-04-08 21:39:48.464583,128212,1609503560693983,1160660351,-1.21024,0.261568,0.407968,-8.12875,0.0175,10.99875,22.336,-25.064001,6.512,eccentric,5,3.0,21801.0,150033.0,239184.0,288342.0,267022.0
2026-04-08 21:39:48.468199,128213,1609503560708466,1160675213,-1.241472,0.261568,0.374784,-9.21375,-0.06125,13.30875,22.072,-25.576002,6.936,eccentric,5,3.0,21801.0,150033.0,239184.0,288342.0,267022.0
2026-04-08 21:39:48.470595,128214,1609503560717384,1160683922,-1.241472,0.261568,0.374784,-7.0525,1.0325,13.965,22.072,-25.576002,6.936,eccentric,5,3.0,21801.0,150033.0,239184.0,288342.0,267022.0
2026-04-08 21:39:48.526866,128225,1609503560732256,1160698875,-1.167296,0.1952,0.464576,-4.76875,0.595,13.29125,22.024,-25.504002,6.944,eccentric,5,3.0,21742.0,149871.0,239070.0,288291.0,266994.0
2026-04-08 21:39:48.529372,128226,1609503560741230,1160707584,-1.167296,0.1952,0.464576,-3.85875,-0.53375,12.88,22.024,-25.504002,6.944,eccentric,5,3.0,21742.0,149871.0,239070.0,288291.0,266994.0
2026-04-08 21:39:48.531876,128227,1609503560750134,1160716258,-1.188768,0.16592,0.201056,-1.33875,-1.3825,11.41,21.312,-25.128,7.064,eccentric,5,3.0,21742.0,149871.0,239070.0,288291.0,266994.0
2026-04-08 21:39:48.534386,128228,1609503560764632,1160731223,-1.147776,0.23424,0.484096,-0.65625,-1.1025,8.09375,20.880001,-24.320002,8.416,eccentric,5,3.0,21742.0,149871.0,239070.0,288291.0,266994.0
2026-04-08 21:39:48.536913,128229,1609503560773677,1160739920,-1.147776,0.23424,0.484096,-1.995,0.20125,4.1825,20.880001,-24.320002,8.416,eccentric,5,3.0,21742.0,149871.0,239070.0,288291.0,266994.0
2026-04-08 21:39:48.539697,128230,1609503560788160,1160754836,-1.136064,0.236192,0.343552,-1.02375,-0.39375,5.845,20.768002,-25.2,8.064,eccentric,5,3.0,21742.0,149871.0,239070.0,288291.0,266994.0
2026-04-08 21:39:48.545654,128231,1609503560797121,1160763539,-1.136064,0.236192,0.343552,-1.28625,-3.3425,8.37375,20.768002,-25.2,8.064,eccentric,5,3.0,21742.0,149871.0,239070.0,288291.0,266994.0
2026-04-08 21:39:48.575834,128232,1609503560811597,1160778458,-1.040416,0.11712,0.38064,-3.6925,-6.69375,7.07,20.664001,-25.152,8.136001,eccentric,5,3.0,21742.0,149871.0,239070.0,288291.0,266994.0
2026-04-08 21:39:48.579381,128233,1609503560820482,1160787106,-1.040416,0.11712,0.38064,-8.16375,-9.31,1.89875,20.664001,-25.152,8.136001,eccentric,5,3.0,21742.0,149871.0,239070.0,288291.0,266994.0
2026-04-08 21:39:48.581936,128234,1609503560829408,1160795781,-1.149728,0.072224,0.240096,-9.9575,-10.36,-2.54625,20.480001,-24.696001,7.416,eccentric,5,3.0,21742.0,149871.0,239070.0,288291.0,266994.0
2026-04-08 21:39:48.644443,128245,1609503560843925,1160810708,-1.149728,0.072224,0.251808,-10.2375,-9.065,-5.2325,20.480001,-24.696001,7.416,eccentric,5,3.0,21802.0,150181.0,239601.0,288754.0,267269.0
2026-04-08 21:39:48.646908,128246,1609503560852861,1160819415,-1.075552,0.152256,0.251808,-10.045,-5.83625,-5.425,20.144001,-24.464,8.816,eccentric,5,3.0,21802.0,150181.0,239601.0,288754.0,267269.0
2026-04-08 21:39:48.649427,128247,1609503560867337,1160834285,-1.048224,0.251808,0.452864,-10.4825,-3.045,-4.865,20.416,-24.44,7.584001,eccentric,5,3.0,21802.0,150181.0,239601.0,288754.0,267269.0
2026-04-08 21:39:48.655602,128248,1609503560876315,1160842961,-1.048224,0.251808,0.452864,-9.37125,-0.91875,-6.23875,20.416,-24.44,7.584001,eccentric,5,3.0,21802.0,150181.0,239601.0,288754.0,267269.0
2026-04-08 21:39:48.658142,128249,1609503560890797,1160857827,-1.061888,0.080032,0.232288,-11.6375,-0.69125,-8.0675,20.136002,-24.376001,7.984,eccentric,5,3.0,21802.0,150181.0,239601.0,288754.0,267269.0
2026-04-08 21:39:48.660648,128250,1609503560899784,1160866503,-1.061888,0.080032,0.232288,-14.25375,-0.91,-9.02125,20.136002,-24.376001,7.984,eccentric,5,3.0,21802.0,150181.0,239601.0,288754.0,267269.0
2026-04-08 21:39:48.663167,128251,1609503560908711,1160875124,-1.05408,-0.015616,0.206912,-14.77,-1.44375,-9.9225,19.688002,-23.768002,8.824,eccentric,5,3.0,21802.0,150181.0,239601.0,288754.0,267269.0
2026-04-08 21:39:48.670738,128252,1609503560923209,1160890040,-1.05408,-0.015616,0.206912,-13.7375,-1.19,-13.5275,19.688002,-23.768002,8.824,eccentric,5,3.0,21802.0,150181.0,239601.0,288754.0,267269.0
2026-04-08 21:39:48.726968,128263,1609503560932235,1160898773,-1.022848,0.105408,0.290848,-10.05375,0.525,-18.01625,19.368,-23.648,6.424,eccentric,5,3.0,21927.0,150909.0,240723.0,289579.0,267709.0
2026-04-08 21:39:48.729415,128264,1609503560946787,1160913706,-0.876448,0.197152,0.443104,-3.8675,2.68625,-22.21625,19.976002,-23.392,9.160001,eccentric,5,3.0,21927.0,150909.0,240723.0,289579.0,267709.0
2026-04-08 21:39:48.731931,128265,1609503560955713,1160922359,-0.876448,0.197152,0.443104,3.92,5.4075,-27.62375,19.976002,-23.392,9.160001,eccentric,5,3.0,21927.0,150909.0,240723.0,289579.0,267709.0
2026-04-08 21:39:48.734441,128266,1609503560970235,1160937278,-0.95648,0.152256,0.415776,4.55,8.19,-33.775,20.12,-22.920002,7.736001,eccentric,5,3.0,21927.0,150909.0,240723.0,289579.0,267709.0
2026-04-08 21:39:48.736911,128267,1609503560979235,1160945968,-0.95648,0.152256,0.415776,-5.48625,6.72875,-34.335,20.12,-22.920002,7.736001,eccentric,5,3.0,21927.0,150909.0,240723.0,289579.0,267709.0
2026-04-08 21:39:48.739422,128268,1609503560988174,1160954646,-1.10288,-0.017568,0.271328,-15.5225,2.87875,-33.81875,20.472,-22.76,8.456,eccentric,5,3.0,21927.0,150909.0,240723.0,289579.0,267709.0
2026-04-08 21:39:48.769736,128269,1609503561002721,1160969599,-1.10288,-0.017568,0.271328,-28.2625,-1.0675,-33.04,20.472,-22.76,8.456,eccentric,5,3.0,21927.0,150909.0,240723.0,289579.0,267709.0
2026-04-08 21:39:48.773128,128270,1609503561011613,1160978258,-0.923296,0.0488,0.226432,-36.40875,-0.5075,-38.64,20.240002,-22.176,9.120001,eccentric,5,3.0,21927.0,150909.0,240723.0,289579.0,267709.0
2026-04-08 21:39:48.775686,128271,1609503561026070,1160993114,-0.827648,0.046848,0.366976,-31.68375,6.3875,-53.1125,20.936,-21.464,8.024,eccentric,5,3.0,21927.0,150909.0,240723.0,289579.0,267709.0
2026-04-08 21:39:48.806893,128282,1609503561035518,1161002192,-0.827648,0.046848,0.366976,-22.19,13.0025,-62.9125,20.936,-21.464,8.024,eccentric,5,3.0,22042.0,151593.0,241767.0,290454.0,268135.0
2026-04-08 21:39:48.809375,128283,1609503561044495,1161010965,-0.827648,0.046848,0.366976,-16.86125,14.175,-61.5825,20.936,-21.464,8.024,eccentric,5,3.0,22042.0,151593.0,241767.0,290454.0,268135.0
2026-04-08 21:39:48.811903,128284,1609503561058997,1161025871,-0.958432,0.042944,0.335744,-16.82625,9.75625,-58.40625,21.336,-20.936,8.208,eccentric,5,3.0,22042.0,151593.0,241767.0,290454.0,268135.0
2026-04-08 21:39:48.816867,128285,1609503561067952,1161034562,-0.882304,-0.066368,0.230336,-21.035,5.99375,-58.8875,21.648,-20.632002,8.368,eccentric,5,3.0,22042.0,151593.0,241767.0,290454.0,268135.0
2026-04-08 21:39:48.847260,128286,1609503561082492,1161049416,-0.882304,-0.066368,0.230336,-26.425,7.18375,-61.145,21.648,-20.632002,8.368,eccentric,5,3.0,22042.0,151593.0,241767.0,290454.0,268135.0
2026-04-08 21:39:48.850739,128287,1609503561091395,1161058077,-0.81008,-0.01952,0.433344,-30.9575,10.3775,-62.072502,21.880001,-19.640001,8.664001,eccentric,5,3.0,22042.0,151593.0,241767.0,290454.0,268135.0
2026-04-08 21:39:48.854611,128288,1609503561105869,1161072922,-0.81008,-0.02928,0.333792,-25.69875,13.18625,-64.35625,21.880001,-19.640001,8.664001,eccentric,5,3.0,22042.0,151593.0,241767.0,290454.0,268135.0
2026-04-08 21:39:48.884596,128289,1609503561114774,1161081587,-0.821792,-0.02928,0.333792,-20.22125,11.48875,-65.17,22.512001,-18.936,8.896001,eccentric,5,3.0,22042.0,151593.0,241767.0,290454.0,268135.0
2026-04-08 21:39:48.888171,128290,1609503561123692,1161090268,-0.821792,-0.02928,0.333792,-20.71125,5.66125,-62.072502,22.512001,-18.936,8.896001,eccentric,5,3.0,22042.0,151593.0,241767.0,290454.0,268135.0
2026-04-08 21:39:48.955619,128301,1609503561138369,1161105238,-0.687104,-0.121024,0.36112,-16.49375,3.24625,-62.43125,22.672,-18.376001,8.856,eccentric,5,3.0,22174.0,151973.0,242301.0,290821.0,268351.0
2026-04-08 21:39:48.958143,128302,1609503561147388,1161113912,-0.90768,-0.144448,0.027328,-9.80875,6.965,-65.905,23.128,-17.880001,8.168,eccentric,5,3.0,22174.0,151973.0,242301.0,290821.0,268351.0
2026-04-08 21:39:48.960610,128303,1609503561161924,1161128772,-0.90768,-0.144448,0.027328,-7.84875,13.93,-66.80625,23.128,-17.880001,8.168,eccentric,5,3.0,22174.0,151973.0,242301.0,290821.0,268351.0
2026-04-08 21:39:48.963111,128304,1609503561170817,1161137413,-0.726144,-0.074176,0.3904,-10.31625,20.13375,-65.96625,23.816002,-17.504002,8.72,eccentric,5,3.0,22174.0,151973.0,242301.0,290821.0,268351.0
2026-04-08 21:39:48.965681,128305,1609503561185296,1161152350,-0.726144,-0.074176,0.3904,-16.10875,19.53875,-64.96875,23.816002,-17.504002,8.72,eccentric,5,3.0,22174.0,151973.0,242301.0,290821.0,268351.0
2026-04-08 21:39:48.968225,128306,1609503561194231,1161161057,-0.696864,-0.076128,0.44896,-18.66375,17.7625,-66.21125,23.720001,-16.648,8.688001,eccentric,5,3.0,22174.0,151973.0,242301.0,290821.0,268351.0
2026-04-08 21:39:48.973111,128307,1609503561203177,1161169736,-0.696864,-0.076128,0.44896,-12.06625,16.345,-63.88375,23.720001,-16.648,8.688001,eccentric,5,3.0,22174.0,151973.0,242301.0,290821.0,268351.0
2026-04-08 21:39:48.975589,128308,1609503561217664,1161184662,-0.876448,-0.089792,0.310368,-8.8725,11.62875,-59.05375,24.28,-16.144001,8.424001,eccentric,5,3.0,22174.0,151973.0,242301.0,290821.0,268351.0
2026-04-08 21:39:48.978212,128309,1609503561226673,1161193334,-0.876448,-0.074176,0.329888,-0.81375,10.01,-57.65375,24.28,-16.144001,8.424001,eccentric,5,3.0,22174.0,151973.0,242301.0,290821.0,268351.0
2026-04-08 21:39:49.005616,128320,1609503561241253,1161208363,-0.776896,-0.074176,0.329888,-1.75,10.395,-58.572502,24.696001,-15.608001,8.240001,eccentric,5,3.0,22142.0,151675.0,241913.0,290608.0,268237.0
2026-04-08 21:39:49.008121,128321,1609503561250208,1161217045,-0.753472,-0.044896,0.355264,-8.86375,10.42125,-57.435,25.152,-15.312,8.608001,eccentric,5,3.0,22142.0,151675.0,241913.0,290608.0,268237.0
2026-04-08 21:39:49.010589,128322,1609503561264657,1161229932,-0.753472,-0.044896,0.355264,-13.9125,8.155,-53.90875,25.152,-15.312,8.608001,eccentric,5,3.0,22142.0,151675.0,241913.0,290608.0,268237.0
2026-04-08 21:39:49.040863,128323,1609503561273984,1161240741,-0.774944,-0.111264,0.46848,-15.12875,5.3725,-48.895,25.12,-14.848001,8.936001,eccentric,5,3.0,22142.0,151675.0,241913.0,290608.0,268237.0
2026-04-08 21:39:49.044424,128324,1609503561282894,1161249410,-0.774944,-0.111264,0.46848,-10.43875,1.47875,-45.00125,25.12,-14.848001,8.936001,eccentric,5,3.0,22142.0,151675.0,241913.0,290608.0,268237.0
2026-04-08 21:39:49.046919,128325,1609503561297355,1161264283,-0.853024,-0.152256,0.26352,-4.34,0.63875,-43.02375,25.176,-14.440001,8.240001,eccentric,5,3.0,22142.0,151675.0,241913.0,290608.0,268237.0
2026-04-08 21:39:49.077046,128326,1609503561306352,1161272979,-0.853024,-0.152256,0.26352,0.20125,3.36875,-39.73375,25.176,-14.440001,8.240001,eccentric,5,3.0,22142.0,151675.0,241913.0,290608.0,268237.0
2026-04-08 21:39:49.080654,128327,1609503561320845,1161287854,-0.835456,-0.027328,0.398208,-3.05375,5.48625,-36.2075,24.968,-14.576001,8.200001,eccentric,5,3.0,22142.0,151675.0,241913.0,290608.0,268237.0
2026-04-08 21:39:49.083112,128328,1609503561329747,1161296467,-0.817888,-0.054656,0.35136,-6.335,5.41625,-29.79375,25.720001,-13.8,8.440001,eccentric,5,3.0,22142.0,151675.0,241913.0,290608.0,268237.0
2026-04-08 21:39:49.110668,128339,1609503561344255,1161309809,-0.817888,-0.054656,0.35136,-9.948751,1.2425,-23.1175,25.720001,-13.8,8.440001,eccentric,5,3.0,22205.0,151977.0,242290.0,290931.0,268434.0
2026-04-08 21:39:49.113130,128340,1609503561353786,1161320669,-0.925248,-0.16592,0.433344,-8.8725,-4.095,-20.6325,25.352001,-13.776001,9.240001,eccentric,5,3.0,22205.0,151977.0,242290.0,290931.0,268434.0
2026-04-08 21:39:49.115668,128341,1609503561362721,1161329355,-0.925248,-0.16592,0.433344,-3.29,-3.96375,-19.01375,25.352001,-13.776001,9.240001,eccentric,5,3.0,22205.0,151977.0,242290.0,290931.0,268434.0
2026-04-08 21:39:49.147033,128342,1609503561377218,1161344228,-0.9272,-0.046848,0.31232,0.735,2.4675,-16.31875,25.088001,-13.288001,10.096001,eccentric,5,3.0,22205.0,151977.0,242290.0,290931.0,268434.0
2026-04-08 21:39:49.149462,128343,1609503561386179,1161352899,-0.9272,-0.046848,0.31232,-2.02125,8.015,-11.8475,25.088001,-13.288001,10.096001,eccentric,5,3.0,22205.0,151977.0,242290.0,290931.0,268434.0
2026-04-08 21:39:49.152730,128344,1609503561400669,1161367734,-0.958432,-0.06832,0.359168,-11.8825,7.81375,-5.8275,25.6,-13.216001,10.424001,eccentric,5,3.0,22205.0,151977.0,242290.0,290931.0,268434.0
2026-04-08 21:39:49.158164,128345,1609503561409568,1161376406,-0.976,-0.158112,0.396256,-17.19375,2.5375,-3.31625,25.544,-13.384001,8.336,eccentric,5,3.0,22205.0,151977.0,242290.0,290931.0,268434.0
2026-04-08 21:39:49.188333,128346,1609503561418534,1161385070,-0.976,-0.158112,0.396256,-12.18,-1.7675,-3.63125,25.544,-13.384001,8.336,eccentric,5,3.0,22205.0,151977.0,242290.0,290931.0,268434.0
2026-04-08 21:39:49.254356,128357,1609503561433011,1161400106,-0.958432,-0.083936,0.220576,1.575,-0.4375,-2.8875,25.776001,-13.688001,8.352,eccentric,5,3.0,22285.0,152380.0,242816.0,291343.0,268657.0
2026-04-08 21:39:49.256844,128358,1609503561441947,1161408966,-0.958432,-0.083936,0.220576,6.3875,3.26375,1.715,25.776001,-13.688001,8.352,eccentric,5,3.0,22285.0,152380.0,242816.0,291343.0,268657.0
2026-04-08 21:39:49.259365,128359,1609503561456451,1161421780,-0.96624,-0.076128,0.464576,-0.735,5.1625,7.07,25.712002,-13.296001,8.400001,eccentric,5,3.0,22285.0,152380.0,242816.0,291343.0,268657.0
2026-04-08 21:39:49.261899,128360,1609503561465776,1161432556,-0.96624,-0.076128,0.464576,-10.5,2.51125,9.2575,25.712002,-13.296001,8.400001,eccentric,5,3.0,22285.0,152380.0,242816.0,291343.0,268657.0
2026-04-08 21:39:49.264540,128361,1609503561474675,1161441211,-0.981856,-0.26352,0.247904,-11.73375,0.00875,7.9275,26.112001,-13.68,8.320001,eccentric,5,3.0,22285.0,152380.0,242816.0,291343.0,268657.0
2026-04-08 21:39:49.266914,128362,1609503561489190,1161456042,-1.038464,-0.130784,0.27328,-5.075,0.74375,6.2825,25.584002,-13.904,8.240001,eccentric,5,3.0,22285.0,152380.0,242816.0,291343.0,268657.0
2026-04-08 21:39:49.269356,128363,1609503561498130,1161464740,-1.038464,-0.130784,0.27328,5.66125,5.01375,4.235,25.584002,-13.904,8.240001,eccentric,5,3.0,22285.0,152380.0,242816.0,291343.0,268657.0
2026-04-08 21:39:49.272079,128364,1609503561512641,1161479621,-1.077504,-0.056608,0.294752,6.29125,7.9275,4.4625,25.2,-13.592001,9.264001,eccentric,5,3.0,22285.0,152380.0,242816.0,291343.0,268657.0
2026-04-08 21:39:49.274389,128365,1609503561521605,1161488282,-1.077504,-0.056608,0.294752,-3.3075,6.64125,6.51,25.2,-13.592001,9.264001,eccentric,5,3.0,22285.0,152380.0,242816.0,291343.0,268657.0
2026-04-08 21:39:49.339393,128376,1609503561536478,1161503250,-0.974048,-0.144448,0.357216,-10.14125,2.66,9.1875,25.328001,-13.832001,8.952001,eccentric,5,3.0,22416.0,152954.0,243551.0,291855.0,268982.0
2026-04-08 21:39:49.341956,128377,1609503561545449,1161511972,-0.974048,-0.144448,0.357216,-8.95125,-0.56,10.84125,25.328001,-13.832001,8.952001,eccentric,5,3.0,22416.0,152954.0,243551.0,291855.0,268982.0
2026-04-08 21:39:49.344436,128378,1609503561554351,1161520648,-0.933056,-0.177632,0.357216,-1.2775,0.00875,11.41,25.336,-13.976001,8.120001,eccentric,5,3.0,22416.0,152954.0,243551.0,291855.0,268982.0
2026-04-08 21:39:49.349392,128379,1609503561568854,1161535514,-0.933056,-0.062464,0.314272,5.1625,1.715,13.09875,25.336,-13.976001,8.120001,eccentric,5,3.0,22416.0,152954.0,243551.0,291855.0,268982.0
2026-04-08 21:39:49.351891,128380,1609503561577922,1161544258,-1.00528,-0.062464,0.314272,3.84125,2.98375,14.8225,25.52,-14.240001,9.68,eccentric,5,3.0,22416.0,152954.0,243551.0,291855.0,268982.0
2026-04-08 21:39:49.354453,128381,1609503561592397,1161559123,-0.962336,-0.10736,0.23424,-0.9625,3.535,16.59875,25.344002,-14.272,8.048,eccentric,5,3.0,22416.0,152954.0,243551.0,291855.0,268982.0
2026-04-08 21:39:49.356856,128382,1609503561601365,1161567879,-0.962336,-0.10736,0.23424,-5.24125,1.82,19.04875,25.344002,-14.272,8.048,eccentric,5,3.0,22416.0,152954.0,243551.0,291855.0,268982.0
2026-04-08 21:39:49.396120,128383,1609503561615851,1161582771,-0.979904,-0.154208,0.179584,-8.35625,-0.3325,20.545,24.488,-14.136001,8.432,eccentric,5,3.0,22416.0,152954.0,243551.0,291855.0,268982.0
2026-04-08 21:39:49.399392,128384,1609503561624768,1161591446,-0.979904,-0.154208,0.179584,-5.17125,-1.32125,20.16875,24.488,-14.136001,8.432,eccentric,5,3.0,22416.0,152954.0,243551.0,291855.0,268982.0
2026-04-08 21:39:49.401863,128385,1609503561633666,1161600161,-0.960384,-0.142496,0.247904,1.855,-0.035,18.22625,25.136002,-14.592001,8.312,eccentric,5,3.0,22416.0,152954.0,243551.0,291855.0,268982.0
2026-04-08 21:39:49.429347,128396,1609503561648228,1161615220,-0.960384,-0.142496,0.247904,2.98375,0.945,16.66875,25.136002,-14.592001,8.312,eccentric,5,3.0,22520.0,153494.0,244235.0,292250.0,269217.0
2026-04-08 21:39:49.431846,128397,1609503561657242,1161623912,-0.952576,-0.089792,0.304512,0.41125,1.1375,17.64875,25.04,-14.76,8.664001,eccentric,5,3.0,22520.0,153494.0,244235.0,292250.0,269217.0
2026-04-08 21:39:49.434424,128398,1609503561671751,1161638841,-0.950624,-0.07808,0.431392,-2.10875,-0.7175,19.74,24.752,-14.888001,9.056001,eccentric,5,3.0,22520.0,153494.0,244235.0,292250.0,269217.0
2026-04-08 21:39:49.436937,128399,1609503561680656,1161647523,-0.950624,-0.07808,0.431392,-1.51375,-3.4475,21.1925,24.752,-14.888001,9.056001,eccentric,5,3.0,22520.0,153494.0,244235.0,292250.0,269217.0
2026-04-08 21:39:49.441871,128400,1609503561695131,1161660354,-0.976,-0.044896,0.40016,3.815,-5.3725,21.735,24.152,-15.400001,8.232,eccentric,5,3.0,22520.0,153494.0,244235.0,292250.0,269217.0
2026-04-08 21:39:49.472280,128401,1609503561704517,1161671101,-0.976,-0.044896,0.40016,9.7825,-5.85375,22.741251,24.152,-15.400001,8.232,eccentric,5,3.0,22520.0,153494.0,244235.0,292250.0,269217.0
2026-04-08 21:39:49.476106,128402,1609503561713415,1161679779,-1.018944,-0.081984,0.12688,10.9025,-4.83875,24.2375,24.320002,-15.824,8.176001,eccentric,5,3.0,22520.0,153494.0,244235.0,292250.0,269217.0
2026-04-08 21:39:49.478146,128403,1609503561727913,1161694732,-1.018944,-0.081984,0.12688,6.57125,-4.27875,25.38375,24.320002,-15.824,8.176001,eccentric,5,3.0,22520.0,153494.0,244235.0,292250.0,269217.0
2026-04-08 21:39:49.548303,128414,1609503561736894,1161703975,-0.999424,-0.07808,0.249856,1.9075,-4.41875,25.82125,24.416,-15.936001,8.64,eccentric,5,3.0,22528.0,153513.0,244262.0,292277.0,269224.0
2026-04-08 21:39:49.550697,128415,1609503561751515,1161716837,-0.972096,-0.083936,0.236192,1.33,-5.22375,25.147501,23.952002,-15.752001,8.736,eccentric,5,3.0,22528.0,153513.0,244262.0,292277.0,269224.0
2026-04-08 21:39:49.556013,128416,1609503561760819,1161727567,-0.972096,-0.083936,0.236192,5.6175,-6.55375,24.71875,23.952002,-15.752001,8.736,eccentric,5,3.0,22528.0,153513.0,244262.0,292277.0,269224.0
2026-04-08 21:39:49.557285,128417,1609503561769725,1161736245,-0.972096,-0.083936,0.236192,11.2875,-7.37625,26.565,23.952002,-15.752001,8.736,eccentric,5,3.0,22528.0,153513.0,244262.0,292277.0,269224.0
2026-04-08 21:39:49.558425,128418,1609503561784209,1161751136,-0.952576,0.001952,0.247904,17.4125,-5.80125,28.97125,23.968,-16.272001,9.400001,eccentric,5,3.0,22528.0,153513.0,244262.0,292277.0,269224.0
2026-04-08 21:39:49.560657,128419,1609503561793116,1161759799,-0.958432,-0.054656,0.193248,17.87625,-2.94875,29.741251,23.328001,-16.472,9.144,eccentric,5,3.0,22528.0,153513.0,244262.0,292277.0,269224.0
2026-04-08 21:39:49.563287,128420,1609503561807623,1161774704,-0.958432,-0.054656,0.193248,10.9725,-2.30125,31.92,23.328001,-16.472,9.144,concentric,5,3.0,22528.0,153513.0,244262.0,292277.0,269224.0
2026-04-08 21:39:49.565624,128421,1609503561816581,1161783376,-0.911584,-0.080032,0.40992,2.6775,-3.31625,33.52125,23.216002,-16.928001,8.984,concentric,5,3.0,22528.0,153513.0,244262.0,292277.0,269224.0
2026-04-08 21:39:49.595960,128422,1609503561831138,1161798294,-0.872544,0.003904,0.4392,0.525,-5.7575,33.888752,23.024,-17.424002,8.184,concentric,5,3.0,22528.0,153513.0,244262.0,292277.0,269224.0
2026-04-08 21:39:49.624411,128433,1609503561840453,1161806956,-0.872544,0.003904,0.4392,7.315,-8.3475,34.4925,23.024,-17.424002,8.184,concentric,5,3.0,22584.0,153717.0,244487.0,292403.0,269296.0
2026-04-08 21:39:49.626827,128434,1609503561849481,1161815762,-0.872544,0.003904,0.4392,19.18,-9.35375,36.35625,23.024,-17.424002,8.184,concentric,5,3.0,22584.0,153717.0,244487.0,292403.0,269296.0
2026-04-08 21:39:49.629964,128435,1609503561863984,1161830657,-0.89792,0.027328,0.244,29.19,-9.073751,38.9025,22.952002,-18.088001,8.360001,concentric,5,3.0,22584.0,153717.0,244487.0,292403.0,269296.0
2026-04-08 21:39:49.632209,128436,1609503561872924,1161839408,-0.870592,0.01952,0.298656,29.2425,-9.44125,41.3525,22.528002,-18.2,10.896001,concentric,5,3.0,22584.0,153717.0,244487.0,292403.0,269296.0
2026-04-08 21:39:49.636004,128437,1609503561887435,1161854333,-0.870592,0.01952,0.298656,20.93875,-10.00125,44.388752,22.528002,-18.2,10.896001,concentric,5,3.0,22584.0,153717.0,244487.0,292403.0,269296.0
2026-04-08 21:39:49.665831,128438,1609503561896350,1161863004,-0.856928,-0.013664,0.25376,14.3675,-10.4825,46.795002,21.776001,-18.720001,8.488001,concentric,5,3.0,22584.0,153717.0,244487.0,292403.0,269296.0
2026-04-08 21:39:49.669410,128439,1609503561905279,1161871669,-0.856928,-0.013664,0.25376,14.752501,-11.19125,46.41875,21.776001,-18.720001,8.488001,concentric,5,3.0,22584.0,153717.0,244487.0,292403.0,269296.0
2026-04-08 21:39:49.671953,128440,1609503561919755,1161886490,-0.84912,0.027328,0.44896,16.616251,-13.08125,46.45375,21.712002,-19.288,7.784,concentric,5,3.0,22584.0,153717.0,244487.0,292403.0,269296.0
2026-04-08 21:39:49.677261,128441,1609503561928729,1161895163,-0.84912,0.027328,0.44896,23.65125,-15.02375,47.43375,21.712002,-19.288,7.784,concentric,5,3.0,22584.0,153717.0,244487.0,292403.0,269296.0
2026-04-08 21:39:49.708182,128452,1609503561943360,1161910205,-0.8784,0.06832,0.222528,33.32,-13.60625,47.90625,21.632002,-20.0,9.176001,concentric,5,3.0,22623.0,154017.0,244862.0,292655.0,269418.0
2026-04-08 21:39:49.714917,128453,1609503561952353,1161918868,-0.7808,0.122976,0.40992,38.22,-11.66375,48.74625,21.152,-20.632002,7.6,concentric,5,3.0,22623.0,154017.0,244862.0,292655.0,269418.0
2026-04-08 21:39:49.717424,128454,1609503561966846,1161933742,-0.7808,0.122976,0.40992,35.857502,-10.8675,51.5375,21.152,-20.632002,7.6,concentric,5,3.0,22623.0,154017.0,244862.0,292655.0,269418.0
2026-04-08 21:39:49.745878,128455,1609503561975812,1161942438,-0.7808,0.08784,0.232288,28.848751,-11.8825,56.25375,20.272001,-20.968,7.312,concentric,5,3.0,22623.0,154017.0,244862.0,292655.0,269418.0
2026-04-08 21:39:49.749423,128456,1609503561984758,1161951088,-0.7808,0.08784,0.232288,23.1525,-15.015,59.482502,20.272001,-20.968,7.312,concentric,5,3.0,22623.0,154017.0,244862.0,292655.0,269418.0
2026-04-08 21:39:49.751900,128457,1609503561999227,1161965964,-0.8784,0.056608,0.17568,20.79875,-18.1125,59.61375,19.992,-21.184002,8.472,concentric,5,3.0,22623.0,154017.0,244862.0,292655.0,269418.0
2026-04-08 21:39:49.755670,128458,1609503562008213,1161974670,-0.8784,0.056608,0.17568,23.0475,-19.5125,57.68875,19.992,-21.184002,8.472,concentric,5,3.0,22623.0,154017.0,244862.0,292655.0,269418.0
2026-04-08 21:39:49.788408,128459,1609503562022731,1161989546,-0.864736,0.152256,0.26352,29.645,-19.5125,54.32875,19.552,-21.912,8.296001,concentric,5,3.0,22623.0,154017.0,244862.0,292655.0,269418.0
2026-04-08 21:39:49.793106,128460,1609503562031634,1161998195,-0.864736,0.152256,0.306464,35.49,-16.75625,52.22,19.552,-21.912,8.296001,concentric,5,3.0,22623.0,154017.0,244862.0,292655.0,269418.0
2026-04-08 21:39:49.851904,128471,1609503562046178,1162013171,-0.79056,0.218624,0.306464,36.79375,-13.475,53.19125,19.232,-22.872002,4.016,concentric,5,3.0,22725.0,154444.0,245377.0,292995.0,269674.0
2026-04-08 21:39:49.854439,128472,1609503562055197,1162021926,-0.845216,0.158112,0.179584,29.96875,-11.7775,55.69375,18.424002,-22.968,7.84,concentric,5,3.0,22725.0,154444.0,245377.0,292995.0,269674.0
2026-04-08 21:39:49.856886,128473,1609503562064099,1162030593,-0.845216,0.158112,0.179584,20.772501,-11.34875,57.6625,18.424002,-22.968,7.84,concentric,5,3.0,22725.0,154444.0,245377.0,292995.0,269674.0
2026-04-08 21:39:49.859492,128474,1609503562078583,1162045433,-0.89792,0.232288,0.32208,13.3,-12.95,59.1675,18.0,-23.752,6.712,concentric,5,3.0,22725.0,154444.0,245377.0,292995.0,269674.0
2026-04-08 21:39:49.861961,128475,1609503562087520,1162054082,-0.89792,0.232288,0.32208,15.295,-15.05,56.595,18.0,-23.752,6.712,concentric,5,3.0,22725.0,154444.0,245377.0,292995.0,269674.0
2026-04-08 21:39:49.864401,128476,1609503562102054,1162069043,-0.784704,0.124928,0.300608,23.07375,-11.69,50.65375,17.640001,-24.36,6.856,concentric,5,3.0,22725.0,154444.0,245377.0,292995.0,269674.0
2026-04-08 21:39:49.866942,128477,1609503562111000,1162077728,-0.784704,0.124928,0.300608,20.43125,-9.38875,46.2525,17.640001,-24.36,6.856,concentric,5,3.0,22725.0,154444.0,245377.0,292995.0,269674.0
2026-04-08 21:39:49.870955,128478,1609503562119958,1162086403,-0.813984,0.216672,0.257664,12.78375,-8.37375,44.79125,17.352001,-24.12,7.664001,concentric,5,3.0,22725.0,154444.0,245377.0,292995.0,269674.0
2026-04-08 21:39:49.900792,128479,1609503562134432,1162101297,-0.763232,0.2928,0.437248,7.1225,-6.86,46.2175,17.016,-24.696001,7.856,concentric,5,3.0,22725.0,154444.0,245377.0,292995.0,269674.0
2026-04-08 21:39:49.929431,128490,1609503562143438,1162110389,-0.763232,0.2928,0.437248,3.22,-8.65375,45.94625,17.016,-24.696001,7.856,concentric,5,3.0,22974.0,155608.0,246675.0,293824.0,270159.0
2026-04-08 21:39:49.931904,128491,1609503562157925,1162123188,-0.872544,0.206912,0.269376,4.305,-12.3025,41.93875,16.616001,-25.128,6.584,concentric,5,3.0,22974.0,155608.0,246675.0,293824.0,270159.0
2026-04-08 21:39:49.934393,128492,1609503562167212,1162133935,-0.872544,0.206912,0.269376,5.11875,-15.23375,39.15625,16.616001,-25.128,6.584,concentric,5,3.0,22974.0,155608.0,246675.0,293824.0,270159.0
2026-04-08 21:39:49.936988,128493,1609503562181746,1162148858,-0.905728,0.191296,0.232288,5.8275,-17.38625,35.98,16.576,-25.688002,6.424,concentric,5,3.0,22974.0,155608.0,246675.0,293824.0,270159.0
2026-04-08 21:39:49.939413,128494,1609503562190664,1162157494,-0.905728,0.191296,0.232288,9.12625,-16.135,30.91375,16.576,-25.688002,6.424,concentric,5,3.0,22974.0,155608.0,246675.0,293824.0,270159.0
2026-04-08 21:39:49.970616,128495,1609503562199705,1162166180,-0.843264,0.26352,0.31232,8.12875,-12.4775,25.26125,16.544,-26.080002,6.432,concentric,5,3.0,22974.0,155608.0,246675.0,293824.0,270159.0
2026-04-08 21:39:49.972822,128496,1609503562214193,1162181037,-0.827648,0.26352,0.2928,3.6575,-7.90125,21.7,16.288,-26.192001,3.232,concentric,5,3.0,22974.0,155608.0,246675.0,293824.0,270159.0
2026-04-08 21:39:49.977411,128497,1609503562223101,1162189713,-0.827648,0.26352,0.2928,-3.815,-5.9325,21.5775,16.288,-26.192001,3.232,concentric,5,3.0,22974.0,155608.0,246675.0,293824.0,270159.0
2026-04-08 21:39:50.034191,128508,1609503562237615,1162204539,-0.823744,0.284992,0.509472,-16.65125,-9.345,22.54,16.032001,-26.256,7.848001,concentric,5,3.0,23129.0,156329.0,247463.0,294263.0,270416.0
2026-04-08 21:39:50.036093,128509,1609503562246644,1162213212,-0.823744,0.284992,0.509472,-25.3575,-14.48125,20.90375,16.032001,-26.256,7.848001,concentric,5,3.0,23129.0,156329.0,247463.0,294263.0,270416.0
2026-04-08 21:39:50.037159,128510,1609503562261118,1162228110,-0.938912,0.201056,0.201056,-22.75,-15.96875,15.995,16.072,-26.504002,6.76,concentric,5,3.0,23129.0,156329.0,247463.0,294263.0,270416.0
2026-04-08 21:39:50.044985,128511,1609503562270076,1162236809,-0.938912,0.201056,0.201056,-16.3625,-15.61875,10.64875,16.072,-26.504002,6.76,concentric,5,3.0,23129.0,156329.0,247463.0,294263.0,270416.0
2026-04-08 21:39:50.046725,128512,1609503562279243,1162245518,-0.98576,0.177632,0.327936,-13.0375,-14.04375,4.31375,15.936001,-26.592001,7.880001,concentric,5,3.0,23129.0,156329.0,247463.0,294263.0,270416.0
2026-04-08 21:39:50.048267,128513,1609503562293750,1162260401,-0.892064,0.25376,0.523136,-12.78375,-13.71125,-0.81375,15.936001,-26.592001,8.416,concentric,5,3.0,23129.0,156329.0,247463.0,294263.0,270416.0
2026-04-08 21:39:50.056077,128514,1609503562302672,1162269184,-0.89792,0.25376,0.523136,-12.285,-12.20625,-7.8225,16.168001,-26.664001,8.416,concentric,5,3.0,23129.0,156329.0,247463.0,294263.0,270416.0
2026-04-08 21:39:50.084699,128515,1609503562317144,1162284096,-0.903776,0.265472,0.466528,-12.55625,-9.5025,-15.2425,16.52,-26.808,8.728001,concentric,5,3.0,23129.0,156329.0,247463.0,294263.0,270416.0
2026-04-08 21:39:50.089294,128516,1609503562326061,1162292763,-0.903776,0.265472,0.466528,-17.24625,-8.60125,-18.47125,16.52,-26.808,8.728001,concentric,5,3.0,23129.0,156329.0,247463.0,294263.0,270416.0
2026-04-08 21:39:50.149191,128527,1609503562341028,1162307714,-1.057984,0.247904,0.423584,-21.48125,-11.4975,-18.4275,17.072,-26.712002,7.296001,concentric,5,3.0,23094.0,156032.0,246994.0,293932.0,270234.0
2026-04-08 21:39:50.150708,128528,1609503562350207,1162316433,-1.057984,0.247904,0.423584,-23.10875,-14.752501,-19.45125,17.072,-26.712002,7.296001,concentric,5,3.0,23094.0,156032.0,246994.0,293932.0,270234.0
2026-04-08 21:39:50.154936,128529,1609503562359202,1162325109,-0.954528,0.18544,0.677344,-27.055,-18.025,-23.52,17.720001,-26.536001,7.68,concentric,5,3.0,23094.0,156032.0,246994.0,293932.0,270234.0
2026-04-08 21:39:50.156658,128530,1609503562373685,1162339957,-0.954528,0.18544,0.677344,-26.95875,-20.90375,-28.4375,17.720001,-26.536001,7.68,concentric,5,3.0,23094.0,156032.0,246994.0,293932.0,270234.0
2026-04-08 21:39:50.158222,128531,1609503562382573,1162348649,-0.974048,0.16592,0.376736,-21.945,-22.54,-33.6875,18.096,-26.144001,7.888001,concentric,5,3.0,23094.0,156032.0,246994.0,293932.0,270234.0
2026-04-08 21:39:50.162515,128532,1609503562397056,1162363607,-1.128256,0.208864,0.515328,-17.14125,-22.3475,-41.685,18.608002,-26.416,8.184,concentric,5,3.0,23094.0,156032.0,246994.0,293932.0,270234.0
2026-04-08 21:39:50.164185,128533,1609503562405974,1162372286,-1.128256,0.208864,0.515328,-18.55,-20.48375,-46.3925,18.608002,-26.416,8.184,concentric,5,3.0,23094.0,156032.0,246994.0,293932.0,270234.0
2026-04-08 21:39:50.166091,128534,1609503562414893,1162380974,-1.130208,0.265472,0.732,-22.82,-17.0625,-45.12375,19.288,-25.944002,7.896,concentric,5,3.0,23094.0,156032.0,246994.0,293932.0,270234.0
2026-04-08 21:39:50.197155,128535,1609503562429422,1162395872,-1.130208,0.265472,0.732,-28.411251,-14.58625,-41.48375,19.288,-25.944002,7.896,concentric,5,3.0,23094.0,156032.0,246994.0,293932.0,270234.0
2026-04-08 21:39:50.199003,128536,1609503562438346,1162404524,-1.23952,0.261568,0.505568,-26.4425,-12.80125,-43.2075,19.792002,-25.848001,8.744,concentric,5,3.0,23094.0,156032.0,246994.0,293932.0,270234.0
2026-04-08 21:39:50.226982,128547,1609503562452913,1162419519,-1.23952,0.261568,0.505568,-24.815,-10.08,-49.91,19.792002,-25.848001,8.744,concentric,5,3.0,22967.0,155391.0,246226.0,293460.0,269979.0
2026-04-08 21:39:50.231219,128548,1609503562461839,1162428195,-1.221952,0.226432,0.593408,-21.88375,-6.895,-53.7075,20.544,-25.944002,8.616,concentric,5,3.0,22967.0,155391.0,246226.0,293460.0,269979.0
2026-04-08 21:39:50.232980,128549,1609503562476354,1162443162,-1.335168,0.245952,0.447008,-14.55125,-3.57875,-53.725,21.088001,-25.344002,8.632,concentric,5,3.0,22967.0,155391.0,246226.0,293460.0,269979.0
2026-04-08 21:39:50.234452,128550,1609503562485296,1162451888,-1.335168,0.245952,0.447008,-10.7275,-0.595,-52.66625,21.088001,-25.344002,8.632,concentric,5,3.0,22967.0,155391.0,246226.0,293460.0,269979.0
2026-04-08 21:39:50.264694,128551,1609503562494209,1162460559,-1.335168,0.245952,0.447008,-12.3725,2.1,-52.3425,21.088001,-25.344002,8.632,concentric,5,3.0,22967.0,155391.0,246226.0,293460.0,269979.0
2026-04-08 21:39:50.268265,128552,1609503562508667,1162475407,-1.341024,0.339648,0.534848,-12.81875,5.285,-51.93125,21.864,-24.824001,8.776,concentric,5,3.0,22967.0,155391.0,246226.0,293460.0,269979.0
2026-04-08 21:39:50.274323,128553,1609503562517583,1162484066,-1.352736,0.366976,0.573888,-15.155,4.9875,-50.4175,22.232,-24.768002,8.768001,concentric,5,3.0,22967.0,155391.0,246226.0,293460.0,269979.0
2026-04-08 21:39:50.281084,128554,1609503562532081,1162498978,-1.352736,0.366976,0.573888,-19.53875,1.6275,-46.54125,22.232,-24.768002,8.768001,concentric,5,3.0,22967.0,155391.0,246226.0,293460.0,269979.0
2026-04-08 21:39:50.343240,128565,1609503562541131,1162508239,-1.389824,0.318176,0.523136,-19.55625,-1.9075,-43.33,22.656,-24.272001,9.04,concentric,5,3.0,22728.0,154423.0,245069.0,292766.0,269582.0
2026-04-08 21:39:50.347629,128566,1609503562550169,1162516920,-1.389824,0.318176,0.523136,-20.2475,-4.13,-40.3025,22.656,-24.272001,9.04,concentric,5,3.0,22728.0,154423.0,245069.0,292766.0,269582.0
2026-04-08 21:39:50.349234,128567,1609503562564665,1162531761,-1.411296,0.355264,0.56608,-17.35125,-5.915,-33.90625,22.952002,-24.160002,9.224,concentric,5,3.0,22728.0,154423.0,245069.0,292766.0,269582.0
2026-04-08 21:39:50.352167,128568,1609503562573579,1162540419,-1.411296,0.355264,0.56608,-12.39,-7.77875,-25.78625,22.952002,-24.160002,9.224,concentric,5,3.0,22728.0,154423.0,245069.0,292766.0,269582.0
2026-04-08 21:39:50.355788,128569,1609503562588052,1162553281,-1.294176,0.308416,0.51728,-11.06875,-9.70375,-20.83375,22.808,-24.336,11.64,concentric,5,3.0,22728.0,154423.0,245069.0,292766.0,269582.0
2026-04-08 21:39:50.361220,128570,1609503562597441,1162564052,-1.194624,0.269376,0.655872,-11.97,-10.84125,-19.39,23.008001,-24.248001,11.096001,concentric,5,3.0,22728.0,154423.0,245069.0,292766.0,269582.0
2026-04-08 21:39:50.363637,128571,1609503562611994,1162578966,-1.194624,0.269376,0.655872,-10.42125,-9.7825,-15.21625,23.008001,-24.248001,11.096001,concentric,5,3.0,22728.0,154423.0,245069.0,292766.0,269582.0
2026-04-08 21:39:50.369837,128572,1609503562620982,1162587714,-1.118496,0.23424,0.452864,-6.97375,-7.63,-9.905,23.424002,-24.296001,10.368,concentric,5,3.0,22728.0,154423.0,245069.0,292766.0,269582.0
2026-04-08 21:39:50.428254,128573,1609503562629991,1162596413,-1.118496,0.23424,0.452864,-2.28375,-5.7925,-5.34625,23.424002,-24.296001,10.368,concentric,5,3.0,22728.0,154423.0,245069.0,292766.0,269582.0
2026-04-08 21:39:50.455646,128584,1609503562645076,1162611356,-1.09312,0.218624,0.35136,0.6475,-3.885,-3.22,23.344002,-23.896002,9.296001,concentric,5,3.0,22720.0,154241.0,244774.0,292476.0,269446.0
2026-04-08 21:39:50.458189,128585,1609503562654018,1162620151,-1.09312,0.218624,0.35136,0.455,-2.24875,-1.82,23.344002,-23.896002,9.296001,concentric,5,3.0,22720.0,154241.0,244774.0,292476.0,269446.0
2026-04-08 21:39:50.463173,128586,1609503562668465,1162635035,-1.007232,0.197152,0.464576,0.69125,-0.595,-0.5425,23.248001,-23.528002,9.544001,concentric,5,3.0,22720.0,154241.0,244774.0,292476.0,269446.0
2026-04-08 21:39:50.465631,128587,1609503562677355,1162643700,-0.964288,0.179584,0.470432,0.595,1.365,1.65375,23.36,-24.088001,9.832001,concentric,5,3.0,22720.0,154241.0,244774.0,292476.0,269446.0
2026-04-08 21:39:50.468123,128588,1609503562686252,1162652348,-0.964288,0.179584,0.470432,0.55125,2.98375,3.14125,23.36,-24.088001,9.832001,concentric,5,3.0,22720.0,154241.0,244774.0,292476.0,269446.0
2026-04-08 21:39:50.470554,128589,1609503562700733,1162667330,-0.874496,0.064416,0.376736,1.8375,4.83,2.93125,23.312,-23.848001,9.368,concentric,5,3.0,22720.0,154241.0,244774.0,292476.0,269446.0
2026-04-08 21:39:50.473173,128590,1609503562709735,1162676118,-0.874496,0.064416,0.376736,3.6925,6.01125,1.435,23.312,-23.848001,9.368,concentric,5,3.0,22720.0,154241.0,244774.0,292476.0,269446.0
2026-04-08 21:39:50.475666,128591,1609503562724270,1162691079,-0.925248,0.070272,0.22448,4.375,7.27125,0.46375,22.920002,-24.368002,9.360001,concentric,5,3.0,22720.0,154241.0,244774.0,292476.0,269446.0
2026-04-08 21:39:50.480645,128592,1609503562733183,1162699769,-0.925248,0.070272,0.22448,5.62625,9.4675,0.25375,22.920002,-24.368002,9.360001,concentric,5,3.0,22720.0,154241.0,244774.0,292476.0,269446.0
2026-04-08 21:39:50.536898,128603,1609503562747795,1162714701,-0.921344,0.115168,0.345504,7.8925,11.0775,-0.42875,23.136002,-24.232,9.464001,concentric,5,3.0,22924.0,154987.0,245511.0,292858.0,269635.0
2026-04-08 21:39:50.539375,128604,1609503562756750,1162723348,-0.874496,0.074176,0.45872,8.05875,11.41,-2.065,23.136002,-24.232,9.464001,concentric,5,3.0,22924.0,154987.0,245511.0,292858.0,269635.0
2026-04-08 21:39:50.541920,128605,1609503562765648,1162732011,-0.862784,0.074176,0.45872,5.76625,11.698751,-3.22,22.960001,-24.256,8.904,concentric,5,3.0,22924.0,154987.0,245511.0,292858.0,269635.0
2026-04-08 21:39:50.544417,128606,1609503562780169,1162746959,-0.915488,0.085888,0.480192,4.725,11.45375,-3.49125,23.016,-23.960001,9.592,concentric,5,3.0,22924.0,154987.0,245511.0,292858.0,269635.0
2026-04-08 21:39:50.546898,128607,1609503562789081,1162755631,-0.915488,0.085888,0.480192,5.87125,11.99625,-3.71875,23.016,-23.960001,9.592,concentric,5,3.0,22924.0,154987.0,245511.0,292858.0,269635.0
2026-04-08 21:39:50.551899,128608,1609503562803638,1162770557,-1.06384,0.122976,0.347456,7.98,13.86875,-4.47125,23.168001,-24.296001,9.504001,concentric,5,3.0,22924.0,154987.0,245511.0,292858.0,269635.0
2026-04-08 21:39:50.582084,128609,1609503562812649,1162779241,-1.06384,0.122976,0.347456,10.167501,14.6825,-3.3425,23.168001,-24.296001,9.504001,concentric,5,3.0,22924.0,154987.0,245511.0,292858.0,269635.0
2026-04-08 21:39:50.587039,128610,1609503562827132,1162794147,-1.071648,0.142496,0.30256,11.795,14.77,-2.6075,23.176,-24.256,8.200001,concentric,5,3.0,22924.0,154987.0,245511.0,292858.0,269635.0
2026-04-08 21:39:50.588134,128611,1609503562836042,1162802803,-1.071648,0.142496,0.30256,11.45375,13.86,-3.26375,23.176,-24.256,8.200001,concentric,5,3.0,22924.0,154987.0,245511.0,292858.0,269635.0
