pc_time,serial_num,sensor_ts,host_ts,ax,ay,az,gx,gy,gz,mx,my,mz,phase,rpe,weight_kg,ppg_a,ppg_b,ppg_c,ppg_d,ppg_e
2026-04-08 21:39:33.362272,125374,1609503545594735,1145561477,-0.98576,0.41968,0.325984,18.50625,-1.085,-0.81375,16.336,-29.240002,6.712,eccentric,5,3.0,22123.0,153877.0,245110.0,292849.0,269765.0
2026-04-08 21:39:33.365604,125375,1609503545603839,1145570192,-0.98576,0.491904,0.181536,18.235,-0.00875,-0.04375,16.336,-29.240002,5.768,eccentric,5,3.0,22123.0,153877.0,245110.0,292849.0,269765.0
2026-04-08 21:39:33.368163,125376,1609503545618360,1145585167,-0.987712,0.491904,0.181536,17.98125,-0.035,-0.56875,16.536001,-29.976002,5.768,eccentric,5,3.0,22123.0,153877.0,245110.0,292849.0,269765.0
2026-04-08 21:39:33.374420,125377,1609503545627269,1145593829,-0.979904,0.489952,0.16592,16.68625,-1.42625,-2.7125,16.152,-29.808,5.624,eccentric,5,3.0,22123.0,153877.0,245110.0,292849.0,269765.0
2026-04-08 21:39:33.404650,125378,1609503545641755,1145608747,-0.979904,0.489952,0.16592,15.3125,-3.1675,-5.7225,16.152,-29.808,5.624,eccentric,5,3.0,22123.0,153877.0,245110.0,292849.0,269765.0
2026-04-08 21:39:33.433081,125389,1609503545651080,1145617366,-0.999424,0.476288,0.355264,14.105001,-5.495,-7.32375,16.36,-30.016,4.944,eccentric,5,3.0,21694.0,152264.0,243191.0,291496.0,269022.0
2026-04-08 21:39:33.435618,125390,1609503545660081,1145626098,-0.999424,0.476288,0.355264,13.50125,-6.53625,-9.205,16.36,-30.016,4.944,eccentric,5,3.0,21694.0,152264.0,243191.0,291496.0,269022.0
2026-04-08 21:39:33.438146,125391,1609503545674676,1145640982,-1.030656,0.503616,0.36112,12.11,-5.7225,-10.99875,16.376001,-29.864002,5.6,eccentric,5,3.0,21694.0,152264.0,243191.0,291496.0,269022.0
2026-04-08 21:39:33.440603,125392,1609503545683706,1145649688,-1.030656,0.503616,0.36112,8.2075,-5.18,-12.705,16.376001,-29.864002,5.6,eccentric,5,3.0,21694.0,152264.0,243191.0,291496.0,269022.0
2026-04-08 21:39:33.445644,125393,1609503545698186,1145664571,-1.050176,0.50752,0.179584,2.6775,-5.34625,-14.971251,16.752,-29.720001,4.512,eccentric,5,3.0,21694.0,152264.0,243191.0,291496.0,269022.0
2026-04-08 21:39:33.476179,125394,1609503545707124,1145673289,-1.038464,0.495808,0.218624,-1.47875,-5.32875,-16.905,16.552,-29.448002,6.424,eccentric,5,3.0,21694.0,152264.0,243191.0,291496.0,269022.0
2026-04-08 21:39:33.479443,125395,1609503545721624,1145688165,-1.038464,0.495808,0.218624,-3.15,-5.25875,-18.05125,16.552,-29.448002,6.424,eccentric,5,3.0,21694.0,152264.0,243191.0,291496.0,269022.0
2026-04-08 21:39:33.481896,125396,1609503545730562,1145696826,-1.067744,0.503616,0.407968,-2.94875,-4.78625,-16.87875,16.560001,-29.552002,5.480001,eccentric,5,3.0,21694.0,152264.0,243191.0,291496.0,269022.0
2026-04-08 21:39:33.486883,125397,1609503545739458,1145705486,-1.067744,0.503616,0.407968,-3.94625,-3.4475,-14.8925,16.560001,-29.552002,5.480001,eccentric,5,3.0,21694.0,152264.0,243191.0,291496.0,269022.0
2026-04-08 21:39:33.545683,125408,1609503545754623,1145720839,-1.007232,0.454816,0.329888,-7.48125,-3.70125,-13.86875,16.44,-29.152002,5.8,eccentric,5,3.0,21267.0,150802.0,241554.0,290420.0,268421.0
2026-04-08 21:39:33.548147,125409,1609503545763625,1145729535,-1.007232,0.454816,0.329888,-14.62125,-5.18,-14.805,16.44,-29.152002,5.8,eccentric,5,3.0,21267.0,150802.0,241554.0,290420.0,268421.0
2026-04-08 21:39:33.552066,125410,1609503545778093,1145744389,-1.007232,0.4392,0.392352,-22.04125,-5.17125,-16.51125,17.016,-28.944002,5.776001,eccentric,5,3.0,21267.0,150802.0,241554.0,290420.0,268421.0
2026-04-08 21:39:33.555065,125411,1609503545787002,1145753082,-1.128256,0.47824,0.407968,-25.8125,-4.5675,-15.575,17.168001,-28.704,6.512,eccentric,5,3.0,21267.0,150802.0,241554.0,290420.0,268421.0
2026-04-08 21:39:33.556662,125412,1609503545795932,1145761814,-1.128256,0.47824,0.407968,-26.13625,-4.305,-13.37,17.168001,-28.704,6.512,eccentric,5,3.0,21267.0,150802.0,241554.0,290420.0,268421.0
2026-04-08 21:39:33.558137,125413,1609503545810397,1145776698,-1.075552,0.40016,0.3904,-23.02125,-4.05125,-13.685,16.792002,-28.232002,7.376,eccentric,5,3.0,21267.0,150802.0,241554.0,290420.0,268421.0
2026-04-08 21:39:33.590767,125414,1609503545819368,1145785383,-1.075552,0.40016,0.3904,-18.69,-4.62,-14.04375,16.792002,-28.232002,7.376,eccentric,5,3.0,21267.0,150802.0,241554.0,290420.0,268421.0
2026-04-08 21:39:33.594243,125415,1609503545833850,1145800253,-1.16144,0.41968,0.2928,-14.4025,-4.22625,-12.27625,16.712,-28.232002,6.584,eccentric,5,3.0,21267.0,150802.0,241554.0,290420.0,268421.0
2026-04-08 21:39:33.595716,125416,1609503545842765,1145808966,-1.16144,0.41968,0.2928,-11.13875,-3.045,-10.66625,16.712,-28.232002,6.584,eccentric,5,3.0,21267.0,150802.0,241554.0,290420.0,268421.0
2026-04-08 21:39:33.623154,125427,1609503545857444,1145823863,-1.114592,0.42944,0.396256,-13.11625,-1.86375,-10.045,17.056002,-27.888,6.544,eccentric,5,3.0,21280.0,150837.0,241637.0,290478.0,268453.0
2026-04-08 21:39:33.625635,125428,1609503545866455,1145832601,-1.04432,0.417728,0.489952,-20.0725,-2.00375,-10.167501,16.584002,-27.784,9.656,eccentric,5,3.0,21280.0,150837.0,241637.0,290478.0,268453.0
2026-04-08 21:39:33.628153,125429,1609503545875421,1145841331,-1.04432,0.417728,0.489952,-26.678751,-2.73,-11.480001,16.584002,-27.784,9.656,eccentric,5,3.0,21280.0,150837.0,241637.0,290478.0,268453.0
2026-04-08 21:39:33.658419,125430,1609503545889906,1145856223,-1.116544,0.359168,0.304512,-31.115,-3.535,-12.45125,16.584002,-27.192001,9.072001,eccentric,5,3.0,21280.0,150837.0,241637.0,290478.0,268453.0
2026-04-08 21:39:33.661890,125431,1609503545898883,1145864864,-1.116544,0.359168,0.304512,-30.30125,-4.31375,-11.83875,16.584002,-27.192001,9.072001,eccentric,5,3.0,21280.0,150837.0,241637.0,290478.0,268453.0
2026-04-08 21:39:33.664364,125432,1609503545913395,1145879769,-1.050176,0.325984,0.540704,-25.4975,-5.25,-10.61375,16.864,-27.44,7.168,eccentric,5,3.0,21280.0,150837.0,241637.0,290478.0,268453.0
2026-04-08 21:39:33.670655,125433,1609503545922341,1145888463,-1.050176,0.325984,0.540704,-21.60375,-4.97,-12.11,16.864,-27.44,7.168,eccentric,5,3.0,21280.0,150837.0,241637.0,290478.0,268453.0
2026-04-08 21:39:33.676794,125434,1609503545931311,1145897209,-1.065792,0.31232,0.279136,-20.6325,-5.53875,-14.55125,16.856,-26.760002,7.912,eccentric,5,3.0,21280.0,150837.0,241637.0,290478.0,268453.0
2026-04-08 21:39:33.707154,125435,1609503545945834,1145912079,-1.065792,0.31232,0.437248,-19.1625,-5.32,-17.54375,16.856,-26.760002,7.912,eccentric,5,3.0,21280.0,150837.0,241637.0,290478.0,268453.0
2026-04-08 21:39:33.739924,125446,1609503545954861,1145920806,-0.979904,0.318176,0.437248,-17.272501,-4.87375,-19.678751,16.92,-26.568,7.288001,eccentric,5,3.0,21678.0,152219.0,243311.0,291624.0,269115.0
2026-04-08 21:39:33.741633,125447,1609503545969450,1145935681,-1.022848,0.284992,0.509472,-19.74875,-5.495,-20.545,16.704,-26.624,8.184,eccentric,5,3.0,21678.0,152219.0,243311.0,291624.0,269115.0
2026-04-08 21:39:33.743172,125448,1609503545978460,1145944489,-1.022848,0.284992,0.509472,-23.49375,-5.7575,-21.63875,16.704,-26.624,8.184,eccentric,5,3.0,21678.0,152219.0,243311.0,291624.0,269115.0
2026-04-08 21:39:33.745641,125449,1609503545992948,1145959361,-1.030656,0.230336,0.357216,-25.27875,-6.37875,-21.8575,16.336,-25.896002,9.280001,eccentric,5,3.0,21678.0,152219.0,243311.0,291624.0,269115.0
2026-04-08 21:39:33.749395,125450,1609503546001890,1145968053,-1.030656,0.230336,0.357216,-20.65875,-6.32625,-23.03,16.336,-25.896002,9.280001,eccentric,5,3.0,21678.0,152219.0,243311.0,291624.0,269115.0
2026-04-08 21:39:33.758184,125451,1609503546010849,1145976756,-1.048224,0.271328,0.244,-11.7775,-4.61125,-24.96375,16.944,-25.744001,8.888001,eccentric,5,3.0,21678.0,152219.0,243311.0,291624.0,269115.0
2026-04-08 21:39:33.788260,125452,1609503546025346,1145991652,-1.048224,0.271328,0.244,-3.2725,-0.90125,-27.44875,16.944,-25.744001,8.888001,eccentric,5,3.0,21678.0,152219.0,243311.0,291624.0,269115.0
2026-04-08 21:39:33.792724,125453,1609503546034265,1146000312,-1.056032,0.279136,0.386496,0.21875,2.58125,-29.435,17.088001,-25.464,9.504001,eccentric,5,3.0,21678.0,152219.0,243311.0,291624.0,269115.0
2026-04-08 21:39:33.797354,125454,1609503546048727,1146015142,-0.94672,0.193248,0.335744,-6.9475,4.40125,-28.91875,17.248001,-25.224,8.056001,eccentric,5,3.0,21678.0,152219.0,243311.0,291624.0,269115.0
2026-04-08 21:39:33.824183,125465,1609503546057701,1146023906,-0.94672,0.193248,0.335744,-13.8425,4.5675,-26.64375,17.248001,-25.224,8.056001,eccentric,5,3.0,21965.0,153220.0,244500.0,292471.0,269559.0
2026-04-08 21:39:33.827109,125466,1609503546072251,1146038858,-0.9272,0.197152,0.509472,-12.53,4.8125,-27.116251,17.0,-24.960001,10.104,eccentric,5,3.0,21965.0,153220.0,244500.0,292471.0,269559.0
2026-04-08 21:39:33.829090,125467,1609503546081173,1146047517,-0.9272,0.197152,0.509472,-3.42125,6.1425,-30.02125,17.0,-24.960001,10.104,eccentric,5,3.0,21965.0,153220.0,244500.0,292471.0,269559.0
2026-04-08 21:39:33.838160,125468,1609503546090130,1146056182,-1.03456,0.228384,0.462624,5.67875,10.00125,-34.6675,17.344002,-24.904001,10.52,eccentric,5,3.0,21965.0,153220.0,244500.0,292471.0,269559.0
2026-04-08 21:39:33.890737,125469,1609503546104629,1146071072,-1.03456,0.228384,0.462624,5.7575,9.86125,-36.61,17.344002,-24.904001,10.52,eccentric,5,3.0,21965.0,153220.0,244500.0,292471.0,269559.0
2026-04-08 21:39:33.893180,125470,1609503546113547,1146079739,-1.003328,0.201056,0.236192,-0.09625,8.7325,-37.52875,17.800001,-24.320002,8.648001,eccentric,5,3.0,21965.0,153220.0,244500.0,292471.0,269559.0
2026-04-08 21:39:33.895676,125471,1609503546128050,1146094624,-0.853024,0.113216,0.484096,-6.79875,7.46375,-38.99875,18.016,-23.896002,9.792001,eccentric,5,3.0,21965.0,153220.0,244500.0,292471.0,269559.0
2026-04-08 21:39:33.898054,125472,1609503546137449,1146103343,-0.853024,0.113216,0.484096,-8.015,7.04375,-39.05125,18.016,-23.896002,9.792001,eccentric,5,3.0,21965.0,153220.0,244500.0,292471.0,269559.0
2026-04-08 21:39:33.900593,125473,1609503546146356,1146111993,-0.853024,0.113216,0.484096,-0.5775,5.18,-38.22875,18.016,-23.896002,9.792001,eccentric,5,3.0,21965.0,153220.0,244500.0,292471.0,269559.0
2026-04-08 21:39:33.930613,125484,1609503546160933,1146127141,-0.968192,0.177632,0.325984,9.37125,8.8725,-41.06375,18.368,-23.920002,7.128,eccentric,5,3.0,22033.0,153326.0,244705.0,292610.0,269613.0
2026-04-08 21:39:33.933122,125485,1609503546169922,1146135804,-1.001376,0.183488,0.310368,11.917501,13.895,-44.1525,18.968,-23.568,9.048,eccentric,5,3.0,22033.0,153326.0,244705.0,292610.0,269613.0
2026-04-08 21:39:33.935659,125486,1609503546184408,1146150673,-1.001376,0.183488,0.310368,1.53125,12.6175,-41.97375,18.968,-23.568,9.048,eccentric,5,3.0,22033.0,153326.0,244705.0,292610.0,269613.0
2026-04-08 21:39:33.939342,125487,1609503546193421,1146159361,-0.880352,0.111264,0.505568,-13.58,6.825,-41.01125,18.720001,-22.992,9.456,eccentric,5,3.0,22033.0,153326.0,244705.0,292610.0,269613.0
2026-04-08 21:39:33.969687,125488,1609503546207891,1146174243,-0.882304,0.064416,0.269376,-20.48375,4.445,-43.925,18.720001,-20.944,10.104,eccentric,5,3.0,22033.0,153326.0,244705.0,292610.0,269613.0
2026-04-08 21:39:33.973207,125489,1609503546216833,1146182905,-0.882304,0.064416,0.269376,-10.49125,5.0225,-46.3225,19.2,-22.44,10.104,eccentric,5,3.0,22033.0,153326.0,244705.0,292610.0,269613.0
2026-04-08 21:39:33.975622,125490,1609503546225771,1146191557,-0.882304,0.064416,0.269376,2.91375,7.945,-46.34,19.2,-22.44,10.104,eccentric,5,3.0,22033.0,153326.0,244705.0,292610.0,269613.0
2026-04-08 21:39:34.005845,125491,1609503546240261,1146206541,-0.940864,0.140544,0.267424,9.135,10.6225,-44.56375,19.376001,-22.136002,8.464001,eccentric,5,3.0,22033.0,153326.0,244705.0,292610.0,269613.0
2026-04-08 21:39:34.009380,125492,1609503546249138,1146215189,-0.942816,0.150304,0.368928,8.75875,13.2125,-44.8525,19.632002,-22.184002,8.864,eccentric,5,3.0,22033.0,153326.0,244705.0,292610.0,269613.0
2026-04-08 21:39:34.076831,125503,1609503546263689,1146230140,-0.942816,0.150304,0.368928,3.5525,15.6975,-45.745,19.632002,-22.184002,8.864,eccentric,5,3.0,22089.0,153487.0,244943.0,292823.0,269718.0
2026-04-08 21:39:34.079382,125504,1609503546272666,1146238930,-0.944768,0.128832,0.30256,-5.22375,16.905,-46.13,20.056002,-21.496,8.112,eccentric,5,3.0,22089.0,153487.0,244943.0,292823.0,269718.0
2026-04-08 21:39:34.081912,125505,1609503546287132,1146253792,-0.944768,0.128832,0.30256,-10.675,16.625,-45.57,20.056002,-21.496,8.112,eccentric,5,3.0,22089.0,153487.0,244943.0,292823.0,269718.0
2026-04-08 21:39:34.084400,125506,1609503546296036,1146262472,-0.853024,0.062464,0.499712,-10.68375,15.8375,-45.263752,20.768002,-21.112001,8.0,eccentric,5,3.0,22089.0,153487.0,244943.0,292823.0,269718.0
2026-04-08 21:39:34.086885,125507,1609503546305060,1146271129,-0.853024,0.062464,0.499712,-9.35375,13.46625,-46.2,20.768002,-21.112001,8.0,eccentric,5,3.0,22089.0,153487.0,244943.0,292823.0,269718.0
2026-04-08 21:39:34.089440,125508,1609503546319624,1146285995,-0.851072,0.062464,0.450912,-10.47375,10.87625,-47.15375,21.104,-20.712002,8.280001,eccentric,5,3.0,22089.0,153487.0,244943.0,292823.0,269718.0
2026-04-08 21:39:34.091900,125509,1609503546328528,1146294730,-0.929152,0.072224,0.40992,-7.28875,11.12125,-50.04125,21.104,-20.712002,8.768001,eccentric,5,3.0,22089.0,153487.0,244943.0,292823.0,269718.0
2026-04-08 21:39:34.094407,125510,1609503546343027,1146309660,-0.935008,0.072224,0.40992,-2.94,14.7175,-53.54125,21.168001,-20.408,8.768001,eccentric,5,3.0,22089.0,153487.0,244943.0,292823.0,269718.0
2026-04-08 21:39:34.099366,125511,1609503546351968,1146318339,-0.895968,0.015616,0.52704,-4.5675,14.49,-54.075,21.528002,-19.84,8.312,eccentric,5,3.0,22089.0,153487.0,244943.0,292823.0,269718.0
2026-04-08 21:39:34.129412,125522,1609503546366612,1146333287,-0.895968,0.015616,0.52704,-10.115,11.2525,-52.56125,21.528002,-19.84,8.312,eccentric,5,3.0,22146.0,153732.0,245302.0,293091.0,269857.0
2026-04-08 21:39:34.131910,125523,1609503546375616,1146341955,-0.8296,0.031232,0.407968,-4.57625,8.7675,-53.2,22.184002,-19.336,8.376,eccentric,5,3.0,22146.0,153732.0,245302.0,293091.0,269857.0
2026-04-08 21:39:34.134305,125524,1609503546384578,1146350713,-0.8296,0.031232,0.407968,7.21,10.15875,-57.085,22.184002,-19.336,8.376,eccentric,5,3.0,22146.0,153732.0,245302.0,293091.0,269857.0
2026-04-08 21:39:34.188405,125525,1609503546399047,1146365622,-0.884256,0.005856,0.240096,12.0225,11.19125,-58.54625,22.04,-18.928001,8.784,eccentric,5,3.0,22146.0,153732.0,245302.0,293091.0,269857.0
2026-04-08 21:39:34.193303,125526,1609503546407950,1146374281,-0.884256,0.005856,0.240096,6.6675,10.9025,-56.44625,22.04,-18.928001,8.784,eccentric,5,3.0,22146.0,153732.0,245302.0,293091.0,269857.0
2026-04-08 21:39:34.195361,125527,1609503546422404,1146389171,-0.977952,-0.040992,0.20496,-0.09625,12.0925,-56.3675,22.792002,-18.632,7.256001,eccentric,5,3.0,22146.0,153732.0,245302.0,293091.0,269857.0
2026-04-08 21:39:34.197371,125528,1609503546431315,1146397833,-0.979904,0.00976,0.349408,-7.04375,13.2475,-57.37375,23.464,-18.04,7.816001,eccentric,5,3.0,22146.0,153732.0,245302.0,293091.0,269857.0
2026-04-08 21:39:34.199336,125529,1609503546445767,1146412688,-0.979904,0.00976,0.349408,-8.12875,15.04125,-59.52625,23.464,-18.04,7.816001,eccentric,5,3.0,22146.0,153732.0,245302.0,293091.0,269857.0
2026-04-08 21:39:34.226868,125540,1609503546454726,1146421463,-0.899872,-0.06832,0.304512,-3.5,12.81875,-60.9175,23.2,-17.872002,9.368,eccentric,5,3.0,22049.0,153362.0,244883.0,292784.0,269643.0
2026-04-08 21:39:34.229403,125541,1609503546464115,1146430260,-0.899872,-0.06832,0.304512,1.35625,10.00125,-58.765,23.2,-17.872002,9.368,eccentric,5,3.0,22049.0,153362.0,244883.0,292784.0,269643.0
2026-04-08 21:39:34.231834,125542,1609503546478622,1146445243,-0.940864,-0.076128,0.158112,6.895,10.07125,-57.82875,23.688002,-17.528002,8.904,eccentric,5,3.0,22049.0,153362.0,244883.0,292784.0,269643.0
2026-04-08 21:39:34.234682,125543,1609503546487610,1146453946,-0.940864,-0.076128,0.158112,9.75625,12.67875,-55.60625,23.688002,-17.528002,8.904,eccentric,5,3.0,22049.0,153362.0,244883.0,292784.0,269643.0
2026-04-08 21:39:34.264586,125544,1609503546502070,1146468795,-0.845216,-0.089792,0.33184,2.33625,15.846251,-56.42875,23.928001,-16.872002,7.744,eccentric,5,3.0,22049.0,153362.0,244883.0,292784.0,269643.0
2026-04-08 21:39:34.268198,125545,1609503546510973,1146477480,-0.919392,0.005856,0.437248,-8.93375,17.01,-56.06125,24.784,-16.480001,9.256001,eccentric,5,3.0,22049.0,153362.0,244883.0,292784.0,269643.0
2026-04-08 21:39:34.273205,125546,1609503546525438,1146492355,-0.919392,0.005856,0.437248,-15.12,14.25375,-53.4275,24.784,-16.480001,9.256001,eccentric,5,3.0,22049.0,153362.0,244883.0,292784.0,269643.0
2026-04-08 21:39:34.305940,125547,1609503546534359,1146501048,-0.890112,-0.119072,0.284992,-11.78625,13.545,-52.15875,25.104002,-16.232,7.136,eccentric,5,3.0,22049.0,153362.0,244883.0,292784.0,269643.0
2026-04-08 21:39:34.309516,125548,1609503546543326,1146509712,-0.890112,-0.119072,0.284992,-4.87375,13.39625,-51.7475,25.104002,-16.232,7.136,eccentric,5,3.0,22049.0,153362.0,244883.0,292784.0,269643.0
2026-04-08 21:39:34.349518,125559,1609503546557842,1146523045,-0.944768,-0.13664,0.128832,-2.835,14.1925,-50.44375,25.160002,-15.288001,6.920001,eccentric,5,3.0,21913.0,152667.0,243964.0,292069.0,269245.0
2026-04-08 21:39:34.353532,125560,1609503546567135,1146533846,-0.944768,-0.13664,0.128832,-7.23625,17.03625,-49.245,25.160002,-15.288001,6.920001,eccentric,5,3.0,21913.0,152667.0,243964.0,292069.0,269245.0
2026-04-08 21:39:34.355452,125561,1609503546581615,1146548744,-0.85888,-0.083936,0.320128,-13.71125,18.94375,-48.65,25.384,-15.272,7.128,eccentric,5,3.0,21913.0,152667.0,243964.0,292069.0,269245.0
2026-04-08 21:39:34.357520,125562,1609503546590644,1146557427,-0.911584,-0.066368,0.466528,-20.46625,16.555,-45.10625,25.712002,-14.6,6.608,eccentric,5,3.0,21913.0,152667.0,243964.0,292069.0,269245.0
2026-04-08 21:39:34.359532,125563,1609503546599586,1146566123,-0.911584,-0.066368,0.466528,-20.09,12.81,-42.41125,25.712002,-14.6,6.608,eccentric,5,3.0,21913.0,152667.0,243964.0,292069.0,269245.0
2026-04-08 21:39:34.361905,125564,1609503546614104,1146581020,-0.8784,-0.138592,0.329888,-10.43,9.65125,-41.43125,26.408,-14.68,6.792,eccentric,5,3.0,21913.0,152667.0,243964.0,292069.0,269245.0
2026-04-08 21:39:34.393175,125565,1609503546623092,1146589778,-0.8784,-0.138592,0.329888,0.23625,9.82625,-39.92625,26.408,-14.68,6.792,eccentric,5,3.0,21913.0,152667.0,243964.0,292069.0,269245.0
2026-04-08 21:39:34.397565,125566,1609503546637624,1146604649,-0.894016,-0.10736,0.343552,0.21875,11.85625,-35.8225,26.352001,-14.064001,6.520001,eccentric,5,3.0,21913.0,152667.0,243964.0,292069.0,269245.0
2026-04-08 21:39:34.399879,125567,1609503546646537,1146613300,-0.894016,-0.10736,0.343552,-9.03875,13.20375,-30.93125,26.352001,-14.064001,6.520001,eccentric,5,3.0,21913.0,152667.0,243964.0,292069.0,269245.0
2026-04-08 21:39:34.427965,125578,1609503546661201,1146628247,-0.921344,-0.076128,0.3904,-15.3475,12.8975,-28.2625,26.888,-14.224001,6.944,eccentric,5,3.0,21935.0,152556.0,243721.0,291959.0,269204.0
2026-04-08 21:39:34.430361,125579,1609503546670182,1146636953,-0.921344,-0.076128,0.3904,-15.636251,11.0775,-26.285,26.888,-14.224001,6.944,eccentric,5,3.0,21935.0,152556.0,243721.0,291959.0,269204.0
2026-04-08 21:39:34.434139,125580,1609503546679068,1146645625,-0.976,-0.113216,0.363072,-10.99875,7.69125,-23.52,26.648,-13.824,6.856,eccentric,5,3.0,21935.0,152556.0,243721.0,291959.0,269204.0
2026-04-08 21:39:34.493186,125581,1609503546693575,1146660509,-0.880352,-0.105408,0.345504,-1.96,4.13,-20.8425,26.568,-13.632001,6.624001,eccentric,5,3.0,21935.0,152556.0,243721.0,291959.0,269204.0
2026-04-08 21:39:34.495290,125582,1609503546702503,1146669237,-0.880352,-0.105408,0.345504,5.94125,2.91375,-16.765,26.568,-13.632001,6.624001,eccentric,5,3.0,21935.0,152556.0,243721.0,291959.0,269204.0
2026-04-08 21:39:34.499953,125583,1609503546717078,1146684093,-0.96624,-0.03904,0.189344,7.4725,5.24125,-11.29625,26.800001,-13.536,6.688,eccentric,5,3.0,21935.0,152556.0,243721.0,291959.0,269204.0
2026-04-08 21:39:34.501594,125584,1609503546726025,1146692756,-0.96624,-0.03904,0.189344,-1.74125,8.75875,-5.4425,26.800001,-13.536,6.688,eccentric,5,3.0,21935.0,152556.0,243721.0,291959.0,269204.0
2026-04-08 21:39:34.503381,125585,1609503546740478,1146707601,-1.079456,-0.18544,0.240096,-18.15625,8.995,-1.04125,26.824001,-13.904,6.816001,eccentric,5,3.0,21935.0,152556.0,243721.0,291959.0,269204.0
2026-04-08 21:39:34.505979,125586,1609503546749386,1146716267,-1.079456,-0.18544,0.240096,-27.6325,4.22625,-0.735,26.824001,-13.904,6.816001,eccentric,5,3.0,21935.0,152556.0,243721.0,291959.0,269204.0
2026-04-08 21:39:34.535779,125598,1609503546758875,1146725038,-0.895968,-0.244,0.431392,-17.33375,-0.13125,-3.29875,26.720001,-13.384001,6.248,eccentric,5,3.0,22174.0,153356.0,244647.0,292644.0,269621.0
2026-04-08 21:39:34.538156,125599,1609503546773458,1146740042,-0.96624,-0.052704,0.308416,3.57875,0.37625,-2.38,26.44,-13.632001,6.24,eccentric,5,3.0,22174.0,153356.0,244647.0,292644.0,269621.0
2026-04-08 21:39:34.540585,125600,1609503546782395,1146748726,-0.96624,-0.052704,0.308416,15.7675,2.70375,2.9225,26.44,-13.632001,6.24,eccentric,5,3.0,22174.0,153356.0,244647.0,292644.0,269621.0
2026-04-08 21:39:34.543095,125601,1609503546796928,1146763670,-1.069696,-0.099552,0.23424,8.96875,4.01625,8.77625,26.528002,-13.6,6.480001,eccentric,5,3.0,22174.0,153356.0,244647.0,292644.0,269621.0
2026-04-08 21:39:34.573411,125602,1609503546805894,1146772362,-1.069696,-0.099552,0.23424,-8.6975,2.49375,13.3875,26.528002,-13.6,6.480001,eccentric,5,3.0,22174.0,153356.0,244647.0,292644.0,269621.0
2026-04-08 21:39:34.576967,125603,1609503546814843,1146781038,-1.030656,-0.279136,0.154208,-21.20125,0.04375,15.05,26.872002,-14.192,6.456,eccentric,5,3.0,22174.0,153356.0,244647.0,292644.0,269621.0
2026-04-08 21:39:34.579419,125604,1609503546829347,1146795882,-1.030656,-0.279136,0.154208,-16.415,-0.315,13.95625,26.872002,-14.192,6.456,eccentric,5,3.0,22174.0,153356.0,244647.0,292644.0,269621.0
2026-04-08 21:39:34.612062,125605,1609503546838351,1146804559,-0.948672,-0.210816,0.26352,-2.84375,0.63875,13.29125,26.664001,-14.312,6.528,eccentric,5,3.0,22174.0,153356.0,244647.0,292644.0,269621.0
2026-04-08 21:39:34.615748,125606,1609503546852805,1146819461,-0.976,-0.160064,0.238144,6.67625,0.93625,14.93625,26.304,-14.168,5.36,eccentric,5,3.0,22174.0,153356.0,244647.0,292644.0,269621.0
2026-04-08 21:39:34.643064,125617,1609503546861846,1146828159,-0.976,-0.160064,0.238144,6.58,0.245,15.8725,26.304,-14.168,5.36,eccentric,5,3.0,22288.0,153892.0,245330.0,293089.0,269851.0
2026-04-08 21:39:34.645640,125618,1609503546876447,1146843072,-1.01504,-0.187392,0.357216,-0.77,-0.28875,15.44375,26.384,-14.336,6.440001,eccentric,5,3.0,22288.0,153892.0,245330.0,293089.0,269851.0
2026-04-08 21:39:34.648133,125619,1609503546885396,1146851810,-1.01504,-0.187392,0.357216,-8.19,-0.69125,15.408751,26.384,-14.336,6.440001,eccentric,5,3.0,22288.0,153892.0,245330.0,293089.0,269851.0
2026-04-08 21:39:34.650630,125620,1609503546894357,1146860566,-1.0736,-0.181536,0.134688,-11.52375,-0.70875,16.38,26.488,-14.512001,5.136,eccentric,5,3.0,22288.0,153892.0,245330.0,293089.0,269851.0
2026-04-08 21:39:34.656931,125621,1609503546908860,1146875454,-1.0736,-0.181536,0.134688,-8.4525,-0.46375,16.49375,26.488,-14.512001,5.136,eccentric,5,3.0,22288.0,153892.0,245330.0,293089.0,269851.0
2026-04-08 21:39:34.687233,125622,1609503546917837,1146884123,-1.011136,-0.152256,0.423584,-3.5875,-1.46125,16.4325,26.192001,-14.360001,7.048,concentric,5,3.0,22288.0,153892.0,245330.0,293089.0,269851.0
2026-04-08 21:39:34.690655,125623,1609503546932347,1146898978,-1.011136,-0.1464,0.163968,1.2075,-3.12375,15.75875,26.192001,-14.360001,7.048,concentric,5,3.0,22288.0,153892.0,245330.0,293089.0,269851.0
2026-04-08 21:39:34.693054,125624,1609503546941265,1146907653,-1.059936,-0.1464,0.163968,4.48,-3.64,14.91875,25.848001,-14.824,5.768,concentric,5,3.0,22288.0,153892.0,245330.0,293089.0,269851.0
2026-04-08 21:39:34.696927,125625,1609503546950212,1146916320,-1.059936,-0.1464,0.163968,3.3075,-2.9575,14.95375,25.848001,-14.824,5.768,concentric,5,3.0,22288.0,153892.0,245330.0,293089.0,269851.0
2026-04-08 21:39:34.753354,125636,1609503546964741,1146931424,-0.99552,-0.085888,0.318176,-1.82,-2.3975,15.33,25.952002,-14.672001,7.744,concentric,5,3.0,22334.0,154087.0,245604.0,293267.0,269938.0
2026-04-08 21:39:34.757478,125637,1609503546973681,1146940165,-0.98576,-0.130784,0.33184,-8.1025,-1.8025,16.9225,26.160002,-14.968,8.04,concentric,5,3.0,22334.0,154087.0,245604.0,293267.0,269938.0
2026-04-08 21:39:34.791832,125638,1609503546988140,1146955051,-0.98576,-0.130784,0.33184,-11.50625,-3.01875,16.835001,26.160002,-14.968,8.04,concentric,5,3.0,22334.0,154087.0,245604.0,293267.0,269938.0
2026-04-08 21:39:34.794049,125639,1609503546997182,1146963762,-0.974048,-0.142496,0.22448,-8.12875,-4.8475,17.0625,25.864,-14.976001,7.568,concentric,5,3.0,22334.0,154087.0,245604.0,293267.0,269938.0
2026-04-08 21:39:34.798673,125640,1609503547011703,1146978655,-0.974048,-0.142496,0.22448,-0.385,-5.9325,16.8875,25.864,-14.976001,7.568,concentric,5,3.0,22334.0,154087.0,245604.0,293267.0,269938.0
2026-04-08 21:39:34.800385,125641,1609503547020609,1146987312,-0.864736,-0.031232,0.325984,5.8975,-6.23,17.7625,25.6,-15.240001,8.624001,concentric,5,3.0,22334.0,154087.0,245604.0,293267.0,269938.0
2026-04-08 21:39:34.801920,125642,1609503547029540,1146995971,-0.864736,-0.031232,0.325984,8.42625,-6.72875,22.21625,25.6,-15.240001,8.624001,concentric,5,3.0,22334.0,154087.0,245604.0,293267.0,269938.0
2026-04-08 21:39:34.806158,125643,1609503547043993,1147010769,-0.853024,-0.003904,0.2928,5.775,-7.23625,26.678751,25.408,-15.392001,6.472,concentric,5,3.0,22334.0,154087.0,245604.0,293267.0,269938.0
2026-04-08 21:39:34.808016,125644,1609503547052887,1147019437,-0.853024,-0.003904,0.121024,-0.42875,-7.735,31.255001,25.408,-15.392001,6.472,concentric,5,3.0,22334.0,154087.0,245604.0,293267.0,269938.0
2026-04-08 21:39:34.841920,125655,1609503547067507,1147034460,-0.976,-0.06832,0.122976,-7.28,-8.3825,35.77,24.992,-15.728001,8.632,concentric,5,3.0,22301.0,154077.0,245633.0,293333.0,269956.0
2026-04-08 21:39:34.846168,125656,1609503547076642,1147043216,-0.882304,-0.093696,0.261568,-6.65,-6.81625,36.575,24.800001,-16.272001,7.400001,concentric,5,3.0,22301.0,154077.0,245633.0,293333.0,269956.0
2026-04-08 21:39:34.849599,125657,1609503547091131,1147058089,-0.882304,-0.093696,0.261568,-1.02375,-4.795,35.105,24.800001,-16.272001,7.400001,concentric,5,3.0,22301.0,154077.0,245633.0,293333.0,269956.0
2026-04-08 21:39:34.854850,125658,1609503547100043,1147066745,-0.940864,0.046848,0.132736,4.165,-4.45375,36.5225,24.808,-16.328001,7.392,concentric,5,3.0,22301.0,154077.0,245633.0,293333.0,269956.0
2026-04-08 21:39:34.858512,125659,1609503547109052,1147075410,-0.940864,0.046848,0.132736,3.5525,-5.81,41.02875,24.808,-16.328001,7.392,concentric,5,3.0,22301.0,154077.0,245633.0,293333.0,269956.0
2026-04-08 21:39:34.890503,125660,1609503547123539,1147090312,-0.925248,0.089792,0.42944,2.345,-8.715,47.34625,24.240002,-17.096,8.0,concentric,5,3.0,22301.0,154077.0,245633.0,293333.0,269956.0
2026-04-08 21:39:34.892740,125661,1609503547132430,1147098975,-0.925248,0.089792,0.42944,3.8325,-12.425,49.48125,24.240002,-17.096,8.0,concentric,5,3.0,22301.0,154077.0,245633.0,293333.0,269956.0
2026-04-08 21:39:34.897366,125662,1609503547146931,1147113830,-0.880352,-0.07808,0.152256,3.6575,-16.38875,49.0175,24.072,-17.576,8.736,concentric,5,3.0,22301.0,154077.0,245633.0,293333.0,269956.0
2026-04-08 21:39:34.925843,125663,1609503547155918,1147122506,-0.776896,-0.01952,0.245952,5.915,-16.66,50.4175,23.448002,-17.912,7.296001,concentric,5,3.0,22301.0,154077.0,245633.0,293333.0,269956.0
2026-04-08 21:39:34.955324,125674,1609503547170412,1147137371,-0.776896,-0.01952,0.245952,11.71625,-15.37375,53.1825,23.448002,-17.912,7.296001,concentric,5,3.0,22347.0,154313.0,245942.0,293583.0,270072.0
2026-04-08 21:39:34.957816,125675,1609503547179322,1147146047,-0.772992,0.0976,0.374784,14.77,-14.8575,56.7175,22.848001,-18.28,7.136,concentric,5,3.0,22347.0,154313.0,245942.0,293583.0,270072.0
2026-04-08 21:39:34.959382,125676,1609503547188285,1147154739,-0.772992,0.0976,0.374784,13.79,-16.5725,62.195,22.848001,-18.28,7.136,concentric,5,3.0,22347.0,154313.0,245942.0,293583.0,270072.0
2026-04-08 21:39:34.963678,125677,1609503547202909,1147169721,-0.874496,0.06832,0.31232,14.735,-19.15375,66.2725,22.184002,-19.112001,8.944,concentric,5,3.0,22347.0,154313.0,245942.0,293583.0,270072.0
2026-04-08 21:39:34.966145,125678,1609503547211827,1147178390,-0.874496,0.06832,0.31232,17.75375,-21.5775,67.9,22.184002,-19.112001,8.944,concentric,5,3.0,22347.0,154313.0,245942.0,293583.0,270072.0
2026-04-08 21:39:34.994658,125679,1609503547226324,1147193241,-0.85888,0.011712,0.193248,22.88125,-22.303751,68.36375,21.304,-19.736,8.984,concentric,5,3.0,22347.0,154313.0,245942.0,293583.0,270072.0
2026-04-08 21:39:34.998129,125680,1609503547235306,1147201905,-0.698816,0.093696,0.337696,27.5275,-19.11875,68.145,21.272001,-20.248001,6.544,concentric,5,3.0,22347.0,154313.0,245942.0,293583.0,270072.0
2026-04-08 21:39:35.002370,125681,1609503547249797,1147216813,-0.698816,0.093696,0.337696,26.6875,-15.0675,68.6875,21.272001,-20.248001,6.544,concentric,5,3.0,22347.0,154313.0,245942.0,293583.0,270072.0
2026-04-08 21:39:35.031160,125692,1609503547258723,1147225544,-0.837408,0.220576,0.281088,20.9125,-12.92375,71.12875,21.04,-21.248001,6.776001,concentric,5,3.0,22389.0,154440.0,246112.0,293697.0,270144.0
2026-04-08 21:39:35.032859,125693,1609503547267959,1147234309,-0.837408,0.220576,0.281088,18.50625,-12.005,72.7475,21.04,-21.248001,6.776001,concentric,5,3.0,22389.0,154440.0,246112.0,293697.0,270144.0
2026-04-08 21:39:35.034697,125694,1609503547282481,1147249226,-0.903776,0.095648,0.230336,16.77375,-13.46625,73.29875,19.744001,-21.952002,7.6,concentric,5,3.0,22389.0,154440.0,246112.0,293697.0,270144.0
2026-04-08 21:39:35.041093,125695,1609503547291428,1147257913,-0.903776,0.095648,0.230336,13.72,-14.323751,73.92,19.744001,-21.952002,7.6,concentric,5,3.0,22389.0,154440.0,246112.0,293697.0,270144.0
2026-04-08 21:39:35.091733,125696,1609503547305911,1147272817,-0.85888,0.093696,0.42944,14.035,-12.03125,68.495,19.488,-22.400002,7.456,concentric,5,3.0,22389.0,154440.0,246112.0,293697.0,270144.0
2026-04-08 21:39:35.093955,125697,1609503547314823,1147281489,-0.85888,0.203008,0.333792,15.0325,-6.13375,62.23875,19.488,-22.400002,7.456,concentric,5,3.0,22389.0,154440.0,246112.0,293697.0,270144.0
2026-04-08 21:39:35.098622,125698,1609503547323764,1147290187,-0.864736,0.206912,0.333792,12.62625,-3.4125,59.82375,18.960001,-23.192001,6.744,concentric,5,3.0,22389.0,154440.0,246112.0,293697.0,270144.0
2026-04-08 21:39:35.100338,125699,1609503547338258,1147305028,-0.933056,0.345504,0.335744,6.06375,-6.29125,60.27,18.576,-23.336,6.728,concentric,5,3.0,22389.0,154440.0,246112.0,293697.0,270144.0
2026-04-08 21:39:35.101882,125700,1609503547347256,1147313677,-0.933056,0.345504,0.335744,6.72,-11.34875,60.138752,18.576,-23.336,6.728,concentric,5,3.0,22389.0,154440.0,246112.0,293697.0,270144.0
2026-04-08 21:39:35.137376,125711,1609503547362014,1147328662,-0.933056,0.18544,0.208864,11.80375,-16.24,57.09375,18.384,-23.968,6.424,concentric,5,3.0,22543.0,155072.0,246813.0,294114.0,270404.0
2026-04-08 21:39:35.139087,125712,1609503547370996,1147337417,-0.933056,0.18544,0.208864,15.846251,-17.29875,52.955,18.384,-23.968,6.424,concentric,5,3.0,22543.0,155072.0,246813.0,294114.0,270404.0
2026-04-08 21:39:35.140631,125713,1609503547385473,1147352325,-0.88816,0.158112,0.32208,12.32875,-15.95125,50.98625,17.968,-24.368002,6.480001,concentric,5,3.0,22543.0,155072.0,246813.0,294114.0,270404.0
2026-04-08 21:39:35.144716,125714,1609503547394401,1147361074,-0.88816,0.158112,0.32208,6.055,-11.62875,47.32,17.968,-24.368002,6.480001,concentric,5,3.0,22543.0,155072.0,246813.0,294114.0,270404.0
2026-04-08 21:39:35.173317,125715,1609503547403386,1147369800,-0.925248,0.240096,0.230336,3.26375,-5.7225,43.02375,17.032001,-24.168001,7.000001,concentric,5,3.0,22543.0,155072.0,246813.0,294114.0,270404.0
2026-04-08 21:39:35.176870,125716,1609503547417957,1147384668,-0.911584,0.382592,0.427488,-3.71875,-4.025,40.7925,17.608002,-24.816002,6.432,concentric,5,3.0,22543.0,155072.0,246813.0,294114.0,270404.0
2026-04-08 21:39:35.179316,125717,1609503547426911,1147393324,-0.911584,0.382592,0.427488,-9.66,-5.67,39.576252,17.608002,-24.816002,6.432,concentric,5,3.0,22543.0,155072.0,246813.0,294114.0,270404.0
2026-04-08 21:39:35.209676,125718,1609503547441401,1147408287,-0.925248,0.277184,0.339648,-7.25375,-10.43,36.1025,16.616001,-25.456001,6.904,concentric,5,3.0,22543.0,155072.0,246813.0,294114.0,270404.0
2026-04-08 21:39:35.213113,125719,1609503547450353,1147416974,-0.925248,0.277184,0.339648,3.8675,-11.725,29.785,16.616001,-25.456001,6.904,concentric,5,3.0,22543.0,155072.0,246813.0,294114.0,270404.0
2026-04-08 21:39:35.243046,125730,1609503547465047,1147431911,-0.884256,0.251808,0.357216,6.97375,-12.41625,27.195,16.776001,-25.496,6.704001,concentric,5,3.0,22782.0,156185.0,248084.0,294966.0,270919.0
2026-04-08 21:39:35.245598,125731,1609503547474025,1147440630,-0.884256,0.251808,0.357216,-0.34125,-12.5475,26.55625,16.776001,-25.496,6.704001,concentric,5,3.0,22782.0,156185.0,248084.0,294966.0,270919.0
2026-04-08 21:39:35.248125,125732,1609503547483073,1147449344,-0.853024,0.255712,0.363072,-1.77625,-10.24625,21.09625,16.368,-25.584002,7.312,concentric,5,3.0,22782.0,156185.0,248084.0,294966.0,270919.0
2026-04-08 21:39:35.250551,125733,1609503547497534,1147464331,-0.915488,0.32208,0.28304,-8.295,-7.72625,16.8525,16.328001,-25.832,9.648001,concentric,5,3.0,22782.0,156185.0,248084.0,294966.0,270919.0
2026-04-08 21:39:35.253075,125734,1609503547506476,1147473022,-0.915488,0.32208,0.28304,-20.055,-6.0725,16.7825,16.328001,-25.832,9.648001,concentric,5,3.0,22782.0,156185.0,248084.0,294966.0,270919.0
2026-04-08 21:39:35.283312,125735,1609503547520934,1147487883,-0.931104,0.40992,0.363072,-27.48375,-6.41375,15.82875,16.472,-25.968,6.816001,concentric,5,3.0,22782.0,156185.0,248084.0,294966.0,270919.0
2026-04-08 21:39:35.286883,125736,1609503547529840,1147496552,-0.931104,0.40992,0.363072,-25.48875,-6.5975,10.7975,16.472,-25.968,6.816001,concentric,5,3.0,22782.0,156185.0,248084.0,294966.0,270919.0
2026-04-08 21:39:35.293132,125737,1609503547544300,1147511424,-0.952576,0.191296,0.2928,-14.90125,-2.275,1.46125,16.584002,-26.12,7.088,concentric,5,3.0,22782.0,156185.0,248084.0,294966.0,270919.0
2026-04-08 21:39:35.328280,125738,1609503547553212,1147520161,-0.952576,0.191296,0.2928,-16.82625,1.47875,-3.96375,16.584002,-26.12,7.088,concentric,5,3.0,22782.0,156185.0,248084.0,294966.0,270919.0
2026-04-08 21:39:35.356869,125749,1609503547562158,1147528869,-0.962336,0.236192,0.333792,-23.8175,5.6875,-5.80125,17.064001,-26.288002,7.456,concentric,5,3.0,22891.0,156667.0,248588.0,295255.0,271088.0
2026-04-08 21:39:35.394668,125750,1609503547576702,1147543849,-0.962336,0.30256,0.425536,-22.91625,8.82875,-7.27125,17.064001,-26.288002,7.456,concentric,5,3.0,22891.0,156667.0,248588.0,295255.0,271088.0
2026-04-08 21:39:35.398132,125751,1609503547585617,1147552523,-0.96624,0.30256,0.425536,-20.5275,6.9125,-11.3575,17.160002,-25.904001,6.496,concentric,5,3.0,22891.0,156667.0,248588.0,295255.0,271088.0
2026-04-08 21:39:35.400616,125752,1609503547600161,1147565376,-1.071648,0.279136,0.304512,-17.43,4.0075,-16.33625,16.984001,-25.880001,9.656,concentric,5,3.0,22891.0,156667.0,248588.0,295255.0,271088.0
2026-04-08 21:39:35.403192,125753,1609503547609365,1147576114,-1.071648,0.279136,0.304512,-19.005,0.9625,-18.54125,16.984001,-25.880001,9.656,concentric,5,3.0,22891.0,156667.0,248588.0,295255.0,271088.0
2026-04-08 21:39:35.405673,125754,1609503547618315,1147584808,-0.991616,0.171776,0.4392,-25.147501,-3.115,-16.87,17.216002,-25.808,7.568,concentric,5,3.0,22891.0,156667.0,248588.0,295255.0,271088.0
2026-04-08 21:39:35.408208,125755,1609503547632812,1147599704,-0.991616,0.171776,0.4392,-32.83875,-4.305,-19.005,17.216002,-25.808,7.568,concentric,5,3.0,22891.0,156667.0,248588.0,295255.0,271088.0
2026-04-08 21:39:35.410604,125756,1609503547641717,1147608368,-1.028704,0.167872,0.493856,-38.0275,-1.02375,-26.60875,18.424002,-25.800001,8.216001,concentric,5,3.0,22891.0,156667.0,248588.0,295255.0,271088.0
2026-04-08 21:39:35.413118,125757,1609503547656243,1147623275,-1.028704,0.167872,0.493856,-36.02375,3.73625,-36.076252,18.424002,-25.800001,8.216001,concentric,5,3.0,22891.0,156667.0,248588.0,295255.0,271088.0
2026-04-08 21:39:35.446893,125768,1609503547665321,1147631970,-1.059936,0.177632,0.347456,-24.08,9.975,-43.60125,18.92,-25.584002,7.696001,concentric,5,3.0,22968.0,156882.0,248797.0,295422.0,271183.0
2026-04-08 21:39:35.449392,125769,1609503547679837,1147646957,-1.030656,0.21472,0.499712,-13.9475,14.84875,-47.85375,19.488,-25.712002,8.84,concentric,5,3.0,22968.0,156882.0,248797.0,295422.0,271183.0
2026-04-08 21:39:35.451834,125770,1609503547688936,1147655634,-1.030656,0.21472,0.499712,-11.795,17.01875,-50.84625,19.488,-25.712002,8.84,concentric,5,3.0,22968.0,156882.0,248797.0,295422.0,271183.0
2026-04-08 21:39:35.454348,125771,1609503547697885,1147664306,-1.208288,0.203008,0.372832,-9.91375,18.71625,-55.86,19.488,-25.128,11.896001,concentric,5,3.0,22968.0,156882.0,248797.0,295422.0,271183.0
2026-04-08 21:39:35.460582,125772,1609503547712386,1147679197,-1.208288,0.203008,0.372832,-13.0025,19.69625,-60.78625,20.216002,-25.128,11.896001,concentric,5,3.0,22968.0,156882.0,248797.0,295422.0,271183.0
2026-04-08 21:39:35.490818,125773,1609503547721293,1147687846,-1.163392,0.26352,0.554368,-22.3475,18.235,-59.8675,21.032001,-24.648,7.824,concentric,5,3.0,22968.0,156882.0,248797.0,295422.0,271183.0
2026-04-08 21:39:35.494402,125774,1609503547735778,1147702684,-1.163392,0.26352,0.554368,-30.73875,14.25375,-57.05,21.032001,-24.648,7.824,concentric,5,3.0,22968.0,156882.0,248797.0,295422.0,271183.0
2026-04-08 21:39:35.496937,125775,1609503547744728,1147711350,-1.169248,0.152256,0.28304,-35.6125,10.56125,-58.45,22.04,-24.048,8.656,concentric,5,3.0,22968.0,156882.0,248797.0,295422.0,271183.0
2026-04-08 21:39:35.527027,125776,1609503547759281,1147726208,-1.177056,0.03904,0.386496,-38.0975,9.49375,-59.94625,22.664001,-23.736002,8.08,concentric,5,3.0,22968.0,156882.0,248797.0,295422.0,271183.0
2026-04-08 21:39:35.555631,125787,1609503547768315,1147734926,-1.177056,0.03904,0.386496,-38.28125,8.54,-59.42125,22.664001,-23.736002,8.08,concentric,5,3.0,22852.0,156437.0,248312.0,295144.0,271049.0
2026-04-08 21:39:35.558154,125788,1609503547777292,1147743609,-1.177056,0.03904,0.386496,-35.02625,8.645,-58.0475,22.664001,-23.736002,8.08,concentric,5,3.0,22852.0,156437.0,248312.0,295144.0,271049.0
2026-04-08 21:39:35.560600,125789,1609503547791879,1147758495,-1.22,0.150304,0.488,-28.14,9.625,-58.63375,23.264002,-23.328001,8.384001,concentric,5,3.0,22852.0,156437.0,248312.0,295144.0,271049.0
2026-04-08 21:39:35.563102,125790,1609503547800916,1147767213,-1.204384,0.152256,0.482144,-21.23625,10.89375,-60.4275,23.76,-22.576,10.296001,concentric,5,3.0,22852.0,156437.0,248312.0,295144.0,271049.0
2026-04-08 21:39:35.565658,125791,1609503547815417,1147782093,-1.204384,0.152256,0.482144,-19.25875,12.53,-60.8125,23.76,-22.576,10.296001,concentric,5,3.0,22852.0,156437.0,248312.0,295144.0,271049.0
2026-04-08 21:39:35.571889,125792,1609503547824336,1147790762,-1.212192,0.119072,0.554368,-23.5375,12.215,-59.482502,24.528002,-22.544,9.464001,concentric,5,3.0,22852.0,156437.0,248312.0,295144.0,271049.0
2026-04-08 21:39:35.602056,125793,1609503547833238,1147799453,-1.212192,0.119072,0.554368,-29.7325,11.5325,-55.88625,24.528002,-22.544,9.464001,concentric,5,3.0,22852.0,156437.0,248312.0,295144.0,271049.0
2026-04-08 21:39:35.605663,125794,1609503547847739,1147814371,-1.237568,0.080032,0.554368,-29.21625,10.99,-49.315,25.408,-21.896002,8.496,concentric,5,3.0,22852.0,156437.0,248312.0,295144.0,271049.0
2026-04-08 21:39:35.610746,125795,1609503547856685,1147823042,-1.237568,0.080032,0.554368,-22.40875,11.12125,-42.76125,25.408,-21.896002,8.496,concentric,5,3.0,22852.0,156437.0,248312.0,295144.0,271049.0
2026-04-08 21:39:35.638217,125806,1609503547871427,1147838075,-1.331264,0.0976,0.365024,-12.915,11.66375,-37.485,25.552002,-21.512001,8.464001,concentric,5,3.0,22553.0,155168.0,246897.0,294396.0,270643.0
2026-04-08 21:39:35.640668,125807,1609503547880350,1147846752,-1.358592,0.105408,0.491904,-3.4475,12.48625,-33.53875,26.016,-21.608002,9.832001,concentric,5,3.0,22553.0,155168.0,246897.0,294396.0,270643.0
2026-04-08 21:39:35.643093,125808,1609503547894902,1147861714,-1.358592,0.105408,0.491904,0.9275,12.32,-29.4875,26.016,-21.608002,9.832001,concentric,5,3.0,22553.0,155168.0,246897.0,294396.0,270643.0
2026-04-08 21:39:35.691978,125809,1609503547903848,1147870396,-1.243424,0.076128,0.488,0.0175,11.82125,-24.07125,26.256,-21.296001,8.584001,concentric,5,3.0,22553.0,155168.0,246897.0,294396.0,270643.0
2026-04-08 21:39:35.694368,125810,1609503547912812,1147879043,-1.243424,0.076128,0.488,2.79125,12.9675,-19.1975,26.256,-21.296001,8.584001,concentric,5,3.0,22553.0,155168.0,246897.0,294396.0,270643.0
2026-04-08 21:39:35.696964,125811,1609503547927293,1147893876,-1.266848,0.07808,0.378688,10.94625,15.627501,-14.77,26.224,-21.424002,7.752,concentric,5,3.0,22553.0,155168.0,246897.0,294396.0,270643.0
2026-04-08 21:39:35.699286,125812,1609503547936201,1147902560,-1.266848,0.07808,0.378688,15.82875,17.78875,-7.7525,26.224,-21.424002,7.752,concentric,5,3.0,22553.0,155168.0,246897.0,294396.0,270643.0
2026-04-08 21:39:35.701846,125813,1609503547950676,1147917416,-1.33712,0.15616,0.470432,15.9425,18.235,-1.18125,26.176,-21.28,7.736001,concentric,5,3.0,22553.0,155168.0,246897.0,294396.0,270643.0
2026-04-08 21:39:35.708118,125814,1609503547959612,1147926101,-1.18096,0.037088,0.415776,13.50125,16.6775,4.1475,26.176,-21.792002,8.816,concentric,5,3.0,22553.0,155168.0,246897.0,294396.0,270643.0
2026-04-08 21:39:35.739383,125825,1609503547974156,1147941082,-1.18096,0.037088,0.415776,11.15625,14.86625,7.77875,25.952002,-21.792002,8.816,concentric,5,3.0,22547.0,155177.0,246935.0,294330.0,270573.0
2026-04-08 21:39:35.741890,125826,1609503547983094,1147949771,-1.16144,0.037088,0.406016,10.64,13.658751,11.62,25.736002,-21.736002,9.160001,concentric,5,3.0,22547.0,155177.0,246935.0,294330.0,270573.0
2026-04-08 21:39:35.744387,125827,1609503547992022,1147958442,-1.16144,0.037088,0.406016,14.805,13.3875,16.79125,25.736002,-21.736002,9.160001,concentric,5,3.0,22547.0,155177.0,246935.0,294330.0,270573.0
2026-04-08 21:39:35.774582,125828,1609503548006567,1147973322,-1.128256,0.056608,0.232288,20.2825,13.09875,21.14875,25.648,-22.112001,8.280001,concentric,5,3.0,22547.0,155177.0,246935.0,294330.0,270573.0
2026-04-08 21:39:35.778213,125829,1609503548015519,1147982000,-1.128256,0.056608,0.232288,23.9925,12.5125,23.5025,25.648,-22.112001,8.280001,concentric,5,3.0,22547.0,155177.0,246935.0,294330.0,270573.0
2026-04-08 21:39:35.780631,125830,1609503548029984,1147996836,-1.147776,0.054656,0.208864,24.3425,11.45375,23.93125,25.688002,-22.648,6.856,concentric,5,3.0,22547.0,155177.0,246935.0,294330.0,270573.0
2026-04-08 21:39:35.785667,125831,1609503548038954,1148005580,-1.147776,0.054656,0.208864,23.0825,10.07125,25.31375,25.688002,-22.648,6.856,concentric,5,3.0,22547.0,155177.0,246935.0,294330.0,270573.0
2026-04-08 21:39:35.815893,125832,1609503548053417,1148020448,-1.091168,0.054656,0.26352,23.05625,9.24875,28.00875,25.568,-22.752,7.248,concentric,5,3.0,22547.0,155177.0,246935.0,294330.0,270573.0
