pc_time,serial_num,sensor_ts,host_ts,ax,ay,az,gx,gy,gz,mx,my,mz,phase,rpe,weight_kg,ppg_a,ppg_b,ppg_c,ppg_d,ppg_e
2026-04-08 21:38:01.702424,108118,1609503453851829,1053818053,-1.020896,0.40992,0.532896,32.38375,-3.99,-12.64375,17.992,-26.592001,11.024,eccentric,4,3.0,21537.0,152272.0,243947.0,292346.0,269532.0
2026-04-08 21:38:01.796225,108129,1609503453861271,1053826764,-1.020896,0.40992,0.532896,24.12375,-2.7825,-11.92625,17.992,-26.592001,11.024,eccentric,4,3.0,21482.0,152037.0,243719.0,292210.0,269443.0
2026-04-08 21:38:01.798596,108130,1609503453876175,1053841728,-0.983808,0.286944,0.296704,23.03,2.19625,-15.995,17.960001,-27.016,10.776001,eccentric,4,3.0,21482.0,152037.0,243719.0,292210.0,269443.0
2026-04-08 21:38:01.801108,108131,1609503453885466,1053852446,-1.018944,0.353312,0.38064,25.4625,7.7175,-13.69375,18.344002,-27.032001,9.864,eccentric,4,3.0,21482.0,152037.0,243719.0,292210.0,269443.0
2026-04-08 21:38:01.803581,108132,1609503453894389,1053861178,-1.018944,0.353312,0.38064,28.4725,12.94125,-7.525,18.344002,-27.032001,9.864,eccentric,4,3.0,21482.0,152037.0,243719.0,292210.0,269443.0
2026-04-08 21:38:01.806079,108133,1609503453908893,1053874050,-0.997472,0.320128,0.318176,29.96875,14.8575,-3.5525,18.256,-26.960001,10.272,eccentric,4,3.0,21482.0,152037.0,243719.0,292210.0,269443.0
2026-04-08 21:38:01.808698,108134,1609503453918010,1053884767,-0.997472,0.320128,0.318176,29.085001,12.985,-5.06625,18.256,-26.960001,10.272,eccentric,4,3.0,21482.0,152037.0,243719.0,292210.0,269443.0
2026-04-08 21:38:01.811053,108135,1609503453932466,1053899599,-0.903776,0.281088,0.40992,29.522501,10.99,-7.72625,18.224,-27.472002,9.72,eccentric,4,3.0,21482.0,152037.0,243719.0,292210.0,269443.0
2026-04-08 21:38:01.813578,108136,1609503453941410,1053908327,-0.903776,0.281088,0.40992,32.76875,9.2225,-9.54625,18.224,-27.472002,9.72,eccentric,4,3.0,21482.0,152037.0,243719.0,292210.0,269443.0
2026-04-08 21:38:01.816113,108137,1609503453956081,1053923224,-0.997472,0.286944,0.277184,35.56875,7.5775,-9.8,18.432001,-27.128002,9.56,eccentric,4,3.0,21482.0,152037.0,243719.0,292210.0,269443.0
2026-04-08 21:38:01.847358,108148,1609503453965239,1053932400,-1.011136,0.343552,0.50752,35.3675,5.5475,-9.9225,18.592001,-27.288002,10.784,eccentric,4,3.0,21676.0,152745.0,244483.0,292645.0,269695.0
2026-04-08 21:38:01.849849,108149,1609503453974268,1053941106,-1.011136,0.343552,0.50752,36.33875,1.82,-11.3575,18.592001,-27.288002,10.784,eccentric,4,3.0,21676.0,152745.0,244483.0,292645.0,269695.0
2026-04-08 21:38:01.852396,108150,1609503453988856,1053954032,-0.987712,0.279136,0.324032,39.795002,-0.4725,-13.886251,18.136002,-27.488,9.648001,eccentric,4,3.0,21676.0,152745.0,244483.0,292645.0,269695.0
2026-04-08 21:38:01.854928,108151,1609503453998056,1053964786,-0.987712,0.279136,0.324032,42.81375,-1.2775,-17.3425,18.136002,-27.488,9.648001,eccentric,4,3.0,21676.0,152745.0,244483.0,292645.0,269695.0
2026-04-08 21:38:01.885092,108152,1609503454012548,1053977805,-0.98576,0.343552,0.513376,44.695,-1.365,-18.43625,18.672,-27.328001,8.336,eccentric,4,3.0,21676.0,152745.0,244483.0,292645.0,269695.0
2026-04-08 21:38:01.888669,108153,1609503454021813,1053988546,-0.98576,0.343552,0.513376,45.80625,-0.56,-18.22625,18.672,-27.328001,8.336,eccentric,4,3.0,21676.0,152745.0,244483.0,292645.0,269695.0
2026-04-08 21:38:01.891131,108154,1609503454030736,1053997214,-1.077504,0.37088,0.304512,49.2975,2.5725,-19.59125,18.960001,-27.896002,7.904,eccentric,4,3.0,21676.0,152745.0,244483.0,292645.0,269695.0
2026-04-08 21:38:01.896099,108155,1609503454045213,1054012126,-1.048224,0.37088,0.40992,49.035,4.43625,-20.405,18.736,-27.432001,7.992001,eccentric,4,3.0,21676.0,152745.0,244483.0,292645.0,269695.0
2026-04-08 21:38:01.927337,108156,1609503454054164,1054020835,-1.048224,0.37088,0.40992,44.345,5.04875,-17.01875,18.736,-27.432001,7.992001,eccentric,4,3.0,21676.0,152745.0,244483.0,292645.0,269695.0
2026-04-08 21:38:01.955897,108167,1609503454068709,1054035878,-1.085312,0.372832,0.35136,39.36625,4.69,-13.09,19.144001,-27.880001,7.504,eccentric,4,3.0,21471.0,151930.0,243493.0,292045.0,269367.0
2026-04-08 21:38:01.957533,108168,1609503454077625,1054044551,-1.085312,0.372832,0.35136,35.11375,5.46,-12.32,19.144001,-27.880001,7.504,eccentric,4,3.0,21471.0,151930.0,243493.0,292045.0,269367.0
2026-04-08 21:38:01.961843,108169,1609503454086561,1054053245,-1.130208,0.437248,0.503616,34.51,7.20125,-11.9875,19.04,-28.176,6.520001,eccentric,4,3.0,21471.0,151930.0,243493.0,292045.0,269367.0
2026-04-08 21:38:01.996079,108170,1609503454101155,1054068155,-1.130208,0.437248,0.503616,37.28375,10.4825,-12.985,19.04,-28.176,6.520001,eccentric,4,3.0,21471.0,151930.0,243493.0,292045.0,269367.0
2026-04-08 21:38:01.999660,108171,1609503454110055,1054076815,-1.149728,0.3904,0.314272,38.920002,14.18375,-12.45125,19.2,-28.000002,6.16,eccentric,4,3.0,21471.0,151930.0,243493.0,292045.0,269367.0
2026-04-08 21:38:02.001327,108172,1609503454124502,1054089657,-1.149728,0.3904,0.345504,36.88125,14.385,-9.695,19.2,-28.000002,6.16,eccentric,4,3.0,21471.0,151930.0,243493.0,292045.0,269367.0
2026-04-08 21:38:02.005735,108173,1609503454133670,1054100391,-1.194624,0.431392,0.357216,33.36375,13.37875,-7.90125,19.272001,-27.936,5.344,eccentric,4,3.0,21471.0,151930.0,243493.0,292045.0,269367.0
2026-04-08 21:38:02.011774,108174,1609503454148167,1054115260,-1.118496,0.386496,0.433344,29.295,13.50125,-7.7525,19.28,-27.784,5.624,eccentric,4,3.0,21471.0,151930.0,243493.0,292045.0,269367.0
2026-04-08 21:38:02.013479,108175,1609503454157088,1054124031,-1.118496,0.386496,0.433344,24.8675,14.3325,-8.925,19.28,-27.784,5.624,eccentric,4,3.0,21471.0,151930.0,243493.0,292045.0,269367.0
2026-04-08 21:38:02.082472,108186,1609503454166192,1054132806,-1.15168,0.456768,0.486048,24.045,15.44375,-8.6625,19.480001,-27.640001,6.28,eccentric,4,3.0,21354.0,151381.0,242830.0,291641.0,269208.0
2026-04-08 21:38:02.086678,108187,1609503454180775,1054147745,-1.15168,0.456768,0.486048,27.62375,16.9925,-7.7525,19.480001,-27.640001,6.28,eccentric,4,3.0,21354.0,151381.0,242830.0,291641.0,269208.0
2026-04-08 21:38:02.088365,108188,1609503454189676,1054156430,-1.182912,0.42944,0.452864,30.161251,18.06,-7.7875,19.184,-28.000002,5.056,eccentric,4,3.0,21354.0,151381.0,242830.0,291641.0,269208.0
2026-04-08 21:38:02.090061,108189,1609503454204166,1054169314,-1.182912,0.42944,0.452864,27.01125,17.89375,-7.0175,19.184,-28.000002,5.056,eccentric,4,3.0,21354.0,151381.0,242830.0,291641.0,269208.0
2026-04-08 21:38:02.094195,108190,1609503454213298,1054180071,-1.1712,0.413824,0.368928,24.31625,16.5725,-6.8775,19.216002,-27.496002,4.416,eccentric,4,3.0,21354.0,151381.0,242830.0,291641.0,269208.0
2026-04-08 21:38:02.095988,108191,1609503454227802,1054194910,-1.165344,0.40016,0.40016,21.07,14.27125,-7.72625,19.392,-27.488,4.6,eccentric,4,3.0,21354.0,151381.0,242830.0,291641.0,269208.0
2026-04-08 21:38:02.097487,108192,1609503454236702,1054203564,-1.165344,0.40016,0.40016,18.92625,13.37875,-9.09125,19.392,-27.488,4.6,eccentric,4,3.0,21354.0,151381.0,242830.0,291641.0,269208.0
2026-04-08 21:38:02.104535,108193,1609503454245659,1054212251,-1.165344,0.40016,0.22448,15.23375,12.62625,-8.70625,19.392,-27.488,6.648,eccentric,4,3.0,21354.0,151381.0,242830.0,291641.0,269208.0
2026-04-08 21:38:02.159869,108204,1609503454260118,1054227549,-1.194624,0.40016,0.22448,11.03375,11.83,-8.16375,19.048,-27.544,6.232,eccentric,4,3.0,21214.0,150847.0,242248.0,291294.0,269032.0
2026-04-08 21:38:02.164189,108205,1609503454269117,1054236224,-1.14192,0.378688,0.290848,7.11375,11.2,-9.40625,19.424002,-27.344002,5.664,eccentric,4,3.0,21214.0,150847.0,242248.0,291294.0,269032.0
2026-04-08 21:38:02.165923,108206,1609503454283587,1054249025,-1.14192,0.378688,0.290848,5.81875,10.50875,-11.22625,19.424002,-27.344002,5.664,eccentric,4,3.0,21214.0,150847.0,242248.0,291294.0,269032.0
2026-04-08 21:38:02.167372,108207,1609503454292739,1054259755,-1.13216,0.314272,0.255712,4.34875,9.37125,-12.7225,19.112001,-27.208002,4.504,eccentric,4,3.0,21214.0,150847.0,242248.0,291294.0,269032.0
2026-04-08 21:38:02.174240,108208,1609503454301789,1054268493,-1.13216,0.314272,0.255712,1.2775,9.66,-13.15125,19.112001,-27.208002,4.504,eccentric,4,3.0,21214.0,150847.0,242248.0,291294.0,269032.0
2026-04-08 21:38:02.175896,108209,1609503454316301,1054283410,-1.077504,0.298656,0.382592,-0.525,10.045,-13.32625,18.816,-26.848001,5.016,eccentric,4,3.0,21214.0,150847.0,242248.0,291294.0,269032.0
2026-04-08 21:38:02.177456,108210,1609503454325221,1054292085,-1.077504,0.298656,0.382592,-3.52625,12.31125,-15.00625,18.816,-26.848001,5.016,eccentric,4,3.0,21214.0,150847.0,242248.0,291294.0,269032.0
2026-04-08 21:38:02.208754,108211,1609503454339697,1054304912,-1.079456,0.327936,0.384544,-9.63375,13.97375,-17.465,18.856,-26.472002,7.184001,eccentric,4,3.0,21214.0,150847.0,242248.0,291294.0,269032.0
2026-04-08 21:38:02.212754,108212,1609503454348891,1054315634,-1.067744,0.329888,0.265472,-13.27375,14.14,-17.66625,19.336,-26.056002,4.256,eccentric,4,3.0,21214.0,150847.0,242248.0,291294.0,269032.0
2026-04-08 21:38:02.240464,108223,1609503454363806,1054330689,-1.067744,0.329888,0.265472,-9.28375,14.07,-18.4275,19.336,-26.056002,4.256,eccentric,4,3.0,21275.0,150990.0,242417.0,291481.0,269146.0
2026-04-08 21:38:02.242867,108224,1609503454372843,1054339392,-1.03456,0.232288,0.392352,-0.7875,15.53125,-20.46625,19.744001,-26.2,5.344,eccentric,4,3.0,21275.0,150990.0,242417.0,291481.0,269146.0
2026-04-08 21:38:02.245307,108225,1609503454381805,1054348062,-1.03456,0.232288,0.392352,-3.31625,17.10625,-23.7125,19.744001,-26.2,5.344,eccentric,4,3.0,21275.0,150990.0,242417.0,291481.0,269146.0
2026-04-08 21:38:02.249388,108226,1609503454396317,1054362973,-1.136064,0.206912,0.310368,-8.7325,18.08625,-26.27625,19.664001,-26.240002,5.472,eccentric,4,3.0,21275.0,150990.0,242417.0,291481.0,269146.0
2026-04-08 21:38:02.279757,108227,1609503454405328,1054371703,-1.136064,0.206912,0.310368,-12.2675,17.89375,-27.27375,19.664001,-26.240002,5.472,eccentric,4,3.0,21275.0,150990.0,242417.0,291481.0,269146.0
2026-04-08 21:38:02.281997,108228,1609503454419823,1054386571,-0.974048,0.210816,0.433344,-12.59125,16.33625,-30.72125,19.384,-25.384,3.592,eccentric,4,3.0,21275.0,150990.0,242417.0,291481.0,269146.0
2026-04-08 21:38:02.286610,108229,1609503454428725,1054395219,-0.974048,0.212768,0.228384,-7.42,17.36,-36.09375,19.832,-25.152,4.088,eccentric,4,3.0,21275.0,150990.0,242417.0,291481.0,269146.0
2026-04-08 21:38:02.290650,108230,1609503454437640,1054403885,-0.974048,0.212768,0.228384,2.47625,19.8625,-40.73125,19.832,-25.152,4.088,eccentric,4,3.0,21275.0,150990.0,242417.0,291481.0,269146.0
2026-04-08 21:38:02.320063,108231,1609503454452179,1054418767,-0.962336,0.130784,0.091744,7.81375,25.97875,-44.2925,20.44,-25.104002,4.232,eccentric,4,3.0,21275.0,150990.0,242417.0,291481.0,269146.0
2026-04-08 21:38:02.323631,108232,1609503454461064,1054427440,-0.962336,0.130784,0.091744,7.21875,34.1775,-46.66375,20.44,-25.104002,4.232,eccentric,4,3.0,21275.0,150990.0,242417.0,291481.0,269146.0
2026-04-08 21:38:02.388651,108243,1609503454475566,1054442364,-1.143872,0.152256,-0.132736,-1.6625,41.125,-46.01625,20.912,-24.416,4.568,eccentric,4,3.0,21271.0,151074.0,242511.0,291489.0,269156.0
2026-04-08 21:38:02.391127,108244,1609503454484623,1054451042,-1.143872,0.152256,-0.132736,-16.91375,47.0225,-40.59125,20.912,-24.416,4.568,eccentric,4,3.0,21271.0,151074.0,242511.0,291489.0,269156.0
2026-04-08 21:38:02.393657,108245,1609503454499150,1054465925,-1.11264,0.167872,0.138592,-37.485,45.8675,-39.68125,20.832,-23.696001,6.016,eccentric,4,3.0,21271.0,151074.0,242511.0,291489.0,269156.0
2026-04-08 21:38:02.396138,108246,1609503454508088,1054474620,-1.018944,0.160064,0.320128,-52.22,40.845,-44.10875,21.584002,-23.384,5.088,eccentric,4,3.0,21271.0,151074.0,242511.0,291489.0,269156.0
2026-04-08 21:38:02.398627,108247,1609503454517050,1054483290,-1.018944,0.160064,0.320128,-48.48375,37.19625,-49.77875,21.584002,-23.384,5.088,eccentric,4,3.0,21271.0,151074.0,242511.0,291489.0,269156.0
2026-04-08 21:38:02.401234,108248,1609503454531523,1054498143,-0.915488,0.066368,0.339648,-33.0225,34.72875,-52.045002,22.064001,-22.792002,4.208,eccentric,4,3.0,21271.0,151074.0,242511.0,291489.0,269156.0
2026-04-08 21:38:02.403656,108249,1609503454540417,1054506805,-0.915488,0.066368,0.339648,-22.46125,33.5475,-53.3925,22.064001,-22.792002,4.208,eccentric,4,3.0,21271.0,151074.0,242511.0,291489.0,269156.0
2026-04-08 21:38:02.407384,108250,1609503454554900,1054521737,-0.993568,0.013664,0.355264,-20.545,29.51375,-55.53625,22.240002,-22.008001,6.192,eccentric,4,3.0,21271.0,151074.0,242511.0,291489.0,269156.0
2026-04-08 21:38:02.438615,108261,1609503454564161,1054530514,-0.993568,0.013664,0.355264,-18.97,23.23125,-57.6625,22.240002,-22.008001,6.192,eccentric,4,3.0,21245.0,150775.0,242240.0,291376.0,269082.0
2026-04-08 21:38:02.441132,108262,1609503454578736,1054545443,-0.909632,0.11712,0.308416,-15.8375,12.8975,-58.065,22.776001,-21.640001,5.4,eccentric,4,3.0,21245.0,150775.0,242240.0,291376.0,269082.0
2026-04-08 21:38:02.443677,108263,1609503454587694,1054554153,-0.909632,0.11712,0.138592,-11.3925,4.68125,-58.56375,22.776001,-21.640001,5.4,eccentric,4,3.0,21245.0,150775.0,242240.0,291376.0,269082.0
2026-04-08 21:38:02.447441,108264,1609503454596645,1054562817,-0.827648,0.10736,0.138592,-7.875,-2.415,-59.745,22.968,-21.080002,4.64,eccentric,4,3.0,21245.0,150775.0,242240.0,291376.0,269082.0
2026-04-08 21:38:02.477604,108265,1609503454611119,1054577680,-0.886208,0.013664,0.187392,-16.1525,-4.55875,-60.576252,23.256,-20.848001,5.048,eccentric,4,3.0,21245.0,150775.0,242240.0,291376.0,269082.0
2026-04-08 21:38:02.481260,108266,1609503454620067,1054586411,-0.886208,0.013664,0.187392,-25.48875,-0.35875,-62.79875,23.256,-20.848001,5.048,eccentric,4,3.0,21245.0,150775.0,242240.0,291376.0,269082.0
2026-04-08 21:38:02.486204,108267,1609503454634529,1054601276,-0.915488,-0.011712,0.437248,-36.25125,-1.21625,-63.0175,23.6,-20.240002,5.248,eccentric,4,3.0,21245.0,150775.0,242240.0,291376.0,269082.0
2026-04-08 21:38:02.516388,108268,1609503454643431,1054609934,-0.915488,-0.011712,0.437248,-43.05875,-6.58875,-60.24375,23.6,-20.240002,5.248,eccentric,4,3.0,21245.0,150775.0,242240.0,291376.0,269082.0
2026-04-08 21:38:02.519974,108269,1609503454657915,1054624815,-0.798368,0.035136,0.134688,-30.33625,-10.5,-60.83,24.024002,-19.504002,6.088,eccentric,4,3.0,21245.0,150775.0,242240.0,291376.0,269082.0
2026-04-08 21:38:02.553651,108280,1609503454667372,1054633951,-0.798368,0.035136,0.134688,-9.415,-5.92375,-67.27875,24.024002,-19.504002,6.088,eccentric,4,3.0,21506.0,151770.0,243384.0,292102.0,269468.0
2026-04-08 21:38:02.556171,108281,1609503454676484,1054642745,-0.782752,-0.054656,0.144448,3.33375,2.2575,-72.9925,24.592001,-18.872002,6.368001,eccentric,4,3.0,21506.0,151770.0,243384.0,292102.0,269468.0
2026-04-08 21:38:02.558640,108282,1609503454691012,1054657655,-0.96624,-0.06832,0.111264,-0.81375,7.7525,-71.855,24.640001,-18.096,6.112001,eccentric,4,3.0,21506.0,151770.0,243384.0,292102.0,269468.0
2026-04-08 21:38:02.561151,108283,1609503454699939,1054666374,-0.96624,-0.06832,0.111264,-16.00375,6.09875,-65.765,24.640001,-18.096,6.112001,eccentric,4,3.0,21506.0,151770.0,243384.0,292102.0,269468.0
2026-04-08 21:38:02.567421,108284,1609503454714420,1054681235,-0.853024,0.003904,0.132736,-26.985,0.035,-58.2225,25.384,-17.864,5.528,eccentric,4,3.0,21506.0,151770.0,243384.0,292102.0,269468.0
2026-04-08 21:38:02.597732,108285,1609503454723344,1054689951,-0.853024,0.003904,0.132736,-23.1875,-5.18,-56.39375,25.384,-17.864,5.528,eccentric,4,3.0,21506.0,151770.0,243384.0,292102.0,269468.0
2026-04-08 21:38:02.601183,108286,1609503454732243,1054698659,-0.812032,0.003904,0.093696,-12.76625,-4.92625,-57.72375,25.336,-17.28,5.376,eccentric,4,3.0,21506.0,151770.0,243384.0,292102.0,269468.0
2026-04-08 21:38:02.603707,108287,1609503454746723,1054713521,-0.812032,0.003904,0.093696,-2.87875,-2.09125,-56.28,25.336,-17.28,5.376,eccentric,4,3.0,21506.0,151770.0,243384.0,292102.0,269468.0
2026-04-08 21:38:02.607486,108288,1609503454755688,1054722200,-0.84912,-0.091744,0.140544,-2.00375,1.1725,-52.85875,25.816002,-16.944,7.336,eccentric,4,3.0,21506.0,151770.0,243384.0,292102.0,269468.0
2026-04-08 21:38:02.699212,108299,1609503454770335,1054737141,-0.919392,-0.121024,0.140544,-11.22625,-1.225,-47.67875,26.136002,-16.088001,3.576,eccentric,4,3.0,21416.0,151415.0,243032.0,291862.0,269277.0
2026-04-08 21:38:02.702385,108300,1609503454779274,1054745857,-0.919392,-0.121024,0.140544,-22.1025,-6.36125,-43.732502,26.136002,-16.088001,3.576,eccentric,4,3.0,21416.0,151415.0,243032.0,291862.0,269277.0
2026-04-08 21:38:02.704103,108301,1609503454793730,1054760736,-0.905728,-0.103456,0.083936,-18.865,-8.12875,-44.10875,26.488,-16.064001,5.744,eccentric,4,3.0,21416.0,151415.0,243032.0,291862.0,269277.0
2026-04-08 21:38:02.706178,108302,1609503454802683,1054769413,-0.905728,-0.103456,0.083936,-4.0075,-4.375,-47.43375,26.488,-16.064001,5.744,eccentric,4,3.0,21416.0,151415.0,243032.0,291862.0,269277.0
2026-04-08 21:38:02.708657,108303,1609503454811588,1054778093,-0.93696,-0.052704,0.154208,8.98625,2.54625,-47.6875,26.392002,-15.384001,5.64,eccentric,4,3.0,21416.0,151415.0,243032.0,291862.0,269277.0
2026-04-08 21:38:02.712140,108304,1609503454826034,1054792943,-0.93696,-0.052704,0.154208,9.80875,6.18625,-43.60125,26.392002,-15.384001,5.64,eccentric,4,3.0,21416.0,151415.0,243032.0,291862.0,269277.0
2026-04-08 21:38:02.713858,108305,1609503454834956,1054801602,-0.901824,0.052704,0.363072,1.65375,5.13625,-38.7975,26.808,-15.272,5.624,eccentric,4,3.0,21416.0,151415.0,243032.0,291862.0,269277.0
2026-04-08 21:38:02.716275,108306,1609503454849560,1054816527,-0.901824,-0.111264,0.222528,-1.6625,3.73625,-35.16625,26.808,-15.272,7.672,eccentric,4,3.0,21416.0,151415.0,243032.0,291862.0,269277.0
2026-04-08 21:38:02.718710,108307,1609503454858579,1054825225,-0.905728,-0.111264,0.222528,2.555,1.925,-33.62625,26.560001,-14.728001,7.936,eccentric,4,3.0,21416.0,151415.0,243032.0,291862.0,269277.0
2026-04-08 21:38:02.748724,108318,1609503454873180,1054840193,-0.91744,-0.12688,0.044896,3.2025,-2.415,-30.72125,26.504002,-14.64,6.664001,eccentric,4,3.0,21412.0,151281.0,242798.0,291680.0,269174.0
2026-04-08 21:38:02.752965,108319,1609503454882227,1054848941,-0.91744,-0.12688,0.044896,2.77375,-1.75875,-26.38125,26.504002,-14.64,6.664001,eccentric,4,3.0,21412.0,151281.0,242798.0,291680.0,269174.0
2026-04-08 21:38:02.754556,108320,1609503454891144,1054857694,-0.940864,-0.013664,0.27328,3.64,1.44375,-23.17,26.376001,-14.704,6.488,eccentric,4,3.0,21412.0,151281.0,242798.0,291680.0,269174.0
2026-04-08 21:38:02.759145,108321,1609503454905635,1054872595,-0.940864,-0.013664,0.27328,-1.5575,1.21625,-17.5,26.376001,-14.704,6.488,eccentric,4,3.0,21412.0,151281.0,242798.0,291680.0,269174.0
2026-04-08 21:38:02.787644,108322,1609503454914550,1054881260,-0.9272,-0.003904,0.365024,-10.17625,-3.99875,-10.185,26.536001,-14.416,6.976,eccentric,4,3.0,21412.0,151281.0,242798.0,291680.0,269174.0
2026-04-08 21:38:02.792200,108323,1609503454929049,1054896103,-0.9272,-0.003904,0.365024,-10.84125,-8.9425,-4.85625,26.536001,-14.416,6.976,eccentric,4,3.0,21412.0,151281.0,242798.0,291680.0,269174.0
2026-04-08 21:38:02.793801,108324,1609503454937993,1054904773,-0.972096,-0.124928,0.085888,-2.58125,-9.31875,-4.33125,26.752,-14.752001,7.216001,eccentric,4,3.0,21412.0,151281.0,242798.0,291680.0,269174.0
2026-04-08 21:38:02.800341,108325,1609503454946960,1054913450,-0.972096,-0.124928,0.085888,5.25875,-4.50625,-5.3375,26.752,-14.752001,7.216001,eccentric,4,3.0,21412.0,151281.0,242798.0,291680.0,269174.0
2026-04-08 21:38:02.828902,108326,1609503454961460,1054928301,-0.921344,-0.179584,0.259616,4.7775,-0.5425,-6.55375,26.816002,-14.792001,6.536,eccentric,4,3.0,21412.0,151281.0,242798.0,291680.0,269174.0
2026-04-08 21:38:02.860754,108337,1609503454970528,1054937021,-1.030656,-0.03904,0.15616,-0.8575,0.9975,-6.88625,26.816002,-14.792001,4.904,eccentric,4,3.0,21473.0,151510.0,243073.0,291909.0,269290.0
2026-04-08 21:38:02.862295,108338,1609503454985010,1054951913,-1.0248,-0.03904,0.15616,-5.7575,0.53375,-6.92125,27.192001,-14.56,4.904,eccentric,4,3.0,21473.0,151510.0,243073.0,291909.0,269290.0
2026-04-08 21:38:02.863922,108339,1609503454993954,1054960643,-1.001376,-0.03904,0.316224,-5.075,-2.91375,-6.4925,26.688002,-14.248001,6.528,eccentric,4,3.0,21473.0,151510.0,243073.0,291909.0,269290.0
2026-04-08 21:38:02.866537,108340,1609503455008451,1054975514,-1.001376,-0.03904,0.316224,-0.21,-5.71375,-5.74,26.688002,-14.248001,6.528,eccentric,4,3.0,21473.0,151510.0,243073.0,291909.0,269290.0
2026-04-08 21:38:02.871580,108341,1609503455017389,1054984235,-0.991616,-0.124928,0.210816,3.605,-5.7925,-4.62875,26.632002,-14.912001,7.328001,eccentric,4,3.0,21473.0,151510.0,243073.0,291909.0,269290.0
2026-04-08 21:38:02.903078,108342,1609503455026367,1054992972,-0.991616,-0.124928,0.210816,2.19625,-4.22625,-3.01,26.632002,-14.912001,7.328001,concentric,4,3.0,21473.0,151510.0,243073.0,291909.0,269290.0
2026-04-08 21:38:02.904698,108343,1609503455040844,1055007840,-1.050176,-0.085888,0.121024,-4.50625,-2.1875,-0.27125,26.984001,-14.832001,6.84,concentric,4,3.0,21473.0,151510.0,243073.0,291909.0,269290.0
2026-04-08 21:38:02.906336,108344,1609503455049752,1055016502,-1.050176,-0.085888,0.121024,-9.96625,-0.49875,2.68625,26.984001,-14.832001,6.84,concentric,4,3.0,21473.0,151510.0,243073.0,291909.0,269290.0
2026-04-08 21:38:02.996337,108355,1609503455064296,1055031781,-0.987712,-0.121024,0.218624,-12.5475,-0.175,4.31375,26.760002,-14.992001,5.24,concentric,4,3.0,21572.0,151934.0,243599.0,292274.0,269521.0
2026-04-08 21:38:03.000542,108356,1609503455073256,1055038424,-1.0248,-0.132736,0.162016,-11.6025,-1.07625,6.8075,26.872002,-14.872001,5.792,concentric,4,3.0,21572.0,151934.0,243599.0,292274.0,269521.0
2026-04-08 21:38:03.002135,108357,1609503455088043,1055053322,-1.0248,-0.132736,0.162016,-5.11875,-2.33625,8.93375,26.872002,-14.872001,5.792,concentric,4,3.0,21572.0,151934.0,243599.0,292274.0,269521.0
2026-04-08 21:38:03.003703,108358,1609503455097451,1055064146,-0.9272,-0.132736,0.343552,2.56375,-3.08875,9.3975,26.648,-14.856001,5.616,concentric,4,3.0,21572.0,151934.0,243599.0,292274.0,269521.0
2026-04-08 21:38:03.007954,108359,1609503455106405,1055072829,-0.9272,-0.132736,0.343552,3.7975,-2.98375,10.36,26.648,-14.856001,5.616,concentric,4,3.0,21572.0,151934.0,243599.0,292274.0,269521.0
2026-04-08 21:38:03.009658,108360,1609503455120878,1055087676,-0.958432,-0.091744,0.329888,-2.38875,-2.79125,13.29125,26.456001,-15.096001,5.952,concentric,4,3.0,21572.0,151934.0,243599.0,292274.0,269521.0
2026-04-08 21:38:03.011295,108361,1609503455129786,1055096325,-0.958432,-0.091744,0.329888,-11.8125,-4.0425,16.7825,26.456001,-15.096001,5.952,concentric,4,3.0,21572.0,151934.0,243599.0,292274.0,269521.0
2026-04-08 21:38:03.015437,108362,1609503455144291,1055111203,-1.003328,-0.08784,0.318176,-15.91625,-5.425,19.38125,26.208002,-15.304001,5.176,concentric,4,3.0,21572.0,151934.0,243599.0,292274.0,269521.0
2026-04-08 21:38:03.017373,108363,1609503455153222,1055119896,-0.892064,-0.144448,0.359168,-12.5825,-6.02875,20.04625,26.104002,-15.472001,6.608,concentric,4,3.0,21572.0,151934.0,243599.0,292274.0,269521.0
2026-04-08 21:38:03.019739,108364,1609503455162141,1055128620,-0.892064,-0.144448,0.359168,-6.09875,-5.43375,21.1925,26.104002,-15.472001,6.608,concentric,4,3.0,21572.0,151934.0,243599.0,292274.0,269521.0
2026-04-08 21:38:03.046315,108375,1609503455176846,1055143580,-0.99552,-0.105408,0.269376,-2.14375,-4.29625,23.14375,25.848001,-15.536001,7.024,concentric,4,3.0,21632.0,152137.0,243881.0,292481.0,269646.0
2026-04-08 21:38:03.050487,108376,1609503455185840,1055152281,-0.99552,-0.105408,0.269376,-2.94875,-3.70125,25.4275,25.848001,-15.536001,7.024,concentric,4,3.0,21632.0,152137.0,243881.0,292481.0,269646.0
2026-04-08 21:38:03.052912,108377,1609503455200362,1055167186,-1.016992,-0.081984,0.21472,-8.0675,-5.6175,28.83125,25.712002,-15.704,7.376,concentric,4,3.0,21632.0,152137.0,243881.0,292481.0,269646.0
2026-04-08 21:38:03.081329,108378,1609503455209327,1055175918,-1.016992,-0.081984,0.21472,-10.8675,-8.3125,31.29,25.712002,-15.704,7.376,concentric,4,3.0,21632.0,152137.0,243881.0,292481.0,269646.0
2026-04-08 21:38:03.085895,108379,1609503455223845,1055190792,-0.983808,-0.064416,0.210816,-6.6325,-10.5,32.445,25.712002,-15.928,6.648,concentric,4,3.0,21632.0,152137.0,243881.0,292481.0,269646.0
2026-04-08 21:38:03.087484,108380,1609503455232749,1055199443,-0.931104,-0.042944,0.197152,2.3975,-11.1825,33.8275,25.632002,-16.640001,7.112001,concentric,4,3.0,21632.0,152137.0,243881.0,292481.0,269646.0
2026-04-08 21:38:03.094006,108381,1609503455241674,1055208078,-0.931104,-0.042944,0.197152,9.5725,-9.54625,35.98875,25.632002,-16.640001,7.112001,concentric,4,3.0,21632.0,152137.0,243881.0,292481.0,269646.0
2026-04-08 21:38:03.125143,108382,1609503455256165,1055222945,-0.866688,-0.093696,0.244,11.03375,-7.77875,38.42125,25.192001,-17.176,6.112001,concentric,4,3.0,21632.0,152137.0,243881.0,292481.0,269646.0
2026-04-08 21:38:03.129734,108383,1609503455265086,1055231618,-0.866688,-0.093696,0.244,4.97875,-6.71125,41.93,25.192001,-17.176,6.112001,concentric,4,3.0,21632.0,152137.0,243881.0,292481.0,269646.0
2026-04-08 21:38:03.158005,108394,1609503455279655,1055246517,-0.880352,-0.06832,0.308416,-3.465,-6.65,45.29,24.888,-17.488,6.584,concentric,4,3.0,21625.0,152118.0,243853.0,292466.0,269603.0
2026-04-08 21:38:03.159709,108395,1609503455288664,1055255220,-0.880352,-0.06832,0.308416,-6.34375,-6.545,47.10125,24.888,-17.488,6.584,concentric,4,3.0,21625.0,152118.0,243853.0,292466.0,269603.0
2026-04-08 21:38:03.161204,108396,1609503455303203,1055270109,-0.884256,-0.011712,0.21472,-0.175,-6.39625,46.27,24.368002,-17.496,7.256001,concentric,4,3.0,21625.0,152118.0,243853.0,292466.0,269603.0
2026-04-08 21:38:03.165374,108397,1609503455312135,1055278811,-0.884256,-0.011712,0.089792,9.24,-5.17125,47.20625,24.368002,-17.496,7.256001,concentric,4,3.0,21625.0,152118.0,243853.0,292466.0,269603.0
2026-04-08 21:38:03.193891,108398,1609503455321076,1055287508,-0.749568,0.013664,0.091744,14.7175,-2.8,51.8,23.936,-18.312,6.152,concentric,4,3.0,21625.0,152118.0,243853.0,292466.0,269603.0
2026-04-08 21:38:03.198428,108399,1609503455335518,1055302335,-0.909632,0.00976,0.101504,17.64875,1.4875,57.49625,23.824001,-19.320002,5.648,concentric,4,3.0,21625.0,152118.0,243853.0,292466.0,269603.0
2026-04-08 21:38:03.200809,108400,1609503455344435,1055311025,-0.909632,0.00976,0.101504,17.99,6.51875,61.285,23.824001,-19.320002,5.648,concentric,4,3.0,21625.0,152118.0,243853.0,292466.0,269603.0
2026-04-08 21:38:03.230126,108401,1609503455358903,1055325897,-0.903776,-0.0976,0.152256,13.02875,9.16125,62.475,23.392,-19.640001,6.792,concentric,4,3.0,21625.0,152118.0,243853.0,292466.0,269603.0
2026-04-08 21:38:03.326145,108412,1609503455368264,1055334633,-0.903776,-0.0976,0.152256,3.5,8.79375,62.7725,23.392,-19.640001,6.792,concentric,4,3.0,21810.0,152903.0,244742.0,292985.0,269909.0
2026-04-08 21:38:03.328601,108413,1609503455377349,1055343451,-0.845216,0.007808,0.244,3.4825,6.9125,62.7025,23.104002,-20.248001,5.904,concentric,4,3.0,21810.0,152903.0,244742.0,292985.0,269909.0
2026-04-08 21:38:03.331091,108414,1609503455391883,1055358481,-0.845216,0.007808,0.244,14.90125,3.40375,61.197502,23.104002,-20.248001,5.904,concentric,4,3.0,21810.0,152903.0,244742.0,292985.0,269909.0
2026-04-08 21:38:03.333622,108415,1609503455400907,1055367161,-0.856928,0.089792,0.21472,29.47875,1.0325,62.16875,22.672,-20.936,5.68,concentric,4,3.0,21810.0,152903.0,244742.0,292985.0,269909.0
2026-04-08 21:38:03.336515,108416,1609503455415361,1055382030,-0.831552,0.134688,0.197152,44.135,-0.42875,65.371254,22.256,-21.480001,6.936,concentric,4,3.0,21810.0,152903.0,244742.0,292985.0,269909.0
2026-04-08 21:38:03.338774,108417,1609503455424254,1055390676,-0.831552,0.134688,0.197152,50.74125,0.55125,65.6075,22.256,-21.480001,6.936,concentric,4,3.0,21810.0,152903.0,244742.0,292985.0,269909.0
2026-04-08 21:38:03.341086,108418,1609503455438731,1055405588,-0.895968,0.093696,0.099552,41.895,5.11875,65.065,21.800001,-21.84,4.824,concentric,4,3.0,21810.0,152903.0,244742.0,292985.0,269909.0
2026-04-08 21:38:03.343568,108419,1609503455447662,1055414279,-0.895968,0.093696,0.099552,21.91875,5.20625,66.5875,21.800001,-21.84,4.824,concentric,4,3.0,21810.0,152903.0,244742.0,292985.0,269909.0
2026-04-08 21:38:03.346055,108420,1609503455456587,1055422943,-0.860832,0.142496,0.230336,3.22,2.51125,67.1825,20.784,-22.888,4.816001,concentric,4,3.0,21810.0,152903.0,244742.0,292985.0,269909.0
2026-04-08 21:38:03.373658,108431,1609503455471480,1055438017,-0.860832,0.142496,0.230336,-5.67,1.2425,65.6425,20.784,-22.888,4.816001,concentric,4,3.0,21859.0,153152.0,245013.0,293187.0,270067.0
2026-04-08 21:38:03.379823,108432,1609503455480425,1055446698,-0.940864,0.167872,0.35136,-0.6475,-0.9275,61.232502,21.096,-23.624,3.952,concentric,4,3.0,21859.0,153152.0,245013.0,293187.0,270067.0
2026-04-08 21:38:03.382322,108433,1609503455494995,1055461637,-0.91744,0.199104,0.304512,10.0275,-3.7625,58.70375,20.112001,-23.800001,3.672,concentric,4,3.0,21859.0,153152.0,245013.0,293187.0,270067.0
2026-04-08 21:38:03.384848,108434,1609503455503946,1055470327,-0.91744,0.199104,0.304512,22.14625,-3.54375,56.3325,20.112001,-23.800001,3.672,concentric,4,3.0,21859.0,153152.0,245013.0,293187.0,270067.0
2026-04-08 21:38:03.387340,108435,1609503455512884,1055479052,-0.91744,0.199104,0.304512,30.33625,-0.1575,51.4325,20.112001,-23.800001,3.672,concentric,4,3.0,21859.0,153152.0,245013.0,293187.0,270067.0
2026-04-08 21:38:03.389923,108436,1609503455527357,1055493920,-0.952576,0.150304,0.255712,21.56,1.5225,50.3825,20.160002,-24.136002,2.224,concentric,4,3.0,21859.0,153152.0,245013.0,293187.0,270067.0
2026-04-08 21:38:03.392360,108437,1609503455536271,1055502621,-0.933056,0.228384,0.1464,5.73125,0.07,51.2925,19.912,-24.664001,4.208,concentric,4,3.0,21859.0,153152.0,245013.0,293187.0,270067.0
2026-04-08 21:38:03.422511,108438,1609503455550775,1055517524,-0.933056,0.228384,0.1464,-0.86625,-4.1125,49.665,19.912,-24.664001,4.208,concentric,4,3.0,21859.0,153152.0,245013.0,293187.0,270067.0
2026-04-08 21:38:03.426151,108439,1609503455559715,1055526192,-0.833504,0.275232,0.333792,2.42375,-8.47,44.0125,19.344002,-25.184002,4.128,concentric,4,3.0,21859.0,153152.0,245013.0,293187.0,270067.0
2026-04-08 21:38:03.453583,108450,1609503455574358,1055541114,-0.833504,0.16592,0.228384,12.03125,-11.27875,36.2425,19.344002,-25.184002,2.224,concentric,4,3.0,21967.0,153709.0,245649.0,293605.0,270340.0
2026-04-08 21:38:03.456188,108451,1609503455583378,1055549887,-0.923296,0.16592,0.228384,17.99875,-12.25,32.8125,19.160002,-25.576002,2.224,concentric,4,3.0,21967.0,153709.0,245649.0,293605.0,270340.0
2026-04-08 21:38:03.458594,108452,1609503455592412,1055558661,-0.923296,0.16592,0.228384,14.42875,-11.865,31.92,19.160002,-25.576002,2.224,concentric,4,3.0,21967.0,153709.0,245649.0,293605.0,270340.0
2026-04-08 21:38:03.461113,108453,1609503455606923,1055573532,-1.040416,0.191296,0.10736,6.7375,-9.66,27.65875,18.816,-25.896002,5.288,concentric,4,3.0,21967.0,153709.0,245649.0,293605.0,270340.0
2026-04-08 21:38:03.468648,108454,1609503455615874,1055582196,-0.860832,0.226432,0.267424,3.71875,-6.16,21.4725,18.848001,-25.904001,6.584,concentric,4,3.0,21967.0,153709.0,245649.0,293605.0,270340.0
2026-04-08 21:38:03.501277,108455,1609503455630369,1055597077,-0.860832,0.226432,0.267424,5.81,-3.57,16.70375,18.848001,-25.904001,6.584,concentric,4,3.0,21967.0,153709.0,245649.0,293605.0,270340.0
2026-04-08 21:38:03.504873,108456,1609503455639306,1055605750,-1.038464,0.314272,0.167872,6.0375,-7.6825,15.91625,18.992,-26.216002,3.856,concentric,4,3.0,21967.0,153709.0,245649.0,293605.0,270340.0
2026-04-08 21:38:03.507374,108457,1609503455653786,1055620613,-1.038464,0.314272,0.167872,10.92,-14.21,19.3375,18.992,-26.216002,3.856,concentric,4,3.0,21967.0,153709.0,245649.0,293605.0,270340.0
2026-04-08 21:38:03.537596,108458,1609503455662698,1055629299,-1.114592,0.226432,0.238144,22.77625,-16.07375,18.5325,19.224,-26.720001,4.592,concentric,4,3.0,21967.0,153709.0,245649.0,293605.0,270340.0
2026-04-08 21:38:03.603002,108469,1609503455671823,1055638037,-1.114592,0.226432,0.238144,26.3375,-14.72625,12.31125,19.224,-26.720001,4.592,concentric,4,3.0,21950.0,153664.0,245549.0,293536.0,270314.0
2026-04-08 21:38:03.604662,108470,1609503455686415,1055652964,-1.09312,0.216672,0.11712,19.69625,-12.53,6.2125,19.232,-27.088001,3.048,concentric,4,3.0,21950.0,153664.0,245549.0,293536.0,270314.0
2026-04-08 21:38:03.606152,108471,1609503455695307,1055661639,-1.032608,0.277184,0.316224,16.98375,-8.81125,0.8925,19.232,-27.224,3.144,concentric,4,3.0,21950.0,153664.0,245549.0,293536.0,270314.0
2026-04-08 21:38:03.610504,108472,1609503455709774,1055676470,-1.032608,0.277184,0.316224,12.2675,-5.4775,-4.06875,19.056002,-27.224,3.144,concentric,4,3.0,21950.0,153664.0,245549.0,293536.0,270314.0
2026-04-08 21:38:03.612136,108473,1609503455718706,1055685138,-1.095072,0.349408,0.27328,7.13125,-6.44875,-5.88875,19.616001,-27.656002,3.432,concentric,4,3.0,21950.0,153664.0,245549.0,293536.0,270314.0
2026-04-08 21:38:03.613676,108474,1609503455733217,1055700057,-1.095072,0.349408,0.27328,11.24375,-9.42375,-5.69625,19.616001,-27.656002,3.432,concentric,4,3.0,21950.0,153664.0,245549.0,293536.0,270314.0
2026-04-08 21:38:03.617970,108475,1609503455742131,1055708734,-1.048224,0.298656,0.304512,14.385,-13.5625,-7.67375,19.552,-27.536001,1.984,concentric,4,3.0,21950.0,153664.0,245549.0,293536.0,270314.0
2026-04-08 21:38:03.619714,108476,1609503455751094,1055717408,-1.048224,0.298656,0.304512,10.42125,-18.55875,-14.07,19.552,-27.536001,1.984,concentric,4,3.0,21950.0,153664.0,245549.0,293536.0,270314.0
2026-04-08 21:38:03.621347,108477,1609503455765686,1055732358,-1.118496,0.230336,0.115168,-5.18,-23.96625,-18.6375,19.672,-27.432001,3.224,concentric,4,3.0,21950.0,153664.0,245549.0,293536.0,270314.0
2026-04-08 21:38:03.650662,108488,1609503455774728,1055741117,-1.118496,0.230336,0.115168,-18.45375,-27.25625,-21.595,19.672,-27.432001,3.224,concentric,4,3.0,21923.0,153369.0,245065.0,293224.0,270173.0
2026-04-08 21:38:03.660221,108489,1609503455789261,1055756004,-1.038464,0.269376,0.462624,-22.7675,-29.5575,-28.14,20.136002,-27.568,4.472,concentric,4,3.0,21923.0,153369.0,245065.0,293224.0,270173.0
2026-04-08 21:38:03.662027,108490,1609503455798303,1055764747,-1.020896,0.310368,0.45872,-15.8025,-29.785,-35.2625,20.784,-27.032001,3.768,concentric,4,3.0,21923.0,153369.0,245065.0,293224.0,270173.0
2026-04-08 21:38:03.662963,108491,1609503455807258,1055773408,-1.020896,0.310368,0.45872,-9.19625,-27.15125,-39.725,20.784,-27.032001,3.768,concentric,4,3.0,21923.0,153369.0,245065.0,293224.0,270173.0
2026-04-08 21:38:03.693581,108492,1609503455821869,1055788298,-1.225856,0.36112,0.25376,-6.78125,-23.19625,-39.89125,21.072,-26.864002,5.432,concentric,4,3.0,21923.0,153369.0,245065.0,293224.0,270173.0
2026-04-08 21:38:03.697996,108493,1609503455830790,1055796976,-1.225856,0.36112,0.25376,-7.28875,-18.64625,-36.58375,21.072,-26.864002,5.432,concentric,4,3.0,21923.0,153369.0,245065.0,293224.0,270173.0
2026-04-08 21:38:03.700425,108494,1609503455845249,1055811821,-1.325408,0.37088,0.261568,-14.13125,-15.67125,-37.09125,21.728,-26.928001,3.688,concentric,4,3.0,21923.0,153369.0,245065.0,293224.0,270173.0
2026-04-08 21:38:03.728944,108495,1609503455854151,1055820496,-1.325408,0.37088,0.261568,-22.4175,-14.315001,-41.8425,21.728,-26.928001,3.688,concentric,4,3.0,21923.0,153369.0,245065.0,293224.0,270173.0
2026-04-08 21:38:03.734297,108496,1609503455868617,1055835399,-1.179008,0.320128,0.407968,-29.5925,-15.085,-47.1975,22.376001,-26.576002,2.232,concentric,4,3.0,21923.0,153369.0,245065.0,293224.0,270173.0
2026-04-08 21:38:03.763655,108507,1609503455877540,1055844155,-1.163392,0.294752,0.452864,-31.3075,-14.72625,-52.28125,22.912,-26.168001,3.56,concentric,4,3.0,21673.0,152143.0,243471.0,292171.0,269584.0
2026-04-08 21:38:03.766206,108508,1609503455886532,1055852857,-1.163392,0.294752,0.452864,-27.32625,-11.89125,-54.915,22.912,-26.168001,3.56,concentric,4,3.0,21673.0,152143.0,243471.0,292171.0,269584.0
2026-04-08 21:38:03.768718,108509,1609503455901023,1055867793,-1.255136,0.355264,0.363072,-21.91,-8.33,-50.00625,23.176,-26.048,5.192,concentric,4,3.0,21673.0,152143.0,243471.0,292171.0,269584.0
2026-04-08 21:38:03.771233,108510,1609503455909963,1055876517,-1.255136,0.355264,0.363072,-21.42,-8.33875,-42.77875,23.176,-26.048,5.192,concentric,4,3.0,21673.0,152143.0,243471.0,292171.0,269584.0
2026-04-08 21:38:03.776210,108511,1609503455924474,1055891419,-1.22976,0.363072,0.404064,-27.615,-11.305,-40.3375,24.080002,-25.536001,5.576,concentric,4,3.0,21673.0,152143.0,243471.0,292171.0,269584.0
2026-04-08 21:38:03.806400,108512,1609503455933380,1055900181,-1.22976,0.363072,0.404064,-36.72375,-12.67875,-44.3625,24.080002,-25.536001,5.576,concentric,4,3.0,21673.0,152143.0,243471.0,292171.0,269584.0
2026-04-08 21:38:03.809940,108513,1609503455947848,1055913012,-1.321504,0.240096,0.226432,-42.79625,-14.06125,-47.08375,24.512001,-25.152,5.448,concentric,4,3.0,21673.0,152143.0,243471.0,292171.0,269584.0
2026-04-08 21:38:03.812408,108514,1609503455957096,1055923739,-1.280512,0.158112,0.259616,-40.08375,-16.26625,-43.75875,26.560001,-25.088001,3.304,concentric,4,3.0,21673.0,152143.0,243471.0,292171.0,269584.0
2026-04-08 21:38:03.817479,108515,1609503455966019,1055932338,-1.280512,0.158112,0.259616,-30.3625,-17.50875,-38.045002,25.072,-25.088001,3.304,concentric,4,3.0,21673.0,152143.0,243471.0,292171.0,269584.0
2026-04-08 21:38:03.883646,108526,1609503455980616,1055947339,-1.335168,0.259616,0.294752,-16.5025,-17.43875,-34.18625,25.36,-24.872002,6.056,concentric,4,3.0,21680.0,152054.0,243337.0,292116.0,269521.0
2026-04-08 21:38:03.886150,108527,1609503455989621,1055956043,-1.335168,0.259616,0.294752,-4.24375,-15.72375,-32.585,25.36,-24.872002,6.056,concentric,4,3.0,21680.0,152054.0,243337.0,292116.0,269521.0
2026-04-08 21:38:03.888635,108528,1609503456004097,1055970903,-1.284416,0.30256,0.247904,-1.365,-14.971251,-28.8925,25.664001,-24.824001,5.744,concentric,4,3.0,21680.0,152054.0,243337.0,292116.0,269521.0
2026-04-08 21:38:03.891127,108529,1609503456013009,1055979604,-1.284416,0.30256,0.247904,-5.99375,-15.93375,-23.625,25.664001,-24.824001,5.744,concentric,4,3.0,21680.0,152054.0,243337.0,292116.0,269521.0
2026-04-08 21:38:03.893671,108530,1609503456027463,1055994463,-1.169248,0.245952,0.433344,-15.12,-16.37125,-19.20625,25.552002,-24.768002,5.568,concentric,4,3.0,21680.0,152054.0,243337.0,292116.0,269521.0
2026-04-08 21:38:03.897008,108531,1609503456036375,1056003139,-1.169248,0.245952,0.433344,-21.0525,-17.38625,-15.26,25.552002,-24.768002,5.568,concentric,4,3.0,21680.0,152054.0,243337.0,292116.0,269521.0
2026-04-08 21:38:03.907439,108532,1609503456045343,1056011813,-1.15168,0.187392,0.44896,-21.37625,-18.803751,-12.10125,25.392002,-24.056002,8.144,concentric,4,3.0,21680.0,152054.0,243337.0,292116.0,269521.0
2026-04-08 21:38:03.911143,108533,1609503456059842,1056026744,-1.046272,0.177632,0.398208,-17.92,-21.0525,-9.730001,25.752,-24.728,6.28,concentric,4,3.0,21680.0,152054.0,243337.0,292116.0,269521.0
2026-04-08 21:38:03.942691,108534,1609503456068799,1056035416,-1.046272,0.177632,0.398208,-12.5125,-22.05875,-7.105,25.752,-24.728,6.28,concentric,4,3.0,21680.0,152054.0,243337.0,292116.0,269521.0
2026-04-08 21:38:03.971465,108545,1609503456083330,1056050298,-1.192672,0.20496,0.226432,-8.47875,-21.9625,-5.39,25.68,-24.032001,6.648,concentric,4,3.0,21830.0,152768.0,244206.0,292616.0,269766.0
2026-04-08 21:38:03.975548,108546,1609503456092216,1056058951,-1.192672,0.20496,0.226432,-9.98375,-20.8425,-1.67125,25.68,-24.032001,6.648,concentric,4,3.0,21830.0,152768.0,244206.0,292616.0,269766.0
2026-04-08 21:38:03.977210,108547,1609503456106791,1056073969,-1.138016,0.163968,0.242048,-15.91625,-21.28875,4.1475,25.688002,-24.616001,7.064,concentric,4,3.0,21830.0,152768.0,244206.0,292616.0,269766.0
2026-04-08 21:38:03.978847,108548,1609503456115707,1056082647,-1.138016,0.163968,0.242048,-18.31375,-22.00625,3.84125,25.688002,-24.616001,7.064,concentric,4,3.0,21830.0,152768.0,244206.0,292616.0,269766.0
2026-04-08 21:38:03.983291,108549,1609503456124639,1056091313,-1.007232,0.103456,0.294752,-19.3375,-22.015,-0.7525,24.896002,-24.408,7.08,concentric,4,3.0,21830.0,152768.0,244206.0,292616.0,269766.0
2026-04-08 21:38:04.011400,108550,1609503456139155,1056106222,-1.046272,0.1464,0.32208,-16.24875,-22.04125,-2.05625,25.088001,-24.224,7.384,concentric,4,3.0,21830.0,152768.0,244206.0,292616.0,269766.0
2026-04-08 21:38:04.015886,108551,1609503456148074,1056114933,-1.046272,0.1464,0.32208,-11.261251,-21.44625,-0.48125,25.088001,-24.224,7.384,concentric,4,3.0,21830.0,152768.0,244206.0,292616.0,269766.0
2026-04-08 21:38:04.017465,108552,1609503456162545,1056127736,-1.081408,0.150304,0.230336,-7.23625,-20.335001,1.95125,25.128,-24.128,7.456,concentric,4,3.0,21830.0,152768.0,244206.0,292616.0,269766.0
2026-04-08 21:38:04.055052,108564,1609503456171773,1056138506,-1.081408,0.150304,0.230336,-4.06,-19.06625,3.56125,25.128,-24.128,7.456,concentric,4,3.0,21851.0,152805.0,244153.0,292424.0,269659.0
2026-04-08 21:38:04.057494,108565,1609503456181263,1056147240,-1.11264,0.244,0.44896,-3.29875,-17.22875,6.32625,24.416,-24.232,9.272,concentric,4,3.0,21851.0,152805.0,244153.0,292424.0,269659.0
2026-04-08 21:38:04.060731,108566,1609503456195807,1056162139,-1.11264,0.244,0.44896,-4.45375,-16.975,8.7325,24.416,-24.232,9.272,concentric,4,3.0,21851.0,152805.0,244153.0,292424.0,269659.0
2026-04-08 21:38:04.062639,108567,1609503456204779,1056170843,-1.026752,0.148352,0.359168,-7.07,-17.36,7.07,24.496,-24.104002,9.768001,concentric,4,3.0,21851.0,152805.0,244153.0,292424.0,269659.0
