pc_time,serial_num,sensor_ts,host_ts,ax,ay,az,gx,gy,gz,mx,my,mz,phase,rpe,weight_kg,ppg_a,ppg_b,ppg_c,ppg_d,ppg_e
2026-04-08 21:38:04.092721,108568,1609503456219281,1056185708,-1.065792,0.138592,0.538752,-10.6575,-17.710001,3.98125,24.320002,-24.104002,8.744,eccentric,4,3.0,21851.0,152805.0,244153.0,292424.0,269659.0
2026-04-08 21:38:04.096241,108569,1609503456228253,1056194446,-1.065792,0.138592,0.538752,-10.10625,-17.465,3.36,24.320002,-24.104002,8.744,eccentric,4,3.0,21851.0,152805.0,244153.0,292424.0,269659.0
2026-04-08 21:38:04.098639,108570,1609503456242728,1056209293,-1.22,0.21472,0.41968,-4.0425,-16.17,5.425,24.28,-24.344002,7.792,eccentric,4,3.0,21851.0,152805.0,244153.0,292424.0,269659.0
2026-04-08 21:38:04.103757,108571,1609503456251695,1056217962,-1.22,0.21472,0.41968,1.5225,-14.8225,7.84,24.28,-24.344002,7.792,eccentric,4,3.0,21851.0,152805.0,244153.0,292424.0,269659.0
2026-04-08 21:38:04.134088,108572,1609503456260623,1056226660,-1.157536,0.288896,0.554368,7.7875,-12.41625,9.0475,24.192001,-24.320002,7.08,eccentric,4,3.0,21851.0,152805.0,244153.0,292424.0,269659.0
2026-04-08 21:38:04.194943,108583,1609503456275241,1056241609,-1.157536,0.288896,0.554368,12.39875,-10.10625,7.8225,24.192001,-24.320002,7.08,eccentric,4,3.0,21579.0,151721.0,242755.0,291465.0,269120.0
2026-04-08 21:38:04.197480,108584,1609503456284260,1056250377,-1.079456,0.232288,0.505568,13.29125,-8.0675,7.455,24.12,-24.752,8.168,eccentric,4,3.0,21579.0,151721.0,242755.0,291465.0,269120.0
2026-04-08 21:38:04.203714,108585,1609503456298760,1056265336,-1.079456,0.232288,0.384544,14.4025,-6.50125,10.29875,24.12,-24.752,8.168,eccentric,4,3.0,21579.0,151721.0,242755.0,291465.0,269120.0
2026-04-08 21:38:04.206138,108586,1609503456307678,1056273998,-1.188768,0.232288,0.384544,15.4875,-4.96125,15.6625,23.408,-24.288002,8.512,eccentric,4,3.0,21579.0,151721.0,242755.0,291465.0,269120.0
2026-04-08 21:38:04.208630,108587,1609503456322162,1056288838,-1.214144,0.306464,0.610976,14.6125,-4.27,21.81375,23.168001,-25.008001,7.592001,eccentric,4,3.0,21579.0,151721.0,242755.0,291465.0,269120.0
2026-04-08 21:38:04.211196,108588,1609503456331126,1056297586,-1.214144,0.306464,0.610976,13.230001,-2.975,23.5375,23.168001,-25.008001,7.592001,eccentric,4,3.0,21579.0,151721.0,242755.0,291465.0,269120.0
2026-04-08 21:38:04.214506,108589,1609503456340159,1056306351,-1.177056,0.32208,0.488,9.98375,-1.89,22.1025,22.800001,-24.392002,8.008,eccentric,4,3.0,21579.0,151721.0,242755.0,291465.0,269120.0
2026-04-08 21:38:04.219334,108590,1609503456354668,1056321247,-1.177056,0.32208,0.488,7.02625,-1.1025,20.0375,22.800001,-24.392002,8.008,eccentric,4,3.0,21579.0,151721.0,242755.0,291465.0,269120.0
2026-04-08 21:38:04.222184,108591,1609503456363615,1056329912,-1.18096,0.327936,0.648064,4.96125,-0.79625,19.59125,22.76,-25.376001,8.544001,eccentric,4,3.0,21579.0,151721.0,242755.0,291465.0,269120.0
2026-04-08 21:38:04.248603,108602,1609503456378318,1056345213,-1.18096,0.327936,0.648064,7.2625,-0.5425,20.90375,22.76,-25.376001,8.544001,eccentric,4,3.0,21260.0,150355.0,241085.0,290291.0,268438.0
2026-04-08 21:38:04.251147,108603,1609503456387265,1056353973,-1.100928,0.210816,0.499712,13.58,-0.42,20.6675,22.136002,-24.928001,7.072001,eccentric,4,3.0,21260.0,150355.0,241085.0,290291.0,268438.0
2026-04-08 21:38:04.253651,108604,1609503456396213,1056362681,-1.100928,0.210816,0.499712,17.73625,0.28,18.82125,22.136002,-24.928001,7.072001,eccentric,4,3.0,21260.0,150355.0,241085.0,290291.0,268438.0
2026-04-08 21:38:04.283866,108605,1609503456410705,1056377548,-1.208288,0.329888,0.454816,18.50625,1.49625,16.56375,21.424002,-25.640001,9.272,eccentric,4,3.0,21260.0,150355.0,241085.0,290291.0,268438.0
2026-04-08 21:38:04.287522,108606,1609503456419623,1056386241,-1.208288,0.33184,0.548512,18.59375,0.09625,15.855001,21.424002,-25.640001,9.272,eccentric,4,3.0,21260.0,150355.0,241085.0,290291.0,268438.0
2026-04-08 21:38:04.289878,108607,1609503456434120,1056401120,-1.184864,0.33184,0.548512,14.13125,-1.61,14.4025,21.44,-25.560001,6.384,eccentric,4,3.0,21260.0,150355.0,241085.0,290291.0,268438.0
2026-04-08 21:38:04.294893,108608,1609503456443022,1056409784,-1.14192,0.255712,0.35136,5.31125,-4.22625,12.41625,20.960001,-25.376001,7.368001,eccentric,4,3.0,21260.0,150355.0,241085.0,290291.0,268438.0
2026-04-08 21:38:04.325115,108609,1609503456457512,1056424654,-1.14192,0.255712,0.35136,2.35375,-5.25,8.35625,20.960001,-25.376001,7.368001,eccentric,4,3.0,21260.0,150355.0,241085.0,290291.0,268438.0
2026-04-08 21:38:04.328733,108610,1609503456466427,1056433323,-1.120448,0.173728,0.44896,6.37875,-5.50375,5.88875,21.184002,-25.312,7.528,eccentric,4,3.0,21260.0,150355.0,241085.0,290291.0,268438.0
2026-04-08 21:38:04.362404,108621,1609503456475374,1056442057,-1.120448,0.173728,0.44896,12.005,-4.31375,4.15625,21.184002,-25.312,7.528,eccentric,4,3.0,21043.0,149556.0,240166.0,289660.0,268082.0
2026-04-08 21:38:04.364894,108622,1609503456489922,1056456964,-1.11264,0.251808,0.530944,14.48125,-1.0325,2.31,20.792002,-25.184002,7.392,eccentric,4,3.0,21043.0,149556.0,240166.0,289660.0,268082.0
2026-04-08 21:38:04.367448,108623,1609503456498876,1056465666,-1.11264,0.251808,0.530944,19.8275,2.2225,3.57875,20.792002,-25.184002,7.392,eccentric,4,3.0,21043.0,149556.0,240166.0,289660.0,268082.0
2026-04-08 21:38:04.369962,108624,1609503456513399,1056480544,-1.124352,0.290848,0.310368,19.38125,4.6725,2.38,20.52,-25.312,8.184,eccentric,4,3.0,21043.0,149556.0,240166.0,289660.0,268082.0
2026-04-08 21:38:04.374089,108625,1609503456522343,1056489222,-1.032608,0.245952,0.560224,5.5475,5.0575,-2.56375,20.208,-25.096,10.168,eccentric,4,3.0,21043.0,149556.0,240166.0,289660.0,268082.0
2026-04-08 21:38:04.403865,108626,1609503456536883,1056502057,-1.032608,0.245952,0.560224,-8.16375,3.10625,-6.4575,20.208,-25.096,10.168,eccentric,4,3.0,21043.0,149556.0,240166.0,289660.0,268082.0
2026-04-08 21:38:04.409968,108627,1609503456546041,1056512794,-0.925248,0.142496,0.523136,-16.33625,1.2775,-7.525,20.128,-24.968,7.376,eccentric,4,3.0,21043.0,149556.0,240166.0,289660.0,268082.0
2026-04-08 21:38:04.412406,108628,1609503456554956,1056521467,-0.925248,0.142496,0.523136,-15.23375,2.75625,-7.77875,20.128,-24.968,7.376,eccentric,4,3.0,21043.0,149556.0,240166.0,289660.0,268082.0
2026-04-08 21:38:04.477742,108629,1609503456569440,1056536335,-1.095072,0.206912,0.450912,-12.90625,5.48625,-11.025,19.68,-24.176,9.344001,eccentric,4,3.0,21043.0,149556.0,240166.0,289660.0,268082.0
2026-04-08 21:38:04.506094,108640,1609503456578546,1056545110,-1.095072,0.206912,0.450912,-12.4775,7.9625,-14.49,19.68,-24.176,9.344001,eccentric,4,3.0,21016.0,149354.0,239986.0,289597.0,268029.0
2026-04-08 21:38:04.508667,108641,1609503456593028,1056559956,-1.069696,0.191296,0.265472,-14.23625,9.09125,-17.5525,19.816002,-23.928001,7.68,eccentric,4,3.0,21016.0,149354.0,239986.0,289597.0,268029.0
2026-04-08 21:38:04.511156,108642,1609503456601961,1056568684,-0.880352,0.130784,0.530944,-18.06,10.1325,-19.97625,20.216002,-23.976002,8.76,eccentric,4,3.0,21016.0,149354.0,239986.0,289597.0,268029.0
2026-04-08 21:38:04.513658,108643,1609503456616448,1056583549,-0.880352,0.130784,0.530944,-19.25875,11.36625,-21.14875,20.216002,-23.976002,8.76,eccentric,4,3.0,21016.0,149354.0,239986.0,289597.0,268029.0
2026-04-08 21:38:04.516183,108644,1609503456625338,1056592192,-0.989664,0.187392,0.372832,-16.3275,12.62625,-21.07,20.624,-24.192001,8.216001,eccentric,4,3.0,21016.0,149354.0,239986.0,289597.0,268029.0
2026-04-08 21:38:04.518613,108645,1609503456634225,1056600843,-0.989664,0.187392,0.372832,-9.765,13.53625,-22.522501,20.624,-24.192001,8.216001,eccentric,4,3.0,21016.0,149354.0,239986.0,289597.0,268029.0
2026-04-08 21:38:04.521286,108646,1609503456648711,1056615717,-1.040416,0.148352,0.31232,-5.29375,14.67375,-27.2825,20.584002,-23.536001,7.28,eccentric,4,3.0,21016.0,149354.0,239986.0,289597.0,268029.0
2026-04-08 21:38:04.556602,108647,1609503456657644,1056624438,-1.040416,0.148352,0.31232,-11.1125,14.096251,-33.74875,20.584002,-23.536001,7.28,eccentric,4,3.0,21016.0,149354.0,239986.0,289597.0,268029.0
2026-04-08 21:38:04.560005,108648,1609503456672188,1056639334,-0.958432,0.03904,0.388448,-25.57625,13.1075,-35.7,20.848001,-23.432001,8.912001,eccentric,4,3.0,21016.0,149354.0,239986.0,289597.0,268029.0
2026-04-08 21:38:04.593715,108659,1609503456681215,1056648050,-0.958432,0.03904,0.3416,-38.7975,13.93,-34.51,20.848001,-23.432001,8.912001,eccentric,4,3.0,21081.0,149645.0,240419.0,289922.0,268214.0
2026-04-08 21:38:04.596191,108660,1609503456695687,1056660867,-0.845216,0.101504,0.3416,-32.2,15.9425,-36.19,20.712002,-22.496,8.224,eccentric,4,3.0,21081.0,149645.0,240419.0,289922.0,268214.0
2026-04-08 21:38:04.598732,108661,1609503456704852,1056671593,-0.98576,0.150304,0.183488,-17.5,17.77125,-41.3875,20.672,-22.144001,8.104,eccentric,4,3.0,21081.0,149645.0,240419.0,289922.0,268214.0
2026-04-08 21:38:04.601176,108662,1609503456713788,1056680261,-0.98576,0.150304,0.183488,-8.645,17.0975,-43.75,20.672,-22.144001,8.104,eccentric,4,3.0,21081.0,149645.0,240419.0,289922.0,268214.0
2026-04-08 21:38:04.603687,108663,1609503456728298,1056695198,-0.991616,-0.06832,0.308416,-6.43125,15.9075,-43.715,21.128,-21.752,8.472,eccentric,4,3.0,21081.0,149645.0,240419.0,289922.0,268214.0
2026-04-08 21:38:04.606135,108664,1609503456737231,1056703867,-0.991616,-0.06832,0.308416,-20.8075,14.74375,-43.65375,21.128,-21.752,8.472,eccentric,4,3.0,21081.0,149645.0,240419.0,289922.0,268214.0
2026-04-08 21:38:04.608662,108665,1609503456751698,1056718776,-0.905728,-0.050752,0.443104,-33.92375,16.23125,-45.15,21.424002,-21.368002,9.240001,eccentric,4,3.0,21081.0,149645.0,240419.0,289922.0,268214.0
2026-04-08 21:38:04.611177,108666,1609503456760644,1056727610,-0.905728,-0.050752,0.443104,-27.9475,20.37,-51.45,21.424002,-21.368002,9.240001,eccentric,4,3.0,21081.0,149645.0,240419.0,289922.0,268214.0
2026-04-08 21:38:04.641383,108667,1609503456769604,1056736285,-0.872544,0.11712,0.523136,-18.92625,21.0525,-55.48375,21.896002,-20.488,9.888001,eccentric,4,3.0,21081.0,149645.0,240419.0,289922.0,268214.0
2026-04-08 21:38:04.669952,108678,1609503456784565,1056751349,-0.890112,0.07808,0.23424,-9.89625,19.678751,-55.4925,22.352001,-20.160002,8.096001,eccentric,4,3.0,21156.0,150059.0,241167.0,290506.0,268466.0
2026-04-08 21:38:04.672464,108679,1609503456793501,1056760089,-0.890112,0.07808,0.23424,-4.4275,19.04,-59.57,22.352001,-20.160002,8.096001,eccentric,4,3.0,21156.0,150059.0,241167.0,290506.0,268466.0
2026-04-08 21:38:04.674978,108680,1609503456808037,1056774984,-1.097024,-0.183488,0.244,-11.19125,22.1725,-66.64,22.872002,-19.488,8.144,eccentric,4,3.0,21156.0,150059.0,241167.0,290506.0,268466.0
2026-04-08 21:38:04.677497,108681,1609503456817042,1056783650,-1.097024,-0.183488,0.244,-34.825,25.9875,-70.55125,22.872002,-19.488,8.144,eccentric,4,3.0,21156.0,150059.0,241167.0,290506.0,268466.0
2026-04-08 21:38:04.683720,108682,1609503456831569,1056798585,-1.022848,-0.076128,0.355264,-51.87,25.725,-68.71375,23.424002,-19.168001,8.656,eccentric,4,3.0,21156.0,150059.0,241167.0,290506.0,268466.0
2026-04-08 21:38:04.714898,108683,1609503456840525,1056807269,-1.022848,-0.076128,0.355264,-46.36625,24.1325,-65.42375,23.424002,-19.168001,8.656,eccentric,4,3.0,21156.0,150059.0,241167.0,290506.0,268466.0
2026-04-08 21:38:04.717099,108684,1609503456849438,1056815921,-0.81008,-0.044896,0.298656,-30.695,25.97875,-68.34625,23.648,-17.952002,8.888001,eccentric,4,3.0,21156.0,150059.0,241167.0,290506.0,268466.0
2026-04-08 21:38:04.721762,108685,1609503456863899,1056830776,-0.833504,-0.193248,0.20496,-22.58375,27.39625,-73.52625,24.352001,-17.240002,8.392,eccentric,4,3.0,21156.0,150059.0,241167.0,290506.0,268466.0
2026-04-08 21:38:04.725328,108686,1609503456872898,1056839470,-0.833504,-0.193248,0.20496,-20.93,28.0175,-77.1575,24.352001,-17.240002,8.392,eccentric,4,3.0,21156.0,150059.0,241167.0,290506.0,268466.0
2026-04-08 21:38:04.789291,108697,1609503456887565,1056854445,-0.806176,-0.26352,0.298656,-32.795002,24.675,-78.46125,24.664001,-16.448,9.448001,eccentric,4,3.0,21076.0,149613.0,240677.0,290165.0,268222.0
2026-04-08 21:38:04.790940,108698,1609503456896508,1056863118,-0.806176,-0.26352,0.298656,-51.56375,18.20875,-78.09375,24.664001,-16.448,9.448001,eccentric,4,3.0,21076.0,149613.0,240677.0,290165.0,268222.0
2026-04-08 21:38:04.792595,108699,1609503456905454,1056871777,-0.798368,-0.210816,0.359168,-55.3875,10.08875,-77.67375,25.000002,-15.288001,8.584001,eccentric,4,3.0,21076.0,149613.0,240677.0,290165.0,268222.0
2026-04-08 21:38:04.796746,108700,1609503456919907,1056886683,-0.798368,-0.210816,0.359168,-41.335,5.1625,-78.37375,25.000002,-15.288001,8.584001,eccentric,4,3.0,21076.0,149613.0,240677.0,290165.0,268222.0
2026-04-08 21:38:04.798406,108701,1609503456928807,1056895323,-0.724192,-0.230336,0.16592,-14.77875,6.2125,-79.19625,25.792002,-14.976001,8.456,eccentric,4,3.0,21076.0,149613.0,240677.0,290165.0,268222.0
2026-04-08 21:38:04.799963,108702,1609503456943307,1056910246,-0.6832,-0.17568,0.259616,2.89625,9.695,-78.3125,25.792002,-12.928,9.128,eccentric,4,3.0,21076.0,149613.0,240677.0,290165.0,268222.0
2026-04-08 21:38:04.806624,108703,1609503456952266,1056918912,-0.6832,-0.17568,0.259616,-0.14875,12.69625,-73.7625,25.656002,-14.336,9.128,eccentric,4,3.0,21076.0,149613.0,240677.0,290165.0,268222.0
2026-04-08 21:38:04.835180,108704,1609503456966779,1056933770,-0.689056,-0.128832,0.528992,-16.86125,11.10375,-67.54125,26.240002,-13.608001,9.272,eccentric,4,3.0,21076.0,149613.0,240677.0,290165.0,268222.0
2026-04-08 21:38:04.867506,108715,1609503456975685,1056942406,-0.689056,-0.128832,0.528992,-27.09,6.08125,-60.36625,26.240002,-13.608001,9.272,eccentric,4,3.0,21451.0,151010.0,242235.0,291240.0,268896.0
2026-04-08 21:38:04.871755,108716,1609503456984681,1056951126,-0.696864,-0.13664,0.382592,-19.285,4.94375,-53.6025,26.496002,-13.304001,9.416,eccentric,4,3.0,21451.0,151010.0,242235.0,291240.0,268896.0
2026-04-08 21:38:04.873773,108717,1609503456999251,1056966032,-0.696864,-0.13664,0.382592,3.68375,7.20125,-47.6525,26.496002,-13.304001,9.416,eccentric,4,3.0,21451.0,151010.0,242235.0,291240.0,268896.0
2026-04-08 21:38:04.875876,108718,1609503457008175,1056974700,-0.689056,-0.16592,0.152256,18.27875,9.0125,-40.5825,26.768002,-12.832001,8.160001,eccentric,4,3.0,21451.0,151010.0,242235.0,291240.0,268896.0
2026-04-08 21:38:04.877442,108719,1609503457022657,1056989587,-0.689056,-0.16592,0.152256,16.19625,10.59625,-30.42375,26.768002,-12.832001,8.160001,eccentric,4,3.0,21451.0,151010.0,242235.0,291240.0,268896.0
2026-04-08 21:38:04.884078,108720,1609503457031610,1056998382,-0.665632,-0.171776,0.306464,-0.91875,10.36,-21.46375,26.456001,-12.776001,8.152,eccentric,4,3.0,21451.0,151010.0,242235.0,291240.0,268896.0
2026-04-08 21:38:04.912858,108721,1609503457046076,1057011230,-0.853024,-0.111264,0.384544,-16.03875,7.105,-11.55875,26.808,-12.872001,8.400001,eccentric,4,3.0,21451.0,151010.0,242235.0,291240.0,268896.0
2026-04-08 21:38:04.917166,108722,1609503457055234,1057021957,-0.853024,-0.111264,0.384544,-16.87875,4.095,-4.96125,26.808,-12.872001,8.400001,eccentric,4,3.0,21451.0,151010.0,242235.0,291240.0,268896.0
2026-04-08 21:38:04.918713,108723,1609503457064184,1057030632,-0.796416,-0.099552,0.335744,3.8325,2.2925,-2.8,26.808,-12.992001,6.864,eccentric,4,3.0,21451.0,151010.0,242235.0,291240.0,268896.0
2026-04-08 21:38:04.977480,108734,1609503457079189,1057045510,-0.796416,-0.099552,0.335744,22.86375,4.6025,0.805,26.576002,-12.992001,6.864,eccentric,4,3.0,21471.0,151070.0,242407.0,291511.0,269066.0
2026-04-08 21:38:04.981751,108735,1609503457088174,1057054205,-0.960384,-0.115168,0.158112,23.178751,4.94375,4.025,26.488,-13.024,7.824,eccentric,4,3.0,21471.0,151070.0,242407.0,291511.0,269066.0
2026-04-08 21:38:04.983417,108736,1609503457102652,1057069108,-0.960384,-0.115168,0.158112,8.91625,3.08,10.185,26.488,-13.024,7.824,eccentric,4,3.0,21471.0,151070.0,242407.0,291511.0,269066.0
2026-04-08 21:38:04.984978,108737,1609503457111615,1057077817,-0.831552,-0.140544,0.347456,-3.605,1.505,11.01625,26.328001,-13.128,7.784,eccentric,4,3.0,21471.0,151070.0,242407.0,291511.0,269066.0
2026-04-08 21:38:04.989228,108738,1609503457120564,1057086546,-0.831552,-0.140544,0.347456,-3.35125,0.6125,10.45625,26.328001,-13.128,7.784,eccentric,4,3.0,21471.0,151070.0,242407.0,291511.0,269066.0
2026-04-08 21:38:04.991625,108739,1609503457135057,1057101455,-0.909632,-0.06832,0.359168,5.845,1.54875,14.6825,26.512001,-13.368001,8.136001,eccentric,4,3.0,21471.0,151070.0,242407.0,291511.0,269066.0
2026-04-08 21:38:04.995742,108740,1609503457144132,1057110191,-0.909632,-0.06832,0.255712,16.415,0.02625,20.86875,26.512001,-13.368001,8.136001,eccentric,4,3.0,21471.0,151070.0,242407.0,291511.0,269066.0
2026-04-08 21:38:05.028663,108741,1609503457158558,1057125120,-0.991616,-0.06832,0.255712,22.1725,-2.1175,25.15625,26.152,-13.728001,7.352,eccentric,4,3.0,21471.0,151070.0,242407.0,291511.0,269066.0
2026-04-08 21:38:05.030833,108742,1609503457167476,1057133767,-0.913536,-0.113216,0.32208,19.80125,-1.4525,26.08375,26.104002,-13.992001,7.6,eccentric,4,3.0,21471.0,151070.0,242407.0,291511.0,269066.0
2026-04-08 21:38:05.093003,108753,1609503457182109,1057148708,-0.913536,-0.113216,0.32208,9.87,1.30375,27.60625,26.104002,-13.992001,7.6,eccentric,4,3.0,21538.0,151360.0,242833.0,291884.0,269239.0
2026-04-08 21:38:05.094704,108754,1609503457191076,1057157429,-1.016992,-0.140544,0.25376,-2.59,2.86125,27.405,25.328001,-14.176001,8.72,eccentric,4,3.0,21538.0,151360.0,242833.0,291884.0,269239.0
2026-04-08 21:38:05.096229,108755,1609503457200179,1057166159,-1.016992,-0.140544,0.25376,-11.0775,2.66875,26.38125,25.328001,-14.176001,8.72,eccentric,4,3.0,21538.0,151360.0,242833.0,291884.0,269239.0
2026-04-08 21:38:05.100931,108756,1609503457214651,1057181040,-1.009184,-0.140544,0.28304,-9.17,1.0675,24.75375,25.68,-14.488001,7.976,eccentric,4,3.0,21538.0,151360.0,242833.0,291884.0,269239.0
2026-04-08 21:38:05.102375,108757,1609503457223653,1057189688,-1.009184,-0.140544,0.28304,3.63125,-0.97125,24.0975,25.68,-14.488001,7.976,eccentric,4,3.0,21538.0,151360.0,242833.0,291884.0,269239.0
2026-04-08 21:38:05.103729,108758,1609503457238198,1057204550,-0.93696,-0.074176,0.210816,15.3825,-2.47625,25.47125,25.632002,-15.152,8.88,eccentric,4,3.0,21538.0,151360.0,242833.0,291884.0,269239.0
2026-04-08 21:38:05.107897,108759,1609503457247211,1057213277,-0.948672,0.013664,0.290848,20.32625,-3.7625,30.07375,25.28,-15.104001,8.848001,eccentric,4,3.0,21538.0,151360.0,242833.0,291884.0,269239.0
2026-04-08 21:38:05.114096,108760,1609503457261687,1057228166,-0.948672,0.013664,0.290848,12.2325,-4.5325,36.076252,25.28,-15.104001,8.848001,eccentric,4,3.0,21538.0,151360.0,242833.0,291884.0,269239.0
2026-04-08 21:38:05.142653,108761,1609503457270617,1057236863,-0.987712,-0.062464,0.142496,-0.67375,-5.43375,41.37,24.968,-15.656001,8.184,concentric,4,3.0,21538.0,151360.0,242833.0,291884.0,269239.0
2026-04-08 21:38:05.173958,108772,1609503457279538,1057245723,-0.987712,-0.062464,0.142496,-8.4525,-5.62625,43.98625,24.968,-15.656001,8.184,concentric,4,3.0,21622.0,151792.0,243343.0,292174.0,269384.0
2026-04-08 21:38:05.176219,108773,1609503457294080,1057260675,-0.899872,-0.132736,0.275232,-6.8425,-4.76,44.1,25.152,-15.960001,7.616,concentric,4,3.0,21622.0,151792.0,243343.0,292174.0,269384.0
2026-04-08 21:38:05.179089,108774,1609503457303015,1057269401,-0.899872,-0.132736,0.275232,-0.21,-4.73375,42.37625,25.152,-15.960001,7.616,concentric,4,3.0,21622.0,151792.0,243343.0,292174.0,269384.0
2026-04-08 21:38:05.181476,108775,1609503457317580,1057284284,-0.835456,-0.099552,0.329888,3.14125,-6.01125,40.67875,24.384,-16.256,7.880001,concentric,4,3.0,21622.0,151792.0,243343.0,292174.0,269384.0
2026-04-08 21:38:05.183700,108776,1609503457326527,1057292960,-0.817888,-0.003904,0.275232,6.95625,-5.6875,40.5825,24.264002,-16.424002,8.224,concentric,4,3.0,21622.0,151792.0,243343.0,292174.0,269384.0
2026-04-08 21:38:05.187521,108777,1609503457335504,1057301645,-0.817888,-0.003904,0.275232,12.705,-4.52375,45.38625,24.264002,-16.424002,8.224,concentric,4,3.0,21622.0,151792.0,243343.0,292174.0,269384.0
2026-04-08 21:38:05.217681,108778,1609503457349987,1057316576,-0.94672,0.101504,0.27328,7.4025,-5.46875,50.89875,24.072,-17.048,8.96,concentric,4,3.0,21622.0,151792.0,243343.0,292174.0,269384.0
2026-04-08 21:38:05.221203,108779,1609503457358884,1057325240,-0.94672,0.101504,0.27328,-2.26625,-8.995,54.11,24.072,-17.048,8.96,concentric,4,3.0,21622.0,151792.0,243343.0,292174.0,269384.0
2026-04-08 21:38:05.225017,108780,1609503457373348,1057340126,-0.935008,0.040992,0.230336,-8.02375,-11.78625,53.75125,23.432001,-17.432001,7.704001,concentric,4,3.0,21622.0,151792.0,243343.0,292174.0,269384.0
2026-04-08 21:38:05.254298,108791,1609503457382540,1057348911,-0.935008,0.040992,0.230336,-6.2825,-14.56875,49.42875,23.432001,-17.432001,7.704001,concentric,4,3.0,21712.0,152224.0,243852.0,292420.0,269531.0
2026-04-08 21:38:05.256181,108792,1609503457397066,1057363850,-0.940864,-0.033184,0.374784,3.61375,-14.315001,44.91375,23.168001,-18.28,8.208,concentric,4,3.0,21712.0,152224.0,243852.0,292420.0,269531.0
2026-04-08 21:38:05.260112,108793,1609503457406023,1057372563,-0.940864,0.044896,0.41968,12.78375,-13.7025,44.24,23.168001,-18.28,8.208,concentric,4,3.0,21712.0,152224.0,243852.0,292420.0,269531.0
2026-04-08 21:38:05.288989,108794,1609503457415085,1057381270,-0.91744,0.03904,0.41968,14.7,-12.87125,47.04875,23.008001,-18.28,7.544,concentric,4,3.0,21712.0,152224.0,243852.0,292420.0,269531.0
2026-04-08 21:38:05.292537,108795,1609503457429562,1057396133,-0.860832,0.128832,0.2928,13.90375,-11.4975,48.0725,22.472,-19.016,7.744,concentric,4,3.0,21712.0,152224.0,243852.0,292420.0,269531.0
2026-04-08 21:38:05.294932,108796,1609503457438502,1057404782,-0.860832,0.128832,0.2928,16.31,-11.64625,47.425,22.472,-19.016,7.744,concentric,4,3.0,21712.0,152224.0,243852.0,292420.0,269531.0
2026-04-08 21:38:05.303831,108797,1609503457452983,1057419692,-0.866688,0.076128,0.240096,11.41875,-15.81125,48.5975,21.720001,-19.416,9.136001,concentric,4,3.0,21712.0,152224.0,243852.0,292420.0,269531.0
2026-04-08 21:38:05.334258,108798,1609503457461923,1057428363,-0.866688,0.076128,0.240096,3.1325,-21.11375,50.53125,21.720001,-19.416,9.136001,concentric,4,3.0,21712.0,152224.0,243852.0,292420.0,269531.0
2026-04-08 21:38:05.339057,108799,1609503457476465,1057443222,-0.772992,0.054656,0.433344,5.62625,-21.105,51.2225,21.952002,-20.304,7.976,concentric,4,3.0,21712.0,152224.0,243852.0,292420.0,269531.0
2026-04-08 21:38:05.401032,108810,1609503457485472,1057451913,-0.772992,0.054656,0.433344,16.19625,-17.12375,48.44,21.952002,-20.304,7.976,concentric,4,3.0,21768.0,152449.0,244115.0,292627.0,269665.0
2026-04-08 21:38:05.402520,108811,1609503457494576,1057460698,-0.860832,0.056608,0.261568,18.45375,-14.91,47.80125,21.408,-20.68,5.76,concentric,4,3.0,21768.0,152449.0,244115.0,292627.0,269665.0
2026-04-08 21:38:05.406787,108812,1609503457509071,1057475614,-0.843264,0.101504,0.20496,12.34625,-13.965,50.54,21.232,-20.968,7.952,concentric,4,3.0,21768.0,152449.0,244115.0,292627.0,269665.0
2026-04-08 21:38:05.409724,108813,1609503457518034,1057484285,-0.843264,0.101504,0.20496,7.245,-12.60875,53.40125,21.232,-20.968,7.952,concentric,4,3.0,21768.0,152449.0,244115.0,292627.0,269665.0
2026-04-08 21:38:05.415645,108814,1609503457532469,1057499146,-0.794464,0.121024,0.42944,2.09125,-13.51875,56.70875,20.456001,-21.544,8.144,concentric,4,3.0,21768.0,152449.0,244115.0,292627.0,269665.0
2026-04-08 21:38:05.417212,108815,1609503457541385,1057507854,-0.794464,0.121024,0.42944,0.8575,-17.29,58.353752,20.456001,-21.544,8.144,concentric,4,3.0,21768.0,152449.0,244115.0,292627.0,269665.0
2026-04-08 21:38:05.419419,108816,1609503457555940,1057522839,-0.909632,0.044896,0.232288,8.44375,-19.99375,54.57375,19.936,-21.792002,8.224,concentric,4,3.0,21768.0,152449.0,244115.0,292627.0,269665.0
2026-04-08 21:38:05.422861,108817,1609503457564909,1057531520,-0.909632,0.044896,0.232288,13.30875,-22.015,48.8425,19.936,-21.792002,8.224,concentric,4,3.0,21768.0,152449.0,244115.0,292627.0,269665.0
2026-04-08 21:38:05.427869,108818,1609503457573892,1057540210,-0.806176,0.085888,0.343552,20.0725,-18.31375,43.5575,19.672,-22.28,8.104,concentric,4,3.0,21768.0,152449.0,244115.0,292627.0,269665.0
2026-04-08 21:38:05.455532,108829,1609503457588758,1057555516,-0.915488,0.191296,0.353312,25.3925,-12.145,39.7075,19.088001,-22.632002,9.064,concentric,4,3.0,21850.0,152838.0,244607.0,292924.0,269854.0
2026-04-08 21:38:05.457066,108830,1609503457597686,1057564189,-0.915488,0.191296,0.353312,17.5525,-7.91,41.51875,19.088001,-22.632002,9.064,concentric,4,3.0,21850.0,152838.0,244607.0,292924.0,269854.0
2026-04-08 21:38:05.487417,108831,1609503457612146,1057579106,-0.884256,0.245952,0.450912,8.1025,-6.15125,45.045002,19.096,-22.856,8.816,concentric,4,3.0,21850.0,152838.0,244607.0,292924.0,269854.0
2026-04-08 21:38:05.491828,108832,1609503457621054,1057587774,-0.884256,0.245952,0.450912,2.49375,-7.805,46.31375,19.096,-22.856,8.816,concentric,4,3.0,21850.0,152838.0,244607.0,292924.0,269854.0
2026-04-08 21:38:05.494168,108833,1609503457629959,1057596464,-0.935008,0.13664,0.441152,1.32125,-10.3425,43.33875,19.216002,-23.528002,7.904,concentric,4,3.0,21850.0,152838.0,244607.0,292924.0,269854.0
2026-04-08 21:38:05.498504,108834,1609503457644403,1057611338,-0.935008,0.13664,0.441152,0.79625,-10.43,35.07,19.216002,-23.528002,7.904,concentric,4,3.0,21850.0,152838.0,244607.0,292924.0,269854.0
2026-04-08 21:38:05.527395,108835,1609503457653329,1057620028,-0.997472,0.130784,0.179584,-0.91,-6.2825,28.035,18.824001,-23.888,8.856,concentric,4,3.0,21850.0,152838.0,244607.0,292924.0,269854.0
2026-04-08 21:38:05.531782,108836,1609503457667816,1057634888,-0.997472,0.212768,0.249856,0.525,0.32375,24.61375,18.824001,-23.888,8.856,concentric,4,3.0,21850.0,152838.0,244607.0,292924.0,269854.0
2026-04-08 21:38:05.533506,108837,1609503457676728,1057643535,-0.997472,0.212768,0.249856,2.24875,5.4425,21.84875,18.864,-24.192001,8.512,concentric,4,3.0,21850.0,152838.0,244607.0,292924.0,269854.0
2026-04-08 21:38:05.561781,108848,1609503457691324,1057658446,-0.895968,0.113216,0.31232,-1.39125,6.0725,19.4075,18.656,-24.328001,8.512,concentric,4,3.0,21866.0,153031.0,244817.0,293089.0,269987.0
2026-04-08 21:38:05.563417,108849,1609503457700235,1057667169,-0.895968,0.113216,0.31232,-9.345,0.13125,18.8825,18.656,-24.328001,8.512,concentric,4,3.0,21866.0,153031.0,244817.0,293089.0,269987.0
2026-04-08 21:38:05.565810,108850,1609503457709161,1057675847,-0.845216,0.15616,0.366976,-13.72875,-6.86875,20.1425,18.736,-24.608002,8.128,concentric,4,3.0,21866.0,153031.0,244817.0,293089.0,269987.0
2026-04-08 21:38:05.595302,108851,1609503457723659,1057690785,-0.845216,0.15616,0.366976,-6.615,-11.57625,17.6225,18.736,-24.608002,8.128,concentric,4,3.0,21866.0,153031.0,244817.0,293089.0,269987.0
2026-04-08 21:38:05.599663,108852,1609503457732558,1057699448,-1.013088,0.064416,0.300608,7.72625,-10.05375,7.9275,18.752,-24.800001,7.968,concentric,4,3.0,21866.0,153031.0,244817.0,293089.0,269987.0
2026-04-08 21:38:05.602068,108853,1609503457747063,1057712261,-1.013088,0.064416,0.300608,8.65375,-8.0675,-0.035,18.752,-24.800001,7.968,concentric,4,3.0,21866.0,153031.0,244817.0,293089.0,269987.0
2026-04-08 21:38:05.608329,108854,1609503457756293,1057723017,-1.020896,0.138592,0.286944,-4.0775,-9.52,-1.82875,19.288,-24.896002,7.752,concentric,4,3.0,21866.0,153031.0,244817.0,293089.0,269987.0
2026-04-08 21:38:05.638658,108855,1609503457770818,1057737878,-1.001376,0.236192,0.474336,-10.77125,-10.70125,-5.0575,19.52,-24.648,7.952,concentric,4,3.0,21866.0,153031.0,244817.0,293089.0,269987.0
2026-04-08 21:38:05.703505,108866,1609503457779720,1057746594,-1.001376,0.236192,0.474336,-8.82,-12.7575,-11.78625,19.52,-24.648,7.952,concentric,4,3.0,21943.0,153278.0,245099.0,293276.0,270131.0
2026-04-08 21:38:05.705125,108867,1609503457788637,1057755359,-1.001376,0.148352,0.407968,-6.16,-15.26875,-16.94875,19.52,-24.648,7.952,concentric,4,3.0,21943.0,153278.0,245099.0,293276.0,270131.0
2026-04-08 21:38:05.709529,108868,1609503457803110,1057770287,-1.040416,0.148352,0.407968,-6.4925,-18.6025,-17.99875,19.672,-24.880001,7.936,concentric,4,3.0,21943.0,153278.0,245099.0,293276.0,270131.0
2026-04-08 21:38:05.713451,108869,1609503457812020,1057778959,-1.001376,0.105408,0.456768,-11.92625,-20.88625,-17.14125,19.864,-25.048,7.952,concentric,4,3.0,21943.0,153278.0,245099.0,293276.0,270131.0
2026-04-08 21:38:05.714936,108870,1609503457826500,1057791767,-1.001376,0.105408,0.456768,-16.75625,-19.25,-20.23,19.864,-25.048,7.952,concentric,4,3.0,21943.0,153278.0,245099.0,293276.0,270131.0
2026-04-08 21:38:05.719280,108871,1609503457835801,1057802528,-1.067744,0.150304,0.35136,-22.07625,-15.9075,-25.96125,20.208,-25.04,9.6,concentric,4,3.0,21943.0,153278.0,245099.0,293276.0,270131.0
2026-04-08 21:38:05.720985,108872,1609503457850398,1057817448,-1.0736,0.171776,0.521184,-23.26625,-15.2775,-31.9375,20.296001,-24.424002,8.328,concentric,4,3.0,21943.0,153278.0,245099.0,293276.0,270131.0
2026-04-08 21:38:05.722621,108873,1609503457859323,1057826124,-1.0736,0.171776,0.521184,-20.615,-12.705,-36.98625,20.296001,-24.424002,8.328,concentric,4,3.0,21943.0,153278.0,245099.0,293276.0,270131.0
2026-04-08 21:38:05.726601,108874,1609503457868269,1057834784,-1.0736,0.171776,0.521184,-21.21875,-10.87625,-36.0675,20.296001,-24.424002,8.328,concentric,4,3.0,21943.0,153278.0,245099.0,293276.0,270131.0
2026-04-08 21:38:05.757304,108885,1609503457883268,1057849747,-1.1712,0.081984,0.363072,-24.43,-9.2225,-32.62,21.032001,-24.408,8.976001,concentric,4,3.0,21930.0,153191.0,245011.0,293291.0,270139.0
2026-04-08 21:38:05.759667,108886,1609503457892305,1057858525,-1.149728,0.099552,0.343552,-30.37125,-8.82,-28.97125,21.208,-24.024002,10.040001,concentric,4,3.0,21930.0,153191.0,245011.0,293291.0,270139.0
2026-04-08 21:38:05.761228,108887,1609503457906920,1057873390,-1.149728,0.099552,0.343552,-33.08375,-9.14375,-32.305,21.208,-24.024002,10.040001,concentric,4,3.0,21930.0,153191.0,245011.0,293291.0,270139.0
2026-04-08 21:38:05.767871,108888,1609503457915901,1057882102,-1.018944,0.093696,0.49776,-34.90375,-9.5725,-43.54875,21.608002,-23.624,11.184001,concentric,4,3.0,21930.0,153191.0,245011.0,293291.0,270139.0
2026-04-08 21:38:05.782890,108889,1609503457924897,1057890772,-1.018944,0.093696,0.49776,-37.00375,-10.92875,-52.08875,21.608002,-23.624,11.184001,concentric,4,3.0,21930.0,153191.0,245011.0,293291.0,270139.0
2026-04-08 21:38:05.823950,108890,1609503457939414,1057905642,-1.1224,0.105408,0.530944,-31.045,-10.7625,-50.93375,22.784,-23.608002,9.6,concentric,4,3.0,21930.0,153191.0,245011.0,293291.0,270139.0
2026-04-08 21:38:05.825821,108891,1609503457948342,1057914289,-1.1224,0.105408,0.530944,-23.51125,-10.08875,-44.9575,22.784,-23.608002,9.6,concentric,4,3.0,21930.0,153191.0,245011.0,293291.0,270139.0
2026-04-08 21:38:05.830517,108892,1609503457962841,1057929173,-1.124352,0.0976,0.60512,-18.48,-10.255,-43.295002,23.312,-22.728,10.480001,concentric,4,3.0,21930.0,153191.0,245011.0,293291.0,270139.0
2026-04-08 21:38:05.832277,108893,1609503457971730,1057937827,-1.14192,0.06832,0.47824,-15.28625,-9.45875,-46.61125,23.944,-22.776001,9.312,concentric,4,3.0,21930.0,153191.0,245011.0,293291.0,270139.0
2026-04-08 21:38:05.863475,108904,1609503457986345,1057952832,-1.14192,0.06832,0.47824,-9.21375,-7.035,-49.35875,23.944,-22.776001,9.312,concentric,4,3.0,22072.0,153627.0,245463.0,293599.0,270308.0
2026-04-08 21:38:05.865072,108905,1609503457995387,1057961622,-1.251232,0.158112,0.609024,-6.43125,-2.35375,-47.11875,24.36,-22.576,10.808001,concentric,4,3.0,22072.0,153627.0,245463.0,293599.0,270308.0
2026-04-08 21:38:05.869252,108906,1609503458004315,1057970342,-1.251232,0.158112,0.609024,-9.49375,2.1875,-43.505,24.36,-22.576,10.808001,concentric,4,3.0,22072.0,153627.0,245463.0,293599.0,270308.0
2026-04-08 21:38:05.871700,108907,1609503458018844,1057985233,-1.341024,0.187392,0.515328,-11.75125,4.80375,-43.25125,25.104002,-22.136002,10.632001,concentric,4,3.0,22072.0,153627.0,245463.0,293599.0,270308.0
2026-04-08 21:38:05.900979,108908,1609503458027803,1057993915,-1.341024,0.187392,0.515328,-16.47625,4.90875,-47.81875,25.104002,-22.136002,10.632001,concentric,4,3.0,22072.0,153627.0,245463.0,293599.0,270308.0
2026-04-08 21:38:05.904799,108909,1609503458042252,1058008800,-1.225856,0.154208,0.646112,-22.32125,3.4475,-49.91875,25.456001,-21.688002,9.904,concentric,4,3.0,22072.0,153627.0,245463.0,293599.0,270308.0
2026-04-08 21:38:05.906221,108910,1609503458051140,1058017443,-1.19072,0.152256,0.599264,-21.20125,3.3075,-47.78375,25.984001,-21.256,9.72,concentric,4,3.0,22072.0,153627.0,245463.0,293599.0,270308.0
2026-04-08 21:38:05.912891,108911,1609503458060057,1058026096,-1.19072,0.152256,0.599264,-16.40625,3.185,-42.98,25.984001,-21.256,9.72,concentric,4,3.0,22072.0,153627.0,245463.0,293599.0,270308.0
2026-04-08 21:38:05.979856,108912,1609503458074519,1058040963,-1.33712,0.16592,0.386496,-13.545,1.65375,-38.9025,26.216002,-21.2,9.688001,concentric,4,3.0,22072.0,153627.0,245463.0,293599.0,270308.0
2026-04-08 21:38:06.007433,108923,1609503458083627,1058049841,-1.33712,0.16592,0.386496,-15.0675,-1.77625,-37.42375,26.216002,-21.2,9.688001,concentric,4,3.0,21908.0,152916.0,244674.0,293159.0,270050.0
2026-04-08 21:38:06.009960,108924,1609503458098191,1058064704,-1.34688,0.128832,0.562176,-15.00625,-5.9325,-33.4775,26.52,-20.928001,8.216001,concentric,4,3.0,21908.0,152916.0,244674.0,293159.0,270050.0
2026-04-08 21:38:06.012441,108925,1609503458107230,1058073359,-1.34688,0.128832,0.562176,-8.6975,-7.945,-27.86,26.52,-20.928001,8.216001,concentric,4,3.0,21908.0,152916.0,244674.0,293159.0,270050.0
2026-04-08 21:38:06.014893,108926,1609503458121686,1058088252,-1.2688,0.191296,0.616832,2.98375,-6.37,-24.08875,26.464,-20.936,9.936001,concentric,4,3.0,21908.0,152916.0,244674.0,293159.0,270050.0
2026-04-08 21:38:06.017463,108927,1609503458130630,1058096969,-1.2688,0.191296,0.427488,13.97375,-1.96875,-19.1275,26.464,-20.936,9.936001,concentric,4,3.0,21908.0,152916.0,244674.0,293159.0,270050.0
2026-04-08 21:38:06.019951,108928,1609503458139578,1058105695,-1.167296,0.20496,0.427488,12.69625,1.21625,-13.16875,27.016,-20.816002,11.832001,concentric,4,3.0,21908.0,152916.0,244674.0,293159.0,270050.0
2026-04-08 21:38:06.022492,108929,1609503458154064,1058120681,-1.13216,0.132736,0.493856,5.11,3.66625,-8.51375,26.320002,-20.632002,10.848001,concentric,4,3.0,21908.0,152916.0,244674.0,293159.0,270050.0
2026-04-08 21:38:06.024913,108930,1609503458162988,1058129435,-1.13216,0.132736,0.493856,-5.25,6.97375,-3.15,26.320002,-20.632002,10.848001,concentric,4,3.0,21908.0,152916.0,244674.0,293159.0,270050.0
