pc_time,serial_num,sensor_ts,host_ts,ax,ay,az,gx,gy,gz,mx,my,mz,phase,rpe,weight_kg,ppg_a,ppg_b,ppg_c,ppg_d,ppg_e
2026-04-08 21:23:24.098909,13395,1609502576257524,176223780,-0.962336,-0.042944,0.374784,-13.440001,5.6175,-1.785,24.544,-18.68,12.84,eccentric,0,3.0,21336.0,149594.0,244524.0,296749.0,275584.0
2026-04-08 21:23:24.103206,13396,1609502576272119,176238651,-0.968192,-0.040992,0.450912,-12.38125,6.265,-1.9775,24.552002,-18.536001,10.224001,eccentric,0,3.0,21336.0,149594.0,244524.0,296749.0,275584.0
2026-04-08 21:23:24.104937,13397,1609502576281155,176247369,-1.00528,-0.03904,0.353312,-10.56125,7.6125,-3.6575,24.552002,-18.464,10.368,eccentric,0,3.0,21336.0,149594.0,244524.0,296749.0,275584.0
2026-04-08 21:23:24.106514,13398,1609502576295643,176262208,-1.00528,-0.03904,0.353312,-9.292501,9.065,-4.06,24.328001,-18.464,10.368,eccentric,0,3.0,21336.0,149594.0,244524.0,296749.0,275584.0
2026-04-08 21:23:24.108926,13399,1609502576304599,176270917,-1.028704,-0.021472,0.37088,-8.225,9.03875,-2.40625,24.344002,-18.592001,11.256001,eccentric,0,3.0,21336.0,149594.0,244524.0,296749.0,275584.0
2026-04-08 21:23:24.140110,13400,1609502576313552,176279616,-1.028704,-0.021472,0.37088,-5.64375,8.75,-1.0325,24.344002,-18.592001,11.256001,eccentric,0,3.0,21336.0,149594.0,244524.0,296749.0,275584.0
2026-04-08 21:23:24.144403,13401,1609502576327979,176294533,-1.030656,-0.02928,0.421632,-3.29,8.995,-1.23375,24.664001,-18.432001,8.336,eccentric,0,3.0,21336.0,149594.0,244524.0,296749.0,275584.0
2026-04-08 21:23:24.145977,13402,1609502576336903,176303188,-1.030656,-0.02928,0.421632,-2.44125,9.05625,-1.21625,24.664001,-18.432001,8.336,eccentric,0,3.0,21336.0,149594.0,244524.0,296749.0,275584.0
2026-04-08 21:23:24.176280,13403,1609502576351389,176318193,-1.067744,-0.015616,0.304512,-1.40875,9.63375,-0.14875,25.28,-18.392,10.408001,eccentric,0,3.0,21336.0,149594.0,244524.0,296749.0,275584.0
2026-04-08 21:23:24.205454,13414,1609502576360402,176326875,-1.067744,-0.015616,0.304512,-0.9625,9.75625,1.5225,25.28,-18.392,10.408001,eccentric,0,3.0,21020.0,148257.0,242748.0,295447.0,274837.0
2026-04-08 21:23:24.206438,13415,1609502576374887,176341757,-1.087264,0.02928,0.396256,-1.02375,8.93375,3.66625,24.888,-18.328001,9.032001,eccentric,0,3.0,21020.0,148257.0,242748.0,295447.0,274837.0
2026-04-08 21:23:24.209966,13416,1609502576383881,176350435,-1.091168,0.005856,0.38064,1.26875,7.60375,4.68125,24.688002,-18.408,10.472,eccentric,0,3.0,21020.0,148257.0,242748.0,295447.0,274837.0
2026-04-08 21:23:24.211362,13417,1609502576392908,176359186,-1.091168,0.005856,0.38064,1.04125,6.5975,4.85625,24.688002,-18.408,10.472,eccentric,0,3.0,21020.0,148257.0,242748.0,295447.0,274837.0
2026-04-08 21:23:24.213837,13418,1609502576407465,176374065,-1.097024,0.044896,0.374784,3.4125,4.89125,6.7025,24.44,-18.472,10.608001,eccentric,0,3.0,21020.0,148257.0,242748.0,295447.0,274837.0
2026-04-08 21:23:24.256266,13419,1609502576416398,176382755,-1.097024,0.044896,0.374784,5.66125,3.61375,8.21625,24.44,-18.472,10.608001,eccentric,0,3.0,21020.0,148257.0,242748.0,295447.0,274837.0
2026-04-08 21:23:24.258493,13420,1609502576430887,176397611,-1.149728,0.046848,0.31232,4.52375,2.51125,8.21625,25.128,-19.024,10.200001,eccentric,0,3.0,21020.0,148257.0,242748.0,295447.0,274837.0
2026-04-08 21:23:24.263245,13421,1609502576439776,176406256,-1.149728,0.046848,0.31232,5.3025,1.505,9.47625,25.128,-19.024,10.200001,eccentric,0,3.0,21020.0,148257.0,242748.0,295447.0,274837.0
2026-04-08 21:23:24.325679,13432,1609502576454257,176421125,-1.114592,0.066368,0.443104,6.64125,1.25125,11.0775,25.04,-18.824001,9.904,eccentric,0,3.0,20697.0,146895.0,240976.0,294163.0,274136.0
2026-04-08 21:23:24.327334,13433,1609502576463211,176429850,-1.126304,0.083936,0.37088,9.75625,3.29,10.49125,24.160002,-19.072,9.816001,eccentric,0,3.0,20697.0,146895.0,240976.0,294163.0,274136.0
2026-04-08 21:23:24.328899,13434,1609502576472170,176438654,-1.126304,0.083936,0.37088,15.3475,6.01125,10.0975,24.160002,-19.072,9.816001,eccentric,0,3.0,20697.0,146895.0,240976.0,294163.0,274136.0
2026-04-08 21:23:24.333175,13435,1609502576486681,176453555,-1.128256,0.091744,0.493856,17.395,6.57125,12.67875,24.432001,-19.336,9.904,eccentric,0,3.0,20697.0,146895.0,240976.0,294163.0,274136.0
2026-04-08 21:23:24.334866,13436,1609502576495611,176462211,-1.128256,0.091744,0.493856,15.88125,5.705,14.07875,24.432001,-19.336,9.904,eccentric,0,3.0,20697.0,146895.0,240976.0,294163.0,274136.0
2026-04-08 21:23:24.336405,13437,1609502576510081,176477050,-1.23952,0.109312,0.25376,13.74625,5.39,14.14,24.544,-19.496,9.616,eccentric,0,3.0,20697.0,146895.0,240976.0,294163.0,274136.0
2026-04-08 21:23:24.340650,13438,1609502576519030,176485734,-1.23952,0.109312,0.25376,12.355001,5.88,13.685,24.544,-19.496,9.616,eccentric,0,3.0,20697.0,146895.0,240976.0,294163.0,274136.0
2026-04-08 21:23:24.342262,13439,1609502576533503,176500686,-1.221952,0.134688,0.386496,12.81875,6.39625,14.761251,24.320002,-19.848001,9.296001,eccentric,0,3.0,20697.0,146895.0,240976.0,294163.0,274136.0
2026-04-08 21:23:24.349305,13440,1609502576542465,176509357,-1.221952,0.150304,0.376736,14.735,5.85375,17.7625,24.320002,-19.848001,8.528001,eccentric,0,3.0,20697.0,146895.0,240976.0,294163.0,274136.0
2026-04-08 21:23:24.377897,13441,1609502576551379,176518109,-1.342976,0.150304,0.376736,14.2275,4.305,21.35,23.856,-19.856,8.528001,eccentric,0,3.0,20697.0,146895.0,240976.0,294163.0,274136.0
2026-04-08 21:23:24.405177,13452,1609502576565907,176532997,-1.272704,0.150304,0.417728,12.1275,1.6975,23.54625,23.784,-20.152,9.320001,eccentric,0,3.0,20385.0,145649.0,239343.0,293013.0,273472.0
2026-04-08 21:23:24.409819,13453,1609502576574864,176541679,-1.272704,0.150304,0.417728,11.64625,-0.56,24.0975,23.784,-20.152,9.320001,eccentric,0,3.0,20385.0,145649.0,239343.0,293013.0,273472.0
2026-04-08 21:23:24.412373,13454,1609502576589381,176554544,-1.270752,0.132736,0.308416,15.8375,-0.8925,22.61,23.552002,-20.664001,9.088,eccentric,0,3.0,20385.0,145649.0,239343.0,293013.0,273472.0
2026-04-08 21:23:24.413889,13455,1609502576598513,176565283,-1.270752,0.132736,0.308416,16.485,-1.25125,21.35,23.552002,-20.664001,9.088,eccentric,0,3.0,20385.0,145649.0,239343.0,293013.0,273472.0
2026-04-08 21:23:24.416511,13456,1609502576612983,176578151,-1.231712,0.160064,0.433344,17.1675,-0.77,20.755,23.144001,-20.736,8.896001,eccentric,0,3.0,20385.0,145649.0,239343.0,293013.0,273472.0
2026-04-08 21:23:24.448298,13457,1609502576622177,176588880,-1.231712,0.160064,0.433344,19.20625,-0.735,20.1425,23.144001,-20.736,8.896001,eccentric,0,3.0,20385.0,145649.0,239343.0,293013.0,273472.0
2026-04-08 21:23:24.450171,13458,1609502576631077,176597594,-1.216096,0.122976,0.396256,21.58625,-1.995,18.12125,22.752,-20.816002,10.344001,eccentric,0,3.0,20385.0,145649.0,239343.0,293013.0,273472.0
2026-04-08 21:23:24.454408,13459,1609502576645532,176612443,-1.1224,0.076128,0.41968,22.26875,-2.9925,16.38875,22.672,-20.448002,9.088,eccentric,0,3.0,20385.0,145649.0,239343.0,293013.0,273472.0
2026-04-08 21:23:24.482840,13460,1609502576654447,176621128,-1.1224,0.076128,0.41968,21.58625,-4.08625,15.02375,22.672,-20.448002,9.088,eccentric,0,3.0,20385.0,145649.0,239343.0,293013.0,273472.0
2026-04-08 21:23:24.511455,13471,1609502576668970,176636028,-1.081408,0.089792,0.325984,22.19,-4.83875,12.0925,21.944,-21.032001,8.992001,eccentric,0,3.0,20328.0,145286.0,238834.0,292688.0,273278.0
2026-04-08 21:23:24.515720,13472,1609502576677875,176644684,-1.081408,0.089792,0.325984,21.81375,-5.13625,8.1725,21.944,-21.032001,8.992001,eccentric,0,3.0,20328.0,145286.0,238834.0,292688.0,273278.0
2026-04-08 21:23:24.517398,13473,1609502576686864,176653517,-1.0736,0.11712,0.40992,22.82,-5.48625,4.3225,22.12,-21.2,8.664001,eccentric,0,3.0,20328.0,145286.0,238834.0,292688.0,273278.0
2026-04-08 21:23:24.518935,13474,1609502576701417,176668402,-1.0736,0.11712,0.40992,25.83,-5.7575,2.65125,22.12,-21.2,8.664001,eccentric,0,3.0,20328.0,145286.0,238834.0,292688.0,273278.0
2026-04-08 21:23:24.522165,13475,1609502576710335,176677142,-1.01504,0.060512,0.452864,27.15125,-7.39375,2.21375,21.560001,-21.056002,9.056001,eccentric,0,3.0,20328.0,145286.0,238834.0,292688.0,273278.0
2026-04-08 21:23:24.529591,13476,1609502576724781,176689984,-0.960384,0.046848,0.286944,23.87875,-7.2975,0.69125,21.368002,-21.352001,8.984,eccentric,0,3.0,20328.0,145286.0,238834.0,292688.0,273278.0
2026-04-08 21:23:24.557849,13477,1609502576734043,176700758,-0.960384,0.046848,0.286944,16.72125,-7.63,0.28875,21.368002,-21.352001,8.984,eccentric,0,3.0,20328.0,145286.0,238834.0,292688.0,273278.0
2026-04-08 21:23:24.562414,13478,1609502576748510,176715606,-0.962336,0.056608,0.197152,12.915,-8.53125,-2.16125,21.632002,-21.52,8.8,eccentric,0,3.0,20328.0,145286.0,238834.0,292688.0,273278.0
2026-04-08 21:23:24.629427,13489,1609502576757500,176724616,-0.962336,0.056608,0.197152,12.59125,-7.90125,-6.20375,21.632002,-21.52,8.8,eccentric,0,3.0,20532.0,146164.0,240081.0,293679.0,273894.0
2026-04-08 21:23:24.631185,13490,1609502576766588,176733394,-0.977952,0.091744,0.347456,12.92375,-8.98625,-6.57125,21.080002,-21.568,9.936001,eccentric,0,3.0,20532.0,146164.0,240081.0,293679.0,273894.0
2026-04-08 21:23:24.632689,13491,1609502576781148,176748288,-0.977952,0.091744,0.347456,15.8025,-9.730001,-5.41625,21.080002,-21.568,9.936001,eccentric,0,3.0,20532.0,146164.0,240081.0,293679.0,273894.0
2026-04-08 21:23:24.637180,13492,1609502576790077,176756932,-0.976,0.001952,0.339648,18.76,-8.67125,-7.4025,20.944,-21.648,8.52,eccentric,0,3.0,20532.0,146164.0,240081.0,293679.0,273894.0
2026-04-08 21:23:24.644412,13493,1609502576804533,176769829,-0.899872,0.033184,0.38064,19.0925,-6.46625,-9.98375,21.168001,-21.312,7.232,eccentric,0,3.0,20532.0,146164.0,240081.0,293679.0,273894.0
2026-04-08 21:23:24.646130,13494,1609502576813879,176780570,-0.899872,0.033184,0.38064,15.190001,-5.775,-11.50625,21.168001,-21.312,7.232,eccentric,0,3.0,20532.0,146164.0,240081.0,293679.0,273894.0
2026-04-08 21:23:24.647657,13495,1609502576822815,176789238,-0.899872,0.033184,0.38064,17.66625,-5.18875,-14.79625,21.168001,-21.312,7.232,eccentric,0,3.0,20532.0,146164.0,240081.0,293679.0,273894.0
2026-04-08 21:23:24.651891,13496,1609502576837294,176804175,-0.933056,0.10736,0.306464,25.55875,-1.575,-20.57125,20.752,-21.248001,7.544,eccentric,0,3.0,20532.0,146164.0,240081.0,293679.0,273894.0
2026-04-08 21:23:24.654393,13497,1609502576846280,176812856,-0.89792,0.111264,0.347456,29.303751,0.23625,-21.1925,21.000002,-21.432001,8.952001,eccentric,0,3.0,20532.0,146164.0,240081.0,293679.0,273894.0
2026-04-08 21:23:24.708990,13508,1609502576861373,176827801,-0.89792,0.111264,0.347456,28.49875,1.75875,-20.23875,21.000002,-21.432001,8.952001,eccentric,0,3.0,20639.0,146612.0,240789.0,294299.0,274236.0
2026-04-08 21:23:24.713180,13509,1609502576870321,176836507,-0.913536,0.06832,0.32208,20.65875,4.96125,-19.88875,21.160002,-21.184002,7.920001,eccentric,0,3.0,20639.0,146612.0,240789.0,294299.0,274236.0
2026-04-08 21:23:24.714910,13510,1609502576879233,176845149,-0.913536,0.06832,0.32208,10.5525,4.15625,-18.9175,21.160002,-21.184002,7.920001,eccentric,0,3.0,20639.0,146612.0,240789.0,294299.0,274236.0
2026-04-08 21:23:24.717328,13511,1609502576893700,176860063,-0.903776,0.099552,0.33184,10.19375,3.87625,-21.210001,21.176,-21.04,7.672,eccentric,0,3.0,20639.0,146612.0,240789.0,294299.0,274236.0
2026-04-08 21:23:24.718899,13512,1609502576902686,176868804,-0.903776,0.099552,0.33184,16.52,2.7825,-23.93125,21.176,-21.04,7.672,eccentric,0,3.0,20639.0,146612.0,240789.0,294299.0,274236.0
2026-04-08 21:23:24.723954,13513,1609502576917182,176883769,-1.00528,0.105408,0.306464,23.9575,2.96625,-25.06,21.096,-20.824001,7.224001,eccentric,0,3.0,20639.0,146612.0,240789.0,294299.0,274236.0
2026-04-08 21:23:24.732471,13514,1609502576926158,176892480,-0.925248,0.085888,0.300608,21.6125,3.33375,-23.616251,21.072,-20.872002,7.912,eccentric,0,3.0,20639.0,146612.0,240789.0,294299.0,274236.0
2026-04-08 21:23:24.760370,13515,1609502576940638,176907386,-0.925248,0.085888,0.300608,13.50125,6.1075,-25.03375,21.072,-20.872002,7.912,eccentric,0,3.0,20639.0,146612.0,240789.0,294299.0,274236.0
2026-04-08 21:23:24.764916,13516,1609502576949532,176916041,-0.933056,0.060512,0.345504,3.8675,8.198751,-28.7875,21.456001,-20.488,7.616,eccentric,0,3.0,20639.0,146612.0,240789.0,294299.0,274236.0
2026-04-08 21:23:24.793190,13527,1609502576958543,176924720,-0.933056,0.060512,0.345504,-1.79375,6.65,-26.8275,21.456001,-20.488,7.616,eccentric,0,3.0,20618.0,146580.0,240893.0,294509.0,274325.0
2026-04-08 21:23:24.794892,13528,1609502576973082,176939696,-0.890112,0.132736,0.329888,3.2025,2.49375,-24.3075,21.44,-20.04,7.12,eccentric,0,3.0,20618.0,146580.0,240893.0,294509.0,274325.0
2026-04-08 21:23:24.797218,13529,1609502576981998,176948384,-0.890112,0.132736,0.329888,16.3625,1.74125,-26.22375,21.44,-20.04,7.12,eccentric,0,3.0,20618.0,146580.0,240893.0,294509.0,274325.0
2026-04-08 21:23:24.804398,13530,1609502576996523,176963290,-0.911584,0.035136,0.277184,24.52625,2.0475,-29.942501,21.648,-20.088001,7.032001,eccentric,0,3.0,20618.0,146580.0,240893.0,294509.0,274325.0
2026-04-08 21:23:24.813094,13531,1609502577005447,176971995,-0.950624,0.001952,0.284992,20.44,2.31875,-31.0625,21.648,-19.576,7.912,eccentric,0,3.0,20618.0,146580.0,240893.0,294509.0,274325.0
2026-04-08 21:23:24.841608,13532,1609502577019959,176986886,-0.950624,0.001952,0.284992,10.6925,1.88125,-30.80875,21.456001,-19.576,7.912,eccentric,0,3.0,20618.0,146580.0,240893.0,294509.0,274325.0
2026-04-08 21:23:24.845811,13533,1609502577028869,176995558,-0.874496,0.173728,0.335744,6.93875,0.67375,-30.205,22.224,-19.6,6.544,eccentric,0,3.0,20618.0,146580.0,240893.0,294509.0,274325.0
2026-04-08 21:23:24.848469,13534,1609502577037780,177004208,-0.874496,0.173728,0.335744,12.43375,0.385,-31.36875,22.224,-19.6,6.544,eccentric,0,3.0,20618.0,146580.0,240893.0,294509.0,274325.0
2026-04-08 21:23:24.916345,13535,1609502577052289,177019091,-0.931104,0.138592,0.259616,20.95625,2.72125,-33.355,21.792002,-19.616001,5.76,eccentric,0,3.0,20618.0,146580.0,240893.0,294509.0,274325.0
2026-04-08 21:23:24.944080,13546,1609502577061762,177028280,-0.931104,0.138592,0.259616,19.2675,3.68375,-31.21125,21.792002,-19.616001,5.76,eccentric,0,3.0,20588.0,146504.0,240927.0,294598.0,274368.0
2026-04-08 21:23:24.948207,13547,1609502577076479,177043234,-0.979904,-0.021472,0.247904,11.97875,3.29875,-27.29125,22.792002,-19.448002,6.744,eccentric,0,3.0,20588.0,146504.0,240927.0,294598.0,274368.0
2026-04-08 21:23:24.949959,13548,1609502577091917,177058360,-0.962336,0.03904,0.32208,1.015,2.28375,-26.57375,22.76,-19.424002,6.864,eccentric,0,3.0,20588.0,146504.0,240927.0,294598.0,274368.0
2026-04-08 21:23:24.951461,13549,1609502577095648,177060831,-0.962336,0.03904,0.32208,-8.225,3.03625,-29.6625,22.76,-19.424002,6.864,eccentric,0,3.0,20588.0,146504.0,240927.0,294598.0,274368.0
2026-04-08 21:23:24.955700,13550,1609502577110400,177075707,-0.940864,0.144448,0.325984,-8.72375,4.55,-33.87125,23.160002,-18.872002,6.64,eccentric,0,3.0,20588.0,146504.0,240927.0,294598.0,274368.0
2026-04-08 21:23:24.957376,13551,1609502577119694,177086485,-0.940864,0.144448,0.325984,-3.03625,5.8625,-34.763752,23.160002,-18.872002,6.64,eccentric,0,3.0,20588.0,146504.0,240927.0,294598.0,274368.0
2026-04-08 21:23:24.959113,13552,1609502577128708,177095181,-0.96624,0.105408,0.38064,4.795,5.3375,-33.145,22.84,-18.608002,7.36,eccentric,0,3.0,20588.0,146504.0,240927.0,294598.0,274368.0
2026-04-08 21:23:24.961378,13553,1609502577143206,177110125,-0.96624,0.105408,0.38064,8.0675,4.62875,-31.68375,22.84,-18.608002,7.36,eccentric,0,3.0,20588.0,146504.0,240927.0,294598.0,274368.0
2026-04-08 21:23:24.963902,13554,1609502577152193,177118845,-0.94672,-0.001952,0.378688,2.7475,3.66625,-31.605,22.848001,-18.336,7.384,eccentric,0,3.0,20588.0,146504.0,240927.0,294598.0,274368.0
2026-04-08 21:23:24.991423,13565,1609502577166906,177133808,-0.958432,0.0488,0.269376,-8.7325,3.1675,-34.195,22.992,-17.736,8.776,eccentric,0,3.0,20500.0,146106.0,240443.0,294303.0,274191.0
2026-04-08 21:23:24.993926,13566,1609502577175984,177142583,-0.958432,0.0488,0.269376,-16.905,3.38625,-37.1525,22.992,-17.736,8.776,eccentric,0,3.0,20500.0,146106.0,240443.0,294303.0,274191.0
2026-04-08 21:23:24.996388,13567,1609502577184952,177151298,-0.958432,0.0488,0.269376,-15.86375,5.31125,-38.75375,22.992,-17.736,8.776,eccentric,0,3.0,20500.0,146106.0,240443.0,294303.0,274191.0
2026-04-08 21:23:25.003958,13568,1609502577199476,177166196,-0.962336,0.119072,0.388448,-16.0125,3.70125,-35.665,23.912,-17.472,8.808001,eccentric,0,3.0,20500.0,146106.0,240443.0,294303.0,274191.0
2026-04-08 21:23:25.034130,13569,1609502577208433,177174867,-0.95648,0.001952,0.310368,-15.155,4.08625,-35.56,23.216002,-17.128,7.808001,eccentric,0,3.0,20500.0,146106.0,240443.0,294303.0,274191.0
2026-04-08 21:23:25.037708,13570,1609502577222900,177189715,-0.95648,0.001952,0.310368,-16.02125,3.7625,-37.89625,23.216002,-17.128,7.808001,eccentric,0,3.0,20500.0,146106.0,240443.0,294303.0,274191.0
2026-04-08 21:23:25.040194,13571,1609502577231797,177198366,-0.977952,-0.05856,0.318176,-17.465,5.355,-41.11625,24.536001,-16.976002,6.920001,eccentric,0,3.0,20500.0,146106.0,240443.0,294303.0,274191.0
2026-04-08 21:23:25.070377,13572,1609502577246296,177213276,-0.977952,0.050752,0.36112,-19.145,6.965,-44.00375,24.536001,-16.976002,6.920001,eccentric,0,3.0,20500.0,146106.0,240443.0,294303.0,274191.0
2026-04-08 21:23:25.073873,13573,1609502577255200,177221930,-0.93696,0.05856,0.36112,-19.25875,9.94,-44.59,24.384,-16.448,5.272,eccentric,0,3.0,20500.0,146106.0,240443.0,294303.0,274191.0
2026-04-08 21:23:25.103878,13585,1609502577264270,177230600,-0.93696,0.05856,0.36112,-16.66875,10.22,-42.55125,24.384,-16.448,5.272,eccentric,0,3.0,20601.0,146369.0,240768.0,294559.0,274310.0
2026-04-08 21:23:25.106392,13586,1609502577278823,177245527,-0.976,0.0,0.3904,-13.011251,7.07,-40.99375,24.752,-16.16,6.592001,eccentric,0,3.0,20601.0,146369.0,240768.0,294559.0,274310.0
2026-04-08 21:23:25.108872,13587,1609502577287799,177254264,-0.944768,-0.119072,0.27328,-11.50625,3.24625,-42.6125,24.496,-15.56,6.408001,eccentric,0,3.0,20601.0,146369.0,240768.0,294559.0,274310.0
2026-04-08 21:23:25.111363,13588,1609502577302346,177269156,-0.944768,-0.119072,0.27328,-6.69375,3.29875,-47.670002,24.496,-15.56,6.408001,eccentric,0,3.0,20601.0,146369.0,240768.0,294559.0,274310.0
2026-04-08 21:23:25.117654,13589,1609502577311260,177277813,-0.958432,-0.044896,0.212768,-6.22125,5.1625,-50.435,24.968,-15.224001,7.56,eccentric,0,3.0,20601.0,146369.0,240768.0,294559.0,274310.0
2026-04-08 21:23:25.161669,13590,1609502577325739,177292799,-0.958432,-0.044896,0.212768,-10.6225,9.38,-48.2125,24.968,-15.224001,7.56,eccentric,0,3.0,20601.0,146369.0,240768.0,294559.0,274310.0
2026-04-08 21:23:25.165152,13591,1609502577334630,177301459,-0.91744,0.017568,0.269376,-18.8825,11.27,-43.00625,25.664001,-14.728001,6.736001,eccentric,0,3.0,20601.0,146369.0,240768.0,294559.0,274310.0
2026-04-08 21:23:25.169084,13592,1609502577343528,177310147,-0.91744,0.017568,0.269376,-25.40125,10.823751,-39.725,25.664001,-14.728001,6.736001,eccentric,0,3.0,20601.0,146369.0,240768.0,294559.0,274310.0
2026-04-08 21:23:25.170246,13593,1609502577358025,177325059,-0.977952,-0.150304,0.454816,-27.32625,6.30875,-39.3925,25.672,-14.328001,6.864,eccentric,0,3.0,20601.0,146369.0,240768.0,294559.0,274310.0
2026-04-08 21:23:25.237771,13604,1609502577367089,177333812,-0.977952,-0.134688,0.394304,-21.93625,1.56625,-41.3175,25.672,-14.328001,6.864,eccentric,0,3.0,20600.0,146468.0,240952.0,294659.0,274353.0
2026-04-08 21:23:25.241146,13605,1609502577381633,177348775,-0.899872,-0.132736,0.394304,-11.33125,3.4825,-46.52375,25.920002,-14.224001,7.552001,eccentric,0,3.0,20600.0,146468.0,240952.0,294659.0,274353.0
2026-04-08 21:23:25.242690,13606,1609502577390567,177357467,-0.913536,-0.074176,0.105408,-0.60375,11.042501,-48.23875,26.36,-13.736001,6.584,eccentric,0,3.0,20600.0,146468.0,240952.0,294659.0,274353.0
2026-04-08 21:23:25.246929,13607,1609502577405078,177370284,-0.913536,-0.074176,0.105408,-5.1275,15.6975,-41.4925,26.36,-13.736001,6.584,eccentric,0,3.0,20600.0,146468.0,240952.0,294659.0,274353.0
2026-04-08 21:23:25.258259,13608,1609502577414232,177380996,-0.991616,-0.128832,0.304512,-22.1725,13.65,-34.43125,26.584002,-13.024,7.016,eccentric,0,3.0,20600.0,146468.0,240952.0,294659.0,274353.0
2026-04-08 21:23:25.259927,13609,1609502577423138,177389654,-0.991616,-0.128832,0.304512,-29.18125,8.98625,-33.71375,26.584002,-13.024,7.016,eccentric,0,3.0,20600.0,146468.0,240952.0,294659.0,274353.0
2026-04-08 21:23:25.261468,13610,1609502577437630,177404554,-0.921344,-0.275232,0.244,-25.38375,4.165,-38.54375,26.096,-12.312,8.272,eccentric,0,3.0,20600.0,146468.0,240952.0,294659.0,274353.0
2026-04-08 21:23:25.265553,13611,1609502577446588,177413260,-0.921344,-0.275232,0.244,-11.64625,5.11,-45.92875,26.096,-12.312,8.272,eccentric,0,3.0,20600.0,146468.0,240952.0,294659.0,274353.0
2026-04-08 21:23:25.295325,13622,1609502577461366,177428541,-0.872544,-0.132736,0.294752,6.475,10.3775,-46.8125,26.464,-12.424001,8.232,eccentric,0,3.0,20511.0,146063.0,240455.0,294320.0,274153.0
2026-04-08 21:23:25.299407,13623,1609502577470361,177437248,-0.950624,-0.080032,0.173728,8.417501,13.8425,-40.81875,27.160002,-12.176001,6.784,eccentric,0,3.0,20511.0,146063.0,240455.0,294320.0,274153.0
2026-04-08 21:23:25.301178,13624,1609502577479328,177445924,-0.950624,-0.080032,0.173728,-7.525,14.105001,-33.73125,27.160002,-12.176001,6.784,eccentric,0,3.0,20511.0,146063.0,240455.0,294320.0,274153.0
2026-04-08 21:23:25.303637,13625,1609502577493867,177460818,-0.940864,-0.26352,0.251808,-25.3225,10.0625,-29.81125,26.976002,-11.960001,7.136,eccentric,0,3.0,20511.0,146063.0,240455.0,294320.0,274153.0
2026-04-08 21:23:25.309321,13626,1609502577502840,177469525,-0.940864,-0.26352,0.251808,-28.34125,7.06125,-31.9725,26.976002,-11.960001,7.136,eccentric,0,3.0,20511.0,146063.0,240455.0,294320.0,274153.0
2026-04-08 21:23:25.337842,13627,1609502577517312,177484424,-0.91744,-0.257664,0.271328,-11.89125,8.5575,-37.77375,27.576002,-11.552001,7.264,eccentric,0,3.0,20511.0,146063.0,240455.0,294320.0,274153.0
2026-04-08 21:23:25.343072,13628,1609502577526235,177493088,-0.91744,-0.257664,0.271328,6.1425,12.3375,-38.6225,27.576002,-11.552001,7.264,eccentric,0,3.0,20511.0,146063.0,240455.0,294320.0,274153.0
2026-04-08 21:23:25.346770,13629,1609502577540717,177505887,-0.913536,-0.093696,0.220576,14.5775,14.56875,-33.53875,27.744001,-11.504001,6.32,eccentric,0,3.0,20511.0,146063.0,240455.0,294320.0,274153.0
2026-04-08 21:23:25.377685,13630,1609502577549878,177516709,-0.964288,-0.187392,0.177632,5.6875,12.74875,-26.1975,27.488,-11.080001,6.584,eccentric,0,3.0,20511.0,146063.0,240455.0,294320.0,274153.0
2026-04-08 21:23:25.379887,13631,1609502577558805,177525378,-0.964288,-0.187392,0.177632,-12.66125,7.28,-20.51,27.488,-11.080001,6.584,eccentric,0,3.0,20511.0,146063.0,240455.0,294320.0,274153.0
2026-04-08 21:23:25.407988,13642,1609502577573339,177540296,-0.901824,-0.30256,0.304512,-20.93,3.325,-16.79125,27.952002,-11.480001,6.408001,eccentric,0,3.0,20538.0,146298.0,240747.0,294522.0,274265.0
2026-04-08 21:23:25.415780,13643,1609502577582258,177548957,-0.901824,-0.30256,0.304512,-12.1275,4.50625,-16.4325,27.952002,-11.480001,6.408001,eccentric,0,3.0,20538.0,146298.0,240747.0,294522.0,274265.0
2026-04-08 21:23:25.417423,13644,1609502577596751,177563818,-0.925248,-0.181536,0.255712,4.85625,6.22125,-13.5975,28.056002,-11.176001,6.384,eccentric,0,3.0,20538.0,146298.0,240747.0,294522.0,274265.0
2026-04-08 21:23:25.418965,13645,1609502577605705,177572507,-0.925248,-0.181536,0.255712,15.3475,6.9475,-8.44375,28.056002,-11.176001,6.384,eccentric,0,3.0,20538.0,146298.0,240747.0,294522.0,274265.0
2026-04-08 21:23:25.425605,13646,1609502577620206,177585366,-0.981856,-0.181536,0.21472,12.136251,5.17125,-4.2,27.744001,-11.112,6.272,eccentric,0,3.0,20538.0,146298.0,240747.0,294522.0,274265.0
2026-04-08 21:23:25.454075,13647,1609502577629482,177596102,-0.976,-0.286944,0.249856,1.58375,3.17625,-3.5525,28.192001,-11.088,9.216001,eccentric,0,3.0,20538.0,146298.0,240747.0,294522.0,274265.0
2026-04-08 21:23:25.458634,13648,1609502577638405,177604772,-0.976,-0.286944,0.249856,-6.125,1.26,-4.13875,28.192001,-11.088,9.216001,eccentric,0,3.0,20538.0,146298.0,240747.0,294522.0,274265.0
2026-04-08 21:23:25.460196,13649,1609502577652909,177619650,-0.987712,-0.228384,0.244,-5.4775,1.61,-3.7275,27.992,-11.144,6.232,eccentric,0,3.0,20538.0,146298.0,240747.0,294522.0,274265.0
2026-04-08 21:23:25.530359,13660,1609502577661823,177628376,-0.987712,-0.228384,0.244,-1.155,3.71875,-2.79125,27.992,-11.144,6.232,eccentric,0,3.0,20586.0,146449.0,241002.0,294748.0,274401.0
2026-04-08 21:23:25.532388,13661,1609502577676740,177643369,-0.991616,-0.210816,0.290848,3.64875,3.9025,0.04375,27.792002,-11.328,6.904,eccentric,0,3.0,20586.0,146449.0,241002.0,294748.0,274401.0
2026-04-08 21:23:25.534930,13662,1609502577685682,177652113,-0.991616,-0.210816,0.290848,6.72,1.6625,1.30375,27.792002,-11.328,6.904,eccentric,0,3.0,20586.0,146449.0,241002.0,294748.0,274401.0
2026-04-08 21:23:25.536441,13663,1609502577694596,177660772,-0.935008,-0.208864,0.36112,8.14625,0.35875,-0.6475,28.088001,-11.296001,6.112001,eccentric,0,3.0,20586.0,146449.0,241002.0,294748.0,274401.0
2026-04-08 21:23:25.540694,13664,1609502577709049,177675617,-0.935008,-0.249856,0.298656,8.12875,-0.49875,2.765,28.088001,-11.296001,6.112001,eccentric,0,3.0,20586.0,146449.0,241002.0,294748.0,274401.0
2026-04-08 21:23:25.544263,13665,1609502577717974,177684293,-0.952576,-0.249856,0.298656,4.6025,0.04375,6.67625,28.128002,-11.68,5.624,eccentric,0,3.0,20586.0,146449.0,241002.0,294748.0,274401.0
2026-04-08 21:23:25.544616,13666,1609502577732467,177699264,-1.007232,-0.277184,0.218624,-0.8225,0.1225,9.03875,27.776001,-11.248,6.856,eccentric,0,3.0,20586.0,146449.0,241002.0,294748.0,274401.0
2026-04-08 21:23:25.548063,13667,1609502577741383,177707981,-1.007232,-0.277184,0.218624,-2.86125,0.48125,10.01875,27.776001,-11.248,6.856,eccentric,0,3.0,20586.0,146449.0,241002.0,294748.0,274401.0
2026-04-08 21:23:25.576629,13668,1609502577755877,177722904,-0.96624,-0.269376,0.259616,-1.2425,0.58625,8.58375,27.456001,-11.592001,6.136,eccentric,0,3.0,20586.0,146449.0,241002.0,294748.0,274401.0
2026-04-08 21:23:25.606098,13679,1609502577764891,177731582,-0.96624,-0.269376,0.259616,2.42375,1.05,7.0175,27.456001,-11.592001,6.136,eccentric,0,3.0,20642.0,146675.0,241273.0,294959.0,274501.0
2026-04-08 21:23:25.608578,13680,1609502577773889,177740327,-0.999424,-0.238144,0.222528,2.6775,1.11125,8.04125,27.872002,-11.704,6.152,eccentric,0,3.0,20642.0,146675.0,241273.0,294959.0,274501.0
2026-04-08 21:23:25.610148,13681,1609502577788379,177755224,-0.999424,-0.238144,0.222528,0.805,0.2975,9.49375,27.872002,-11.704,6.152,eccentric,0,3.0,20642.0,146675.0,241273.0,294959.0,274501.0
2026-04-08 21:23:25.614283,13682,1609502577797326,177763916,-0.977952,-0.245952,0.216672,0.65625,-1.14625,11.48875,27.504002,-12.128,7.208,eccentric,0,3.0,20642.0,146675.0,241273.0,294959.0,274501.0
2026-04-08 21:23:25.619304,13683,1609502577811824,177778802,-0.944768,-0.244,0.26352,2.1875,-1.925,12.53875,27.680002,-12.352,7.088,eccentric,0,3.0,20642.0,146675.0,241273.0,294959.0,274501.0
2026-04-08 21:23:25.648981,13684,1609502577820743,177787526,-0.944768,-0.244,0.26352,2.8875,-1.015,12.99375,27.680002,-12.352,7.088,eccentric,0,3.0,20642.0,146675.0,241273.0,294959.0,274501.0
2026-04-08 21:23:25.651044,13685,1609502577835240,177800398,-0.964288,-0.247904,0.30256,0.97125,-0.1225,13.9475,27.992,-12.376,5.92,eccentric,0,3.0,20642.0,146675.0,241273.0,294959.0,274501.0
2026-04-08 21:23:25.655562,13686,1609502577844372,177811131,-0.964288,-0.247904,0.30256,-1.8725,0.4025,15.3825,27.992,-12.376,5.92,concentric,0,3.0,20642.0,146675.0,241273.0,294959.0,274501.0
2026-04-08 21:23:25.660993,13687,1609502577853308,177819792,-0.96624,-0.232288,0.308416,-2.45875,-0.0525,16.3625,27.632002,-12.584001,5.928001,concentric,0,3.0,20642.0,146675.0,241273.0,294959.0,274501.0
2026-04-08 21:23:25.719930,13698,1609502577867930,177834858,-0.96624,-0.232288,0.308416,1.89875,-0.62125,17.24625,27.632002,-12.584001,5.928001,concentric,0,3.0,20737.0,147085.0,241832.0,295364.0,274751.0
2026-04-08 21:23:25.721567,13699,1609502577876963,177843621,-0.981856,-0.197152,0.220576,8.51375,0.21,17.59625,27.840002,-12.736001,6.176,concentric,0,3.0,20737.0,147085.0,241832.0,295364.0,274751.0
2026-04-08 21:23:25.725698,13700,1609502577891447,177858480,-0.954528,-0.20496,0.238144,11.34875,0.7875,18.89125,27.624,-12.896001,4.776,concentric,0,3.0,20737.0,147085.0,241832.0,295364.0,274751.0
2026-04-08 21:23:25.727966,13701,1609502577900396,177867159,-0.954528,-0.20496,0.238144,7.49,0.63875,20.125,27.624,-12.896001,4.776,concentric,0,3.0,20737.0,147085.0,241832.0,295364.0,274751.0
2026-04-08 21:23:25.729130,13702,1609502577909350,177875873,-0.954528,-0.20496,0.238144,1.715,1.09375,21.35,27.624,-12.896001,4.776,concentric,0,3.0,20737.0,147085.0,241832.0,295364.0,274751.0
2026-04-08 21:23:25.733053,13703,1609502577923869,177890752,-0.981856,-0.199104,0.27328,-1.32125,1.86375,22.32125,27.432001,-13.208,6.552001,concentric,0,3.0,20737.0,147085.0,241832.0,295364.0,274751.0
2026-04-08 21:23:25.739694,13704,1609502577932783,177899429,-0.952576,-0.220576,0.288896,-0.7175,2.02125,22.855,27.032001,-13.400001,6.704001,concentric,0,3.0,20737.0,147085.0,241832.0,295364.0,274751.0
2026-04-08 21:23:25.772543,13705,1609502577947278,177914346,-0.952576,-0.220576,0.288896,2.77375,0.7175,23.16125,27.032001,-13.400001,6.704001,concentric,0,3.0,20737.0,147085.0,241832.0,295364.0,274751.0
2026-04-08 21:23:25.774852,13706,1609502577956182,177922996,-0.999424,-0.13664,0.284992,8.68875,-0.91875,23.45,27.168001,-13.68,6.056,concentric,0,3.0,20737.0,147085.0,241832.0,295364.0,274751.0
2026-04-08 21:23:25.839542,13717,1609502577970744,177937912,-0.999424,-0.1464,0.230336,14.875,-1.23375,23.07375,27.168001,-13.68,8.104,concentric,0,3.0,20756.0,147232.0,242068.0,295568.0,274863.0
2026-04-08 21:23:25.841238,13718,1609502577979723,177946680,-0.968192,-0.1464,0.230336,15.2775,-1.14625,24.28125,26.808,-14.032001,7.528,concentric,0,3.0,20756.0,147232.0,242068.0,295568.0,274863.0
2026-04-08 21:23:25.842827,13719,1609502577988654,177955378,-0.968192,-0.1464,0.230336,9.7475,-1.12,27.2825,26.808,-14.032001,7.528,concentric,0,3.0,20756.0,147232.0,242068.0,295568.0,274863.0
2026-04-08 21:23:25.846958,13720,1609502578003159,177970268,-0.99552,-0.1464,0.22448,4.40125,-1.40875,29.98625,26.808,-14.408001,5.704001,concentric,0,3.0,20756.0,147232.0,242068.0,295568.0,274863.0
2026-04-08 21:23:25.848624,13721,1609502578012126,177978934,-0.950624,-0.163968,0.255712,2.35375,-1.4875,32.08625,26.584002,-14.64,5.528,concentric,0,3.0,20756.0,147232.0,242068.0,295568.0,274863.0
2026-04-08 21:23:25.850318,13722,1609502578026653,177991801,-0.950624,-0.163968,0.255712,3.325,-1.0325,32.69875,26.584002,-14.64,5.528,concentric,0,3.0,20756.0,147232.0,242068.0,295568.0,274863.0
2026-04-08 21:23:25.853583,13723,1609502578035915,178002600,-0.974048,-0.13664,0.210816,5.775,0.7525,31.325,26.528002,-15.056001,6.032,concentric,0,3.0,20756.0,147232.0,242068.0,295568.0,274863.0
2026-04-08 21:23:25.855190,13724,1609502578050481,178017495,-0.974048,-0.13664,0.210816,8.5575,2.96625,30.77375,26.528002,-15.056001,6.032,concentric,0,3.0,20756.0,147232.0,242068.0,295568.0,274863.0
2026-04-08 21:23:25.886254,13725,1609502578059408,178026159,-0.970144,-0.109312,0.242048,9.49375,3.7975,31.24625,26.312002,-15.000001,7.296001,concentric,0,3.0,20756.0,147232.0,242068.0,295568.0,274863.0
2026-04-08 21:23:25.914926,13736,1609502578068491,178034942,-0.970144,-0.109312,0.242048,8.7675,3.42125,32.6025,26.312002,-15.000001,7.296001,concentric,0,3.0,20860.0,147638.0,242633.0,295979.0,275089.0
2026-04-08 21:23:25.916661,13737,1609502578083017,178049820,-0.933056,-0.091744,0.261568,7.035,2.70375,34.965,25.912,-15.416,5.928001,concentric,0,3.0,20860.0,147638.0,242633.0,295979.0,275089.0
2026-04-08 21:23:25.920768,13738,1609502578091958,178058627,-0.874496,-0.103456,0.206912,7.665,1.9075,37.66875,25.384,-16.048,5.848,concentric,0,3.0,20860.0,147638.0,242633.0,295979.0,275089.0
2026-04-08 21:23:25.922372,13739,1609502578106479,178073568,-0.874496,-0.103456,0.206912,10.66625,1.1375,39.83875,25.384,-16.048,5.848,concentric,0,3.0,20860.0,147638.0,242633.0,295979.0,275089.0
2026-04-08 21:23:25.923953,13740,1609502578115451,178082230,-0.8784,-0.072224,0.203008,13.78125,0.90125,41.08125,24.944,-16.576,6.04,concentric,0,3.0,20860.0,147638.0,242633.0,295979.0,275089.0
2026-04-08 21:23:25.931785,13741,1609502578124423,178090901,-0.8784,-0.072224,0.203008,15.26875,1.33875,41.7725,24.944,-16.576,6.04,concentric,0,3.0,20860.0,147638.0,242633.0,295979.0,275089.0
2026-04-08 21:23:25.960429,13742,1609502578138902,178105801,-0.874496,-0.074176,0.193248,14.55125,3.42125,40.670002,25.608002,-17.368,5.136,concentric,0,3.0,20860.0,147638.0,242633.0,295979.0,275089.0
2026-04-08 21:23:25.964976,13743,1609502578147814,178114469,-0.874496,-0.074176,0.193248,9.87,5.53,40.32875,25.608002,-17.368,5.136,concentric,0,3.0,20860.0,147638.0,242633.0,295979.0,275089.0
2026-04-08 21:23:25.973084,13744,1609502578162282,178129361,-0.895968,-0.011712,0.187392,5.1975,8.3825,42.48125,25.088001,-17.488,5.144,concentric,0,3.0,20860.0,147638.0,242633.0,295979.0,275089.0
2026-04-08 21:23:25.998942,13755,1609502578171282,178138095,-0.895968,-0.011712,0.187392,3.29,9.073751,46.138752,25.088001,-17.488,5.144,concentric,0,3.0,21050.0,148503.0,243706.0,296743.0,275554.0
2026-04-08 21:23:26.001394,13756,1609502578185817,178150993,-0.91744,0.00976,0.288896,3.57,6.74625,50.04125,24.984001,-17.896,5.744,concentric,0,3.0,21050.0,148503.0,243706.0,296743.0,275554.0
2026-04-08 21:23:26.003958,13757,1609502578195189,178161757,-0.950624,0.040992,0.236192,7.46375,3.5875,52.15875,24.384,-18.312,4.896,concentric,0,3.0,21050.0,148503.0,243706.0,296743.0,275554.0
2026-04-08 21:23:26.008898,13758,1609502578204147,178170442,-0.950624,0.040992,0.236192,13.29125,1.47,51.23125,24.384,-18.312,4.896,concentric,0,3.0,21050.0,148503.0,243706.0,296743.0,275554.0
2026-04-08 21:23:26.039100,13759,1609502578218714,178185355,-0.970144,-0.011712,0.228384,18.165,1.68,47.9325,24.184002,-18.848001,5.16,concentric,0,3.0,21050.0,148503.0,243706.0,296743.0,275554.0
2026-04-08 21:23:26.042672,13760,1609502578227656,178194013,-0.970144,-0.011712,0.228384,17.4125,2.58125,44.58125,24.184002,-18.848001,5.16,concentric,0,3.0,21050.0,148503.0,243706.0,296743.0,275554.0
2026-04-08 21:23:26.048145,13761,1609502578242125,178208866,-1.009184,0.046848,0.244,9.135,1.70625,44.4325,24.04,-19.352001,5.272,concentric,0,3.0,21050.0,148503.0,243706.0,296743.0,275554.0
2026-04-08 21:23:26.077879,13762,1609502578251076,178217577,-1.009184,0.046848,0.244,4.5675,0.11375,44.51125,24.04,-19.352001,5.272,concentric,0,3.0,21050.0,148503.0,243706.0,296743.0,275554.0
2026-04-08 21:23:26.141035,13773,1609502578265678,178232819,-0.96624,0.095648,0.220576,5.6,-0.21,43.365,24.2,-19.52,5.176,concentric,0,3.0,21103.0,148751.0,244020.0,296974.0,275707.0
2026-04-08 21:23:26.143906,13774,1609502578274628,178241516,-0.98576,0.08784,0.199104,5.69625,-0.945,43.61,23.640001,-20.224,4.912,concentric,0,3.0,21103.0,148751.0,244020.0,296974.0,275707.0
2026-04-08 21:23:26.146397,13775,1609502578283582,178250213,-0.98576,0.08784,0.199104,3.99,-2.52875,46.3925,23.640001,-20.224,4.912,concentric,0,3.0,21103.0,148751.0,244020.0,296974.0,275707.0
2026-04-08 21:23:26.148941,13776,1609502578298074,178265058,-1.04432,0.0488,0.20496,2.44125,-0.98,44.98375,23.696001,-20.312,4.816001,concentric,0,3.0,21103.0,148751.0,244020.0,296974.0,275707.0
2026-04-08 21:23:26.151399,13777,1609502578306980,178273749,-1.04432,0.0488,0.20496,1.82875,1.21625,41.50125,23.696001,-20.312,4.816001,concentric,0,3.0,21103.0,148751.0,244020.0,296974.0,275707.0
2026-04-08 21:23:26.153928,13778,1609502578321568,178288643,-1.061888,0.101504,0.247904,-0.81375,4.13875,38.36875,22.84,-20.776001,4.688,concentric,0,3.0,21103.0,148751.0,244020.0,296974.0,275707.0
2026-04-08 21:23:26.156456,13779,1609502578330506,178297387,-1.061888,0.101504,0.247904,-3.87625,4.55,36.81125,22.84,-20.776001,4.688,concentric,0,3.0,21103.0,148751.0,244020.0,296974.0,275707.0
2026-04-08 21:23:26.159135,13780,1609502578339525,178306069,-1.020896,0.128832,0.259616,-3.3425,2.765,37.91375,23.216002,-20.864,4.872,concentric,0,3.0,21103.0,148751.0,244020.0,296974.0,275707.0
2026-04-08 21:23:26.161402,13781,1609502578354081,178320932,-0.968192,0.11712,0.25376,0.41125,0.21875,39.3225,22.416,-21.296001,2.4,concentric,0,3.0,21103.0,148751.0,244020.0,296974.0,275707.0
2026-04-08 21:23:26.167652,13782,1609502578363000,178329640,-0.968192,0.11712,0.25376,4.97,-1.28625,38.9725,22.416,-21.296001,2.4,concentric,0,3.0,21103.0,148751.0,244020.0,296974.0,275707.0
2026-04-08 21:23:26.195218,13793,1609502578377568,178344549,-0.929152,0.105408,0.23424,6.2125,-3.08875,38.68375,22.072,-21.568,5.504,concentric,0,3.0,21184.0,149149.0,244456.0,297231.0,275882.0
2026-04-08 21:23:26.197676,13794,1609502578386515,178353210,-0.929152,0.105408,0.23424,4.82125,-5.2675,39.06,22.072,-21.568,5.504,concentric,0,3.0,21184.0,149149.0,244456.0,297231.0,275882.0
2026-04-08 21:23:26.228824,13795,1609502578400998,178368118,-0.964288,0.05856,0.152256,2.9925,-5.565,37.345,22.008001,-22.36,5.480001,concentric,0,3.0,21184.0,149149.0,244456.0,297231.0,275882.0
2026-04-08 21:23:26.233238,13796,1609502578409900,178376789,-0.964288,0.05856,0.152256,-1.65375,-7.41125,37.170002,22.008001,-22.36,5.480001,concentric,0,3.0,21184.0,149149.0,244456.0,297231.0,275882.0
2026-04-08 21:23:26.234841,13797,1609502578418808,178385450,-0.89792,0.1464,0.304512,-2.58125,-8.18125,36.16375,22.344002,-22.392,4.864,concentric,0,3.0,21184.0,149149.0,244456.0,297231.0,275882.0
2026-04-08 21:23:26.241788,13798,1609502578433296,178400306,-0.89792,0.13664,0.226432,2.9925,-8.96,33.1275,22.344002,-22.392,4.864,concentric,0,3.0,21184.0,149149.0,244456.0,297231.0,275882.0
2026-04-08 21:23:26.255634,13799,1609502578442309,178409009,-0.85888,0.13664,0.226432,10.87625,-10.05375,31.8325,21.056002,-23.008001,7.208,concentric,0,3.0,21184.0,149149.0,244456.0,297231.0,275882.0
2026-04-08 21:23:26.284200,13800,1609502578456833,178423858,-0.940864,0.105408,0.173728,15.4875,-10.2725,32.9175,21.464,-23.536001,4.592,concentric,0,3.0,21184.0,149149.0,244456.0,297231.0,275882.0
2026-04-08 21:23:26.319491,13811,1609502578465823,178432571,-0.940864,0.105408,0.173728,14.0525,-10.64875,34.107502,21.464,-23.536001,4.592,concentric,0,3.0,21266.0,149627.0,245078.0,297622.0,276078.0
2026-04-08 21:23:26.321214,13812,1609502578475197,178441249,-0.993568,0.121024,0.122976,11.3925,-9.5725,32.0075,20.960001,-23.704,2.76,concentric,0,3.0,21266.0,149627.0,245078.0,297622.0,276078.0
2026-04-08 21:23:26.322789,13813,1609502578489719,178456308,-0.993568,0.121024,0.122976,8.75875,-6.88625,26.2325,20.960001,-23.704,2.76,concentric,0,3.0,21266.0,149627.0,245078.0,297622.0,276078.0
2026-04-08 21:23:26.326952,13814,1609502578498710,178465024,-0.894016,0.17568,0.308416,7.07875,-4.73375,20.27375,20.968,-24.336,4.64,concentric,0,3.0,21266.0,149627.0,245078.0,297622.0,276078.0
2026-04-08 21:23:26.328680,13815,1609502578513191,178479903,-0.894016,0.17568,0.308416,5.99375,-3.64875,16.0475,20.968,-24.336,4.64,concentric,0,3.0,21266.0,149627.0,245078.0,297622.0,276078.0
2026-04-08 21:23:26.330145,13816,1609502578522130,178488655,-0.925248,0.206912,0.222528,7.53375,-2.135,15.18125,21.104,-24.080002,5.224001,concentric,0,3.0,21266.0,149627.0,245078.0,297622.0,276078.0
2026-04-08 21:23:26.360389,13817,1609502578536643,178503489,-0.95648,0.20496,0.265472,6.97375,-0.6475,16.38875,20.720001,-24.512001,4.52,concentric,0,3.0,21266.0,149627.0,245078.0,297622.0,276078.0
2026-04-08 21:23:26.363967,13818,1609502578545544,178512145,-0.95648,0.20496,0.265472,4.1475,1.14625,18.55875,20.720001,-24.512001,4.52,concentric,0,3.0,21266.0,149627.0,245078.0,297622.0,276078.0
2026-04-08 21:23:26.366414,13819,1609502578554487,178520829,-1.052128,0.21472,0.15616,0.595,2.40625,19.76625,20.720001,-24.560001,1.176,concentric,0,3.0,21266.0,149627.0,245078.0,297622.0,276078.0
2026-04-08 21:23:26.461395,13830,1609502578569327,178535726,-1.052128,0.21472,0.15616,-4.66375,5.06625,18.8125,21.104,-24.560001,1.176,concentric,0,3.0,21321.0,149929.0,245475.0,297860.0,276237.0
2026-04-08 21:23:26.463935,13831,1609502578578404,178544494,-1.069696,0.23424,0.216672,-10.535,5.775,15.79375,20.928001,-25.016,4.952,concentric,0,3.0,21321.0,149929.0,245475.0,297860.0,276237.0
2026-04-08 21:23:26.466485,13832,1609502578592860,178559418,-1.069696,0.23424,0.216672,-9.82625,6.1775,10.185,20.928001,-25.016,4.952,concentric,0,3.0,21321.0,149929.0,245475.0,297860.0,276237.0
2026-04-08 21:23:26.468868,13833,1609502578601766,178568070,-1.118496,0.265472,0.271328,-7.4375,6.18625,7.3325,20.536001,-24.816002,2.16,concentric,0,3.0,21321.0,149929.0,245475.0,297860.0,276237.0
2026-04-08 21:23:26.471441,13834,1609502578616286,178582922,-1.110688,0.261568,0.21472,-1.61,4.2875,6.965,20.896002,-25.192001,3.848,concentric,0,3.0,21321.0,149929.0,245475.0,297860.0,276237.0
2026-04-08 21:23:26.473920,13835,1609502578625216,178591645,-1.110688,0.261568,0.21472,-1.02375,3.03625,4.3575,20.896002,-25.192001,3.848,concentric,0,3.0,21321.0,149929.0,245475.0,297860.0,276237.0
2026-04-08 21:23:26.476442,13836,1609502578634219,178600307,-1.110688,0.261568,0.232288,-5.46,1.05,5.0225,20.896002,-25.192001,3.848,concentric,0,3.0,21321.0,149929.0,245475.0,297860.0,276237.0
2026-04-08 21:23:26.478939,13837,1609502578648729,178615163,-1.085312,0.259616,0.232288,-11.7775,-2.52,8.3125,21.136002,-25.240002,2.384,concentric,0,3.0,21321.0,149929.0,245475.0,297860.0,276237.0
2026-04-08 21:23:26.481478,13838,1609502578657649,178623853,-1.16144,0.208864,0.111264,-15.82875,-5.53875,6.2475,21.328001,-25.240002,4.304,concentric,0,3.0,21321.0,149929.0,245475.0,297860.0,276237.0
2026-04-08 21:23:26.511457,13849,1609502578672306,178639175,-1.16144,0.208864,0.111264,-25.03375,-10.66625,4.83,21.328001,-25.240002,4.304,concentric,0,3.0,21440.0,150411.0,246001.0,298168.0,276426.0
2026-04-08 21:23:26.513917,13850,1609502578681430,178647931,-1.14192,0.265472,0.163968,-26.71375,-14.9275,4.165,21.264002,-25.248001,4.92,concentric,0,3.0,21440.0,150411.0,246001.0,298168.0,276426.0
2026-04-08 21:23:26.516386,13851,1609502578690361,178656707,-1.14192,0.265472,0.163968,-22.6625,-13.667501,2.24,21.264002,-25.248001,4.92,concentric,0,3.0,21440.0,150411.0,246001.0,298168.0,276426.0
2026-04-08 21:23:26.518907,13852,1609502578704860,178671596,-1.08336,0.245952,0.310368,-14.28875,-7.9975,1.75875,21.592001,-25.112001,4.816001,concentric,0,3.0,21440.0,150411.0,246001.0,298168.0,276426.0
2026-04-08 21:23:26.521444,13853,1609502578713881,178680297,-1.08336,0.245952,0.310368,-10.9375,-2.2925,0.56875,21.592001,-25.112001,4.816001,concentric,0,3.0,21440.0,150411.0,246001.0,298168.0,276426.0
2026-04-08 21:23:26.555087,13854,1609502578728385,178695149,-1.128256,0.288896,0.210816,-11.655,3.31625,-0.84875,21.472,-24.768002,3.448,concentric,0,3.0,21440.0,150411.0,246001.0,298168.0,276426.0
2026-04-08 21:23:26.557402,13855,1609502578737312,178703831,-1.108736,0.269376,0.275232,-14.84,6.405,-0.32375,21.464,-25.328001,4.688,concentric,0,3.0,21440.0,150411.0,246001.0,298168.0,276426.0
2026-04-08 21:23:26.562038,13856,1609502578751757,178718686,-1.108736,0.269376,0.275232,-19.565,7.23625,1.19,21.464,-25.328001,4.688,concentric,0,3.0,21440.0,150411.0,246001.0,298168.0,276426.0
2026-04-08 21:23:26.566488,13857,1609502578760694,178727365,-1.1224,0.244,0.327936,-19.50375,7.32375,2.975,21.912,-25.392002,4.776,concentric,0,3.0,21440.0,150411.0,246001.0,298168.0,276426.0
2026-04-08 21:23:26.601929,13868,1609502578770172,178736259,-1.1224,0.244,0.327936,-16.8,8.645,2.96625,21.912,-25.392002,4.776,concentric,0,3.0,21448.0,150359.0,245865.0,298074.0,276357.0
2026-04-08 21:23:26.608333,13869,1609502578784772,178751232,-1.138016,0.259616,0.306464,-13.4225,9.1875,2.61625,21.696001,-25.232,5.368,concentric,0,3.0,21448.0,150359.0,245865.0,298074.0,276357.0
2026-04-08 21:23:26.610077,13870,1609502578793725,178759909,-1.138016,0.259616,0.306464,-8.2075,9.292501,1.8725,21.696001,-25.232,5.368,concentric,0,3.0,21448.0,150359.0,245865.0,298074.0,276357.0
2026-04-08 21:23:26.615650,13871,1609502578808266,178774824,-1.173152,0.261568,0.242048,-5.4075,10.0625,-0.27125,21.792002,-25.248001,5.344,concentric,0,3.0,21448.0,150359.0,245865.0,298074.0,276357.0
2026-04-08 21:23:26.644190,13872,1609502578817196,178783533,-1.155584,0.271328,0.236192,-6.55375,8.95125,-0.2975,21.808,-25.368002,5.504,concentric,0,3.0,21448.0,150359.0,245865.0,298074.0,276357.0
2026-04-08 21:23:26.648651,13873,1609502578826159,178792202,-1.155584,0.271328,0.236192,-7.14,5.1975,-0.97125,21.808,-25.368002,5.504,concentric,0,3.0,21448.0,150359.0,245865.0,298074.0,276357.0
2026-04-08 21:23:26.650271,13874,1609502578840620,178807070,-1.085312,0.30256,0.40992,-6.6675,1.4175,-3.42125,22.344002,-25.344002,4.752,concentric,0,3.0,21448.0,150359.0,245865.0,298074.0,276357.0
2026-04-08 21:23:26.656866,13875,1609502578849531,178815723,-1.085312,0.30256,0.40992,-6.3525,-2.52875,-5.99375,22.344002,-25.344002,4.752,concentric,0,3.0,21448.0,150359.0,245865.0,298074.0,276357.0
2026-04-08 21:23:26.715099,13876,1609502578864125,178830650,-1.11264,0.2928,0.296704,-7.0525,-4.75125,-7.5075,22.304,-25.448002,4.8,concentric,0,3.0,21448.0,150359.0,245865.0,298074.0,276357.0
2026-04-08 21:23:26.743758,13887,1609502578873251,178839344,-1.11264,0.2928,0.296704,-9.905,-6.4225,-6.9125,22.304,-25.448002,4.8,concentric,0,3.0,21305.0,149708.0,245094.0,297552.0,276096.0
2026-04-08 21:23:26.745274,13888,1609502578887759,178854298,-1.134112,0.304512,0.314272,-12.67875,-7.70875,-5.74875,22.448002,-25.408,5.064,concentric,0,3.0,21305.0,149708.0,245094.0,297552.0,276096.0
2026-04-08 21:23:26.749521,13889,1609502578896664,178862950,-1.143872,0.306464,0.366976,-15.44375,-8.1375,-5.92375,22.176,-25.504002,5.032,concentric,0,3.0,21305.0,149708.0,245094.0,297552.0,276096.0
2026-04-08 21:23:26.751186,13890,1609502578905579,178871620,-1.143872,0.306464,0.366976,-17.745,-8.715,-6.685,22.176,-25.504002,5.032,concentric,0,3.0,21305.0,149708.0,245094.0,297552.0,276096.0
2026-04-08 21:23:26.752901,13891,1609502578920055,178886554,-1.139968,0.294752,0.269376,-18.59375,-9.205,-6.86875,22.048,-25.488,5.224001,concentric,0,3.0,21305.0,149708.0,245094.0,297552.0,276096.0
2026-04-08 21:23:26.757035,13892,1609502578928977,178895229,-1.139968,0.294752,0.269376,-19.88,-9.66,-7.0175,22.048,-25.488,5.224001,concentric,0,3.0,21305.0,149708.0,245094.0,297552.0,276096.0
2026-04-08 21:23:26.758760,13893,1609502578943570,178910204,-1.169248,0.275232,0.245952,-19.31125,-10.26375,-6.8775,22.288,-25.608002,5.928001,concentric,0,3.0,21305.0,149708.0,245094.0,297552.0,276096.0
2026-04-08 21:23:26.760543,13894,1609502578952518,178918876,-1.169248,0.275232,0.245952,-16.23125,-10.815,-5.83625,22.288,-25.608002,5.928001,concentric,0,3.0,21305.0,149708.0,245094.0,297552.0,276096.0
2026-04-08 21:23:26.791384,13895,1609502578967034,178933790,-1.173152,0.310368,0.298656,-13.15125,-9.511251,-5.94125,22.84,-25.576002,5.6,concentric,0,3.0,21305.0,149708.0,245094.0,297552.0,276096.0
2026-04-08 21:23:26.822664,13906,1609502578976101,178942553,-1.173152,0.310368,0.298656,-9.8525,-5.845,-5.355,22.84,-25.576002,5.6,concentric,0,3.0,21195.0,149241.0,244414.0,297086.0,275832.0
2026-04-08 21:23:26.825158,13907,1609502578985059,178951255,-1.163392,0.349408,0.300608,-9.345,-4.29625,-1.295,22.336,-25.112001,7.824,concentric,0,3.0,21195.0,149241.0,244414.0,297086.0,275832.0
2026-04-08 21:23:26.827660,13908,1609502578999588,178966123,-1.130208,0.316224,0.320128,-11.17375,-4.57625,0.44625,22.024,-25.312,6.456,concentric,0,3.0,21195.0,149241.0,244414.0,297086.0,275832.0
2026-04-08 21:23:26.830212,13909,1609502579008533,178974862,-1.130208,0.316224,0.320128,-15.155,-5.0225,0.1575,22.024,-25.312,6.456,concentric,0,3.0,21195.0,149241.0,244414.0,297086.0,275832.0
2026-04-08 21:23:26.832661,13910,1609502579023024,178989823,-1.110688,0.294752,0.353312,-17.272501,-6.44875,0.55125,22.176,-25.168001,6.584,concentric,0,3.0,21195.0,149241.0,244414.0,297086.0,275832.0
2026-04-08 21:23:26.836440,13911,1609502579032000,178998533,-1.110688,0.294752,0.353312,-18.83875,-7.37625,1.00625,22.176,-25.168001,6.584,concentric,0,3.0,21195.0,149241.0,244414.0,297086.0,275832.0
2026-04-08 21:23:26.869117,13912,1609502579046487,179013394,-1.110688,0.269376,0.257664,-13.39625,-8.56625,1.7325,22.128,-25.296001,6.072001,concentric,0,3.0,21195.0,149241.0,244414.0,297086.0,275832.0
2026-04-08 21:23:26.872818,13913,1609502579055409,179022055,-1.110688,0.269376,0.257664,-7.91,-8.70625,0.35,22.128,-25.296001,6.072001,concentric,0,3.0,21195.0,149241.0,244414.0,297086.0,275832.0
2026-04-08 21:23:26.875190,13914,1609502579064342,179030733,-1.110688,0.31232,0.345504,-7.35875,-9.86125,1.72375,22.288,-24.76,6.12,concentric,0,3.0,21195.0,149241.0,244414.0,297086.0,275832.0
2026-04-08 21:23:26.905215,13925,1609502579078950,179045693,-1.091168,0.236192,0.294752,-6.22125,-11.095,2.68625,21.632002,-24.976002,7.408001,concentric,0,3.0,21286.0,149675.0,244916.0,297299.0,275942.0
2026-04-08 21:23:26.907676,13926,1609502579088019,179054487,-1.091168,0.236192,0.294752,-4.62875,-10.92875,2.24875,21.632002,-24.976002,7.408001,concentric,0,3.0,21286.0,149675.0,244916.0,297299.0,275942.0
2026-04-08 21:23:26.910218,13927,1609502579102561,179069399,-1.046272,0.298656,0.275232,-2.26625,-9.7825,1.19,21.408,-24.888,7.632,concentric,0,3.0,21286.0,149675.0,244916.0,297299.0,275942.0
2026-04-08 21:23:26.916418,13928,1609502579111538,179078075,-1.046272,0.298656,0.275232,1.33875,-8.44375,0.98875,21.408,-24.888,7.632,concentric,0,3.0,21286.0,149675.0,244916.0,297299.0,275942.0
