pc_time,serial_num,sensor_ts,host_ts,ax,ay,az,gx,gy,gz,mx,my,mz,phase,rpe,weight_kg,ppg_a,ppg_b,ppg_c,ppg_d,ppg_e
2026-04-08 21:23:09.203268,10598,1609502561376733,161343363,-0.999424,0.089792,0.222528,-3.2375,-3.465,-5.3025,25.488,-22.704,5.688,eccentric,0,3.0,21492.0,151213.0,248046.0,300188.0,277721.0
2026-04-08 21:23:09.204866,10599,1609502561385753,161352083,-0.999424,0.089792,0.222528,-6.895,-3.7275,-6.23,25.488,-22.704,5.688,eccentric,0,3.0,21492.0,151213.0,248046.0,300188.0,277721.0
2026-04-08 21:23:09.208939,10600,1609502561394674,161360753,-1.011136,0.113216,0.2928,-6.30875,-2.84375,-5.67875,25.744001,-22.576,5.520001,eccentric,0,3.0,21492.0,151213.0,248046.0,300188.0,277721.0
2026-04-08 21:23:09.237513,10601,1609502561409227,161375636,-1.011136,0.113216,0.2928,-3.35125,-1.295,-5.60875,25.744001,-22.576,5.520001,eccentric,0,3.0,21492.0,151213.0,248046.0,300188.0,277721.0
2026-04-08 21:23:09.241968,10602,1609502561418164,161384366,-1.042368,0.134688,0.261568,-1.09375,-0.035,-6.15125,25.472002,-22.944,5.08,eccentric,0,3.0,21492.0,151213.0,248046.0,300188.0,277721.0
2026-04-08 21:23:09.244469,10603,1609502561432636,161399218,-1.057984,0.10736,0.236192,-0.455,0.98,-5.3025,25.472002,-22.944,3.272,eccentric,0,3.0,21492.0,151213.0,248046.0,300188.0,277721.0
2026-04-08 21:23:09.246071,10604,1609502561441528,161407870,-1.050176,0.10736,0.236192,-2.87,0.07875,-4.7425,25.544,-22.720001,3.272,eccentric,0,3.0,21492.0,151213.0,248046.0,300188.0,277721.0
2026-04-08 21:23:09.278404,10605,1609502561455996,161422758,-1.05408,0.095648,0.257664,-4.6375,-0.13125,-5.53875,25.872002,-22.976002,5.048,eccentric,0,3.0,21492.0,151213.0,248046.0,300188.0,277721.0
2026-04-08 21:23:09.282773,10606,1609502561464892,161431441,-1.05408,0.095648,0.257664,-3.63125,-0.035,-5.9325,25.872002,-22.976002,5.048,eccentric,0,3.0,21492.0,151213.0,248046.0,300188.0,277721.0
2026-04-08 21:23:09.284305,10607,1609502561473844,161440137,-1.108736,0.134688,0.255712,0.665,0.875,-5.9675,25.920002,-22.808,8.224,eccentric,0,3.0,21492.0,151213.0,248046.0,300188.0,277721.0
2026-04-08 21:23:09.343153,10618,1609502561488384,161455068,-1.108736,0.134688,0.255712,3.77125,2.1175,-5.36375,25.920002,-22.808,8.224,eccentric,0,3.0,21499.0,151177.0,247927.0,300069.0,277661.0
2026-04-08 21:23:09.347762,10619,1609502561497701,161464156,-1.138016,0.150304,0.290848,4.71625,2.2225,-4.375,25.696001,-22.752,4.936,eccentric,0,3.0,21499.0,151177.0,247927.0,300069.0,277661.0
2026-04-08 21:23:09.349523,10620,1609502561512202,161479021,-1.138016,0.150304,0.290848,5.08375,1.5575,-4.2525,25.696001,-22.752,4.936,eccentric,0,3.0,21499.0,151177.0,247927.0,300069.0,277661.0
2026-04-08 21:23:09.351939,10621,1609502561521142,161487702,-1.138016,0.121024,0.28304,3.2725,0.525,-4.48,25.616001,-22.904001,4.136,eccentric,0,3.0,21499.0,151177.0,247927.0,300069.0,277661.0
2026-04-08 21:23:09.353534,10622,1609502561530047,161496353,-1.138016,0.121024,0.28304,1.58375,0.35875,-4.90875,25.616001,-22.904001,4.136,eccentric,0,3.0,21499.0,151177.0,247927.0,300069.0,277661.0
2026-04-08 21:23:09.357750,10623,1609502561544640,161511244,-1.143872,0.138592,0.300608,2.16125,0.37625,-4.22625,25.968,-22.712002,4.768,eccentric,0,3.0,21499.0,151177.0,247927.0,300069.0,277661.0
2026-04-08 21:23:09.359454,10624,1609502561553553,161519916,-1.19072,0.16592,0.288896,4.68125,1.00625,-2.905,25.968,-22.656,5.032,eccentric,0,3.0,21499.0,151177.0,247927.0,300069.0,277661.0
2026-04-08 21:23:09.389637,10625,1609502561568045,161534907,-1.19072,0.16592,0.288896,6.36125,0.83125,-2.0125,25.824001,-22.656,5.032,eccentric,0,3.0,21499.0,151177.0,247927.0,300069.0,277661.0
2026-04-08 21:23:09.427343,10636,1609502561576983,161544122,-1.196576,0.144448,0.296704,6.58875,-0.58625,-1.295,25.880001,-22.752,4.816001,eccentric,0,3.0,21404.0,150851.0,247533.0,299812.0,277557.0
2026-04-08 21:23:09.431525,10637,1609502561591697,161556984,-1.196576,0.144448,0.296704,5.01375,-2.87,0.13125,25.880001,-22.752,4.816001,eccentric,0,3.0,21404.0,150851.0,247533.0,299812.0,277557.0
2026-04-08 21:23:09.434994,10638,1609502561600981,161567720,-1.147776,0.13664,0.306464,4.6725,-4.54125,-0.875,25.544,-22.624,5.28,eccentric,0,3.0,21404.0,150851.0,247533.0,299812.0,277557.0
2026-04-08 21:23:09.439107,10639,1609502561609897,161576414,-1.147776,0.13664,0.306464,7.41125,-4.61125,-3.22875,25.544,-22.624,5.28,eccentric,0,3.0,21404.0,150851.0,247533.0,299812.0,277557.0
2026-04-08 21:23:09.440814,10640,1609502561624420,161591301,-1.186816,0.160064,0.308416,11.94375,-3.8675,-3.14125,25.312,-22.896002,5.312,eccentric,0,3.0,21404.0,150851.0,247533.0,299812.0,277557.0
2026-04-08 21:23:09.442338,10641,1609502561633366,161599999,-1.186816,0.160064,0.376736,14.7,-4.68125,-1.295,25.312,-22.896002,5.312,eccentric,0,3.0,21404.0,150851.0,247533.0,299812.0,277557.0
2026-04-08 21:23:09.473399,10642,1609502561647880,161614889,-1.192672,0.16592,0.376736,15.91625,-6.7375,-0.7525,25.664001,-22.664001,3.952,eccentric,0,3.0,21404.0,150851.0,247533.0,299812.0,277557.0
2026-04-08 21:23:09.477818,10643,1609502561656835,161623601,-1.21024,0.11712,0.230336,15.715,-8.89,-1.75,25.616001,-22.808,4.352,eccentric,0,3.0,21404.0,150851.0,247533.0,299812.0,277557.0
2026-04-08 21:23:09.479564,10644,1609502561671289,161636431,-1.21024,0.11712,0.230336,14.56,-8.60125,-3.29,25.616001,-22.808,4.352,eccentric,0,3.0,21404.0,150851.0,247533.0,299812.0,277557.0
2026-04-08 21:23:09.507008,10655,1609502561680964,161647283,-1.196576,0.169824,0.310368,11.9875,-8.75875,-2.59875,25.424002,-22.792002,4.536,eccentric,0,3.0,21345.0,150572.0,247215.0,299598.0,277411.0
2026-04-08 21:23:09.508700,10656,1609502561690000,161656090,-1.196576,0.169824,0.310368,12.495,-8.39125,-1.4525,25.424002,-22.792002,4.536,eccentric,0,3.0,21345.0,150572.0,247215.0,299598.0,277411.0
2026-04-08 21:23:09.512596,10657,1609502561704493,161671098,-1.192672,0.160064,0.294752,13.02875,-8.636251,-1.39125,25.208002,-22.568,5.712,eccentric,0,3.0,21345.0,150572.0,247215.0,299598.0,277411.0
2026-04-08 21:23:09.518960,10658,1609502561713395,161679762,-1.192672,0.160064,0.294752,11.24375,-9.59875,-1.00625,25.208002,-22.568,5.712,eccentric,0,3.0,21345.0,150572.0,247215.0,299598.0,277411.0
2026-04-08 21:23:09.547462,10659,1609502561727900,161694675,-1.155584,0.10736,0.310368,11.2525,-11.1475,-1.89875,24.880001,-22.872002,6.072001,eccentric,0,3.0,21345.0,150572.0,247215.0,299598.0,277411.0
2026-04-08 21:23:09.551981,10660,1609502561736845,161703333,-1.116544,0.109312,0.298656,11.12125,-11.7775,-2.485,25.056002,-23.104002,4.48,eccentric,0,3.0,21345.0,150572.0,247215.0,299598.0,277411.0
2026-04-08 21:23:09.553517,10661,1609502561745759,161712013,-1.116544,0.109312,0.298656,10.77125,-11.62,-3.2375,25.056002,-23.104002,4.48,eccentric,0,3.0,21345.0,150572.0,247215.0,299598.0,277411.0
2026-04-08 21:23:09.585071,10662,1609502561760241,161726927,-1.145824,0.144448,0.226432,11.025,-10.115,-4.05125,24.728,-22.52,5.488,eccentric,0,3.0,21345.0,150572.0,247215.0,299598.0,277411.0
2026-04-08 21:23:09.597996,10663,1609502561769160,161735587,-1.145824,0.144448,0.226432,11.2525,-8.77625,-4.9175,24.728,-22.52,5.488,eccentric,0,3.0,21345.0,150572.0,247215.0,299598.0,277411.0
2026-04-08 21:23:09.660540,10674,1609502561783753,161750511,-1.114592,0.12688,0.269376,10.70125,-8.33875,-6.1425,24.816002,-22.568,4.736,eccentric,0,3.0,21331.0,150484.0,247087.0,299486.0,277344.0
2026-04-08 21:23:09.669652,10675,1609502561792685,161759287,-1.114592,0.12688,0.269376,9.345,-7.1575,-8.6975,24.816002,-22.568,4.736,eccentric,0,3.0,21331.0,150484.0,247087.0,299486.0,277344.0
2026-04-08 21:23:09.671211,10676,1609502561801592,161767944,-1.069696,0.083936,0.259616,7.84875,-6.1425,-9.87875,24.752,-22.936,5.008,eccentric,0,3.0,21331.0,150484.0,247087.0,299486.0,277344.0
2026-04-08 21:23:09.673708,10677,1609502561816078,161782801,-1.08336,0.113216,0.201056,8.47,-4.06,-11.042501,24.6,-22.512001,6.72,eccentric,0,3.0,21331.0,150484.0,247087.0,299486.0,277344.0
2026-04-08 21:23:09.676154,10678,1609502561824974,161791450,-1.08336,0.113216,0.201056,7.34125,-2.47625,-13.74625,24.6,-22.512001,6.72,eccentric,0,3.0,21331.0,150484.0,247087.0,299486.0,277344.0
2026-04-08 21:23:09.678777,10679,1609502561839451,161806292,-1.097024,0.148352,0.240096,3.5175,-0.9975,-15.53125,24.656002,-22.536001,4.592,eccentric,0,3.0,21331.0,150484.0,247087.0,299486.0,277344.0
2026-04-08 21:23:09.681159,10680,1609502561848433,161815077,-1.097024,0.148352,0.240096,-1.8025,-0.9975,-15.05,24.656002,-22.536001,4.592,eccentric,0,3.0,21331.0,150484.0,247087.0,299486.0,277344.0
2026-04-08 21:23:09.683602,10681,1609502561863013,161829981,-1.0736,0.11712,0.261568,-5.90625,-2.765,-16.33625,24.328001,-22.248001,4.784,eccentric,0,3.0,21331.0,150484.0,247087.0,299486.0,277344.0
2026-04-08 21:23:09.686084,10682,1609502561871958,161838703,-1.0736,0.11712,0.261568,-6.57125,-3.73625,-18.96125,24.328001,-22.248001,4.784,eccentric,0,3.0,21331.0,150484.0,247087.0,299486.0,277344.0
2026-04-08 21:23:09.714481,10693,1609502561881499,161847727,-1.020896,0.044896,0.281088,-5.15375,-3.745,-20.1075,24.488,-22.160002,4.968,eccentric,0,3.0,21283.0,150376.0,246948.0,299398.0,277282.0
2026-04-08 21:23:09.716065,10694,1609502561896075,161862836,-1.028704,0.08784,0.226432,-3.43,-2.63375,-20.93875,24.68,-21.592001,4.816001,eccentric,0,3.0,21283.0,150376.0,246948.0,299398.0,277282.0
2026-04-08 21:23:09.720146,10695,1609502561904983,161871507,-1.028704,0.08784,0.226432,-4.4625,-1.81125,-22.93375,24.68,-21.592001,4.816001,eccentric,0,3.0,21283.0,150376.0,246948.0,299398.0,277282.0
2026-04-08 21:23:09.726459,10696,1609502561919515,161886375,-1.067744,0.128832,0.208864,-4.47125,0.11375,-24.85875,24.744001,-21.576,5.064,eccentric,0,3.0,21283.0,150376.0,246948.0,299398.0,277282.0
2026-04-08 21:23:09.749192,10697,1609502561928450,161895040,-1.067744,0.128832,0.208864,-8.75875,-0.7,-23.6425,24.744001,-21.576,5.064,eccentric,0,3.0,21283.0,150376.0,246948.0,299398.0,277282.0
2026-04-08 21:23:09.751518,10698,1609502561942947,161909943,-1.0248,0.050752,0.2928,-11.9875,-0.595,-24.3775,24.992,-21.416,5.28,eccentric,0,3.0,21283.0,150376.0,246948.0,299398.0,277282.0
2026-04-08 21:23:09.757659,10699,1609502561951857,161918634,-1.0248,0.050752,0.2928,-11.9875,-0.25375,-26.15375,24.992,-21.416,5.28,eccentric,0,3.0,21283.0,150376.0,246948.0,299398.0,277282.0
2026-04-08 21:23:09.800980,10700,1609502561960835,161927367,-1.013088,0.0,0.304512,-11.40125,-0.65625,-25.12125,24.736002,-21.04,5.296001,eccentric,0,3.0,21283.0,150376.0,246948.0,299398.0,277282.0
2026-04-08 21:23:09.803454,10701,1609502561975323,161942223,-1.013088,0.0,0.163968,-10.8675,-0.315,-25.69,24.736002,-21.04,5.296001,eccentric,0,3.0,21283.0,150376.0,246948.0,299398.0,277282.0
2026-04-08 21:23:09.834585,10712,1609502561984320,161950947,-1.0248,0.01952,0.163968,-11.78625,2.415,-28.34125,24.720001,-20.496,5.176,eccentric,0,3.0,21178.0,149857.0,246302.0,299026.0,277041.0
2026-04-08 21:23:09.836064,10713,1609502561998837,161965841,-1.087264,0.052704,0.228384,-14.595,5.46875,-28.58625,25.400002,-20.36,5.424,eccentric,0,3.0,21178.0,149857.0,246302.0,299026.0,277041.0
2026-04-08 21:23:09.840308,10714,1609502562007796,161974579,-1.087264,0.052704,0.228384,-20.01125,5.03125,-25.27875,25.400002,-20.36,5.424,eccentric,0,3.0,21178.0,149857.0,246302.0,299026.0,277041.0
2026-04-08 21:23:09.842059,10715,1609502562016749,161983293,-1.030656,-0.035136,0.37088,-21.32375,2.86125,-24.1675,24.952002,-20.024,6.456,eccentric,0,3.0,21178.0,149857.0,246302.0,299026.0,277041.0
2026-04-08 21:23:09.843645,10716,1609502562031261,161998165,-1.030656,-0.035136,0.37088,-16.8175,-0.84,-26.32,24.952002,-20.024,6.456,eccentric,0,3.0,21178.0,149857.0,246302.0,299026.0,277041.0
2026-04-08 21:23:09.847657,10717,1609502562040212,162006815,-0.94672,-0.089792,0.316224,-9.8875,-1.21625,-32.10375,25.168001,-19.352001,6.192,eccentric,0,3.0,21178.0,149857.0,246302.0,299026.0,277041.0
2026-04-08 21:23:09.876249,10718,1609502562054705,162021750,-0.94672,-0.089792,0.316224,-5.39,1.505,-37.44125,25.168001,-19.352001,6.192,eccentric,0,3.0,21178.0,149857.0,246302.0,299026.0,277041.0
2026-04-08 21:23:09.880805,10719,1609502562063627,162030417,-1.040416,-0.035136,0.163968,-3.84125,6.53625,-39.41875,25.352001,-19.568,6.32,eccentric,0,3.0,21178.0,149857.0,246302.0,299026.0,277041.0
2026-04-08 21:23:09.882315,10720,1609502562078081,162043232,-1.001376,0.017568,0.267424,-9.205,6.86875,-33.90625,25.864,-19.384,6.36,eccentric,0,3.0,21178.0,149857.0,246302.0,299026.0,277041.0
2026-04-08 21:23:09.949132,10731,1609502562087247,162054021,-1.001376,0.017568,0.267424,-16.87,3.8675,-29.8725,25.864,-19.384,6.36,eccentric,0,3.0,21053.0,149337.0,245657.0,298564.0,276783.0
2026-04-08 21:23:09.950775,10732,1609502562096214,162062768,-1.001376,0.017568,0.308416,-18.38375,2.23125,-34.60625,25.864,-19.384,6.36,eccentric,0,3.0,21053.0,149337.0,245657.0,298564.0,276783.0
2026-04-08 21:23:09.952347,10733,1609502562110747,162077683,-0.948672,-0.130784,0.308416,-15.435,3.42125,-39.19125,25.920002,-18.576,4.192,eccentric,0,3.0,21053.0,149337.0,245657.0,298564.0,276783.0
2026-04-08 21:23:09.956729,10734,1609502562119690,162086348,-0.948672,-0.111264,0.17568,-12.53875,7.27125,-41.3525,26.104002,-18.04,5.952,eccentric,0,3.0,21053.0,149337.0,245657.0,298564.0,276783.0
2026-04-08 21:23:09.958372,10735,1609502562134168,162101219,-0.948672,-0.111264,0.17568,-12.87125,11.15625,-41.60625,26.104002,-18.04,5.952,eccentric,0,3.0,21053.0,149337.0,245657.0,298564.0,276783.0
2026-04-08 21:23:09.959840,10736,1609502562143072,162109896,-0.942816,-0.066368,0.113216,-18.69875,12.59125,-38.98125,26.472002,-17.984001,5.520001,eccentric,0,3.0,21053.0,149337.0,245657.0,298564.0,276783.0
2026-04-08 21:23:09.963920,10737,1609502562157554,162122730,-0.960384,-0.109312,0.238144,-26.92375,9.8875,-33.95875,26.52,-17.216002,5.616,eccentric,0,3.0,21053.0,149337.0,245657.0,298564.0,276783.0
2026-04-08 21:23:09.992510,10738,1609502562166788,162133509,-0.960384,-0.109312,0.238144,-28.210001,5.04875,-31.45625,26.52,-17.216002,5.616,eccentric,0,3.0,21053.0,149337.0,245657.0,298564.0,276783.0
2026-04-08 21:23:09.996883,10739,1609502562175704,162142182,-0.960384,-0.109312,0.238144,-19.67,3.45625,-32.97875,26.52,-17.216002,5.616,eccentric,0,3.0,21053.0,149337.0,245657.0,298564.0,276783.0
2026-04-08 21:23:10.027869,10750,1609502562190427,162157520,-0.882304,-0.177632,0.201056,-6.37875,5.78375,-38.21125,26.704,-17.168001,7.616,eccentric,0,3.0,21044.0,149228.0,245534.0,298477.0,276681.0
2026-04-08 21:23:10.029549,10751,1609502562199402,162166241,-0.929152,-0.081984,0.160064,1.74125,9.09125,-40.425,26.592001,-16.832,6.488,eccentric,0,3.0,21044.0,149228.0,245534.0,298477.0,276681.0
2026-04-08 21:23:10.031099,10752,1609502562213935,162179093,-0.929152,-0.081984,0.160064,1.155,9.45,-36.365,26.592001,-16.832,6.488,eccentric,0,3.0,21044.0,149228.0,245534.0,298477.0,276681.0
2026-04-08 21:23:10.035512,10753,1609502562223111,162189928,-0.905728,-0.089792,0.138592,-8.33,6.92125,-30.345,26.52,-16.2,6.792,eccentric,0,3.0,21044.0,149228.0,245534.0,298477.0,276681.0
2026-04-08 21:23:10.037778,10754,1609502562232035,162198684,-0.905728,-0.089792,0.138592,-17.57875,5.0925,-26.74875,26.52,-16.2,6.792,eccentric,0,3.0,21044.0,149228.0,245534.0,298477.0,276681.0
2026-04-08 21:23:10.066227,10755,1609502562246521,162213571,-0.911584,-0.177632,0.245952,-20.93,4.59375,-26.66125,26.544,-15.992001,6.272,eccentric,0,3.0,21044.0,149228.0,245534.0,298477.0,276681.0
2026-04-08 21:23:10.070811,10756,1609502562255421,162222214,-0.911584,-0.177632,0.245952,-15.12875,6.3175,-27.16,26.544,-15.992001,6.272,eccentric,0,3.0,21044.0,149228.0,245534.0,298477.0,276681.0
2026-04-08 21:23:10.072329,10757,1609502562269888,162235060,-0.94672,-0.13664,0.238144,-9.03,6.5625,-26.6875,27.016,-15.976001,5.256,eccentric,0,3.0,21044.0,149228.0,245534.0,298477.0,276681.0
2026-04-08 21:23:10.128983,10768,1609502562279053,162245796,-0.933056,-0.124928,0.265472,0.5775,6.9825,-26.66125,27.008001,-15.704,7.424,eccentric,0,3.0,20941.0,148917.0,245199.0,298282.0,276547.0
2026-04-08 21:23:10.132833,10769,1609502562293592,162260665,-0.933056,-0.124928,0.265472,4.71625,7.035,-25.97875,27.008001,-15.704,7.424,eccentric,0,3.0,20941.0,148917.0,245199.0,298282.0,276547.0
2026-04-08 21:23:10.134599,10770,1609502562302507,162269323,-0.940864,-0.134688,0.134688,0.385,7.8575,-26.95,27.184002,-15.52,5.856,eccentric,0,3.0,20941.0,148917.0,245199.0,298282.0,276547.0
2026-04-08 21:23:10.136959,10771,1609502562311447,162278021,-0.940864,-0.134688,0.134688,-5.76625,10.7275,-27.116251,27.184002,-15.52,5.856,eccentric,0,3.0,20941.0,148917.0,245199.0,298282.0,276547.0
2026-04-08 21:23:10.138552,10772,1609502562325999,162292940,-0.977952,-0.091744,0.245952,-9.948751,13.46625,-25.47125,27.344002,-15.088,5.664,eccentric,0,3.0,20941.0,148917.0,245199.0,298282.0,276547.0
2026-04-08 21:23:10.142606,10773,1609502562334964,162301642,-0.977952,-0.091744,0.245952,-11.8475,13.0025,-21.93625,27.344002,-15.088,5.664,eccentric,0,3.0,20941.0,148917.0,245199.0,298282.0,276547.0
2026-04-08 21:23:10.171156,10774,1609502562349429,162314598,-0.976,-0.206912,0.33184,-12.83625,8.12,-19.8625,27.432001,-15.072001,5.864,eccentric,0,3.0,20941.0,148917.0,245199.0,298282.0,276547.0
2026-04-08 21:23:10.175641,10775,1609502562358617,162325322,-0.950624,-0.177632,0.189344,-9.2225,4.6025,-22.8725,27.336,-14.568001,4.592,eccentric,0,3.0,20941.0,148917.0,245199.0,298282.0,276547.0
2026-04-08 21:23:10.179333,10776,1609502562373099,162340180,-0.950624,-0.177632,0.189344,-1.1375,6.72875,-26.39,27.336,-14.568001,4.592,eccentric,0,3.0,20941.0,148917.0,245199.0,298282.0,276547.0
2026-04-08 21:23:10.247825,10787,1609502562382132,162348924,-0.940864,-0.105408,0.216672,2.1875,12.6,-24.36,27.000002,-14.552001,6.32,eccentric,0,3.0,20916.0,148750.0,244991.0,298116.0,276481.0
2026-04-08 21:23:10.249544,10788,1609502562391273,162357641,-0.940864,-0.105408,0.216672,-5.0575,14.3325,-19.0925,27.000002,-14.552001,6.32,eccentric,0,3.0,20916.0,148750.0,244991.0,298116.0,276481.0
2026-04-08 21:23:10.251945,10789,1609502562405768,162372509,-0.968192,-0.187392,0.441152,-11.935,10.17625,-15.190001,28.016,-13.8,5.312,eccentric,0,3.0,20916.0,148750.0,244991.0,298116.0,276481.0
2026-04-08 21:23:10.254476,10790,1609502562414694,162381233,-0.968192,-0.187392,0.441152,-11.83,4.1475,-17.0275,28.016,-13.8,5.312,eccentric,0,3.0,20916.0,148750.0,244991.0,298116.0,276481.0
2026-04-08 21:23:10.256035,10791,1609502562429159,162396091,-0.911584,-0.23424,0.085888,2.695,5.39,-24.17625,28.256,-14.048,5.176,eccentric,0,3.0,20916.0,148750.0,244991.0,298116.0,276481.0
2026-04-08 21:23:10.260336,10792,1609502562438027,162404740,-0.911584,-0.23424,0.1952,15.33,11.89125,-26.7225,28.256,-14.048,5.176,eccentric,0,3.0,20916.0,148750.0,244991.0,298116.0,276481.0
2026-04-08 21:23:10.261975,10793,1609502562446941,162413417,-1.052128,-0.199104,0.187392,10.22,16.7825,-21.76125,28.216002,-13.856001,5.12,eccentric,0,3.0,20916.0,148750.0,244991.0,298116.0,276481.0
2026-04-08 21:23:10.268946,10794,1609502562461427,162428332,-0.9272,-0.199104,0.31232,-10.52625,13.9475,-17.0625,28.008001,-13.432001,5.896,eccentric,0,3.0,20916.0,148750.0,244991.0,298116.0,276481.0
2026-04-08 21:23:10.297405,10795,1609502562470364,162437034,-0.9272,-0.199104,0.31232,-19.25,12.36375,-19.2675,28.008001,-13.432001,5.896,eccentric,0,3.0,20916.0,148750.0,244991.0,298116.0,276481.0
2026-04-08 21:23:10.326113,10806,1609502562485083,162451976,-0.931104,-0.152256,0.15616,-11.38375,15.6975,-23.87875,28.336,-13.096001,5.072,eccentric,0,3.0,20960.0,148854.0,245096.0,298179.0,276535.0
2026-04-08 21:23:10.330347,10807,1609502562494009,162460629,-0.931104,-0.152256,0.15616,-2.35375,19.60875,-23.03875,28.336,-13.096001,5.072,eccentric,0,3.0,20960.0,148854.0,245096.0,298179.0,276535.0
2026-04-08 21:23:10.332022,10808,1609502562508537,162475495,-1.018944,-0.179584,0.242048,-1.3825,18.6375,-17.52625,28.448002,-13.584001,5.168,eccentric,0,3.0,20960.0,148854.0,245096.0,298179.0,276535.0
2026-04-08 21:23:10.333551,10809,1609502562517474,162484182,-1.018944,-0.179584,0.242048,-7.105,13.011251,-13.195,28.448002,-13.584001,5.168,eccentric,0,3.0,20960.0,148854.0,245096.0,298179.0,276535.0
2026-04-08 21:23:10.337733,10810,1609502562526404,162492870,-0.91744,-0.238144,0.208864,-10.29875,10.73625,-13.53625,28.408,-12.672001,6.808,eccentric,0,3.0,20960.0,148854.0,245096.0,298179.0,276535.0
2026-04-08 21:23:10.369864,10811,1609502562540907,162507745,-0.95648,-0.232288,0.199104,-8.46125,12.81,-16.47625,28.096,-12.768001,5.288,eccentric,0,3.0,20960.0,148854.0,245096.0,298179.0,276535.0
2026-04-08 21:23:10.374142,10812,1609502562549895,162516397,-0.95648,-0.232288,0.199104,-7.14,15.505,-17.57,28.096,-12.768001,5.288,eccentric,0,3.0,20960.0,148854.0,245096.0,298179.0,276535.0
2026-04-08 21:23:10.375819,10813,1609502562564384,162531288,-0.98576,-0.160064,0.26352,-8.49625,16.31,-17.57,28.984001,-12.592001,4.648,eccentric,0,3.0,20960.0,148854.0,245096.0,298179.0,276535.0
2026-04-08 21:23:10.377330,10814,1609502562573351,162539981,-0.98576,-0.160064,0.26352,-8.4,14.175,-16.17,28.984001,-12.592001,4.648,eccentric,0,3.0,20960.0,148854.0,245096.0,298179.0,276535.0
2026-04-08 21:23:10.434544,10825,1609502562587904,162554965,-0.952576,-0.187392,0.210816,-2.205,10.80625,-14.971251,28.800001,-12.944,4.56,eccentric,0,3.0,20952.0,148792.0,244989.0,298085.0,276497.0
2026-04-08 21:23:10.436032,10826,1609502562596858,162563636,-0.952576,-0.187392,0.210816,5.31125,8.61875,-15.33875,28.800001,-12.944,4.56,eccentric,0,3.0,20952.0,148792.0,244989.0,298085.0,276497.0
2026-04-08 21:23:10.438575,10827,1609502562605795,162572313,-0.923296,-0.179584,0.238144,7.42,9.00375,-15.05875,28.896002,-12.472,4.632,eccentric,0,3.0,20952.0,148792.0,244989.0,298085.0,276497.0
2026-04-08 21:23:10.441032,10828,1609502562620292,162587204,-0.931104,-0.12688,0.130784,1.98625,12.075,-13.74625,28.456001,-12.472,4.864,eccentric,0,3.0,20952.0,148792.0,244989.0,298085.0,276497.0
2026-04-08 21:23:10.443538,10829,1609502562629263,162595890,-0.931104,-0.12688,0.130784,-4.9525,15.2425,-10.4825,28.456001,-12.472,4.864,eccentric,0,3.0,20952.0,148792.0,244989.0,298085.0,276497.0
2026-04-08 21:23:10.448748,10830,1609502562643803,162610786,-0.960384,-0.222528,0.226432,-13.25625,15.82,-5.8625,28.752,-12.304001,5.024,eccentric,0,3.0,20952.0,148792.0,244989.0,298085.0,276497.0
2026-04-08 21:23:10.479708,10831,1609502562652728,162619503,-0.960384,-0.222528,0.226432,-17.43,12.145,-3.68375,28.752,-12.304001,5.024,eccentric,0,3.0,20952.0,148792.0,244989.0,298085.0,276497.0
2026-04-08 21:23:10.482261,10832,1609502562667211,162632369,-0.942816,-0.193248,0.218624,-8.98625,9.98375,-4.27875,29.056002,-12.480001,3.728,eccentric,0,3.0,20952.0,148792.0,244989.0,298085.0,276497.0
2026-04-08 21:23:10.488603,10833,1609502562676355,162643096,-0.942816,-0.193248,0.218624,1.82,10.99,-3.14125,29.056002,-12.480001,3.728,eccentric,0,3.0,20952.0,148792.0,244989.0,298085.0,276497.0
2026-04-08 21:23:10.551229,10844,1609502562685799,162651836,-0.979904,-0.08784,0.050752,4.0775,12.46,0.35875,28.904001,-12.184001,4.08,eccentric,0,3.0,20842.0,148301.0,244279.0,297706.0,276222.0
2026-04-08 21:23:10.555661,10845,1609502562700465,162666815,-0.997472,-0.210816,0.173728,-5.48625,11.83875,5.31125,28.904001,-12.248,5.328,eccentric,0,3.0,20842.0,148301.0,244279.0,297706.0,276222.0
2026-04-08 21:23:10.561681,10846,1609502562709408,162675496,-0.997472,-0.210816,0.173728,-17.7275,8.295,8.11125,29.016,-12.248,5.328,eccentric,0,3.0,20842.0,148301.0,244279.0,297706.0,276222.0
2026-04-08 21:23:10.563306,10847,1609502562723855,162690386,-1.016992,-0.249856,0.070272,-16.59875,4.41,7.735,29.056002,-12.512001,4.112,eccentric,0,3.0,20842.0,148301.0,244279.0,297706.0,276222.0
2026-04-08 21:23:10.564859,10848,1609502562732786,162699040,-1.016992,-0.249856,0.070272,-1.26,2.5725,6.36125,29.056002,-12.512001,4.112,eccentric,0,3.0,20842.0,148301.0,244279.0,297706.0,276222.0
2026-04-08 21:23:10.569083,10849,1609502562741727,162707836,-1.030656,-0.115168,0.056608,12.34625,3.35125,6.50125,28.552002,-12.096001,5.4,eccentric,0,3.0,20842.0,148301.0,244279.0,297706.0,276222.0
2026-04-08 21:23:10.570865,10850,1609502562756236,162722772,-1.030656,-0.115168,0.056608,12.78375,5.25875,8.65375,28.552002,-12.096001,5.4,eccentric,0,3.0,20842.0,148301.0,244279.0,297706.0,276222.0
2026-04-08 21:23:10.572731,10851,1609502562765190,162731472,-1.03456,-0.140544,0.124928,2.56375,5.27625,11.01625,28.512001,-12.296001,5.12,eccentric,0,3.0,20842.0,148301.0,244279.0,297706.0,276222.0
2026-04-08 21:23:10.603425,10852,1609502562779674,162746363,-1.03456,-0.140544,0.124928,-7.44625,3.92875,11.6725,28.512001,-12.296001,5.12,eccentric,0,3.0,20842.0,148301.0,244279.0,297706.0,276222.0
2026-04-08 21:23:10.632060,10863,1609502562788652,162755136,-1.038464,-0.26352,0.154208,-8.39125,2.07375,9.45875,28.680002,-12.376,3.128,eccentric,0,3.0,20835.0,148266.0,244305.0,297685.0,276223.0
2026-04-08 21:23:10.633594,10864,1609502562803129,162770070,-1.011136,-0.193248,0.119072,-0.93625,1.47875,6.9825,29.424002,-12.536,3.872,eccentric,0,3.0,20835.0,148266.0,244305.0,297685.0,276223.0
2026-04-08 21:23:10.637829,10865,1609502562812208,162778810,-1.011136,-0.193248,0.119072,8.51375,2.87875,5.80125,29.424002,-12.536,3.872,eccentric,0,3.0,20835.0,148266.0,244305.0,297685.0,276223.0
2026-04-08 21:23:10.641405,10866,1609502562821211,162787525,-0.987712,-0.115168,0.169824,12.3025,4.05125,5.5825,29.424002,-12.576,3.984,eccentric,0,3.0,20835.0,148266.0,244305.0,297685.0,276223.0
2026-04-08 21:23:10.641868,10867,1609502562835711,162802431,-0.987712,-0.115168,0.169824,7.5775,4.26125,6.32625,29.096,-12.576,3.984,eccentric,0,3.0,20835.0,148266.0,244305.0,297685.0,276223.0
2026-04-08 21:23:10.672177,10868,1609502562844680,162811123,-1.013088,-0.17568,0.218624,-3.22875,2.87875,8.28625,29.024002,-13.024,4.272,eccentric,0,3.0,20835.0,148266.0,244305.0,297685.0,276223.0
2026-04-08 21:23:10.676620,10869,1609502562859177,162825984,-1.013088,-0.17568,0.218624,-11.36625,-0.315,9.5725,29.024002,-13.024,4.272,eccentric,0,3.0,20835.0,148266.0,244305.0,297685.0,276223.0
2026-04-08 21:23:10.679013,10870,1609502562868090,162834626,-0.997472,-0.240096,0.150304,-7.32375,-1.54875,7.14875,29.232002,-12.784,4.208,eccentric,0,3.0,20835.0,148266.0,244305.0,297685.0,276223.0
2026-04-08 21:23:10.683111,10871,1609502562877014,162843305,-0.997472,-0.240096,0.150304,2.72125,-1.09375,4.48875,29.232002,-12.784,4.208,eccentric,0,3.0,20835.0,148266.0,244305.0,297685.0,276223.0
2026-04-08 21:23:10.722877,10882,1609502562891568,162858266,-1.016992,-0.109312,0.201056,9.84375,0.04375,4.13875,28.416002,-12.936001,3.68,eccentric,0,3.0,20796.0,148168.0,244188.0,297652.0,276194.0
2026-04-08 21:23:10.724562,10883,1609502562900566,162866967,-1.016992,-0.109312,0.201056,10.21125,1.26,4.8475,28.416002,-12.936001,3.68,eccentric,0,3.0,20796.0,148168.0,244188.0,297652.0,276194.0
2026-04-08 21:23:10.726074,10884,1609502562915058,162881831,-1.042368,-0.138592,0.0,2.9575,0.3325,5.0925,28.552002,-12.856001,1.712,eccentric,0,3.0,20796.0,148168.0,244188.0,297652.0,276194.0
2026-04-08 21:23:10.730175,10885,1609502562923988,162890559,-1.00528,-0.179584,0.230336,-2.94,-2.3625,5.83625,28.472002,-13.208,3.856,eccentric,0,3.0,20796.0,148168.0,244188.0,297652.0,276194.0
2026-04-08 21:23:10.758852,10886,1609502562938468,162905409,-1.00528,-0.179584,0.230336,-2.2925,-4.13875,5.04875,28.472002,-13.208,3.856,concentric,0,3.0,20796.0,148168.0,244188.0,297652.0,276194.0
2026-04-08 21:23:10.763217,10887,1609502562947394,162914108,-1.016992,-0.193248,0.070272,4.235,-5.08375,2.59,28.640001,-13.72,3.952,concentric,0,3.0,20796.0,148168.0,244188.0,297652.0,276194.0
2026-04-08 21:23:10.770322,10888,1609502562956342,162922780,-1.016992,-0.193248,0.070272,10.47375,-5.31125,1.1725,28.640001,-13.72,3.952,concentric,0,3.0,20796.0,148168.0,244188.0,297652.0,276194.0
2026-04-08 21:23:10.800039,10889,1609502562970766,162937683,-1.06384,-0.093696,0.050752,11.3575,-4.78625,0.65625,28.608002,-13.472001,3.792,concentric,0,3.0,20796.0,148168.0,244188.0,297652.0,276194.0
2026-04-08 21:23:10.839692,10890,1609502562979668,162946323,-1.06384,-0.093696,0.050752,7.06125,-4.8125,1.89,28.608002,-13.472001,3.792,concentric,0,3.0,20796.0,148168.0,244188.0,297652.0,276194.0
2026-04-08 21:23:10.868311,10901,1609502562994259,162961276,-1.032608,-0.101504,0.189344,0.42875,-6.1425,2.52875,28.52,-13.416,4.28,concentric,0,3.0,20736.0,147944.0,243930.0,297505.0,276084.0
2026-04-08 21:23:10.869866,10902,1609502563003173,162969981,-0.983808,-0.169824,0.132736,-2.1175,-6.53625,2.1875,28.576002,-13.64,1.912,concentric,0,3.0,20736.0,147944.0,243930.0,297505.0,276084.0
2026-04-08 21:23:10.874140,10903,1609502563017663,162982843,-0.983808,-0.169824,0.132736,-0.7875,-6.055,2.7825,28.576002,-13.64,1.912,concentric,0,3.0,20736.0,147944.0,243930.0,297505.0,276084.0
2026-04-08 21:23:10.875821,10904,1609502563026835,162993565,-0.99552,-0.16592,0.105408,1.72375,-4.85625,2.765,28.304,-13.840001,3.824,concentric,0,3.0,20736.0,147944.0,243930.0,297505.0,276084.0
2026-04-08 21:23:10.877364,10905,1609502563035731,163002229,-0.99552,-0.16592,0.105408,3.5875,-3.2375,2.1175,28.304,-13.840001,3.824,concentric,0,3.0,20736.0,147944.0,243930.0,297505.0,276084.0
2026-04-08 21:23:10.881604,10906,1609502563050326,163017110,-1.013088,-0.105408,0.158112,0.7175,-3.6225,2.54625,28.424002,-13.656001,4.52,concentric,0,3.0,20736.0,147944.0,243930.0,297505.0,276084.0
2026-04-08 21:23:10.883293,10907,1609502563059245,163025874,-1.013088,-0.105408,0.158112,-3.675,-5.17125,4.41,28.424002,-13.656001,4.52,concentric,0,3.0,20736.0,147944.0,243930.0,297505.0,276084.0
2026-04-08 21:23:10.884923,10908,1609502563073810,163040817,-1.00528,-0.17568,0.115168,-6.43125,-7.63875,6.1425,28.160002,-13.824,4.592,concentric,0,3.0,20736.0,147944.0,243930.0,297505.0,276084.0
2026-04-08 21:23:10.917056,10919,1609502563082801,163049839,-0.954528,-0.183488,0.144448,-3.89375,-10.24625,5.845,28.160002,-13.76,5.376,concentric,0,3.0,20738.0,147961.0,243966.0,297547.0,276123.0
2026-04-08 21:23:10.918567,10920,1609502563097342,163062679,-0.954528,-0.183488,0.144448,2.28375,-11.025,6.41375,27.920002,-13.76,5.376,concentric,0,3.0,20738.0,147961.0,243966.0,297547.0,276123.0
2026-04-08 21:23:10.922836,10921,1609502563106669,163073426,-0.983808,-0.128832,0.113216,6.25625,-10.14125,7.21,28.12,-13.864,3.624,concentric,0,3.0,20738.0,147961.0,243966.0,297547.0,276123.0
2026-04-08 21:23:10.925544,10922,1609502563115598,163082130,-0.983808,-0.128832,0.113216,4.025,-9.28375,9.37125,28.12,-13.864,3.624,concentric,0,3.0,20738.0,147961.0,243966.0,297547.0,276123.0
2026-04-08 21:23:10.953768,10923,1609502563130150,163097025,-0.991616,-0.134688,0.142496,-2.05625,-9.6775,11.90875,28.304,-14.064001,4.136,concentric,0,3.0,20738.0,147961.0,243966.0,297547.0,276123.0
2026-04-08 21:23:10.958332,10924,1609502563139054,163105716,-0.991616,-0.134688,0.142496,-6.60625,-10.3775,13.055,28.304,-14.064001,4.136,concentric,0,3.0,20738.0,147961.0,243966.0,297547.0,276123.0
2026-04-08 21:23:10.959939,10925,1609502563153512,163120595,-0.993568,-0.173728,0.16592,-6.93,-11.22625,13.9475,28.128002,-14.416,4.32,concentric,0,3.0,20738.0,147961.0,243966.0,297547.0,276123.0
2026-04-08 21:23:10.991026,10926,1609502563162465,163129266,-0.993568,-0.173728,0.16592,-2.695,-12.36375,15.16375,28.128002,-14.416,4.32,concentric,0,3.0,20738.0,147961.0,243966.0,297547.0,276123.0
2026-04-08 21:23:10.993215,10927,1609502563171393,163137938,-0.96624,-0.113216,0.158112,2.59,-13.335,17.29875,27.704,-14.072001,5.392,concentric,0,3.0,20738.0,147961.0,243966.0,297547.0,276123.0
2026-04-08 21:23:11.021132,10938,1609502563186401,163152872,-0.91744,-0.085888,0.230336,6.6675,-13.36125,18.9875,27.904001,-14.56,4.608,concentric,0,3.0,20745.0,148077.0,244143.0,297659.0,276162.0
2026-04-08 21:23:11.025358,10939,1609502563195428,163161654,-0.91744,-0.085888,0.230336,5.3025,-14.8225,21.1225,27.904001,-14.56,4.608,concentric,0,3.0,20745.0,148077.0,244143.0,297659.0,276162.0
2026-04-08 21:23:11.027102,10940,1609502563209898,163176587,-0.901824,-0.089792,0.265472,-0.0175,-16.47625,24.43875,27.424002,-15.024001,4.624,concentric,0,3.0,20745.0,148077.0,244143.0,297659.0,276162.0
2026-04-08 21:23:11.028612,10941,1609502563218814,163185251,-0.901824,-0.089792,0.265472,-4.515,-17.92,27.0725,27.424002,-15.024001,4.624,concentric,0,3.0,20745.0,148077.0,244143.0,297659.0,276162.0
2026-04-08 21:23:11.092203,10942,1609502563233306,163200186,-0.8296,-0.142496,0.144448,-5.57375,-18.6375,29.33,27.232,-15.152,4.704,concentric,0,3.0,20745.0,148077.0,244143.0,297659.0,276162.0
2026-04-08 21:23:11.096616,10943,1609502563242210,163208864,-0.8296,-0.142496,0.144448,-1.785,-17.66625,31.885,27.232,-15.152,4.704,concentric,0,3.0,20745.0,148077.0,244143.0,297659.0,276162.0
2026-04-08 21:23:11.098416,10944,1609502563251116,163217536,-0.884256,-0.122976,0.177632,2.07375,-16.5025,34.25625,26.808,-15.376,2.568,concentric,0,3.0,20745.0,148077.0,244143.0,297659.0,276162.0
2026-04-08 21:23:11.099878,10945,1609502563265534,163232384,-0.876448,-0.064416,0.275232,2.9225,-16.23125,37.205,26.448002,-16.320002,5.336,concentric,0,3.0,20745.0,148077.0,244143.0,297659.0,276162.0
2026-04-08 21:23:11.140947,10946,1609502563274458,163241066,-0.876448,-0.064416,0.275232,4.0425,-15.68,39.55,26.448002,-16.320002,5.336,concentric,0,3.0,20745.0,148077.0,244143.0,297659.0,276162.0
2026-04-08 21:23:11.169681,10957,1609502563289404,163255934,-0.944768,0.01952,0.290848,5.22375,-14.735,42.62125,26.232,-16.608002,5.032,concentric,0,3.0,20877.0,148545.0,244703.0,298004.0,276380.0
2026-04-08 21:23:11.171064,10958,1609502563298506,163264686,-0.944768,0.01952,0.290848,4.64625,-15.37375,46.68125,26.232,-16.608002,5.032,concentric,0,3.0,20877.0,148545.0,244703.0,298004.0,276380.0
2026-04-08 21:23:11.175306,10959,1609502563307459,163273390,-1.007232,-0.081984,0.22448,5.13625,-15.9425,48.405,26.176,-17.28,5.304,concentric,0,3.0,20877.0,148545.0,244703.0,298004.0,276380.0
2026-04-08 21:23:11.177107,10960,1609502563321931,163288328,-1.007232,-0.081984,0.22448,3.185,-19.43375,46.8825,26.176,-17.28,5.304,concentric,0,3.0,20877.0,148545.0,244703.0,298004.0,276380.0
2026-04-08 21:23:11.178759,10961,1609502563330809,163296991,-1.065792,-0.181536,0.171776,4.85625,-20.5275,41.7725,25.816002,-17.536001,4.152,concentric,0,3.0,20877.0,148545.0,244703.0,298004.0,276380.0
2026-04-08 21:23:11.182836,10962,1609502563345293,163311871,-1.036512,-0.011712,0.314272,7.805,-20.43125,36.155,25.152,-17.76,7.096,concentric,0,3.0,20877.0,148545.0,244703.0,298004.0,276380.0
2026-04-08 21:23:11.184575,10963,1609502563354463,163320602,-1.036512,-0.011712,0.314272,11.9875,-17.80625,33.99375,25.152,-17.76,7.096,concentric,0,3.0,20877.0,148545.0,244703.0,298004.0,276380.0
2026-04-08 21:23:11.187071,10964,1609502563369000,163335542,-1.032608,0.03904,0.23424,14.18375,-15.190001,34.99125,24.952002,-18.576,6.576,concentric,0,3.0,20877.0,148545.0,244703.0,298004.0,276380.0
2026-04-08 21:23:11.189614,10965,1609502563377931,163344222,-1.032608,0.03904,0.23424,12.64375,-14.70875,37.205,24.952002,-18.576,6.576,concentric,0,3.0,20877.0,148545.0,244703.0,298004.0,276380.0
2026-04-08 21:23:11.217057,10976,1609502563387301,163352914,-1.0736,-0.021472,0.238144,10.73625,-14.2975,37.79125,24.408,-18.416,6.136,concentric,0,3.0,20946.0,148893.0,245179.0,298313.0,276515.0
2026-04-08 21:23:11.218678,10977,1609502563401888,163367834,-1.0736,-0.021472,0.238144,8.435,-14.35875,34.25625,24.408,-18.416,6.136,concentric,0,3.0,20946.0,148893.0,245179.0,298313.0,276515.0
2026-04-08 21:23:11.222709,10978,1609502563410787,163376491,-1.038464,-0.042944,0.12688,8.6275,-13.51875,29.35625,24.112001,-18.512001,6.16,concentric,0,3.0,20946.0,148893.0,245179.0,298313.0,276515.0
2026-04-08 21:23:11.251258,10979,1609502563425269,163391343,-0.901824,-0.011712,0.189344,4.655,-12.792501,27.60625,24.568,-18.936,5.312,concentric,0,3.0,20946.0,148893.0,245179.0,298313.0,276515.0
2026-04-08 21:23:11.255768,10980,1609502563434203,163400142,-0.901824,-0.011712,0.189344,1.07625,-10.52625,28.11375,24.568,-18.936,5.312,concentric,0,3.0,20946.0,148893.0,245179.0,298313.0,276515.0
2026-04-08 21:23:11.258105,10981,1609502563443089,163408794,-0.901824,-0.011712,0.189344,-3.2375,-10.15,31.9375,24.568,-18.936,5.312,concentric,0,3.0,20946.0,148893.0,245179.0,298313.0,276515.0
2026-04-08 21:23:11.261846,10982,1609502563457565,163423641,-0.979904,0.066368,0.17568,-5.36375,-11.41875,35.3675,24.288002,-19.488,6.736001,concentric,0,3.0,20946.0,148893.0,245179.0,298313.0,276515.0
2026-04-08 21:23:11.292193,10983,1609502563466570,163432330,-0.989664,-0.015616,0.163968,-2.94875,-12.1275,33.99375,23.936,-19.448002,7.472,concentric,0,3.0,20946.0,148893.0,245179.0,298313.0,276515.0
2026-04-08 21:23:11.294509,10984,1609502563481040,163447236,-0.989664,-0.015616,0.163968,-6.09875,-13.62375,31.0975,23.936,-19.448002,7.472,concentric,0,3.0,20946.0,148893.0,245179.0,298313.0,276515.0
2026-04-08 21:23:11.330484,10995,1609502563490480,163456305,-0.929152,0.0,0.103456,-10.14125,-13.1075,29.05875,23.632002,-19.832,5.64,concentric,0,3.0,21005.0,149148.0,245479.0,298510.0,276640.0
2026-04-08 21:23:11.336623,10996,1609502563505076,163471248,-0.942816,0.07808,0.327936,-7.28875,-11.4975,28.866251,23.632002,-19.832,5.368,concentric,0,3.0,21005.0,149148.0,245479.0,298510.0,276640.0
2026-04-08 21:23:11.338261,10997,1609502563514001,163479926,-0.942816,0.07808,0.327936,1.26875,-10.8325,31.98125,23.232,-20.240002,5.368,concentric,0,3.0,21005.0,149148.0,245479.0,298510.0,276640.0
2026-04-08 21:23:11.339834,10998,1609502563522923,163488656,-0.942816,0.07808,0.327936,11.0075,-9.49375,35.21,23.232,-20.240002,5.368,concentric,0,3.0,21005.0,149148.0,245479.0,298510.0,276640.0
2026-04-08 21:23:11.343975,10999,1609502563537431,163503573,-0.977952,0.070272,0.206912,16.1875,-8.54875,34.79,23.000002,-20.968,6.048,concentric,0,3.0,21005.0,149148.0,245479.0,298510.0,276640.0
2026-04-08 21:23:11.351483,11000,1609502563546373,163512288,-1.052128,0.076128,0.218624,15.785,-6.20375,30.4325,22.784,-21.272001,6.68,concentric,0,3.0,21005.0,149148.0,245479.0,298510.0,276640.0
2026-04-08 21:23:11.380046,11001,1609502563560892,163527178,-1.052128,0.076128,0.218624,6.20375,-5.25875,30.695,22.784,-21.272001,6.68,concentric,0,3.0,21005.0,149148.0,245479.0,298510.0,276640.0
2026-04-08 21:23:11.384545,11002,1609502563569794,163535826,-1.013088,0.1464,0.310368,-1.9075,-5.39,33.13625,22.816002,-21.800001,5.816001,concentric,0,3.0,21005.0,149148.0,245479.0,298510.0,276640.0
2026-04-08 21:23:11.391458,11003,1609502563584253,163550671,-1.013088,0.1464,0.310368,-3.75375,-5.6,33.46875,22.816002,-21.800001,5.816001,concentric,0,3.0,21005.0,149148.0,245479.0,298510.0,276640.0
2026-04-08 21:23:11.452056,11014,1609502563593219,163559398,-1.050176,0.08784,0.347456,3.40375,-3.6575,30.975,22.816002,-21.712002,6.808,concentric,0,3.0,21081.0,149491.0,245894.0,298791.0,276803.0
2026-04-08 21:23:11.453656,11015,1609502563602223,163568140,-1.050176,0.08784,0.347456,8.4525,0.1225,27.58,22.816002,-21.712002,6.808,concentric,0,3.0,21081.0,149491.0,245894.0,298791.0,276803.0
2026-04-08 21:23:11.457828,11016,1609502563616706,163583009,-1.1224,0.089792,0.238144,5.29375,0.5425,27.125,21.792002,-22.072,6.352,concentric,0,3.0,21081.0,149491.0,245894.0,298791.0,276803.0
2026-04-08 21:23:11.459591,11017,1609502563625697,163591687,-1.1224,0.10736,0.327936,5.18875,1.155,25.2525,21.792002,-22.072,5.024,concentric,0,3.0,21081.0,149491.0,245894.0,298791.0,276803.0
2026-04-08 21:23:11.461115,11018,1609502563640174,163606569,-1.098976,0.10736,0.327936,6.86875,0.56875,22.015,22.456001,-22.736002,5.024,concentric,0,3.0,21081.0,149491.0,245894.0,298791.0,276803.0
2026-04-08 21:23:11.465405,11019,1609502563649120,163615274,-1.081408,0.103456,0.290848,6.58,0.2975,19.1275,22.536001,-22.448002,5.112001,concentric,0,3.0,21081.0,149491.0,245894.0,298791.0,276803.0
2026-04-08 21:23:11.466926,11020,1609502563658088,163623996,-1.081408,0.103456,0.290848,5.4775,-0.945,17.08875,22.536001,-22.448002,5.112001,concentric,0,3.0,21081.0,149491.0,245894.0,298791.0,276803.0
2026-04-08 21:23:11.497245,11021,1609502563672640,163638890,-1.081408,0.093696,0.277184,5.635,-1.3125,15.75875,22.328001,-22.456001,5.912,concentric,0,3.0,21081.0,149491.0,245894.0,298791.0,276803.0
2026-04-08 21:23:11.500907,11022,1609502563681545,163647570,-1.081408,0.093696,0.277184,5.95875,-1.56625,14.55125,22.328001,-22.456001,5.912,concentric,0,3.0,21081.0,149491.0,245894.0,298791.0,276803.0
2026-04-08 21:23:11.527490,11033,1609502563696571,163662527,-1.0736,0.124928,0.257664,3.57,-3.71,17.01875,22.560001,-23.064001,5.08,concentric,0,3.0,21148.0,149765.0,246191.0,298965.0,276908.0
2026-04-08 21:23:11.531545,11034,1609502563705721,163671229,-1.0736,0.124928,0.257664,3.9025,-5.0225,17.12375,22.560001,-23.064001,5.08,concentric,0,3.0,21148.0,149765.0,246191.0,298965.0,276908.0
2026-04-08 21:23:11.533226,11035,1609502563715119,163682001,-1.057984,0.081984,0.267424,6.4925,-5.57375,15.04125,21.704,-23.064001,6.864,concentric,0,3.0,21148.0,149765.0,246191.0,298965.0,276908.0
2026-04-08 21:23:11.534860,11036,1609502563729636,163694856,-1.018944,0.144448,0.255712,5.74875,-6.01125,13.65,21.992,-23.208,4.832,concentric,0,3.0,21148.0,149765.0,246191.0,298965.0,276908.0
2026-04-08 21:23:11.565938,11037,1609502563738906,163705599,-1.018944,0.144448,0.255712,6.22125,-5.01375,11.83875,21.992,-23.208,4.832,concentric,0,3.0,21148.0,149765.0,246191.0,298965.0,276908.0
2026-04-08 21:23:11.570415,11038,1609502563753411,163720467,-1.007232,0.121024,0.238144,6.8075,-3.36875,11.095,22.240002,-23.264002,4.656,concentric,0,3.0,21148.0,149765.0,246191.0,298965.0,276908.0
2026-04-08 21:23:11.571922,11039,1609502563762313,163729131,-1.007232,0.121024,0.238144,2.0825,-2.8175,12.39,22.240002,-23.264002,4.656,concentric,0,3.0,21148.0,149765.0,246191.0,298965.0,276908.0
2026-04-08 21:23:11.577776,11040,1609502563771221,163737773,-0.989664,0.08784,0.232288,-1.4,-3.94625,15.5225,21.808,-23.800001,5.256,concentric,0,3.0,21148.0,149765.0,246191.0,298965.0,276908.0
2026-04-08 21:23:11.610934,11041,1609502563785690,163752676,-0.989664,0.08784,0.232288,1.68875,-4.2525,16.49375,21.808,-23.800001,5.256,concentric,0,3.0,21148.0,149765.0,246191.0,298965.0,276908.0
2026-04-08 21:23:11.642084,11053,1609502563794724,163761355,-0.972096,0.130784,0.320128,5.9325,-3.815,14.175,22.032001,-23.488,4.016,concentric,0,3.0,21283.0,150270.0,246756.0,299272.0,277136.0
2026-04-08 21:23:11.643683,11054,1609502563809240,163776251,-0.923296,0.171776,0.267424,7.72625,-4.54125,13.34375,21.616001,-24.288002,5.112001,concentric,0,3.0,21283.0,150270.0,246756.0,299272.0,277136.0
2026-04-08 21:23:11.648119,11055,1609502563818189,163784945,-0.923296,0.171776,0.267424,9.1,-5.04,12.25875,21.616001,-24.288002,5.112001,concentric,0,3.0,21283.0,150270.0,246756.0,299272.0,277136.0
2026-04-08 21:23:11.649741,11056,1609502563832722,163799844,-0.958432,0.148352,0.220576,9.0475,-5.13625,11.3575,21.04,-24.128,5.456,concentric,0,3.0,21283.0,150270.0,246756.0,299272.0,277136.0
2026-04-08 21:23:11.651105,11057,1609502563841639,163808535,-0.958432,0.148352,0.220576,3.9025,-7.1225,13.04625,21.04,-24.128,5.456,concentric,0,3.0,21283.0,150270.0,246756.0,299272.0,277136.0
2026-04-08 21:23:11.657717,11058,1609502563850592,163817199,-1.06384,0.167872,0.347456,1.6625,-10.49125,15.18125,20.968,-24.688002,5.696,concentric,0,3.0,21283.0,150270.0,246756.0,299272.0,277136.0
2026-04-08 21:23:11.686282,11059,1609502563865077,163832142,-1.06384,0.167872,0.347456,3.0625,-15.25125,15.198751,20.968,-24.688002,5.696,concentric,0,3.0,21283.0,150270.0,246756.0,299272.0,277136.0
2026-04-08 21:23:11.690775,11060,1609502563873991,163840800,-1.081408,0.187392,0.28304,8.05875,-18.29625,11.75125,21.408,-24.6,5.112001,concentric,0,3.0,21283.0,150270.0,246756.0,299272.0,277136.0
2026-04-08 21:23:11.692301,11061,1609502563888455,163853618,-1.065792,0.203008,0.353312,8.37375,-20.27375,7.35875,21.128,-24.944,3.48,concentric,0,3.0,21283.0,150270.0,246756.0,299272.0,277136.0
2026-04-08 21:23:11.752557,11072,1609502563898169,163864477,-1.065792,0.203008,0.353312,8.60125,-18.97875,2.87,21.128,-24.944,3.48,concentric,0,3.0,21478.0,151152.0,247811.0,299918.0,277476.0
2026-04-08 21:23:11.756613,11073,1609502563907137,163873143,-1.065792,0.23424,0.365024,7.46375,-15.190001,1.4525,21.128,-24.944,3.48,concentric,0,3.0,21478.0,151152.0,247811.0,299918.0,277476.0
2026-04-08 21:23:11.758371,11074,1609502563921617,163888002,-1.026752,0.236192,0.365024,3.885,-8.785,2.0125,21.328001,-25.12,5.544,concentric,0,3.0,21478.0,151152.0,247811.0,299918.0,277476.0
2026-04-08 21:23:11.759993,11075,1609502563930525,163896664,-1.009184,0.271328,0.378688,-1.7325,-2.415,1.82,21.688002,-24.904001,4.92,concentric,0,3.0,21478.0,151152.0,247811.0,299918.0,277476.0
2026-04-08 21:23:11.764107,11076,1609502563945045,163911572,-1.009184,0.271328,0.378688,-6.2825,1.5575,2.45,21.688002,-24.904001,4.92,concentric,0,3.0,21478.0,151152.0,247811.0,299918.0,277476.0
2026-04-08 21:23:11.766457,11077,1609502563953968,163920269,-0.962336,0.212768,0.32208,-11.261251,4.165,3.57875,20.992,-24.768002,5.584,concentric,0,3.0,21478.0,151152.0,247811.0,299918.0,277476.0
2026-04-08 21:23:11.795054,11078,1609502563968471,163935147,-0.962336,0.160064,0.296704,-17.64875,4.3575,3.92875,21.176,-24.968,3.144,concentric,0,3.0,21478.0,151152.0,247811.0,299918.0,277476.0
2026-04-08 21:23:11.799596,11079,1609502563977449,163943825,-0.962336,0.160064,0.296704,-16.0475,6.34375,1.9775,21.176,-24.968,3.144,concentric,0,3.0,21478.0,151152.0,247811.0,299918.0,277476.0
2026-04-08 21:23:11.801102,11080,1609502563986405,163952537,-0.962336,0.160064,0.296704,-12.22375,9.84375,-0.06125,21.176,-24.968,3.144,concentric,0,3.0,21478.0,151152.0,247811.0,299918.0,277476.0
2026-04-08 21:23:11.828697,11091,1609502564000961,163967467,-1.022848,0.191296,0.22448,-8.0675,12.60875,-0.84875,21.920002,-24.912,4.128,concentric,0,3.0,21777.0,152361.0,249233.0,300696.0,277906.0
2026-04-08 21:23:11.832843,11092,1609502564009909,163976167,-1.028704,0.201056,0.267424,-4.5325,14.27125,-1.015,21.888,-25.384,4.92,concentric,0,3.0,21777.0,152361.0,249233.0,300696.0,277906.0
2026-04-08 21:23:11.835298,11093,1609502564024469,163991085,-1.028704,0.201056,0.267424,-3.40375,13.55375,-1.995,21.888,-25.384,4.92,concentric,0,3.0,21777.0,152361.0,249233.0,300696.0,277906.0
2026-04-08 21:23:11.848008,11094,1609502564033400,163999775,-1.00528,0.197152,0.306464,-2.82625,13.30875,-5.06625,22.144001,-24.976002,4.328,concentric,0,3.0,21777.0,152361.0,249233.0,300696.0,277906.0
2026-04-08 21:23:11.853994,11095,1609502564048265,164014665,-1.08336,0.238144,0.267424,-0.91,13.41375,-8.61,22.144001,-24.976002,3.664,concentric,0,3.0,21777.0,152361.0,249233.0,300696.0,277906.0
2026-04-08 21:23:11.882533,11096,1609502564057277,164023352,-1.085312,0.238144,0.267424,1.05,14.60375,-9.6425,22.376001,-25.160002,3.664,concentric,0,3.0,21777.0,152361.0,249233.0,300696.0,277906.0
2026-04-08 21:23:11.887731,11097,1609502564066208,164032010,-1.085312,0.238144,0.267424,2.70375,15.82,-7.6125,22.376001,-25.160002,3.664,concentric,0,3.0,21777.0,152361.0,249233.0,300696.0,277906.0
2026-04-08 21:23:11.893984,11098,1609502564080693,164046924,-1.130208,0.247904,0.208864,4.64625,17.36875,-5.66125,22.816002,-25.128,4.72,concentric,0,3.0,21777.0,152361.0,249233.0,300696.0,277906.0
2026-04-08 21:23:11.920871,11109,1609502564089669,164055579,-1.15168,0.255712,0.306464,4.7775,18.4625,-6.32625,23.016,-25.168001,4.96,concentric,0,3.0,21641.0,151801.0,248573.0,300295.0,277677.0
2026-04-08 21:23:11.922432,11110,1609502564104926,164070476,-1.15168,0.255712,0.306464,2.03875,19.04,-6.6675,23.016,-25.168001,4.96,concentric,0,3.0,21641.0,151801.0,248573.0,300295.0,277677.0
2026-04-08 21:23:11.925635,11111,1609502564114207,164081211,-1.165344,0.294752,0.236192,-0.4375,18.865,-5.915,22.992,-25.032001,4.352,concentric,0,3.0,21641.0,151801.0,248573.0,300295.0,277677.0
2026-04-08 21:23:11.929351,11112,1609502564123134,164089923,-1.165344,0.294752,0.236192,-2.1525,18.0425,-5.13625,22.992,-25.032001,4.352,concentric,0,3.0,21641.0,151801.0,248573.0,300295.0,277677.0
2026-04-08 21:23:11.959747,11113,1609502564137664,164102815,-1.196576,0.259616,0.290848,-2.96625,17.0975,-4.13,23.336,-25.104002,3.704,concentric,0,3.0,21641.0,151801.0,248573.0,300295.0,277677.0
2026-04-08 21:23:11.964018,11114,1609502564146845,164113586,-1.196576,0.259616,0.290848,-5.495,15.365,-1.9425,23.336,-25.104002,3.704,concentric,0,3.0,21641.0,151801.0,248573.0,300295.0,277677.0
2026-04-08 21:23:11.968219,11115,1609502564161337,164128473,-1.179008,0.275232,0.286944,-5.87125,13.825,-0.30625,23.640001,-25.056002,3.64,concentric,0,3.0,21641.0,151801.0,248573.0,300295.0,277677.0
2026-04-08 21:23:11.996285,11116,1609502564170249,164137124,-1.204384,0.259616,0.23424,-3.7975,12.32,-1.5575,23.368002,-25.36,3.056,concentric,0,3.0,21641.0,151801.0,248573.0,300295.0,277677.0
2026-04-08 21:23:12.000727,11117,1609502564179279,164145806,-1.204384,0.259616,0.23424,-2.415,11.261251,-2.72125,23.368002,-25.36,3.056,concentric,0,3.0,21641.0,151801.0,248573.0,300295.0,277677.0
2026-04-08 21:23:12.062399,11128,1609502564194313,164160755,-1.14192,0.275232,0.324032,-3.815,9.54625,-2.16125,24.024002,-25.264002,3.624,concentric,0,3.0,21423.0,150920.0,247527.0,299717.0,277408.0
2026-04-08 21:23:12.066684,11129,1609502564203262,164169421,-1.14192,0.275232,0.324032,-5.81,7.9275,-0.07,24.024002,-25.264002,3.624,concentric,0,3.0,21423.0,150920.0,247527.0,299717.0,277408.0
2026-04-08 21:23:12.068289,11130,1609502564217713,164184278,-1.159488,0.308416,0.226432,-7.6475,5.5125,1.47875,23.768002,-25.432001,3.344,concentric,0,3.0,21423.0,150920.0,247527.0,299717.0,277408.0
2026-04-08 21:23:12.069895,11131,1609502564226628,164192926,-1.159488,0.308416,0.226432,-10.35125,4.4625,1.68875,23.768002,-25.432001,3.344,concentric,0,3.0,21423.0,150920.0,247527.0,299717.0,277408.0
2026-04-08 21:23:12.074120,11132,1609502564235540,164201591,-1.128256,0.251808,0.210816,-15.28625,2.89625,2.58125,23.656002,-25.464,3.64,concentric,0,3.0,21423.0,150920.0,247527.0,299717.0,277408.0
2026-04-08 21:23:12.075834,11133,1609502564250063,164216490,-1.130208,0.23424,0.17568,-20.7375,0.48125,4.71625,23.808,-25.000002,3.808,concentric,0,3.0,21423.0,150920.0,247527.0,299717.0,277408.0
2026-04-08 21:23:12.077387,11134,1609502564259065,164225175,-1.130208,0.23424,0.17568,-22.8375,-1.0675,5.6175,23.808,-25.000002,3.808,concentric,0,3.0,21423.0,150920.0,247527.0,299717.0,277408.0
2026-04-08 21:23:12.081469,11135,1609502564273570,164240131,-1.1224,0.230336,0.220576,-21.06125,-0.595,2.98375,23.808,-25.352001,4.112,concentric,0,3.0,21423.0,150920.0,247527.0,299717.0,277408.0
2026-04-08 21:23:12.087720,11136,1609502564282518,164248833,-1.1224,0.230336,0.220576,-17.99,-1.07625,0.90125,23.808,-25.352001,4.112,concentric,0,3.0,21423.0,150920.0,247527.0,299717.0,277408.0
2026-04-08 21:23:12.144118,11147,1609502564297038,164263828,-1.057984,0.22448,0.187392,-15.6975,-1.86375,1.35625,23.352001,-25.184002,2.576,concentric,0,3.0,21440.0,150892.0,247429.0,299612.0,277333.0
2026-04-08 21:23:12.145840,11148,1609502564305928,164272490,-1.057984,0.22448,0.187392,-13.06375,-2.10875,0.95375,23.352001,-25.184002,2.576,concentric,0,3.0,21440.0,150892.0,247429.0,299612.0,277333.0
2026-04-08 21:23:12.147399,11149,1609502564314837,164281127,-1.069696,0.216672,0.070272,-9.8525,-2.58125,0.76125,23.664001,-25.920002,3.8,concentric,0,3.0,21440.0,150892.0,247429.0,299612.0,277333.0
2026-04-08 21:23:12.151615,11150,1609502564329352,164296025,-1.069696,0.216672,0.070272,-6.615,-3.115,0.665,23.664001,-25.920002,3.8,concentric,0,3.0,21440.0,150892.0,247429.0,299612.0,277333.0
2026-04-08 21:23:12.154130,11151,1609502564338457,164304740,-1.067744,0.20496,0.249856,-4.59375,-4.76,0.3325,23.352001,-25.552002,4.032,concentric,0,3.0,21440.0,150892.0,247429.0,299612.0,277333.0
2026-04-08 21:23:12.160225,11152,1609502564352988,164319623,-1.038464,0.23424,0.183488,-6.9475,-5.705,0.11375,23.152,-25.384,4.912,concentric,0,3.0,21440.0,150892.0,247429.0,299612.0,277333.0
