pc_time,serial_num,sensor_ts,host_ts,ax,ay,az,gx,gy,gz,mx,my,mz,phase,rpe,weight_kg,ppg_a,ppg_b,ppg_c,ppg_d,ppg_e
2026-04-08 21:23:12.188761,11153,1609502564361901,164328339,-1.038464,0.23424,0.183488,-9.17875,-6.4225,-0.455,23.152,-25.384,4.912,eccentric,0,3.0,21440.0,150892.0,247429.0,299612.0,277333.0
2026-04-08 21:23:12.192345,11154,1609502564376376,164343180,-1.075552,0.275232,0.210816,-10.5875,-6.3,-0.95375,23.256,-25.672,4.656,eccentric,0,3.0,21440.0,150892.0,247429.0,299612.0,277333.0
2026-04-08 21:23:12.196426,11155,1609502564385339,164351904,-1.075552,0.275232,0.210816,-15.085,-7.6125,0.34125,23.256,-25.672,4.656,eccentric,0,3.0,21440.0,150892.0,247429.0,299612.0,277333.0
2026-04-08 21:23:12.224131,11166,1609502564394718,164360606,-1.057984,0.208864,0.203008,-17.22,-8.1025,0.91875,23.432001,-25.376001,4.672,eccentric,0,3.0,21446.0,150983.0,247493.0,299615.0,277345.0
2026-04-08 21:23:12.225845,11167,1609502564409305,164375523,-1.057984,0.208864,0.203008,-17.465,-9.8525,1.995,23.432001,-25.376001,4.672,eccentric,0,3.0,21446.0,150983.0,247493.0,299615.0,277345.0
2026-04-08 21:23:12.227672,11168,1609502564418351,164384272,-1.106784,0.25376,0.320128,-13.965,-10.75375,0.9975,22.696001,-25.328001,6.048,eccentric,0,3.0,21446.0,150983.0,247493.0,299615.0,277345.0
2026-04-08 21:23:12.258469,11169,1609502564432825,164399158,-1.128256,0.308416,0.27328,-10.36,-9.77375,-0.455,22.456001,-25.416,5.64,eccentric,0,3.0,21446.0,150983.0,247493.0,299615.0,277345.0
2026-04-08 21:23:12.260741,11170,1609502564441722,164407810,-1.128256,0.308416,0.27328,-10.43,-9.24875,0.14,22.456001,-25.416,5.64,eccentric,0,3.0,21446.0,150983.0,247493.0,299615.0,277345.0
2026-04-08 21:23:12.265383,11171,1609502564450605,164416527,-1.128256,0.298656,0.31232,-13.30875,-11.80375,2.19625,22.456001,-25.416,5.64,eccentric,0,3.0,21446.0,150983.0,247493.0,299615.0,277345.0
2026-04-08 21:23:12.269437,11172,1609502564465041,164431448,-1.153632,0.298656,0.31232,-18.61125,-15.75875,2.6075,22.936,-25.344002,4.52,eccentric,0,3.0,21446.0,150983.0,247493.0,299615.0,277345.0
2026-04-08 21:23:12.300053,11173,1609502564473963,164440165,-1.095072,0.226432,0.359168,-20.01125,-18.9875,0.63,23.008001,-25.144001,5.512,eccentric,0,3.0,21446.0,150983.0,247493.0,299615.0,277345.0
2026-04-08 21:23:12.333755,11174,1609502564488435,164455042,-1.095072,0.226432,0.359168,-15.96,-19.95,-0.9625,23.008001,-25.144001,5.512,eccentric,0,3.0,21446.0,150983.0,247493.0,299615.0,277345.0
2026-04-08 21:23:12.396139,11185,1609502564497556,164463908,-1.124352,0.265472,0.265472,-8.37375,-18.025,-1.0325,22.808,-25.256,5.808,eccentric,0,3.0,21508.0,151198.0,247730.0,299736.0,277389.0
2026-04-08 21:23:12.400374,11186,1609502564512079,164478878,-1.081408,0.28304,0.359168,-4.45375,-15.6975,-0.315,22.960001,-24.928001,6.336,eccentric,0,3.0,21508.0,151198.0,247730.0,299736.0,277389.0
2026-04-08 21:23:12.402081,11187,1609502564521000,164487556,-1.081408,0.28304,0.359168,-4.64625,-15.9425,1.26875,22.960001,-24.928001,6.336,eccentric,0,3.0,21508.0,151198.0,247730.0,299736.0,277389.0
2026-04-08 21:23:12.403743,11188,1609502564529947,164496215,-1.081408,0.28304,0.359168,-7.805,-16.1,1.4,22.960001,-24.928001,6.336,eccentric,0,3.0,21508.0,151198.0,247730.0,299736.0,277389.0
2026-04-08 21:23:12.407877,11189,1609502564544428,164511092,-1.059936,0.255712,0.337696,-11.20875,-15.75875,-0.4375,23.032001,-24.712002,5.384,eccentric,0,3.0,21508.0,151198.0,247730.0,299736.0,277389.0
2026-04-08 21:23:12.409527,11190,1609502564553323,164519742,-1.067744,0.220576,0.290848,-11.13,-14.14875,-0.245,22.248001,-24.488,4.64,eccentric,0,3.0,21508.0,151198.0,247730.0,299736.0,277389.0
2026-04-08 21:23:12.411132,11191,1609502564567798,164534581,-1.067744,0.220576,0.290848,-10.70125,-13.09875,1.47875,22.248001,-24.488,4.64,eccentric,0,3.0,21508.0,151198.0,247730.0,299736.0,277389.0
2026-04-08 21:23:12.415176,11192,1609502564576745,164543286,-1.050176,0.216672,0.308416,-9.59875,-12.46875,1.28625,22.608002,-24.712002,6.512,eccentric,0,3.0,21508.0,151198.0,247730.0,299736.0,277389.0
2026-04-08 21:23:12.451670,11203,1609502564591298,164558125,-1.050176,0.216672,0.27328,-7.37625,-10.5175,0.72625,22.608002,-24.712002,6.512,eccentric,0,3.0,21568.0,151413.0,247949.0,299801.0,277428.0
2026-04-08 21:23:12.453359,11204,1609502564600380,164566837,-1.0736,0.240096,0.27328,-4.8125,-8.33,0.0525,22.064001,-24.36,5.168,eccentric,0,3.0,21568.0,151413.0,247949.0,299801.0,277428.0
2026-04-08 21:23:12.455005,11205,1609502564609418,164575562,-1.0736,0.240096,0.27328,-3.64875,-4.7425,-0.9275,22.064001,-24.36,5.168,eccentric,0,3.0,21568.0,151413.0,247949.0,299801.0,277428.0
2026-04-08 21:23:12.459131,11206,1609502564623937,164590496,-1.081408,0.269376,0.296704,-4.62875,-2.1,0.245,21.480001,-24.240002,5.272,eccentric,0,3.0,21568.0,151413.0,247949.0,299801.0,277428.0
2026-04-08 21:23:12.460841,11207,1609502564632900,164599292,-1.079456,0.255712,0.316224,-7.105,-0.16625,0.11375,21.872002,-24.168001,6.032,eccentric,0,3.0,21568.0,151413.0,247949.0,299801.0,277428.0
2026-04-08 21:23:12.462497,11208,1609502564647410,164614183,-1.079456,0.255712,0.316224,-9.02125,-0.53375,-0.20125,21.872002,-24.168001,6.032,eccentric,0,3.0,21568.0,151413.0,247949.0,299801.0,277428.0
2026-04-08 21:23:12.466468,11209,1609502564656388,164622893,-1.046272,0.230336,0.32208,-6.67625,-0.60375,-0.105,22.024,-24.744001,6.28,eccentric,0,3.0,21568.0,151413.0,247949.0,299801.0,277428.0
2026-04-08 21:23:12.495043,11210,1609502564670907,164637774,-1.046272,0.230336,0.32208,-2.09125,0.00875,-0.4375,22.024,-24.744001,6.28,eccentric,0,3.0,21568.0,151413.0,247949.0,299801.0,277428.0
2026-04-08 21:23:12.499614,11211,1609502564679833,164646415,-1.091168,0.226432,0.281088,0.98875,0.07,0.06125,21.792002,-24.36,6.552001,eccentric,0,3.0,21568.0,151413.0,247949.0,299801.0,277428.0
2026-04-08 21:23:12.501127,11212,1609502564688774,164655150,-1.091168,0.226432,0.281088,2.835,-0.27125,0.0525,21.792002,-24.36,6.552001,eccentric,0,3.0,21568.0,151413.0,247949.0,299801.0,277428.0
2026-04-08 21:23:12.530354,11223,1609502564703368,164670116,-1.106784,0.245952,0.31232,4.41,0.39375,-1.18125,21.960001,-24.568,6.704001,eccentric,0,3.0,21495.0,151105.0,247518.0,299527.0,277287.0
2026-04-08 21:23:12.532090,11224,1609502564712395,164678802,-1.08336,0.277184,0.3904,4.2,0.7525,-2.5725,21.960001,-24.568,5.888001,eccentric,0,3.0,21495.0,151105.0,247518.0,299527.0,277287.0
2026-04-08 21:23:12.534019,11225,1609502564726973,164693771,-1.08336,0.277184,0.3904,4.025,0.98,-2.905,21.592001,-24.36,5.888001,eccentric,0,3.0,21495.0,151105.0,247518.0,299527.0,277287.0
2026-04-08 21:23:12.540746,11226,1609502564735904,164702485,-1.097024,0.242048,0.306464,3.10625,-0.035,-3.01,21.312,-24.384,6.28,eccentric,0,3.0,21495.0,151105.0,247518.0,299527.0,277287.0
2026-04-08 21:23:12.570959,11227,1609502564744834,164711148,-1.097024,0.242048,0.306464,1.19,-1.435,-3.75375,21.312,-24.384,6.28,eccentric,0,3.0,21495.0,151105.0,247518.0,299527.0,277287.0
2026-04-08 21:23:12.575402,11228,1609502564759343,164725985,-1.104832,0.222528,0.3904,-0.3675,-2.1525,-4.97,21.552002,-24.224,7.096,eccentric,0,3.0,21495.0,151105.0,247518.0,299527.0,277287.0
2026-04-08 21:23:12.576941,11229,1609502564768293,164734690,-1.104832,0.222528,0.3904,-2.02125,-2.17,-6.23,21.552002,-24.224,7.096,eccentric,0,3.0,21495.0,151105.0,247518.0,299527.0,277287.0
2026-04-08 21:23:12.634765,11230,1609502564782807,164749568,-1.052128,0.232288,0.404064,-3.70125,-2.16125,-8.26875,21.648,-24.128,6.464,eccentric,0,3.0,21495.0,151105.0,247518.0,299527.0,277287.0
2026-04-08 21:23:12.636953,11231,1609502564791715,164758242,-1.052128,0.232288,0.404064,-6.58,-1.785,-10.17625,21.648,-24.128,6.464,eccentric,0,3.0,21495.0,151105.0,247518.0,299527.0,277287.0
2026-04-08 21:23:12.665851,11242,1609502564806232,164773113,-1.069696,0.240096,0.320128,-9.905,-1.68,-10.50875,21.392,-23.992,5.352,eccentric,0,3.0,21371.0,150488.0,246734.0,299037.0,277014.0
2026-04-08 21:23:12.667518,11243,1609502564815175,164781775,-1.089216,0.206912,0.339648,-12.0225,-2.58125,-9.80875,21.560001,-23.880001,6.712,eccentric,0,3.0,21371.0,150488.0,246734.0,299037.0,277014.0
2026-04-08 21:23:12.671632,11244,1609502564824092,164790414,-1.089216,0.206912,0.339648,-13.34375,-3.99,-9.6075,21.560001,-23.880001,6.712,eccentric,0,3.0,21371.0,150488.0,246734.0,299037.0,277014.0
2026-04-08 21:23:12.673381,11245,1609502564838549,164805302,-1.057984,0.173728,0.366976,-13.658751,-4.99625,-11.9875,21.76,-23.872002,6.456,eccentric,0,3.0,21371.0,150488.0,246734.0,299037.0,277014.0
2026-04-08 21:23:12.675019,11246,1609502564847552,164814021,-1.057984,0.173728,0.366976,-13.055,-5.81,-14.34125,21.76,-23.872002,6.456,eccentric,0,3.0,21371.0,150488.0,246734.0,299037.0,277014.0
2026-04-08 21:23:12.679158,11247,1609502564862052,164828949,-1.038464,0.179584,0.337696,-10.535,-4.3925,-16.7125,20.952002,-23.152,7.648,eccentric,0,3.0,21371.0,150488.0,246734.0,299037.0,277014.0
2026-04-08 21:23:12.681573,11248,1609502564871023,164837611,-1.038464,0.179584,0.337696,-9.5375,-3.68375,-16.73875,20.952002,-23.152,7.648,eccentric,0,3.0,21371.0,150488.0,246734.0,299037.0,277014.0
2026-04-08 21:23:12.713545,11249,1609502564885517,164852506,-1.028704,0.206912,0.427488,-7.9275,-4.795,-16.77375,21.400002,-23.104002,7.808001,eccentric,0,3.0,21371.0,150488.0,246734.0,299037.0,277014.0
2026-04-08 21:23:12.744901,11260,1609502564894537,164861790,-1.018944,0.163968,0.288896,-5.425,-5.775,-17.68375,21.664001,-22.936,7.008,eccentric,0,3.0,21279.0,150009.0,246114.0,298603.0,276744.0
2026-04-08 21:23:12.748294,11261,1609502564903514,164870485,-1.018944,0.163968,0.288896,-2.75625,-7.27125,-17.94625,21.664001,-22.936,7.008,eccentric,0,3.0,21279.0,150009.0,246114.0,298603.0,276744.0
2026-04-08 21:23:12.750778,11262,1609502564917981,164883297,-1.06384,0.128832,0.269376,0.525,-6.93,-20.3,21.704,-22.984001,7.128,eccentric,0,3.0,21279.0,150009.0,246114.0,298603.0,276744.0
2026-04-08 21:23:12.752337,11263,1609502564927476,164894184,-1.06384,0.128832,0.269376,0.805,-4.83,-22.8025,21.704,-22.984001,7.128,eccentric,0,3.0,21279.0,150009.0,246114.0,298603.0,276744.0
2026-04-08 21:23:12.756683,11264,1609502564941982,164909124,-1.075552,0.150304,0.1952,-3.77125,-1.61875,-24.24625,21.640001,-22.408,7.408001,eccentric,0,3.0,21279.0,150009.0,246114.0,298603.0,276744.0
2026-04-08 21:23:12.759069,11265,1609502564950931,164917782,-1.075552,0.150304,0.1952,-10.49125,-1.9075,-23.66,21.640001,-22.408,7.408001,eccentric,0,3.0,21279.0,150009.0,246114.0,298603.0,276744.0
2026-04-08 21:23:12.765323,11266,1609502564959900,164926541,-0.98576,0.163968,0.3904,-10.823751,-2.93125,-24.185,21.856,-22.448002,7.352,eccentric,0,3.0,21279.0,150009.0,246114.0,298603.0,276744.0
2026-04-08 21:23:12.793890,11267,1609502564974362,164941423,-0.983808,0.095648,0.345504,-6.65,-3.78875,-26.55625,22.136002,-22.088001,7.448,eccentric,0,3.0,21279.0,150009.0,246114.0,298603.0,276744.0
2026-04-08 21:23:12.798442,11268,1609502564983256,164950139,-0.983808,0.095648,0.345504,-2.66,-4.445,-27.0375,22.136002,-22.088001,7.448,eccentric,0,3.0,21279.0,150009.0,246114.0,298603.0,276744.0
2026-04-08 21:23:12.829133,11279,1609502564998265,164965096,-1.040416,0.0976,0.306464,3.36,-3.92,-27.79875,22.256,-21.968,7.264,eccentric,0,3.0,21147.0,149502.0,245460.0,298211.0,276517.0
2026-04-08 21:23:12.830912,11280,1609502565007394,164973801,-1.040416,0.0976,0.306464,7.945,-2.03875,-29.4175,22.256,-21.968,7.264,eccentric,0,3.0,21147.0,149502.0,245460.0,298211.0,276517.0
2026-04-08 21:23:12.832398,11281,1609502565016343,164982524,-1.050176,0.193248,0.296704,10.57,0.735,-32.655,21.928001,-21.936,7.448,eccentric,0,3.0,21147.0,149502.0,245460.0,298211.0,276517.0
2026-04-08 21:23:12.836486,11282,1609502565030852,164997412,-1.050176,0.193248,0.296704,9.5025,1.23375,-34.36125,21.928001,-21.936,7.448,eccentric,0,3.0,21147.0,149502.0,245460.0,298211.0,276517.0
2026-04-08 21:23:12.865112,11283,1609502565039789,165006079,-0.968192,0.152256,0.300608,2.8,-2.49375,-33.1625,22.2,-21.560001,7.088,eccentric,0,3.0,21147.0,149502.0,245460.0,298211.0,276517.0
2026-04-08 21:23:12.869586,11284,1609502565054274,165020973,-0.968192,0.033184,0.238144,-8.33875,-6.4225,-32.59375,22.2,-21.560001,9.136001,eccentric,0,3.0,21147.0,149502.0,245460.0,298211.0,276517.0
2026-04-08 21:23:12.871087,11285,1609502565063204,165029634,-0.958432,0.033184,0.238144,-13.50125,-7.20125,-33.10125,22.2,-20.984001,8.352,eccentric,0,3.0,21147.0,149502.0,245460.0,298211.0,276517.0
2026-04-08 21:23:12.933513,11286,1609502565077686,165044533,-0.976,0.111264,0.320128,-11.62,-7.805,-32.9875,22.176,-20.768002,8.064,eccentric,0,3.0,21147.0,149502.0,245460.0,298211.0,276517.0
2026-04-08 21:23:12.938044,11287,1609502565086600,165053191,-0.976,0.111264,0.320128,-5.88,-6.64125,-33.95875,22.176,-20.768002,8.064,eccentric,0,3.0,21147.0,149502.0,245460.0,298211.0,276517.0
2026-04-08 21:23:12.974219,11298,1609502565101251,165068180,-0.950624,0.13664,0.324032,-1.1025,-4.83875,-36.4875,22.272001,-20.488,7.776001,eccentric,0,3.0,21033.0,148906.0,244755.0,297793.0,276284.0
2026-04-08 21:23:12.975853,11299,1609502565110166,165076908,-0.950624,0.13664,0.324032,0.35875,-5.10125,-39.33125,22.272001,-20.488,7.776001,eccentric,0,3.0,21033.0,148906.0,244755.0,297793.0,276284.0
2026-04-08 21:23:12.977562,11300,1609502565119079,165085561,-0.944768,0.025376,0.316224,-1.12875,-5.0225,-40.495,22.824001,-20.136002,7.616,eccentric,0,3.0,21033.0,148906.0,244755.0,297793.0,276284.0
2026-04-08 21:23:12.981641,11301,1609502565133584,165100404,-0.944768,0.025376,0.316224,-7.34125,-6.545,-37.84375,22.824001,-20.136002,7.616,eccentric,0,3.0,21033.0,148906.0,244755.0,297793.0,276284.0
2026-04-08 21:23:12.983357,11302,1609502565142529,165109136,-0.968192,0.00976,0.327936,-4.83875,-6.1775,-37.89625,23.04,-19.624,5.936,eccentric,0,3.0,21033.0,148906.0,244755.0,297793.0,276284.0
2026-04-08 21:23:12.985112,11303,1609502565157152,165124056,-0.919392,0.128832,0.339648,-0.14,-3.185,-39.2525,23.04,-19.936,7.400001,eccentric,0,3.0,21033.0,148906.0,244755.0,297793.0,276284.0
2026-04-08 21:23:12.989204,11304,1609502565166084,165132719,-0.919392,0.128832,0.339648,-1.365,-2.1175,-39.03375,23.04,-19.936,7.400001,eccentric,0,3.0,21033.0,148906.0,244755.0,297793.0,276284.0
2026-04-08 21:23:12.992284,11305,1609502565175008,165141381,-0.919392,0.035136,0.310368,-2.17875,-0.97125,-40.57375,23.04,-19.936,9.448001,eccentric,0,3.0,21033.0,148906.0,244755.0,297793.0,276284.0
2026-04-08 21:23:12.997950,11306,1609502565189493,165156237,-0.93696,0.035136,0.310368,-6.44875,0.41125,-41.5625,22.736002,-18.936,9.488001,eccentric,0,3.0,21033.0,148906.0,244755.0,297793.0,276284.0
2026-04-08 21:23:13.031636,11317,1609502565199093,165165404,-1.007232,-0.042944,0.413824,-14.1575,-2.4325,-38.1675,23.68,-19.192001,8.488001,eccentric,0,3.0,21006.0,148772.0,244610.0,297678.0,276188.0
2026-04-08 21:23:13.033357,11318,1609502565213655,165180322,-1.007232,-0.042944,0.413824,-15.18125,-5.9325,-36.96875,23.68,-19.192001,8.488001,eccentric,0,3.0,21006.0,148772.0,244610.0,297678.0,276188.0
2026-04-08 21:23:13.034968,11319,1609502565222614,165189000,-1.01504,-0.03904,0.304512,-7.8225,-5.87125,-41.01125,23.144001,-18.36,9.8,eccentric,0,3.0,21006.0,148772.0,244610.0,297678.0,276188.0
2026-04-08 21:23:13.039038,11320,1609502565231570,165197704,-1.01504,-0.03904,0.304512,-1.0325,-2.695,-45.8325,23.144001,-18.36,9.8,eccentric,0,3.0,21006.0,148772.0,244610.0,297678.0,276188.0
2026-04-08 21:23:13.067589,11321,1609502565246055,165212640,-0.948672,0.017568,0.26352,-1.37375,0.04375,-46.0425,23.544,-18.328001,8.768001,eccentric,0,3.0,21006.0,148772.0,244610.0,297678.0,276188.0
2026-04-08 21:23:13.072065,11322,1609502565254983,165221280,-0.948672,0.017568,0.26352,-7.9625,3.115,-44.47625,23.544,-18.328001,8.768001,eccentric,0,3.0,21006.0,148772.0,244610.0,297678.0,276188.0
2026-04-08 21:23:13.073615,11323,1609502565269448,165236133,-0.940864,0.017568,0.406016,-17.57875,1.68875,-42.7,24.160002,-17.656,5.832,eccentric,0,3.0,21006.0,148772.0,244610.0,297678.0,276188.0
2026-04-08 21:23:13.104820,11324,1609502565278370,165244792,-0.962336,-0.162016,0.325984,-22.1725,-0.97125,-40.85375,24.488,-17.456001,7.68,eccentric,0,3.0,21006.0,148772.0,244610.0,297678.0,276188.0
2026-04-08 21:23:13.107289,11325,1609502565292849,165259672,-0.962336,-0.162016,0.325984,-24.5175,-3.35125,-40.915,24.488,-17.456001,7.68,eccentric,0,3.0,21006.0,148772.0,244610.0,297678.0,276188.0
2026-04-08 21:23:13.138348,11336,1609502565301841,165268414,-0.991616,-0.144448,0.236192,-19.32,-1.715,-44.35375,24.816002,-16.536001,8.176001,eccentric,0,3.0,20931.0,148459.0,244211.0,297425.0,276039.0
2026-04-08 21:23:13.139987,11337,1609502565310762,165277151,-0.991616,-0.144448,0.236192,-10.5525,4.22625,-48.08125,24.816002,-16.536001,8.176001,eccentric,0,3.0,20931.0,148459.0,244211.0,297425.0,276039.0
2026-04-08 21:23:13.144109,11338,1609502565325306,165292071,-0.909632,-0.066368,0.304512,-7.5425,9.1525,-48.965,24.568,-16.544,8.864,eccentric,0,3.0,20931.0,148459.0,244211.0,297425.0,276039.0
2026-04-08 21:23:13.146568,11339,1609502565334289,165300802,-0.909632,-0.066368,0.304512,-13.230001,11.31375,-48.58875,24.568,-16.544,8.864,eccentric,0,3.0,20931.0,148459.0,244211.0,297425.0,276039.0
2026-04-08 21:23:13.175106,11340,1609502565348804,165315670,-0.919392,-0.218624,0.37088,-23.52,11.76,-49.56,25.088001,-15.864,8.8,eccentric,0,3.0,20931.0,148459.0,244211.0,297425.0,276039.0
2026-04-08 21:23:13.179583,11341,1609502565357727,165324351,-0.938912,-0.236192,0.372832,-33.27625,8.02375,-49.6475,25.336,-15.552001,8.152,eccentric,0,3.0,20931.0,148459.0,244211.0,297425.0,276039.0
2026-04-08 21:23:13.181135,11342,1609502565372191,165339211,-0.938912,-0.236192,0.372832,-30.45875,3.745,-49.857502,25.336,-15.552001,8.152,eccentric,0,3.0,20931.0,148459.0,244211.0,297425.0,276039.0
2026-04-08 21:23:13.187807,11343,1609502565381160,165347949,-0.884256,-0.152256,0.31232,-14.945,3.6225,-49.07875,25.864,-15.384001,7.944,eccentric,0,3.0,20931.0,148459.0,244211.0,297425.0,276039.0
2026-04-08 21:23:13.233490,11344,1609502565390073,165356601,-0.884256,-0.152256,0.31232,1.07625,7.60375,-47.845,25.864,-15.384001,7.944,eccentric,0,3.0,20931.0,148459.0,244211.0,297425.0,276039.0
2026-04-08 21:23:13.263126,11355,1609502565404574,165371537,-1.016992,-0.199104,0.306464,0.97125,11.3575,-45.33375,26.000002,-14.792001,8.128,eccentric,0,3.0,20810.0,147855.0,243444.0,296928.0,275710.0
2026-04-08 21:23:13.269165,11356,1609502565413512,165380270,-1.016992,-0.199104,0.306464,-13.685,7.14,-40.36375,26.000002,-14.792001,8.128,eccentric,0,3.0,20810.0,147855.0,243444.0,296928.0,275710.0
2026-04-08 21:23:13.270847,11357,1609502565428025,165395118,-0.91744,-0.197152,0.392352,-19.18875,4.05125,-39.55875,26.112001,-14.328001,8.08,eccentric,0,3.0,20810.0,147855.0,243444.0,296928.0,275710.0
2026-04-08 21:23:13.273347,11358,1609502565436939,165403828,-0.942816,-0.228384,0.314272,-8.1025,6.34375,-44.30125,26.112001,-13.872001,11.104,eccentric,0,3.0,20810.0,147855.0,243444.0,296928.0,275710.0
2026-04-08 21:23:13.274853,11359,1609502565451415,165416698,-0.942816,-0.228384,0.314272,3.80625,8.6275,-44.72125,25.848001,-13.872001,11.104,eccentric,0,3.0,20810.0,147855.0,243444.0,296928.0,275710.0
2026-04-08 21:23:13.279151,11360,1609502565460714,165427423,-0.954528,-0.111264,0.23424,5.83625,10.61375,-39.85625,26.096,-13.728001,8.624001,eccentric,0,3.0,20810.0,147855.0,243444.0,296928.0,275710.0
2026-04-08 21:23:13.281636,11361,1609502565469628,165436129,-0.954528,-0.111264,0.23424,-0.14,12.22375,-34.3,26.096,-13.728001,8.624001,eccentric,0,3.0,20810.0,147855.0,243444.0,296928.0,275710.0
2026-04-08 21:23:13.290277,11362,1609502565484121,165451016,-0.91744,-0.193248,0.366976,-12.06625,10.96375,-31.9375,26.824001,-13.288001,7.528,eccentric,0,3.0,20810.0,147855.0,243444.0,296928.0,275710.0
2026-04-08 21:23:13.318868,11363,1609502565493116,165459683,-0.91744,-0.193248,0.366976,-21.035,8.7325,-32.5675,26.824001,-13.288001,7.528,eccentric,0,3.0,20810.0,147855.0,243444.0,296928.0,275710.0
2026-04-08 21:23:13.347417,11374,1609502565507736,165474668,-0.882304,-0.245952,0.337696,-16.33625,8.61,-34.8775,27.160002,-13.088,8.160001,eccentric,0,3.0,20827.0,147985.0,243612.0,296983.0,275764.0
2026-04-08 21:23:13.351632,11375,1609502565516675,165483350,-0.882304,-0.245952,0.259616,-4.305,8.72375,-35.9975,27.160002,-13.088,8.160001,eccentric,0,3.0,20827.0,147985.0,243612.0,296983.0,275764.0
2026-04-08 21:23:13.353379,11376,1609502565531139,165496304,-0.884256,-0.140544,0.251808,4.9175,8.95125,-33.18,26.856,-12.824,5.128,eccentric,0,3.0,20827.0,147985.0,243612.0,296983.0,275764.0
2026-04-08 21:23:13.354944,11377,1609502565540348,165507060,-0.864736,-0.183488,0.203008,7.91,7.735,-28.23625,26.840002,-12.248,8.328,eccentric,0,3.0,20827.0,147985.0,243612.0,296983.0,275764.0
2026-04-08 21:23:13.357390,11378,1609502565549274,165515759,-0.864736,-0.183488,0.203008,-0.665,5.25,-25.10375,26.840002,-12.248,8.328,eccentric,0,3.0,20827.0,147985.0,243612.0,296983.0,275764.0
2026-04-08 21:23:13.388582,11379,1609502565563840,165530730,-0.91744,-0.222528,0.244,-11.13875,3.92,-23.80875,27.344002,-12.392,8.216001,eccentric,0,3.0,20827.0,147985.0,243612.0,296983.0,275764.0
2026-04-08 21:23:13.392933,11380,1609502565572790,165539404,-0.91744,-0.222528,0.244,-12.5125,4.38375,-21.97125,27.344002,-12.392,8.216001,eccentric,0,3.0,20827.0,147985.0,243612.0,296983.0,275764.0
2026-04-08 21:23:13.394388,11381,1609502565587258,165554239,-0.933056,-0.163968,0.3416,-5.13625,4.61125,-19.3725,27.304,-12.136001,7.616,eccentric,0,3.0,20827.0,147985.0,243612.0,296983.0,275764.0
2026-04-08 21:23:13.449924,11392,1609502565596240,165563187,-0.933056,-0.163968,0.3416,3.82375,4.59375,-17.7275,27.304,-12.136001,7.616,eccentric,0,3.0,20767.0,147738.0,243318.0,296811.0,275652.0
2026-04-08 21:23:13.454171,11393,1609502565605189,165571886,-0.88816,-0.208864,0.353312,8.155,3.73625,-16.98375,27.576002,-12.120001,8.272,eccentric,0,3.0,20767.0,147738.0,243318.0,296811.0,275652.0
2026-04-08 21:23:13.455864,11394,1609502565619657,165586747,-0.944768,-0.212768,0.140544,5.1275,2.695,-16.03,27.512001,-11.712001,7.08,eccentric,0,3.0,20767.0,147738.0,243318.0,296811.0,275652.0
2026-04-08 21:23:13.457408,11395,1609502565628589,165595435,-0.944768,-0.212768,0.140544,-1.26875,3.68375,-14.5075,27.512001,-11.712001,7.08,eccentric,0,3.0,20767.0,147738.0,243318.0,296811.0,275652.0
2026-04-08 21:23:13.459938,11396,1609502565643098,165608282,-1.001376,-0.201056,0.30256,-9.61625,5.31125,-10.08875,27.168001,-11.608001,9.096001,eccentric,0,3.0,20767.0,147738.0,243318.0,296811.0,275652.0
2026-04-08 21:23:13.463951,11397,1609502565652323,165619038,-1.001376,-0.201056,0.30256,-16.21375,3.71,-5.285,27.168001,-11.608001,9.096001,eccentric,0,3.0,20767.0,147738.0,243318.0,296811.0,275652.0
2026-04-08 21:23:13.492516,11398,1609502565666887,165633910,-0.940864,-0.275232,0.374784,-14.83125,-0.32375,-5.27625,26.856,-11.736001,8.320001,eccentric,0,3.0,20767.0,147738.0,243318.0,296811.0,275652.0
2026-04-08 21:23:13.497082,11399,1609502565675789,165642565,-0.940864,-0.275232,0.374784,-5.005,-1.365,-9.31875,26.856,-11.736001,8.320001,eccentric,0,3.0,20767.0,147738.0,243318.0,296811.0,275652.0
2026-04-08 21:23:13.498643,11400,1609502565684809,165651257,-0.923296,-0.216672,0.173728,5.01375,-0.3675,-11.34,27.488,-11.712001,7.6,eccentric,0,3.0,20767.0,147738.0,243318.0,296811.0,275652.0
2026-04-08 21:23:13.570603,11411,1609502565699744,165666195,-0.962336,-0.179584,0.21472,6.895,1.74125,-8.14625,27.568,-11.816001,4.304,eccentric,0,3.0,20767.0,147740.0,243293.0,296821.0,275663.0
2026-04-08 21:23:13.572056,11412,1609502565708772,165674914,-0.962336,-0.179584,0.21472,-2.9925,2.09125,-2.03,27.568,-11.816001,4.304,eccentric,0,3.0,20767.0,147740.0,243293.0,296821.0,275663.0
2026-04-08 21:23:13.573669,11413,1609502565723295,165689829,-0.921344,-0.300608,0.290848,-16.1525,0.06125,2.42375,27.6,-11.624001,7.32,eccentric,0,3.0,20767.0,147740.0,243293.0,296821.0,275663.0
2026-04-08 21:23:13.577905,11414,1609502565732197,165698493,-0.921344,-0.300608,0.290848,-17.535,-1.5925,0.42875,27.6,-11.624001,7.32,eccentric,0,3.0,20767.0,147740.0,243293.0,296821.0,275663.0
2026-04-08 21:23:13.579646,11415,1609502565741212,165707168,-0.890112,-0.244,0.30256,-7.98875,-0.91875,-2.9575,27.464,-11.64,8.528001,eccentric,0,3.0,20767.0,147740.0,243293.0,296821.0,275663.0
2026-04-08 21:23:13.581306,11416,1609502565755730,165722035,-0.890112,-0.244,0.30256,3.01875,1.2075,-2.68625,27.464,-11.64,8.528001,eccentric,0,3.0,20767.0,147740.0,243293.0,296821.0,275663.0
2026-04-08 21:23:13.585434,11417,1609502565764685,165730807,-0.98576,-0.160064,0.31232,4.33125,-0.06125,1.65375,27.176,-11.752001,7.880001,eccentric,0,3.0,20767.0,147740.0,243293.0,296821.0,275663.0
2026-04-08 21:23:13.588294,11418,1609502565779203,165745689,-0.977952,-0.27328,0.281088,-1.07625,-2.94,5.74,27.6,-11.536,7.264,eccentric,0,3.0,20767.0,147740.0,243293.0,296821.0,275663.0
2026-04-08 21:23:13.592304,11419,1609502565788120,165754359,-0.977952,-0.27328,0.281088,-8.49625,-5.92375,5.495,27.6,-11.536,7.264,eccentric,0,3.0,20767.0,147740.0,243293.0,296821.0,275663.0
2026-04-08 21:23:13.667060,11430,1609502565802740,165769319,-0.925248,-0.279136,0.269376,-10.52625,-5.775,3.3075,27.36,-11.68,7.808001,eccentric,0,3.0,20793.0,147862.0,243454.0,296944.0,275715.0
2026-04-08 21:23:13.668624,11431,1609502565811686,165778072,-0.925248,-0.279136,0.269376,-6.20375,-2.7825,2.30125,27.36,-11.68,7.808001,eccentric,0,3.0,20793.0,147862.0,243454.0,296944.0,275715.0
2026-04-08 21:23:13.672902,11432,1609502565820574,165786714,-1.05408,-0.197152,0.376736,-2.38875,1.19875,2.0475,27.464,-11.632001,7.888001,eccentric,0,3.0,20793.0,147862.0,243454.0,296944.0,275715.0
2026-04-08 21:23:13.674602,11433,1609502565835035,165801585,-1.05408,-0.197152,0.376736,-2.38875,1.63625,3.66625,27.464,-11.632001,7.888001,eccentric,0,3.0,20793.0,147862.0,243454.0,296944.0,275715.0
2026-04-08 21:23:13.676237,11434,1609502565844009,165810283,-0.96624,-0.26352,0.374784,-5.74875,-1.74125,3.70125,27.424002,-11.84,7.696001,eccentric,0,3.0,20793.0,147862.0,243454.0,296944.0,275715.0
2026-04-08 21:23:13.680381,11435,1609502565858578,165825155,-0.96624,-0.26352,0.374784,-6.65,-3.47375,0.84875,27.424002,-11.84,7.696001,eccentric,0,3.0,20793.0,147862.0,243454.0,296944.0,275715.0
2026-04-08 21:23:13.682831,11436,1609502565867525,165833891,-0.999424,-0.275232,0.247904,-7.8925,-2.87,-0.41125,26.872002,-11.64,8.752001,eccentric,0,3.0,20793.0,147862.0,243454.0,296944.0,275715.0
2026-04-08 21:23:13.686932,11437,1609502565882056,165848812,-1.001376,-0.271328,0.269376,-10.24625,-0.7175,-0.27125,27.088001,-11.584001,8.368,eccentric,0,3.0,20793.0,147862.0,243454.0,296944.0,275715.0
2026-04-08 21:23:13.717294,11438,1609502565890968,165857464,-1.001376,-0.271328,0.269376,-13.69375,1.435,-0.48125,27.088001,-11.584001,8.368,eccentric,0,3.0,20793.0,147862.0,243454.0,296944.0,275715.0
2026-04-08 21:23:13.750404,11449,1609502565899899,165866211,-0.98576,-0.28304,0.269376,-14.7,2.45,-1.4875,27.504002,-11.496,6.28,eccentric,0,3.0,20790.0,147850.0,243443.0,296939.0,275724.0
2026-04-08 21:23:13.752122,11450,1609502565914467,165881162,-0.98576,-0.28304,0.269376,-11.97875,2.1525,-3.045,27.504002,-11.496,6.28,eccentric,0,3.0,20790.0,147850.0,243443.0,296939.0,275724.0
2026-04-08 21:23:13.753656,11451,1609502565923431,165889850,-0.93696,-0.277184,0.306464,-6.83375,0.7875,-4.5325,27.568,-11.808001,8.312,eccentric,0,3.0,20790.0,147850.0,243443.0,296939.0,275724.0
2026-04-08 21:23:13.757907,11452,1609502565938047,165904752,-0.93696,-0.277184,0.306464,-2.9575,0.28875,-4.3225,27.568,-11.808001,8.312,eccentric,0,3.0,20790.0,147850.0,243443.0,296939.0,275724.0
2026-04-08 21:23:13.761309,11453,1609502565947029,165913471,-0.948672,-0.218624,0.365024,-3.26375,0.7875,-2.14375,27.240002,-11.352,9.96,eccentric,0,3.0,20790.0,147850.0,243443.0,296939.0,275724.0
2026-04-08 21:23:13.764472,11454,1609502565955999,165922222,-0.948672,-0.218624,0.365024,-5.985,2.02125,0.11375,27.240002,-11.352,9.96,eccentric,0,3.0,20790.0,147850.0,243443.0,296939.0,275724.0
2026-04-08 21:23:13.794850,11455,1609502565970556,165937144,-0.95648,-0.275232,0.27328,-10.29875,2.33625,1.32125,27.152,-11.56,8.024,eccentric,0,3.0,20790.0,147850.0,243443.0,296939.0,275724.0
2026-04-08 21:23:13.797029,11456,1609502565979457,165945799,-0.95648,-0.275232,0.35136,-12.1625,2.3975,1.70625,27.152,-11.56,8.024,eccentric,0,3.0,20790.0,147850.0,243443.0,296939.0,275724.0
2026-04-08 21:23:13.801935,11457,1609502565993924,165960671,-0.938912,-0.251808,0.355264,-7.7175,2.6425,0.97125,27.312002,-11.664001,6.264,eccentric,0,3.0,20790.0,147850.0,243443.0,296939.0,275724.0
2026-04-08 21:23:13.867166,11468,1609502566003302,165969673,-0.958432,-0.21472,0.314272,-2.47625,2.8525,2.345,26.800001,-11.496,8.432,concentric,0,3.0,20826.0,147944.0,243542.0,296984.0,275736.0
2026-04-08 21:23:13.868698,11469,1609502566017851,165984571,-0.958432,-0.21472,0.314272,-0.28,1.6625,4.4625,26.800001,-11.496,8.432,concentric,0,3.0,20826.0,147944.0,243542.0,296984.0,275736.0
2026-04-08 21:23:13.872088,11470,1609502566026799,165993228,-0.970144,-0.222528,0.265472,0.51625,0.6125,5.5125,27.320002,-11.584001,7.696001,concentric,0,3.0,20826.0,147944.0,243542.0,296984.0,275736.0
2026-04-08 21:23:13.873632,11471,1609502566035727,166001879,-0.970144,-0.222528,0.265472,-0.98,-1.18125,6.6325,27.320002,-11.584001,7.696001,concentric,0,3.0,20826.0,147944.0,243542.0,296984.0,275736.0
2026-04-08 21:23:13.877919,11472,1609502566050231,166016796,-0.987712,-0.247904,0.251808,-2.09125,-2.58125,7.44625,26.848001,-11.728001,9.52,concentric,0,3.0,20826.0,147944.0,243542.0,296984.0,275736.0
2026-04-08 21:23:13.879603,11473,1609502566059369,166025511,-0.987712,-0.247904,0.251808,-0.63875,-1.51375,6.79,26.848001,-11.728001,9.52,concentric,0,3.0,20826.0,147944.0,243542.0,296984.0,275736.0
2026-04-08 21:23:13.881233,11474,1609502566073842,166040423,-0.96624,-0.23424,0.281088,1.89875,0.77,5.87125,27.448002,-11.712001,7.568,concentric,0,3.0,20826.0,147944.0,243542.0,296984.0,275736.0
2026-04-08 21:23:13.889016,11475,1609502566082758,166049088,-0.976,-0.232288,0.255712,2.3975,2.45875,6.545,27.216002,-12.008,7.784,concentric,0,3.0,20826.0,147944.0,243542.0,296984.0,275736.0
2026-04-08 21:23:13.917611,11476,1609502566091655,166057728,-0.976,-0.232288,0.255712,1.6625,2.26625,8.30375,27.216002,-12.008,7.784,concentric,0,3.0,20826.0,147944.0,243542.0,296984.0,275736.0
2026-04-08 21:23:13.946199,11487,1609502566106216,166072665,-0.983808,-0.240096,0.310368,0.48125,0.9275,8.54875,27.248001,-12.256001,7.912,concentric,0,3.0,20809.0,147962.0,243607.0,297028.0,275762.0
2026-04-08 21:23:13.950403,11488,1609502566115164,166081350,-0.983808,-0.240096,0.310368,0.35,-1.54,8.79375,27.248001,-12.256001,7.912,concentric,0,3.0,20809.0,147962.0,243607.0,297028.0,275762.0
2026-04-08 21:23:13.953797,11489,1609502566129661,166096279,-0.933056,-0.236192,0.306464,2.8,-3.115,8.9425,27.224,-12.136001,7.808001,concentric,0,3.0,20809.0,147962.0,243607.0,297028.0,275762.0
2026-04-08 21:23:13.957929,11490,1609502566138620,166105089,-0.933056,-0.236192,0.306464,6.23,-3.15,8.75,27.224,-12.136001,7.808001,concentric,0,3.0,20809.0,147962.0,243607.0,297028.0,275762.0
2026-04-08 21:23:13.960339,11491,1609502566153062,166119949,-0.94672,-0.208864,0.261568,8.23375,-2.6425,10.78875,27.184002,-12.320001,5.968,concentric,0,3.0,20809.0,147962.0,243607.0,297028.0,275762.0
2026-04-08 21:23:13.989059,11492,1609502566162075,166128710,-0.958432,-0.26352,0.249856,6.965,-2.42375,13.79875,26.888,-12.528001,7.744,concentric,0,3.0,20809.0,147962.0,243607.0,297028.0,275762.0
2026-04-08 21:23:13.993352,11493,1609502566170992,166137375,-0.958432,-0.26352,0.249856,4.54125,-1.84625,15.7675,26.888,-12.528001,7.744,concentric,0,3.0,20809.0,147962.0,243607.0,297028.0,275762.0
2026-04-08 21:23:13.994836,11494,1609502566185514,166152240,-0.929152,-0.249856,0.279136,4.29625,-1.11125,16.10875,27.080002,-12.744,7.664001,concentric,0,3.0,20809.0,147962.0,243607.0,297028.0,275762.0
2026-04-08 21:23:14.001528,11495,1609502566194454,166160890,-0.929152,-0.249856,0.279136,9.10875,-0.37625,15.61,27.080002,-12.744,7.664001,concentric,0,3.0,20809.0,147962.0,243607.0,297028.0,275762.0
2026-04-08 21:23:14.032928,11506,1609502566209023,166175854,-0.952576,-0.199104,0.281088,12.95875,-0.4025,17.10625,27.032001,-13.008,7.928001,concentric,0,3.0,20886.0,148289.0,243998.0,297303.0,275911.0
2026-04-08 21:23:14.034669,11507,1609502566217963,166184630,-0.952576,-0.199104,0.281088,13.335,-0.63875,19.22375,27.032001,-13.008,7.928001,concentric,0,3.0,20886.0,148289.0,243998.0,297303.0,275911.0
2026-04-08 21:23:14.036159,11508,1609502566232525,166197684,-0.942816,-0.189344,0.257664,12.7225,-1.33,21.385,26.344002,-13.264001,8.608001,concentric,0,3.0,20886.0,148289.0,243998.0,297303.0,275911.0
2026-04-08 21:23:14.067281,11509,1609502566241682,166208413,-0.921344,-0.210816,0.228384,12.31125,-2.12625,23.38,26.344002,-13.264001,8.120001,concentric,0,3.0,20886.0,148289.0,243998.0,297303.0,275911.0
2026-04-08 21:23:14.069533,11510,1609502566250597,166217054,-0.921344,-0.210816,0.228384,10.605001,-3.4125,25.935,26.712002,-13.992001,8.120001,concentric,0,3.0,20886.0,148289.0,243998.0,297303.0,275911.0
2026-04-08 21:23:14.073331,11511,1609502566265125,166231951,-0.919392,-0.171776,0.2928,10.6575,-3.9725,27.4925,26.504002,-14.136001,7.336,concentric,0,3.0,20886.0,148289.0,243998.0,297303.0,275911.0
2026-04-08 21:23:14.080271,11512,1609502566274057,166240639,-0.919392,-0.171776,0.2928,14.42,-4.03375,28.2975,26.504002,-14.136001,7.336,concentric,0,3.0,20886.0,148289.0,243998.0,297303.0,275911.0
2026-04-08 21:23:14.100327,11513,1609502566288574,166255557,-0.892064,-0.132736,0.31232,17.24625,-3.6575,29.295,25.936,-14.504001,8.592,concentric,0,3.0,20886.0,148289.0,243998.0,297303.0,275911.0
2026-04-08 21:23:14.137297,11514,1609502566297504,166264237,-0.892064,-0.132736,0.31232,18.6375,-3.3775,31.28125,25.936,-14.504001,8.592,concentric,0,3.0,20886.0,148289.0,243998.0,297303.0,275911.0
2026-04-08 21:23:14.169215,11525,1609502566312033,166277363,-0.866688,-0.10736,0.339648,19.62625,-3.78,34.0025,25.560001,-14.632001,8.072001,concentric,0,3.0,20952.0,148526.0,244325.0,297520.0,276036.0
2026-04-08 21:23:14.170915,11526,1609502566321345,166288082,-0.866688,-0.10736,0.339648,20.6675,-4.165,37.65125,25.560001,-14.632001,8.072001,concentric,0,3.0,20952.0,148526.0,244325.0,297520.0,276036.0
2026-04-08 21:23:14.172663,11527,1609502566330264,166297098,-0.903776,-0.11712,0.247904,21.6125,-4.1825,39.7075,25.760002,-15.320001,7.896,concentric,0,3.0,20952.0,148526.0,244325.0,297520.0,276036.0
2026-04-08 21:23:14.173663,11528,1609502566344737,166309987,-0.90768,-0.109312,0.308416,21.805,-3.6225,40.1975,25.624,-15.832001,7.688,concentric,0,3.0,20952.0,148526.0,244325.0,297520.0,276036.0
2026-04-08 21:23:14.178283,11529,1609502566354100,166320776,-0.90768,-0.109312,0.308416,18.62875,-3.64,40.94125,25.624,-15.832001,7.688,concentric,0,3.0,20952.0,148526.0,244325.0,297520.0,276036.0
2026-04-08 21:23:14.179977,11530,1609502566368605,166335654,-0.929152,-0.089792,0.16592,15.7675,-3.115,41.27375,24.920002,-16.248001,8.112,concentric,0,3.0,20952.0,148526.0,244325.0,297520.0,276036.0
2026-04-08 21:23:14.184101,11531,1609502566377549,166344353,-0.929152,-0.089792,0.16592,16.2925,-3.185,41.97375,24.920002,-16.248001,8.112,concentric,0,3.0,20952.0,148526.0,244325.0,297520.0,276036.0
2026-04-08 21:23:14.212635,11532,1609502566386567,166353049,-0.909632,-0.046848,0.337696,17.00125,-5.075,44.65125,24.688002,-16.816,8.024,concentric,0,3.0,20952.0,148526.0,244325.0,297520.0,276036.0
2026-04-08 21:23:14.241166,11543,1609502566401040,166367897,-0.909632,-0.046848,0.337696,19.985,-6.1775,45.5875,24.688002,-16.816,8.024,concentric,0,3.0,20948.0,148543.0,244391.0,297598.0,276065.0
2026-04-08 21:23:14.245409,11544,1609502566409998,166376660,-0.950624,-0.105408,0.238144,23.765,-5.46875,45.605,24.624,-17.256,9.384001,concentric,0,3.0,20948.0,148543.0,244391.0,297598.0,276065.0
2026-04-08 21:23:14.247129,11545,1609502566424464,166391537,-0.944768,-0.031232,0.310368,22.61,-4.9875,45.6925,24.664001,-17.888,6.736001,concentric,0,3.0,20948.0,148543.0,244391.0,297598.0,276065.0
2026-04-08 21:23:14.248684,11546,1609502566433454,166400287,-0.944768,-0.031232,0.310368,19.915,-3.9725,46.2175,24.664001,-17.888,6.736001,concentric,0,3.0,20948.0,148543.0,244391.0,297598.0,276065.0
2026-04-08 21:23:14.255279,11547,1609502566448012,166415151,-0.940864,0.03904,0.226432,18.7775,-3.66625,46.935,24.288002,-18.152,6.496,concentric,0,3.0,20948.0,148543.0,244391.0,297598.0,276065.0
2026-04-08 21:23:14.283896,11548,1609502566456947,166423812,-0.940864,0.03904,0.226432,16.3625,-4.1125,48.5625,24.288002,-18.152,6.496,concentric,0,3.0,20948.0,148543.0,244391.0,297598.0,276065.0
2026-04-08 21:23:14.288643,11549,1609502566465963,166432494,-0.962336,0.00976,0.228384,15.49625,-3.87625,49.9975,23.664001,-18.688002,7.368001,concentric,0,3.0,20948.0,148543.0,244391.0,297598.0,276065.0
2026-04-08 21:23:14.290664,11550,1609502566480430,166447362,-0.962336,0.00976,0.228384,14.980001,-4.40125,50.82,23.664001,-18.688002,7.368001,concentric,0,3.0,20948.0,148543.0,244391.0,297598.0,276065.0
2026-04-08 21:23:14.296524,11551,1609502566489301,166456021,-0.935008,0.023424,0.25376,11.29625,-6.79875,50.00625,23.472002,-19.224,6.744,concentric,0,3.0,20948.0,148543.0,244391.0,297598.0,276065.0
2026-04-08 21:23:14.340460,11562,1609502566503965,166471113,-0.931104,0.021472,0.134688,12.11,-7.28875,47.495,23.2,-19.776001,5.072,concentric,0,3.0,20979.0,148702.0,244560.0,297695.0,276120.0
2026-04-08 21:23:14.342147,11563,1609502566512941,166479832,-0.931104,0.021472,0.134688,10.7275,-7.1925,47.3375,23.2,-19.776001,5.072,concentric,0,3.0,20979.0,148702.0,244560.0,297695.0,276120.0
2026-04-08 21:23:14.343695,11564,1609502566521849,166488583,-0.931104,0.021472,0.134688,8.93375,-5.8275,48.6675,23.2,-19.776001,5.072,concentric,0,3.0,20979.0,148702.0,244560.0,297695.0,276120.0
2026-04-08 21:23:14.347743,11565,1609502566536343,166503493,-0.95648,0.03904,0.187392,7.4025,-4.24375,50.3825,22.896002,-19.872002,8.992001,concentric,0,3.0,20979.0,148702.0,244560.0,297695.0,276120.0
2026-04-08 21:23:14.351533,11566,1609502566545301,166512182,-0.974048,0.105408,0.218624,6.62375,-2.68625,49.385,22.224,-20.456001,6.480001,concentric,0,3.0,20979.0,148702.0,244560.0,297695.0,276120.0
2026-04-08 21:23:14.380123,11567,1609502566559794,166525039,-0.974048,0.105408,0.218624,5.3025,-1.91625,48.62375,22.224,-20.456001,6.480001,concentric,0,3.0,20979.0,148702.0,244560.0,297695.0,276120.0
2026-04-08 21:23:14.385315,11568,1609502566568977,166535751,-0.940864,0.095648,0.281088,7.2275,-2.9925,49.0,22.048,-21.056002,6.528,concentric,0,3.0,20979.0,148702.0,244560.0,297695.0,276120.0
2026-04-08 21:23:14.389098,11569,1609502566583451,166548597,-0.940864,0.08784,0.247904,11.22625,-4.1475,49.51625,22.048,-21.056002,4.48,concentric,0,3.0,20979.0,148702.0,244560.0,297695.0,276120.0
2026-04-08 21:23:14.436047,11570,1609502566592594,166559440,-0.91744,0.08784,0.247904,12.5125,-5.41625,50.5225,21.176,-21.376001,5.888001,concentric,0,3.0,20979.0,148702.0,244560.0,297695.0,276120.0
2026-04-08 21:23:14.465165,11581,1609502566601489,166568491,-0.91744,0.08784,0.247904,10.73625,-6.2475,52.1325,21.176,-21.376001,5.888001,concentric,0,3.0,21097.0,149154.0,245059.0,298008.0,276362.0
2026-04-08 21:23:14.465223,11582,1609502566615995,166581317,-0.944768,0.16592,0.232288,6.15125,-7.79625,53.27875,21.240002,-21.928001,6.432,concentric,0,3.0,21097.0,149154.0,245059.0,298008.0,276362.0
2026-04-08 21:23:14.469592,11583,1609502566625302,166592041,-0.925248,0.150304,0.2928,2.5025,-11.5675,51.6775,21.056002,-22.552002,6.408001,concentric,0,3.0,21097.0,149154.0,245059.0,298008.0,276362.0
2026-04-08 21:23:14.471144,11584,1609502566639780,166606900,-0.925248,0.150304,0.2928,4.55875,-12.60875,46.7775,21.056002,-22.552002,6.408001,concentric,0,3.0,21097.0,149154.0,245059.0,298008.0,276362.0
2026-04-08 21:23:14.475424,11585,1609502566648807,166615632,-0.977952,0.11712,0.304512,2.33625,-12.8975,44.1525,20.240002,-22.880001,7.616,concentric,0,3.0,21097.0,149154.0,245059.0,298008.0,276362.0
2026-04-08 21:23:14.477121,11586,1609502566657800,166624335,-0.977952,0.11712,0.304512,-4.31375,-12.6525,44.5725,20.240002,-22.880001,7.616,concentric,0,3.0,21097.0,149154.0,245059.0,298008.0,276362.0
2026-04-08 21:23:14.478710,11587,1609502566672289,166639216,-0.96624,0.177632,0.26352,-7.3325,-9.8,41.6325,19.728,-23.008001,8.104,concentric,0,3.0,21097.0,149154.0,245059.0,298008.0,276362.0
2026-04-08 21:23:14.509859,11588,1609502566681231,166647885,-0.96624,0.177632,0.26352,-9.30125,-6.8075,39.27875,19.728,-23.008001,8.104,concentric,0,3.0,21097.0,149154.0,245059.0,298008.0,276362.0
2026-04-08 21:23:14.514296,11589,1609502566695667,166662736,-0.894016,0.220576,0.368928,-11.90875,-5.66125,40.3025,19.992,-23.368002,7.152,concentric,0,3.0,21097.0,149154.0,245059.0,298008.0,276362.0
2026-04-08 21:23:14.542475,11600,1609502566704982,166671488,-0.938912,0.173728,0.284992,-15.4875,-6.335,41.37,19.992,-23.6,5.144,concentric,0,3.0,21482.0,150825.0,247081.0,299247.0,277015.0
2026-04-08 21:23:14.546683,11601,1609502566719554,166686429,-0.938912,0.173728,0.284992,-14.86625,-6.16,40.25875,19.6,-23.6,5.144,concentric,0,3.0,21482.0,150825.0,247081.0,299247.0,277015.0
2026-04-08 21:23:14.548468,11602,1609502566728597,166695117,-0.952576,0.11712,0.38064,-12.69625,-3.325,38.4475,19.472,-24.080002,7.128,concentric,0,3.0,21482.0,150825.0,247081.0,299247.0,277015.0
2026-04-08 21:23:14.550027,11603,1609502566737555,166703795,-0.952576,0.11712,0.38064,-11.83,-0.6125,36.5225,19.472,-24.080002,7.128,concentric,0,3.0,21482.0,150825.0,247081.0,299247.0,277015.0
2026-04-08 21:23:14.557835,11604,1609502566752048,166718748,-0.94672,0.15616,0.304512,-7.76125,3.94625,34.37875,19.288,-24.04,5.064,concentric,0,3.0,21482.0,150825.0,247081.0,299247.0,277015.0
2026-04-08 21:23:14.586383,11605,1609502566760998,166727420,-0.94672,0.15616,0.304512,-0.07875,8.19,32.935,19.288,-24.04,5.064,concentric,0,3.0,21482.0,150825.0,247081.0,299247.0,277015.0
2026-04-08 21:23:14.590823,11606,1609502566775448,166742271,-0.993568,0.230336,0.261568,8.56625,11.6025,31.053751,18.976002,-24.6,6.728,concentric,0,3.0,21482.0,150825.0,247081.0,299247.0,277015.0
2026-04-08 21:23:14.592407,11607,1609502566784334,166750908,-0.993568,0.230336,0.30256,14.3325,11.41875,30.17,18.976002,-24.6,6.728,concentric,0,3.0,21482.0,150825.0,247081.0,299247.0,277015.0
2026-04-08 21:23:14.623544,11608,1609502566798862,166765785,-1.003328,0.255712,0.30256,18.97,9.68625,26.985,18.992,-24.664001,3.04,concentric,0,3.0,21482.0,150825.0,247081.0,299247.0,277015.0
2026-04-08 21:23:14.654971,11619,1609502566807998,166774560,-1.048224,0.222528,0.394304,20.58,9.75625,22.09375,19.168001,-24.776001,6.168,concentric,0,3.0,21607.0,151281.0,247581.0,299531.0,277189.0
2026-04-08 21:23:14.659175,11620,1609502566817016,166783250,-1.048224,0.222528,0.394304,11.96125,7.805,22.91625,19.168001,-24.776001,6.168,concentric,0,3.0,21607.0,151281.0,247581.0,299531.0,277189.0
2026-04-08 21:23:14.660901,11621,1609502566831522,166798134,-1.013088,0.257664,0.394304,8.53125,8.33,19.22375,18.944,-25.240002,5.928001,concentric,0,3.0,21607.0,151281.0,247581.0,299531.0,277189.0
2026-04-08 21:23:14.663284,11622,1609502566840538,166806794,-1.013088,0.257664,0.394304,11.48875,8.75875,10.99875,18.944,-25.240002,5.928001,concentric,0,3.0,21607.0,151281.0,247581.0,299531.0,277189.0
2026-04-08 21:23:14.665728,11623,1609502566855072,166821733,-1.124352,0.365024,0.290848,13.78125,6.1425,7.56875,18.888,-25.240002,6.368001,concentric,0,3.0,21607.0,151281.0,247581.0,299531.0,277189.0
2026-04-08 21:23:14.669479,11624,1609502566863994,166830427,-1.124352,0.365024,0.290848,12.355001,-1.4,7.2275,18.888,-25.240002,6.368001,concentric,0,3.0,21607.0,151281.0,247581.0,299531.0,277189.0
2026-04-08 21:23:14.700165,11625,1609502566872904,166839120,-1.153632,0.316224,0.329888,9.40625,-8.9775,4.57625,19.0,-25.256,6.920001,concentric,0,3.0,21607.0,151281.0,247581.0,299531.0,277189.0
2026-04-08 21:23:14.736109,11626,1609502566887377,166854040,-1.108736,0.245952,0.288896,5.55625,-13.5975,-1.2425,19.416,-25.968,4.144,concentric,0,3.0,21607.0,151281.0,247581.0,299531.0,277189.0
2026-04-08 21:23:14.738291,11627,1609502566896310,166862743,-1.108736,0.245952,0.288896,3.36875,-13.2475,-7.91,19.416,-25.968,4.144,concentric,0,3.0,21607.0,151281.0,247581.0,299531.0,277189.0
2026-04-08 21:23:14.767196,11638,1609502566910894,166877661,-1.128256,0.365024,0.431392,4.0075,-9.905,-11.57625,18.888,-25.248001,6.048,concentric,0,3.0,21498.0,150938.0,247197.0,299320.0,277089.0
2026-04-08 21:23:14.768781,11639,1609502566919821,166886320,-1.128256,0.365024,0.431392,5.1975,-5.39,-12.80125,18.888,-25.248001,6.048,concentric,0,3.0,21498.0,150938.0,247197.0,299320.0,277089.0
2026-04-08 21:23:14.772956,11640,1609502566934304,166901160,-1.159488,0.337696,0.339648,-0.62125,-2.24875,-10.01,19.568,-25.832,5.792,concentric,0,3.0,21498.0,150938.0,247197.0,299320.0,277089.0
2026-04-08 21:23:14.774645,11641,1609502566943267,166909834,-1.159488,0.337696,0.339648,-10.9025,-3.73625,-6.475,19.568,-25.832,5.792,concentric,0,3.0,21498.0,150938.0,247197.0,299320.0,277089.0
2026-04-08 21:23:14.776243,11642,1609502566952346,166918562,-1.097024,0.277184,0.396256,-17.08875,-6.5275,-6.06375,19.720001,-25.512001,7.848001,concentric,0,3.0,21498.0,150938.0,247197.0,299320.0,277089.0
2026-04-08 21:23:14.780377,11643,1609502566966881,166933493,-1.042368,0.197152,0.398208,-15.72375,-8.54875,-10.535,20.160002,-25.552002,1.88,concentric,0,3.0,21498.0,150938.0,247197.0,299320.0,277089.0
2026-04-08 21:23:14.782834,11644,1609502566975875,166942168,-1.042368,0.197152,0.398208,-7.30625,-8.04125,-18.05125,20.160002,-25.552002,1.88,concentric,0,3.0,21498.0,150938.0,247197.0,299320.0,277089.0
2026-04-08 21:23:14.811402,11645,1609502566990352,166957039,-1.138016,0.310368,0.357216,-0.11375,-5.29375,-20.67625,20.504002,-25.632002,6.520001,concentric,0,3.0,21498.0,150938.0,247197.0,299320.0,277089.0
2026-04-08 21:23:14.814956,11646,1609502566999284,166965760,-1.138016,0.310368,0.357216,3.28125,-1.63625,-18.9,20.504002,-25.632002,6.520001,concentric,0,3.0,21498.0,150938.0,247197.0,299320.0,277089.0
2026-04-08 21:23:14.843419,11657,1609502567008809,166974848,-1.147776,0.363072,0.32208,3.08875,2.45,-18.585001,20.368,-25.52,5.624,concentric,0,3.0,21522.0,151037.0,247301.0,299370.0,277136.0
2026-04-08 21:23:14.845214,11658,1609502567023330,166989740,-1.147776,0.363072,0.32208,-2.30125,2.485,-19.8625,20.368,-25.52,5.624,concentric,0,3.0,21522.0,151037.0,247301.0,299370.0,277136.0
2026-04-08 21:23:14.849441,11659,1609502567032254,166998449,-1.05408,0.267424,0.318176,-10.6575,-0.5775,-21.56875,20.68,-25.336,5.904,concentric,0,3.0,21522.0,151037.0,247301.0,299370.0,277136.0
2026-04-08 21:23:14.851597,11660,1609502567046731,167013341,-1.0248,0.25376,0.306464,-12.60875,-2.2225,-23.59,20.84,-25.104002,4.84,concentric,0,3.0,21522.0,151037.0,247301.0,299370.0,277136.0
2026-04-08 21:23:14.880118,11661,1609502567055672,167022025,-1.0248,0.25376,0.306464,-10.31625,-1.53125,-26.48625,20.84,-25.104002,4.84,concentric,0,3.0,21522.0,151037.0,247301.0,299370.0,277136.0
2026-04-08 21:23:14.884597,11662,1609502567070104,167036891,-1.0736,0.333792,0.314272,-4.82125,0.49875,-27.055,21.264002,-25.072,5.808,concentric,0,3.0,21522.0,151037.0,247301.0,299370.0,277136.0
2026-04-08 21:23:14.886135,11663,1609502567079028,167045558,-1.0736,0.333792,0.314272,-1.505,0.70875,-25.57625,21.264002,-25.072,5.808,concentric,0,3.0,21522.0,151037.0,247301.0,299370.0,277136.0
2026-04-08 21:23:14.922311,11664,1609502567088051,167054244,-1.147776,0.281088,0.257664,-4.41875,-1.5225,-22.1725,21.408,-24.608002,6.608,concentric,0,3.0,21522.0,151037.0,247301.0,299370.0,277136.0
2026-04-08 21:23:14.924925,11665,1609502567102576,167069192,-1.147776,0.281088,0.257664,-11.73375,-4.22625,-18.5325,21.408,-24.608002,6.608,concentric,0,3.0,21522.0,151037.0,247301.0,299370.0,277136.0
2026-04-08 21:23:14.952461,11676,1609502567111637,167077899,-1.106784,0.265472,0.300608,-14.971251,-4.08625,-18.34,21.848001,-24.752,6.256001,concentric,0,3.0,21562.0,151076.0,247313.0,299313.0,277111.0
2026-04-08 21:23:14.956765,11677,1609502567126127,167092788,-1.106784,0.265472,0.300608,-11.54125,0.11375,-19.74,21.848001,-24.752,6.256001,concentric,0,3.0,21562.0,151076.0,247313.0,299313.0,277111.0
2026-04-08 21:23:14.958476,11678,1609502567135049,167101606,-1.1712,0.314272,0.396256,-5.3025,4.9175,-18.57625,22.136002,-24.336,3.656,concentric,0,3.0,21562.0,151076.0,247313.0,299313.0,277111.0
2026-04-08 21:23:14.959979,11679,1609502567149576,167116498,-1.206336,0.3416,0.298656,-1.365,7.34125,-12.81,22.152,-24.696001,5.992,concentric,0,3.0,21562.0,151076.0,247313.0,299313.0,277111.0
2026-04-08 21:23:14.967843,11680,1609502567158567,167125173,-1.206336,0.3416,0.298656,-2.345,7.14,-9.292501,22.152,-24.696001,5.992,concentric,0,3.0,21562.0,151076.0,247313.0,299313.0,277111.0
2026-04-08 21:23:14.974055,11681,1609502567167494,167133855,-1.192672,0.27328,0.33184,-8.05875,5.0575,-8.89,22.608002,-24.576,5.088,concentric,0,3.0,21562.0,151076.0,247313.0,299313.0,277111.0
2026-04-08 21:23:15.033568,11682,1609502567181975,167148700,-1.192672,0.27328,0.33184,-12.17125,2.91375,-8.0325,22.608002,-24.576,5.088,concentric,0,3.0,21562.0,151076.0,247313.0,299313.0,277111.0
2026-04-08 21:23:15.038007,11683,1609502567190887,167157386,-1.198528,0.2928,0.335744,-12.94125,2.23125,-5.145,22.480001,-24.480001,6.288,concentric,0,3.0,21562.0,151076.0,247313.0,299313.0,277111.0
2026-04-08 21:23:15.064610,11694,1609502567205351,167172186,-1.198528,0.2928,0.335744,-11.655,3.17625,-2.94875,22.480001,-24.480001,6.288,concentric,0,3.0,21540.0,151023.0,247263.0,299308.0,277098.0
2026-04-08 21:23:15.066229,11695,1609502567214306,167180896,-1.169248,0.314272,0.37088,-11.27,3.68375,-3.05375,22.504002,-24.392002,7.504,concentric,0,3.0,21540.0,151023.0,247263.0,299308.0,277098.0
2026-04-08 21:23:15.070553,11696,1609502567228812,167195752,-1.05408,0.212768,0.333792,-13.685,1.67125,-1.70625,22.056002,-24.2,5.808,concentric,0,3.0,21540.0,151023.0,247263.0,299308.0,277098.0
2026-04-08 21:23:15.072142,11697,1609502567237725,167204456,-1.05408,0.212768,0.333792,-16.66,-2.07375,-0.91,22.056002,-24.2,5.808,concentric,0,3.0,21540.0,151023.0,247263.0,299308.0,277098.0
2026-04-08 21:23:15.073806,11698,1609502567246840,167213148,-1.05408,0.212768,0.333792,-18.48875,-5.59125,-0.74375,22.056002,-24.2,5.808,concentric,0,3.0,21540.0,151023.0,247263.0,299308.0,277098.0
2026-04-08 21:23:15.077941,11699,1609502567261422,167228059,-1.048224,0.1952,0.35136,-16.625,-7.37625,0.7,22.136002,-23.976002,6.952,concentric,0,3.0,21540.0,151023.0,247263.0,299308.0,277098.0
2026-04-08 21:23:15.080187,11700,1609502567270384,167236759,-1.01504,0.203008,0.413824,-12.8625,-7.63875,1.085,22.288,-24.208002,6.696,concentric,0,3.0,21540.0,151023.0,247263.0,299308.0,277098.0
2026-04-08 21:23:15.111091,11701,1609502567284875,167251682,-1.01504,0.203008,0.413824,-10.5,-7.77,0.72625,22.288,-24.208002,6.696,concentric,0,3.0,21540.0,151023.0,247263.0,299308.0,277098.0
2026-04-08 21:23:15.113264,11702,1609502567293801,167260306,-0.944768,0.163968,0.376736,-12.18,-7.875,0.74375,21.880001,-24.04,7.256001,concentric,0,3.0,21540.0,151023.0,247263.0,299308.0,277098.0
2026-04-08 21:23:15.143793,11713,1609502567308325,167275234,-0.919392,0.144448,0.38064,-12.4775,-7.9625,1.54,21.936,-24.176,6.768,concentric,0,3.0,21652.0,151380.0,247625.0,299480.0,277170.0
2026-04-08 21:23:15.147962,11714,1609502567317416,167283950,-0.919392,0.144448,0.38064,-10.255,-7.13125,0.49,21.936,-24.176,6.768,concentric,0,3.0,21652.0,151380.0,247625.0,299480.0,277170.0
2026-04-08 21:23:15.149736,11715,1609502567326338,167292615,-0.919392,0.144448,0.38064,-4.1475,-5.25,-0.49,21.936,-24.176,6.768,concentric,0,3.0,21652.0,151380.0,247625.0,299480.0,277170.0
2026-04-08 21:23:15.151344,11716,1609502567340815,167307484,-0.940864,0.121024,0.325984,3.50875,-1.9425,-1.07625,21.968,-24.096,8.288,concentric,0,3.0,21652.0,151380.0,247625.0,299480.0,277170.0
2026-04-08 21:23:15.155302,11717,1609502567349762,167316224,-0.987712,0.13664,0.335744,5.8275,0.1925,0.5425,21.864,-24.104002,7.152,concentric,0,3.0,21652.0,151380.0,247625.0,299480.0,277170.0
2026-04-08 21:23:15.183855,11718,1609502567364244,167331108,-0.987712,0.13664,0.335744,3.59625,2.1175,1.6625,21.864,-24.104002,7.152,concentric,0,3.0,21652.0,151380.0,247625.0,299480.0,277170.0
2026-04-08 21:23:15.188296,11719,1609502567373145,167339760,-0.958432,0.160064,0.329888,-0.35875,3.115,2.31,21.792002,-24.392002,6.464,concentric,0,3.0,21652.0,151380.0,247625.0,299480.0,277170.0
