pc_time,serial_num,sensor_ts,host_ts,ax,ay,az,gx,gy,gz,mx,my,mz,phase,rpe,weight_kg,ppg_a,ppg_b,ppg_c,ppg_d,ppg_e
2026-04-08 21:23:15.197844,11720,1609502567387604,167354644,-0.958432,0.160064,0.329888,0.02625,5.1275,1.9075,21.792002,-24.392002,6.464,eccentric,0,3.0,21652.0,151380.0,247625.0,299480.0,277170.0
2026-04-08 21:23:15.201211,11721,1609502567396526,167363333,-1.05408,0.191296,0.36112,4.1125,7.91,1.82875,21.36,-24.36,9.072001,eccentric,0,3.0,21652.0,151380.0,247625.0,299480.0,277170.0
2026-04-08 21:23:15.232625,11722,1609502567405425,167372000,-1.05408,0.191296,0.36112,8.4525,10.05375,3.85875,21.36,-24.36,9.072001,eccentric,0,3.0,21652.0,151380.0,247625.0,299480.0,277170.0
2026-04-08 21:23:15.273416,11733,1609502567419882,167386895,-1.104832,0.189344,0.384544,11.917501,11.13875,6.7375,21.488,-24.336,7.064,eccentric,0,3.0,21474.0,150748.0,246884.0,299003.0,276901.0
2026-04-08 21:23:15.277109,11734,1609502567428829,167395554,-1.128256,0.222528,0.347456,11.43625,12.20625,6.5975,21.488,-24.536001,3.84,eccentric,0,3.0,21474.0,150748.0,246884.0,299003.0,276901.0
2026-04-08 21:23:15.278714,11735,1609502567443309,167410398,-1.128256,0.222528,0.347456,6.65875,11.917501,5.08375,21.832,-24.536001,3.84,eccentric,0,3.0,21474.0,150748.0,246884.0,299003.0,276901.0
2026-04-08 21:23:15.282920,11736,1609502567452252,167419098,-1.138016,0.226432,0.382592,2.19625,10.29875,2.8875,21.224,-24.192001,6.768,eccentric,0,3.0,21474.0,150748.0,246884.0,299003.0,276901.0
2026-04-08 21:23:15.284828,11737,1609502567466780,167431983,-1.138016,0.226432,0.382592,-0.6825,8.89,2.91375,21.224,-24.192001,6.768,eccentric,0,3.0,21474.0,150748.0,246884.0,299003.0,276901.0
2026-04-08 21:23:15.286164,11738,1609502567475981,167442723,-1.114592,0.216672,0.37088,0.0875,7.6825,4.655,21.336,-24.432001,6.368001,eccentric,0,3.0,21474.0,150748.0,246884.0,299003.0,276901.0
2026-04-08 21:23:15.291542,11739,1609502567484913,167451395,-1.114592,0.216672,0.37088,4.13,7.525,4.03375,21.336,-24.432001,6.368001,eccentric,0,3.0,21474.0,150748.0,246884.0,299003.0,276901.0
2026-04-08 21:23:15.333568,11740,1609502567499409,167466586,-1.167296,0.208864,0.308416,8.02375,7.28,3.9725,21.36,-24.264002,7.000001,eccentric,0,3.0,21474.0,150748.0,246884.0,299003.0,276901.0
2026-04-08 21:23:15.362177,11751,1609502567509252,167476027,-1.167296,0.208864,0.308416,10.2375,7.84875,4.57625,21.36,-24.264002,7.000001,eccentric,0,3.0,21382.0,150450.0,246549.0,298775.0,276790.0
2026-04-08 21:23:15.363805,11752,1609502567518610,167484981,-1.175104,0.251808,0.286944,9.7825,7.91,4.50625,21.416,-24.344002,5.960001,eccentric,0,3.0,21382.0,150450.0,246549.0,298775.0,276790.0
2026-04-08 21:23:15.367948,11753,1609502567533090,167499898,-1.143872,0.281088,0.37088,9.00375,8.25125,3.6925,21.232,-24.792002,5.696,eccentric,0,3.0,21382.0,150450.0,246549.0,298775.0,276790.0
2026-04-08 21:23:15.369683,11754,1609502567542089,167508764,-1.143872,0.281088,0.37088,7.44625,8.015,3.6225,21.232,-24.792002,5.696,eccentric,0,3.0,21382.0,150450.0,246549.0,298775.0,276790.0
2026-04-08 21:23:15.371176,11755,1609502567556647,167523664,-1.120448,0.259616,0.3904,8.72375,9.1525,3.10625,20.984001,-24.320002,7.032001,eccentric,0,3.0,21382.0,150450.0,246549.0,298775.0,276790.0
2026-04-08 21:23:15.375311,11756,1609502567565579,167532412,-1.120448,0.259616,0.3904,8.1025,9.14375,3.52625,20.984001,-24.320002,7.032001,eccentric,0,3.0,21382.0,150450.0,246549.0,298775.0,276790.0
2026-04-08 21:23:15.404109,11757,1609502567580061,167545300,-1.16144,0.251808,0.244,4.12125,7.0,4.725,20.880001,-24.448002,6.6,eccentric,0,3.0,21382.0,150450.0,246549.0,298775.0,276790.0
2026-04-08 21:23:15.408485,11758,1609502567589309,167556380,-1.16144,0.28304,0.255712,2.61625,5.83625,3.14125,20.880001,-24.448002,6.6,eccentric,0,3.0,21382.0,150450.0,246549.0,298775.0,276790.0
2026-04-08 21:23:15.409943,11759,1609502567598668,167565165,-1.167296,0.28304,0.255712,-0.5075,4.235,2.54625,21.288,-24.6,7.248,eccentric,0,3.0,21382.0,150450.0,246549.0,298775.0,276790.0
2026-04-08 21:23:15.437479,11770,1609502567613770,167580295,-1.116544,0.290848,0.275232,-1.96,2.555,2.66,20.944,-24.536001,6.384,eccentric,0,3.0,21260.0,149900.0,245837.0,298330.0,276557.0
2026-04-08 21:23:15.441660,11771,1609502567622816,167589013,-1.116544,0.290848,0.275232,-0.27125,2.065,2.0125,20.944,-24.536001,6.384,eccentric,0,3.0,21260.0,149900.0,245837.0,298330.0,276557.0
2026-04-08 21:23:15.444118,11772,1609502567631787,167597732,-1.118496,0.23424,0.220576,0.8925,1.63625,1.30375,20.688002,-24.552002,7.64,eccentric,0,3.0,21260.0,149900.0,245837.0,298330.0,276557.0
2026-04-08 21:23:15.459964,11773,1609502567646332,167612605,-1.118496,0.23424,0.220576,2.1,1.4875,1.33,20.688002,-24.552002,7.64,eccentric,0,3.0,21260.0,149900.0,245837.0,298330.0,276557.0
2026-04-08 21:23:15.467394,11774,1609502567655229,167621261,-1.100928,0.210816,0.28304,3.92,1.82875,0.4375,21.064001,-24.28,5.56,eccentric,0,3.0,21260.0,149900.0,245837.0,298330.0,276557.0
2026-04-08 21:23:15.498539,11775,1609502567669697,167636149,-1.100928,0.210816,0.218624,3.19375,2.26625,-0.5425,21.064001,-24.28,5.56,eccentric,0,3.0,21260.0,149900.0,245837.0,298330.0,276557.0
2026-04-08 21:23:15.500815,11776,1609502567678622,167644814,-1.1224,0.261568,0.218624,2.03,2.72125,-1.7325,20.272001,-24.080002,5.192,eccentric,0,3.0,21260.0,149900.0,245837.0,298330.0,276557.0
2026-04-08 21:23:15.505555,11777,1609502567693093,167659697,-1.077504,0.279136,0.277184,2.5725,4.78625,-2.2575,20.624,-24.384,5.664,eccentric,0,3.0,21260.0,149900.0,245837.0,298330.0,276557.0
2026-04-08 21:23:15.507019,11778,1609502567702017,167668400,-1.077504,0.279136,0.277184,2.61625,5.50375,-2.05625,20.624,-24.384,5.664,eccentric,0,3.0,21260.0,149900.0,245837.0,298330.0,276557.0
2026-04-08 21:23:15.541719,11789,1609502567711492,167677204,-1.05408,0.203008,0.374784,2.5725,4.26125,-2.17875,20.328001,-24.472002,5.912,eccentric,0,3.0,21180.0,149539.0,245364.0,297984.0,276354.0
2026-04-08 21:23:15.543343,11790,1609502567726075,167692092,-1.05408,0.203008,0.374784,4.2525,4.73375,-3.5875,20.328001,-24.472002,5.912,eccentric,0,3.0,21180.0,149539.0,245364.0,297984.0,276354.0
2026-04-08 21:23:15.544922,11791,1609502567734975,167700794,-1.057984,0.169824,0.257664,4.87375,3.92,-5.2325,19.816002,-24.312,7.032001,eccentric,0,3.0,21180.0,149539.0,245364.0,297984.0,276354.0
2026-04-08 21:23:15.576107,11792,1609502567749458,167715690,-1.057984,0.169824,0.257664,6.22125,6.34375,-9.0125,19.816002,-24.312,7.032001,eccentric,0,3.0,21180.0,149539.0,245364.0,297984.0,276354.0
2026-04-08 21:23:15.580455,11793,1609502567758398,167724348,-1.098976,0.269376,0.1952,8.47875,9.09125,-14.035,20.336,-24.136002,6.672,eccentric,0,3.0,21180.0,149539.0,245364.0,297984.0,276354.0
2026-04-08 21:23:15.582899,11794,1609502567767315,167733002,-1.098976,0.269376,0.1952,11.24375,10.36,-16.87875,20.336,-24.136002,6.672,eccentric,0,3.0,21180.0,149539.0,245364.0,297984.0,276354.0
2026-04-08 21:23:15.586995,11795,1609502567781794,167747857,-1.116544,0.259616,0.226432,11.20875,8.56625,-17.45625,20.648,-24.168001,5.44,eccentric,0,3.0,21180.0,149539.0,245364.0,297984.0,276354.0
2026-04-08 21:23:15.635583,11796,1609502567790752,167756519,-1.116544,0.15616,0.36112,2.87,1.855,-16.59,20.648,-24.168001,5.44,eccentric,0,3.0,21180.0,149539.0,245364.0,297984.0,276354.0
2026-04-08 21:23:15.637240,11797,1609502567805229,167771418,-0.981856,0.15616,0.36112,-5.46,-2.93125,-20.685,21.032001,-23.744001,5.944,eccentric,0,3.0,21180.0,149539.0,245364.0,297984.0,276354.0
2026-04-08 21:23:15.668057,11808,1609502567814260,167780160,-0.972096,0.142496,0.244,-10.31625,-4.305,-27.81625,21.104,-23.408,5.696,eccentric,0,3.0,20978.0,148640.0,244268.0,297314.0,275973.0
2026-04-08 21:23:15.669671,11809,1609502567828795,167795067,-0.972096,0.142496,0.244,-11.40125,-4.41,-31.42125,21.104,-23.408,5.696,eccentric,0,3.0,20978.0,148640.0,244268.0,297314.0,275973.0
2026-04-08 21:23:15.671278,11810,1609502567837688,167803782,-1.001376,0.206912,0.242048,-9.49375,-2.7825,-33.04875,20.824001,-23.080002,5.88,eccentric,0,3.0,20978.0,148640.0,244268.0,297314.0,275973.0
2026-04-08 21:23:15.675445,11811,1609502567846568,167812491,-1.001376,0.206912,0.242048,-3.59625,-1.6975,-32.13,20.824001,-23.080002,5.88,eccentric,0,3.0,20978.0,148640.0,244268.0,297314.0,275973.0
2026-04-08 21:23:15.677175,11812,1609502567861050,167827359,-1.065792,0.121024,0.31232,-4.76,-4.025,-27.9825,20.888,-22.672,6.776001,eccentric,0,3.0,20978.0,148640.0,244268.0,297314.0,275973.0
2026-04-08 21:23:15.679101,11813,1609502567869970,167836046,-1.065792,0.121024,0.31232,-11.92625,-5.8625,-26.9325,20.888,-22.672,6.776001,eccentric,0,3.0,20978.0,148640.0,244268.0,297314.0,275973.0
2026-04-08 21:23:15.709882,11814,1609502567884509,167850955,-0.91744,0.066368,0.27328,-17.80625,-3.45625,-31.63125,20.888,-22.36,6.08,eccentric,0,3.0,20978.0,148640.0,244268.0,297314.0,275973.0
2026-04-08 21:23:15.711287,11815,1609502567893541,167859654,-0.925248,0.162016,0.210816,-17.87625,2.65125,-38.325,21.456001,-21.992,5.904,eccentric,0,3.0,20978.0,148640.0,244268.0,297314.0,275973.0
2026-04-08 21:23:15.716596,11816,1609502567907986,167874545,-0.925248,0.162016,0.210816,-10.99875,9.96625,-42.09625,21.456001,-21.992,5.904,eccentric,0,3.0,20978.0,148640.0,244268.0,297314.0,275973.0
2026-04-08 21:23:15.747290,11827,1609502567916957,167883277,-0.960384,0.134688,0.296704,-2.30125,13.37875,-39.4625,21.84,-21.896002,6.032,eccentric,0,3.0,20836.0,147996.0,243483.0,296859.0,275653.0
2026-04-08 21:23:15.749695,11828,1609502567925958,167892015,-0.960384,0.134688,0.296704,0.06125,10.87625,-34.39625,21.84,-21.896002,6.032,eccentric,0,3.0,20836.0,147996.0,243483.0,296859.0,275653.0
2026-04-08 21:23:15.751225,11829,1609502567940389,167906971,-0.940864,0.001952,0.320128,-5.5475,6.85125,-31.14125,22.032001,-21.560001,5.952,eccentric,0,3.0,20836.0,147996.0,243483.0,296859.0,275653.0
2026-04-08 21:23:15.755396,11830,1609502567949324,167915748,-0.940864,0.001952,0.320128,-14.16625,5.83625,-32.6725,22.032001,-21.560001,5.952,eccentric,0,3.0,20836.0,147996.0,243483.0,296859.0,275653.0
2026-04-08 21:23:15.787325,11831,1609502567963872,167930661,-0.88816,0.091744,0.236192,-16.59,8.42625,-37.345,22.000002,-20.816002,6.552001,eccentric,0,3.0,20836.0,147996.0,243483.0,296859.0,275653.0
2026-04-08 21:23:15.789560,11832,1609502567972813,167939319,-0.954528,0.122976,0.242048,-11.1825,12.32875,-42.30625,22.232,-20.384,6.32,eccentric,0,3.0,20836.0,147996.0,243483.0,296859.0,275653.0
2026-04-08 21:23:15.794175,11833,1609502567987294,167954171,-0.954528,0.122976,0.242048,-7.97125,11.261251,-40.46875,22.232,-20.384,6.32,eccentric,0,3.0,20836.0,147996.0,243483.0,296859.0,275653.0
2026-04-08 21:23:15.822657,11834,1609502567996266,167962864,-0.911584,0.099552,0.271328,-10.4125,8.61875,-36.00625,22.664001,-20.096,6.512,eccentric,0,3.0,20836.0,147996.0,243483.0,296859.0,275653.0
2026-04-08 21:23:15.827219,11835,1609502568005199,167971524,-0.911584,0.099552,0.271328,-10.64,5.32,-36.6625,22.664001,-20.096,6.512,eccentric,0,3.0,20836.0,147996.0,243483.0,296859.0,275653.0
2026-04-08 21:23:15.856273,11846,1609502568019765,167986484,-0.901824,0.093696,0.197152,-5.8275,7.48125,-42.201252,22.76,-20.104,6.168,eccentric,0,3.0,20791.0,147900.0,243426.0,296836.0,275621.0
2026-04-08 21:23:15.860457,11847,1609502568028674,167995140,-0.901824,0.093696,0.197152,-6.15125,9.84375,-45.6925,22.76,-20.104,6.168,eccentric,0,3.0,20791.0,147900.0,243426.0,296836.0,275621.0
2026-04-08 21:23:15.862176,11848,1609502568043207,168010038,-0.911584,0.160064,0.1464,-7.805,12.1975,-47.6175,22.864,-19.512001,6.864,eccentric,0,3.0,20791.0,147900.0,243426.0,296836.0,275621.0
2026-04-08 21:23:15.863688,11849,1609502568052174,168018814,-0.911584,0.115168,0.249856,-16.21375,10.89375,-44.19625,22.864,-19.512001,6.864,eccentric,0,3.0,20791.0,147900.0,243426.0,296836.0,275621.0
2026-04-08 21:23:15.894806,11850,1609502568066663,168033687,-0.952576,0.115168,0.249856,-23.6775,6.79,-39.94375,23.392,-19.336,4.152,eccentric,0,3.0,20791.0,147900.0,243426.0,296836.0,275621.0
2026-04-08 21:23:15.897074,11851,1609502568075590,168042436,-0.944768,0.050752,0.300608,-20.2125,5.15375,-40.8625,23.880001,-18.912,6.336,eccentric,0,3.0,20791.0,147900.0,243426.0,296836.0,275621.0
2026-04-08 21:23:15.902026,11852,1609502568084538,168051090,-0.944768,0.050752,0.300608,-11.042501,6.79,-46.34,23.880001,-18.912,6.336,eccentric,0,3.0,20791.0,147900.0,243426.0,296836.0,275621.0
2026-04-08 21:23:15.934790,11853,1609502568099002,168065928,-0.958432,0.085888,0.072224,-0.42875,11.99625,-52.49125,24.312,-18.36,5.968,eccentric,0,3.0,20791.0,147900.0,243426.0,296836.0,275621.0
2026-04-08 21:23:15.937071,11854,1609502568107901,168074670,-0.958432,0.085888,0.072224,1.19875,16.2925,-55.57125,24.312,-18.36,5.968,eccentric,0,3.0,20791.0,147900.0,243426.0,296836.0,275621.0
2026-04-08 21:23:15.966964,11865,1609502568122495,168089587,-0.962336,0.062464,0.111264,-16.9925,15.54,-48.0375,24.552002,-18.024,6.176,eccentric,0,3.0,20701.0,147590.0,243109.0,296645.0,275489.0
2026-04-08 21:23:15.968588,11866,1609502568131415,168098231,-0.962336,0.062464,0.111264,-37.87875,10.70125,-40.78375,24.552002,-18.024,6.176,eccentric,0,3.0,20701.0,147590.0,243109.0,296645.0,275489.0
2026-04-08 21:23:15.969966,11867,1609502568145949,168113093,-0.952576,-0.062464,0.257664,-44.63375,7.42875,-40.74,24.544,-17.352001,5.24,eccentric,0,3.0,20701.0,147590.0,243109.0,296645.0,275489.0
2026-04-08 21:23:15.974235,11868,1609502568154981,168121835,-0.954528,-0.08784,0.26352,-34.55375,6.79,-43.68875,24.472002,-16.912,7.504,eccentric,0,3.0,20701.0,147590.0,243109.0,296645.0,275489.0
2026-04-08 21:23:15.976854,11869,1609502568163968,168130504,-0.954528,-0.08784,0.26352,-16.80875,6.72875,-44.86125,24.472002,-16.912,7.504,eccentric,0,3.0,20701.0,147590.0,243109.0,296645.0,275489.0
2026-04-08 21:23:16.005129,11870,1609502568178531,168145372,-0.933056,0.103456,0.197152,0.3325,8.09375,-43.35625,24.848001,-16.616001,6.968,eccentric,0,3.0,20701.0,147590.0,243109.0,296645.0,275489.0
2026-04-08 21:23:16.009627,11871,1609502568187500,168154020,-0.933056,0.103456,0.197152,9.1875,8.26875,-38.40375,24.848001,-16.616001,6.968,eccentric,0,3.0,20701.0,147590.0,243109.0,296645.0,275489.0
2026-04-08 21:23:16.011163,11872,1609502568201956,168168899,-0.93696,0.02928,0.13664,6.76375,9.03875,-32.82125,25.304,-16.36,6.176,eccentric,0,3.0,20701.0,147590.0,243109.0,296645.0,275489.0
2026-04-08 21:23:16.045028,11883,1609502568210855,168177560,-0.93696,0.02928,0.13664,-7.09625,9.0825,-29.75875,25.304,-16.36,6.176,eccentric,0,3.0,20774.0,147819.0,243426.0,296812.0,275592.0
2026-04-08 21:23:16.049382,11884,1609502568219819,168186322,-1.026752,-0.226432,0.228384,-27.72875,6.7375,-29.75,25.336,-15.584001,6.832,eccentric,0,3.0,20774.0,147819.0,243426.0,296812.0,275592.0
2026-04-08 21:23:16.050962,11885,1609502568234319,168201225,-0.98576,-0.0976,0.308416,-35.44625,7.39375,-33.24125,25.808,-15.376,6.504,eccentric,0,3.0,20774.0,147819.0,243426.0,296812.0,275592.0
2026-04-08 21:23:16.053308,11886,1609502568243313,168209913,-0.98576,-0.0976,0.308416,-19.3725,11.97875,-38.68375,25.808,-15.376,6.504,eccentric,0,3.0,20774.0,147819.0,243426.0,296812.0,275592.0
2026-04-08 21:23:16.083542,11887,1609502568257844,168224900,-0.958432,0.050752,0.310368,2.17875,16.38875,-39.71625,25.968,-15.096001,5.92,eccentric,0,3.0,20774.0,147819.0,243426.0,296812.0,275592.0
2026-04-08 21:23:16.088010,11888,1609502568266754,168233562,-0.958432,0.050752,0.310368,12.74,17.47375,-37.1875,25.968,-15.096001,5.92,eccentric,0,3.0,20774.0,147819.0,243426.0,296812.0,275592.0
2026-04-08 21:23:16.089530,11889,1609502568281182,168246357,-0.972096,-0.111264,0.259616,8.19,14.175,-34.326252,26.552002,-14.800001,5.936,eccentric,0,3.0,20774.0,147819.0,243426.0,296812.0,275592.0
2026-04-08 21:23:16.118921,11890,1609502568290354,168257092,-0.972096,-0.111264,0.259616,-0.2975,12.08375,-37.35375,26.552002,-14.800001,5.936,eccentric,0,3.0,20774.0,147819.0,243426.0,296812.0,275592.0
2026-04-08 21:23:16.122562,11891,1609502568299255,168265783,-0.950624,-0.152256,0.247904,-9.89625,11.76875,-41.01125,26.808,-14.824,6.152,eccentric,0,3.0,20774.0,147819.0,243426.0,296812.0,275592.0
2026-04-08 21:23:16.151728,11902,1609502568314238,168280742,-0.950624,-0.08784,0.177632,-9.3625,13.09,-41.2475,26.808,-14.304001,5.496,eccentric,0,3.0,20816.0,147895.0,243460.0,296875.0,275631.0
2026-04-08 21:23:16.153456,11903,1609502568323256,168289438,-1.01504,-0.08784,0.177632,-4.17375,12.38125,-37.6775,26.904001,-14.304001,5.496,eccentric,0,3.0,20816.0,147895.0,243460.0,296875.0,275631.0
2026-04-08 21:23:16.155895,11904,1609502568337776,168304337,-0.938912,-0.080032,0.288896,-1.645,9.77375,-31.98125,27.216002,-13.792001,5.568,eccentric,0,3.0,20816.0,147895.0,243460.0,296875.0,275631.0
2026-04-08 21:23:16.157459,11905,1609502568346695,168313031,-0.938912,-0.080032,0.288896,4.59375,8.2775,-30.5725,27.216002,-13.792001,5.568,eccentric,0,3.0,20816.0,147895.0,243460.0,296875.0,275631.0
2026-04-08 21:23:16.161605,11906,1609502568355648,168321712,-0.8784,-0.11712,0.181536,9.30125,8.72375,-31.9375,27.296001,-14.016001,4.664,eccentric,0,3.0,20816.0,147895.0,243460.0,296875.0,275631.0
2026-04-08 21:23:16.231196,11907,1609502568370104,168336578,-0.8784,-0.11712,0.181536,5.6875,11.05125,-31.45625,27.296001,-14.016001,4.664,eccentric,0,3.0,20816.0,147895.0,243460.0,296875.0,275631.0
2026-04-08 21:23:16.233383,11908,1609502568379038,168345229,-0.919392,-0.081984,0.162016,-3.80625,12.705,-27.685,27.288002,-13.52,5.712,eccentric,0,3.0,20816.0,147895.0,243460.0,296875.0,275631.0
2026-04-08 21:23:16.238317,11909,1609502568393510,168360122,-0.919392,-0.081984,0.162016,-11.64625,12.90625,-20.895,27.288002,-13.52,5.712,eccentric,0,3.0,20816.0,147895.0,243460.0,296875.0,275631.0
2026-04-08 21:23:16.246548,11910,1609502568402419,168368804,-0.942816,-0.095648,0.249856,-17.42125,10.2725,-13.67625,27.144001,-13.552001,6.136,eccentric,0,3.0,20816.0,147895.0,243460.0,296875.0,275631.0
2026-04-08 21:23:16.281704,11921,1609502568417062,168383721,-0.94672,-0.162016,0.316224,-14.8925,8.015,-9.835,27.352001,-13.528001,5.64,eccentric,0,3.0,20890.0,148252.0,243910.0,297165.0,275828.0
2026-04-08 21:23:16.283407,11922,1609502568426019,168392404,-0.94672,-0.162016,0.316224,-3.68375,7.49,-9.485,27.352001,-13.528001,5.64,eccentric,0,3.0,20890.0,148252.0,243910.0,297165.0,275828.0
2026-04-08 21:23:16.285686,11923,1609502568434944,168401085,-0.958432,-0.158112,0.144448,5.705,6.195,-10.5175,26.992,-13.632001,5.064,eccentric,0,3.0,20890.0,148252.0,243910.0,297165.0,275828.0
2026-04-08 21:23:16.289264,11924,1609502568449489,168415983,-0.958432,-0.158112,0.144448,10.8675,6.29125,-10.71875,26.992,-13.632001,5.064,eccentric,0,3.0,20890.0,148252.0,243910.0,297165.0,275828.0
2026-04-08 21:23:16.291175,11925,1609502568458556,168424688,-0.960384,-0.091744,0.138592,8.74125,5.7575,-9.12625,27.352001,-13.424001,5.944,eccentric,0,3.0,20890.0,148252.0,243910.0,297165.0,275828.0
2026-04-08 21:23:16.292612,11926,1609502568473046,168439662,-0.960384,-0.091744,0.138592,4.0075,5.5825,-6.16,27.352001,-13.424001,5.944,eccentric,0,3.0,20890.0,148252.0,243910.0,297165.0,275828.0
2026-04-08 21:23:16.296956,11927,1609502568481969,168448333,-0.999424,-0.138592,0.28304,-0.69125,4.33125,-2.86125,27.208002,-13.584001,5.488,eccentric,0,3.0,20890.0,148252.0,243910.0,297165.0,275828.0
2026-04-08 21:23:16.304034,11928,1609502568496491,168463188,-1.007232,-0.197152,0.244,-4.8825,0.86625,-1.65375,27.064001,-13.424001,4.616,eccentric,0,3.0,20890.0,148252.0,243910.0,297165.0,275828.0
2026-04-08 21:23:16.334842,11929,1609502568505414,168471927,-1.007232,-0.197152,0.244,1.53125,-0.0875,-4.4975,27.064001,-13.424001,4.616,eccentric,0,3.0,20890.0,148252.0,243910.0,297165.0,275828.0
2026-04-08 21:23:16.373440,11940,1609502568514620,168480782,-1.007232,-0.197152,0.244,11.94375,1.72375,-7.7,27.064001,-13.424001,4.616,eccentric,0,3.0,20927.0,148356.0,244040.0,297300.0,275932.0
2026-04-08 21:23:16.375066,11941,1609502568529167,168495711,-0.974048,-0.169824,0.22448,13.3875,3.84125,-7.98875,27.312002,-13.696001,5.2,eccentric,0,3.0,20927.0,148356.0,244040.0,297300.0,275932.0
2026-04-08 21:23:16.379226,11942,1609502568538095,168504408,-1.038464,-0.134688,0.173728,5.775,3.7625,-5.2325,27.584002,-13.368001,5.0,eccentric,0,3.0,20927.0,148356.0,244040.0,297300.0,275932.0
2026-04-08 21:23:16.380939,11943,1609502568552621,168519326,-1.038464,-0.134688,0.173728,-2.1175,2.94875,-1.9775,27.584002,-13.368001,5.0,eccentric,0,3.0,20927.0,148356.0,244040.0,297300.0,275932.0
2026-04-08 21:23:16.382616,11944,1609502568561647,168528007,-1.00528,-0.212768,0.230336,-6.0375,2.30125,-1.02375,27.624,-13.328001,6.28,eccentric,0,3.0,20927.0,148356.0,244040.0,297300.0,275932.0
2026-04-08 21:23:16.386582,11945,1609502568576151,168542859,-1.001376,-0.187392,0.232288,-4.08625,2.82625,-1.96,27.248001,-13.6,5.648,eccentric,0,3.0,20927.0,148356.0,244040.0,297300.0,275932.0
2026-04-08 21:23:16.390338,11946,1609502568585203,168551591,-1.001376,-0.187392,0.232288,3.40375,3.91125,-2.45,27.248001,-13.6,5.648,eccentric,0,3.0,20927.0,148356.0,244040.0,297300.0,275932.0
2026-04-08 21:23:16.419129,11947,1609502568594139,168560298,-1.001376,-0.187392,0.232288,8.56625,4.40125,-1.015,27.248001,-13.6,5.648,eccentric,0,3.0,20927.0,148356.0,244040.0,297300.0,275932.0
2026-04-08 21:23:16.423504,11948,1609502568608619,168575166,-1.01504,-0.13664,0.181536,6.9125,3.7975,0.55125,27.52,-13.568001,5.456,eccentric,0,3.0,20927.0,148356.0,244040.0,297300.0,275932.0
2026-04-08 21:23:16.450041,11959,1609502568617720,168583963,-1.059936,-0.240096,0.128832,2.7475,2.9925,1.25125,27.960001,-13.336,5.792,eccentric,0,3.0,20957.0,148516.0,244238.0,297471.0,276022.0
2026-04-08 21:23:16.454249,11960,1609502568632215,168598917,-1.059936,-0.240096,0.128832,-4.305,1.9425,0.97125,27.960001,-13.336,5.792,eccentric,0,3.0,20957.0,148516.0,244238.0,297471.0,276022.0
2026-04-08 21:23:16.455955,11961,1609502568641144,168607584,-1.067744,-0.236192,0.199104,-7.72625,2.23125,-2.26625,27.752,-13.448001,5.544,eccentric,0,3.0,20957.0,148516.0,244238.0,297471.0,276022.0
2026-04-08 21:23:16.457825,11962,1609502568650067,168616250,-1.067744,-0.236192,0.199104,-2.9225,5.355,-4.19125,27.752,-13.448001,5.544,eccentric,0,3.0,20957.0,148516.0,244238.0,297471.0,276022.0
2026-04-08 21:23:16.488535,11963,1609502568664545,168631161,-1.075552,-0.144448,0.189344,2.835,8.6275,-5.0925,27.688002,-13.392,5.424,eccentric,0,3.0,20957.0,148516.0,244238.0,297471.0,276022.0
2026-04-08 21:23:16.493001,11964,1609502568673454,168639818,-1.075552,-0.144448,0.189344,4.82125,9.63375,-5.005,27.688002,-13.392,5.424,eccentric,0,3.0,20957.0,148516.0,244238.0,297471.0,276022.0
2026-04-08 21:23:16.494539,11965,1609502568687935,168654694,-1.059936,-0.132736,0.216672,1.81125,8.19,-3.47375,27.864002,-13.496,5.064,eccentric,0,3.0,20957.0,148516.0,244238.0,297471.0,276022.0
2026-04-08 21:23:16.531372,11966,1609502568696952,168663376,-1.050176,-0.158112,0.162016,-1.11125,5.64375,-2.2925,27.880001,-13.368001,5.672,eccentric,0,3.0,20957.0,148516.0,244238.0,297471.0,276022.0
2026-04-08 21:23:16.536576,11967,1609502568711431,168678242,-1.050176,-0.158112,0.162016,-0.90125,2.98375,-1.9775,27.880001,-13.368001,5.672,eccentric,0,3.0,20957.0,148516.0,244238.0,297471.0,276022.0
2026-04-08 21:23:16.564218,11978,1609502568720361,168686980,-1.007232,-0.179584,0.128832,-0.525,2.6075,-2.49375,28.096,-13.64,4.776,eccentric,0,3.0,20963.0,148551.0,244335.0,297519.0,276057.0
2026-04-08 21:23:16.565905,11979,1609502568729277,168695619,-1.007232,-0.179584,0.128832,-1.67125,3.0275,-3.0975,28.096,-13.64,4.776,eccentric,0,3.0,20963.0,148551.0,244335.0,297519.0,276057.0
2026-04-08 21:23:16.567521,11980,1609502568743764,168710536,-1.016992,-0.148352,0.18544,-4.83,4.27,-3.47375,28.112001,-13.616,4.56,eccentric,0,3.0,20963.0,148551.0,244335.0,297519.0,276057.0
2026-04-08 21:23:16.571710,11981,1609502568752698,168719301,-1.016992,-0.148352,0.18544,-8.9075,5.355,-3.5875,28.112001,-13.616,4.56,eccentric,0,3.0,20963.0,148551.0,244335.0,297519.0,276057.0
2026-04-08 21:23:16.574687,11982,1609502568767188,168734163,-1.016992,-0.1464,0.142496,-9.730001,5.06625,-2.54625,27.856,-13.864,5.04,eccentric,0,3.0,20963.0,148551.0,244335.0,297519.0,276057.0
2026-04-08 21:23:16.585391,11983,1609502568776182,168742841,-1.016992,-0.1464,0.216672,-7.5425,3.98125,-2.10875,27.856,-13.864,5.04,eccentric,0,3.0,20963.0,148551.0,244335.0,297519.0,276057.0
2026-04-08 21:23:16.613889,11984,1609502568790749,168757734,-0.976,-0.160064,0.216672,-3.49125,2.77375,-1.295,27.720001,-13.512001,3.464,eccentric,0,3.0,20963.0,148551.0,244335.0,297519.0,276057.0
2026-04-08 21:23:16.618400,11985,1609502568799655,168766385,-0.989664,-0.11712,0.130784,0.56,1.42625,-0.49875,27.840002,-13.592001,4.528,eccentric,0,3.0,20963.0,148551.0,244335.0,297519.0,276057.0
2026-04-08 21:23:16.620750,11986,1609502568808552,168775035,-0.989664,-0.11712,0.130784,3.78875,0.2275,0.70875,27.840002,-13.592001,4.528,eccentric,0,3.0,20963.0,148551.0,244335.0,297519.0,276057.0
2026-04-08 21:23:16.649237,11997,1609502568823562,168790124,-0.979904,-0.122976,0.130784,3.395,0.27125,3.17625,28.016,-13.568001,4.752,eccentric,0,3.0,20955.0,148381.0,244086.0,297379.0,275972.0
2026-04-08 21:23:16.650932,11998,1609502568832500,168798829,-0.979904,-0.122976,0.130784,-0.28875,-0.13125,5.915,28.016,-13.568001,4.752,eccentric,0,3.0,20955.0,148381.0,244086.0,297379.0,275972.0
2026-04-08 21:23:16.652875,11999,1609502568846993,168813715,-0.987712,-0.142496,0.22448,-3.56125,-0.20125,8.00625,27.912,-13.696001,4.552,eccentric,0,3.0,20955.0,148381.0,244086.0,297379.0,275972.0
2026-04-08 21:23:16.685198,12000,1609502568856027,168822396,-0.987712,-0.142496,0.22448,-3.10625,0.4375,8.015,27.912,-13.696001,4.552,eccentric,0,3.0,20955.0,148381.0,244086.0,297379.0,275972.0
2026-04-08 21:23:16.689525,12001,1609502568864952,168831064,-1.0248,-0.183488,0.216672,0.7,1.26875,6.7025,27.688002,-13.64,5.2,eccentric,0,3.0,20955.0,148381.0,244086.0,297379.0,275972.0
2026-04-08 21:23:16.690914,12002,1609502568879414,168845939,-1.032608,-0.12688,0.16592,1.995,0.805,5.285,27.720001,-13.72,4.552,eccentric,0,3.0,20955.0,148381.0,244086.0,297379.0,275972.0
2026-04-08 21:23:16.692441,12003,1609502568888327,168854629,-1.032608,-0.12688,0.16592,5.64375,1.19875,3.96375,27.720001,-13.72,4.552,eccentric,0,3.0,20955.0,148381.0,244086.0,297379.0,275972.0
2026-04-08 21:23:16.723542,12004,1609502568902818,168869525,-1.030656,-0.11712,0.171776,8.09375,1.1725,3.84125,27.608002,-13.984,4.696,eccentric,0,3.0,20955.0,148381.0,244086.0,297379.0,275972.0
2026-04-08 21:23:16.728048,12005,1609502568911696,168878182,-1.030656,-0.11712,0.171776,6.545,-0.07875,5.03125,27.608002,-13.984,4.696,eccentric,0,3.0,20955.0,148381.0,244086.0,297379.0,275972.0
2026-04-08 21:23:16.754694,12016,1609502568926305,168893302,-1.018944,-0.12688,0.140544,2.1,-1.715,6.46625,27.624,-14.296001,4.88,eccentric,0,3.0,20953.0,148428.0,244153.0,297420.0,275975.0
2026-04-08 21:23:16.756420,12017,1609502568935263,168902047,-1.018944,-0.12688,0.140544,0.72625,-1.35625,6.30875,27.624,-14.296001,4.88,eccentric,0,3.0,20953.0,148428.0,244153.0,297420.0,275975.0
2026-04-08 21:23:16.760402,12018,1609502568944165,168910725,-0.981856,-0.1464,0.134688,1.42625,-1.1725,5.915,27.920002,-14.544001,3.952,eccentric,0,3.0,20953.0,148428.0,244153.0,297420.0,275975.0
2026-04-08 21:23:16.767238,12019,1609502568958715,168925654,-0.977952,-0.122976,0.128832,2.12625,-0.30625,5.215,28.144001,-14.120001,3.36,eccentric,0,3.0,20953.0,148428.0,244153.0,297420.0,275975.0
2026-04-08 21:23:16.775366,12020,1609502568967650,168934380,-0.977952,-0.122976,0.128832,3.535,0.48125,5.45125,28.144001,-14.120001,3.36,eccentric,0,3.0,20953.0,148428.0,244153.0,297420.0,275975.0
2026-04-08 21:23:16.836132,12021,1609502568982127,168949235,-0.954528,-0.099552,0.162016,4.2175,0.84,6.405,27.680002,-14.528001,4.488,eccentric,0,3.0,20953.0,148428.0,244153.0,297420.0,275975.0
2026-04-08 21:23:16.837584,12022,1609502568991034,168957900,-0.954528,-0.099552,0.162016,3.49125,0.2625,7.945,27.680002,-14.528001,4.488,eccentric,0,3.0,20953.0,148428.0,244153.0,297420.0,275975.0
2026-04-08 21:23:16.840016,12023,1609502569005473,168970698,-0.915488,-0.140544,0.12688,0.76125,-0.79625,10.45625,27.672,-14.496,4.28,eccentric,0,3.0,20953.0,148428.0,244153.0,297420.0,275975.0
2026-04-08 21:23:16.873006,12034,1609502569014732,168981421,-0.915488,-0.140544,0.12688,-0.21,-1.79375,12.0925,27.672,-14.496,4.28,concentric,0,3.0,20995.0,148662.0,244449.0,297631.0,276108.0
2026-04-08 21:23:16.874697,12035,1609502569023755,168990135,-0.925248,-0.1464,0.124928,-0.70875,-1.54,13.37875,27.28,-14.56,4.52,concentric,0,3.0,20995.0,148662.0,244449.0,297631.0,276108.0
2026-04-08 21:23:16.877180,12036,1609502569038297,169005047,-0.991616,-0.066368,0.140544,-1.49625,-1.61,14.945,27.28,-14.768001,3.56,concentric,0,3.0,20995.0,148662.0,244449.0,297631.0,276108.0
2026-04-08 21:23:16.879017,12037,1609502569047342,169013732,-0.991616,-0.066368,0.140544,-0.93625,-3.4125,16.5025,27.152,-14.768001,3.56,concentric,0,3.0,20995.0,148662.0,244449.0,297631.0,276108.0
2026-04-08 21:23:16.882951,12038,1609502569061933,169028624,-1.003328,-0.056608,0.148352,4.62,-4.1125,18.50625,27.648,-15.176001,3.96,concentric,0,3.0,20995.0,148662.0,244449.0,297631.0,276108.0
2026-04-08 21:23:16.886117,12039,1609502569070905,169037377,-1.003328,-0.056608,0.148352,8.28625,-3.94625,20.30875,27.648,-15.176001,3.96,concentric,0,3.0,20995.0,148662.0,244449.0,297631.0,276108.0
2026-04-08 21:23:16.891574,12040,1609502569085428,169052335,-0.972096,-0.083936,0.173728,5.59125,-5.6525,23.70375,26.952002,-15.544001,4.68,concentric,0,3.0,20995.0,148662.0,244449.0,297631.0,276108.0
2026-04-08 21:23:16.922668,12041,1609502569094386,169061014,-0.972096,-0.083936,0.173728,2.1,-7.25375,26.7925,26.952002,-15.544001,4.68,concentric,0,3.0,20995.0,148662.0,244449.0,297631.0,276108.0
2026-04-08 21:23:16.924200,12042,1609502569103304,169069670,-0.958432,-0.076128,0.132736,2.695,-7.90125,28.07875,26.760002,-15.920001,5.088,concentric,0,3.0,20995.0,148662.0,244449.0,297631.0,276108.0
2026-04-08 21:23:16.953010,12053,1609502569117884,169084617,-0.958432,-0.076128,0.132736,5.01375,-7.83125,29.16375,26.760002,-15.920001,5.088,concentric,0,3.0,20989.0,148644.0,244447.0,297647.0,276120.0
2026-04-08 21:23:16.956462,12054,1609502569127028,169093314,-1.0248,-0.056608,0.1464,5.32875,-7.735,30.44125,26.792002,-16.312,6.520001,concentric,0,3.0,20989.0,148644.0,244447.0,297647.0,276120.0
2026-04-08 21:23:16.960489,12055,1609502569141512,169108223,-0.991616,-0.064416,0.148352,4.55,-8.51375,29.68875,26.272001,-16.320002,5.088,concentric,0,3.0,20989.0,148644.0,244447.0,297647.0,276120.0
2026-04-08 21:23:16.962179,12056,1609502569150427,169116914,-0.991616,-0.064416,0.148352,4.85625,-10.36,27.51875,26.272001,-16.320002,5.088,concentric,0,3.0,20989.0,148644.0,244447.0,297647.0,276120.0
2026-04-08 21:23:16.963784,12057,1609502569159386,169125571,-0.997472,-0.025376,0.212768,6.02,-11.78625,27.0025,25.952002,-16.504002,6.432,concentric,0,3.0,20989.0,148644.0,244447.0,297647.0,276120.0
2026-04-08 21:23:16.994875,12058,1609502569173947,169140459,-0.997472,-0.025376,0.212768,9.485,-13.37875,27.5275,25.952002,-16.504002,6.432,concentric,0,3.0,20989.0,148644.0,244447.0,297647.0,276120.0
2026-04-08 21:23:16.997085,12059,1609502569182846,169149131,-0.960384,-0.064416,0.171776,12.76625,-14.04375,28.55125,26.368002,-16.952002,4.64,concentric,0,3.0,20989.0,148644.0,244447.0,297647.0,276120.0
2026-04-08 21:23:17.004084,12060,1609502569197312,169163977,-0.960384,-0.064416,0.171776,13.46625,-14.84875,29.33,26.368002,-16.952002,4.64,concentric,0,3.0,20989.0,148644.0,244447.0,297647.0,276120.0
2026-04-08 21:23:17.032676,12061,1609502569206255,169172651,-0.96624,-0.013664,0.17568,13.3175,-15.65375,28.95375,25.776001,-17.320002,4.76,concentric,0,3.0,20989.0,148644.0,244447.0,297647.0,276120.0
2026-04-08 21:23:17.062960,12072,1609502569220878,169187637,-0.925248,-0.003904,0.148352,9.37125,-16.28375,28.8225,25.784,-17.640001,2.904,concentric,0,3.0,21108.0,149185.0,245127.0,298104.0,276391.0
2026-04-08 21:23:17.064724,12073,1609502569229823,169196294,-0.925248,-0.003904,0.148352,7.315,-16.2925,30.5025,25.784,-17.640001,2.904,concentric,0,3.0,21108.0,149185.0,245127.0,298104.0,276391.0
2026-04-08 21:23:17.066268,12074,1609502569238766,169204962,-0.925248,-0.003904,0.179584,6.16875,-16.87875,33.3375,25.784,-17.640001,2.904,concentric,0,3.0,21108.0,149185.0,245127.0,298104.0,276391.0
2026-04-08 21:23:17.070604,12075,1609502569253278,169219866,-0.9272,0.0,0.183488,6.86875,-17.61375,36.37375,24.744001,-18.176,5.048,concentric,0,3.0,21108.0,149185.0,245127.0,298104.0,276391.0
2026-04-08 21:23:17.072919,12076,1609502569262210,169228614,-0.940864,-0.02928,0.189344,8.225,-16.3275,36.2075,24.496,-18.6,5.592001,concentric,0,3.0,21108.0,149185.0,245127.0,298104.0,276391.0
2026-04-08 21:23:17.139882,12077,1609502569276715,169243541,-0.940864,-0.02928,0.189344,6.2825,-15.25125,35.1575,24.496,-18.6,5.592001,concentric,0,3.0,21108.0,149185.0,245127.0,298104.0,276391.0
2026-04-08 21:23:17.159290,12078,1609502569285647,169252199,-0.964288,0.025376,0.121024,4.2175,-14.77875,34.326252,24.776001,-18.976002,4.744,concentric,0,3.0,21108.0,149185.0,245127.0,298104.0,276391.0
2026-04-08 21:23:17.160982,12079,1609502569300146,169267067,-0.921344,0.06832,0.16592,-0.385,-13.72,36.11125,24.592001,-19.168001,4.416,concentric,0,3.0,21108.0,149185.0,245127.0,298104.0,276391.0
2026-04-08 21:23:17.162469,12080,1609502569309058,169275715,-0.921344,0.06832,0.16592,-3.66625,-12.94125,39.24375,24.592001,-19.168001,4.416,concentric,0,3.0,21108.0,149185.0,245127.0,298104.0,276391.0
2026-04-08 21:23:17.195506,12091,1609502569318559,169284995,-0.921344,0.06832,0.16592,-6.11625,-13.3,42.84875,24.592001,-19.168001,4.416,concentric,0,3.0,21278.0,149868.0,245991.0,298653.0,276714.0
2026-04-08 21:23:17.197292,12092,1609502569333109,169299845,-0.882304,0.050752,0.238144,-9.345,-15.11125,46.9875,24.12,-19.36,5.2,concentric,0,3.0,21278.0,149868.0,245991.0,298653.0,276714.0
2026-04-08 21:23:17.198814,12093,1609502569342013,169308492,-0.903776,-0.013664,0.203008,-11.5675,-15.44375,47.83625,23.976002,-19.808,4.952,concentric,0,3.0,21278.0,149868.0,245991.0,298653.0,276714.0
2026-04-08 21:23:17.203006,12094,1609502569356480,169323328,-0.903776,-0.013664,0.203008,-12.0225,-14.49,44.38,23.976002,-19.808,4.952,concentric,0,3.0,21278.0,149868.0,245991.0,298653.0,276714.0
2026-04-08 21:23:17.204715,12095,1609502569365441,169332017,-0.93696,0.0488,0.158112,-13.97375,-14.83125,42.27125,23.112001,-19.76,6.056,concentric,0,3.0,21278.0,149868.0,245991.0,298653.0,276714.0
2026-04-08 21:23:17.206261,12096,1609502569374368,169340756,-0.93696,0.0488,0.158112,-13.0025,-14.1575,43.4175,23.112001,-19.76,6.056,concentric,0,3.0,21278.0,149868.0,245991.0,298653.0,276714.0
2026-04-08 21:23:17.210458,12097,1609502569388974,169355697,-0.950624,0.128832,0.222528,-7.84875,-14.86625,46.0775,23.104002,-20.728,5.480001,concentric,0,3.0,21278.0,149868.0,245991.0,298653.0,276714.0
2026-04-08 21:23:17.212905,12098,1609502569397966,169364465,-0.950624,0.128832,0.222528,-2.80875,-15.26,49.32375,23.104002,-20.728,5.480001,concentric,0,3.0,21278.0,149868.0,245991.0,298653.0,276714.0
2026-04-08 21:23:17.241382,12099,1609502569412528,169379374,-1.001376,0.052704,0.16592,0.13125,-14.41125,50.26875,22.432001,-21.312,5.632,concentric,0,3.0,21278.0,149868.0,245991.0,298653.0,276714.0
2026-04-08 21:23:17.270975,12110,1609502569421800,169388076,-0.98576,0.072224,0.220576,-4.445,-14.11375,49.14875,22.04,-21.472,5.72,concentric,0,3.0,21482.0,150782.0,247058.0,299251.0,276999.0
2026-04-08 21:23:17.272488,12111,1609502569436325,169402964,-0.98576,0.072224,0.220576,-8.8025,-11.75125,45.3075,22.04,-21.472,5.72,concentric,0,3.0,21482.0,150782.0,247058.0,299251.0,276999.0
2026-04-08 21:23:17.276704,12112,1609502569445262,169411628,-1.001376,0.160064,0.130784,-8.295,-8.86375,40.8275,22.224,-22.04,5.664,concentric,0,3.0,21482.0,150782.0,247058.0,299251.0,276999.0
2026-04-08 21:23:17.278480,12113,1609502569454206,169420346,-1.001376,0.160064,0.130784,-3.9375,-7.07875,39.0075,22.224,-22.04,5.664,concentric,0,3.0,21482.0,150782.0,247058.0,299251.0,276999.0
2026-04-08 21:23:17.280929,12114,1609502569468791,169435288,-1.048224,0.11712,0.2928,-1.12875,-8.04125,39.7425,21.12,-22.272001,6.096,concentric,0,3.0,21482.0,150782.0,247058.0,299251.0,276999.0
2026-04-08 21:23:17.282493,12115,1609502569477736,169444002,-1.048224,0.11712,0.2928,-3.99875,-9.8,42.1925,21.12,-22.272001,6.096,concentric,0,3.0,21482.0,150782.0,247058.0,299251.0,276999.0
2026-04-08 21:23:17.313591,12116,1609502569492202,169458888,-1.081408,0.122976,0.189344,-3.7975,-8.09375,39.06875,21.184002,-22.408,6.8,concentric,0,3.0,21482.0,150782.0,247058.0,299251.0,276999.0
2026-04-08 21:23:17.315880,12117,1609502569501129,169467557,-1.10288,0.158112,0.220576,0.81375,-3.6925,32.05125,21.184002,-22.928001,5.384,concentric,0,3.0,21482.0,150782.0,247058.0,299251.0,276999.0
2026-04-08 21:23:17.321613,12118,1609502569515581,169482419,-1.10288,0.158112,0.220576,-1.26,-1.015,29.1725,21.128,-22.928001,5.384,concentric,0,3.0,21482.0,150782.0,247058.0,299251.0,276999.0
2026-04-08 21:23:17.350007,12129,1609502569524577,169491103,-1.046272,0.167872,0.245952,-5.6525,-1.56625,29.1375,21.168001,-23.176,6.480001,concentric,0,3.0,21549.0,151163.0,247505.0,299513.0,277166.0
2026-04-08 21:23:17.353428,12130,1609502569533538,169499861,-1.046272,0.167872,0.245952,-9.948751,-4.0425,28.53375,21.168001,-23.176,6.480001,concentric,0,3.0,21549.0,151163.0,247505.0,299513.0,277166.0
2026-04-08 21:23:17.354963,12131,1609502569548097,169514939,-1.061888,0.150304,0.242048,-8.72375,-6.41375,27.29125,21.12,-23.368002,6.976,concentric,0,3.0,21549.0,151163.0,247505.0,299513.0,277166.0
2026-04-08 21:23:17.362868,12132,1609502569557032,169523648,-1.061888,0.150304,0.242048,-2.38,-6.755,25.40125,21.12,-23.368002,6.976,concentric,0,3.0,21549.0,151163.0,247505.0,299513.0,277166.0
2026-04-08 21:23:17.393679,12133,1609502569571540,169538532,-1.08336,0.160064,0.286944,3.12375,-6.5975,23.45875,21.080002,-23.704,5.808,concentric,0,3.0,21549.0,151163.0,247505.0,299513.0,277166.0
2026-04-08 21:23:17.395880,12134,1609502569580457,169547190,-1.08336,0.160064,0.286944,7.07,-3.115,19.73125,21.080002,-23.704,5.808,concentric,0,3.0,21549.0,151163.0,247505.0,299513.0,277166.0
2026-04-08 21:23:17.400464,12135,1609502569589380,169555874,-1.059936,0.20496,0.296704,3.7975,-0.525,18.15625,20.952002,-23.52,5.72,concentric,0,3.0,21549.0,151163.0,247505.0,299513.0,277166.0
2026-04-08 21:23:17.437381,12136,1609502569603886,169570748,-1.018944,0.193248,0.242048,-3.64875,1.19875,16.77375,20.744001,-23.952002,6.472,concentric,0,3.0,21549.0,151163.0,247505.0,299513.0,277166.0
2026-04-08 21:23:17.439630,12137,1609502569612805,169579410,-1.018944,0.193248,0.242048,-7.07875,2.1875,13.8075,20.744001,-23.952002,6.472,concentric,0,3.0,21549.0,151163.0,247505.0,299513.0,277166.0
2026-04-08 21:23:17.515565,12148,1609502569627362,169594351,-0.991616,0.152256,0.329888,-8.16375,1.46125,14.11375,21.376001,-23.696001,5.432,concentric,0,3.0,21585.0,151333.0,247708.0,299603.0,277234.0
2026-04-08 21:23:17.517253,12149,1609502569636285,169603014,-0.991616,0.152256,0.329888,-6.25625,-1.12875,15.16375,21.376001,-23.696001,5.432,concentric,0,3.0,21585.0,151333.0,247708.0,299603.0,277234.0
2026-04-08 21:23:17.518791,12150,1609502569650791,169617856,-1.00528,0.169824,0.363072,-2.59,-3.92875,10.7625,20.952002,-24.168001,5.72,concentric,0,3.0,21585.0,151333.0,247708.0,299603.0,277234.0
2026-04-08 21:23:17.525564,12151,1609502569659780,169626546,-1.00528,0.169824,0.363072,5.08375,-3.70125,0.86625,20.952002,-24.168001,5.72,concentric,0,3.0,21585.0,151333.0,247708.0,299603.0,277234.0
2026-04-08 21:23:17.527236,12152,1609502569668710,169635217,-1.05408,0.201056,0.378688,8.9425,-4.55,-3.01,20.472,-23.960001,6.104,concentric,0,3.0,21585.0,151333.0,247708.0,299603.0,277234.0
2026-04-08 21:23:17.528775,12153,1609502569683193,169650096,-1.08336,0.267424,0.376736,8.75,-5.34625,-3.3075,21.176,-24.288002,4.144,concentric,0,3.0,21585.0,151333.0,247708.0,299603.0,277234.0
2026-04-08 21:23:17.532978,12154,1609502569692110,169658723,-1.08336,0.267424,0.376736,5.92375,-6.62375,-2.52875,21.176,-24.288002,4.144,concentric,0,3.0,21585.0,151333.0,247708.0,299603.0,277234.0
2026-04-08 21:23:17.534714,12155,1609502569706591,169673597,-1.09312,0.218624,0.23424,5.62625,-7.39375,-2.14375,20.888,-25.032001,6.368001,concentric,0,3.0,21585.0,151333.0,247708.0,299603.0,277234.0
2026-04-08 21:23:17.537232,12156,1609502569715498,169682310,-1.09312,0.218624,0.23424,2.905,-7.13125,-3.36,20.888,-25.032001,6.368001,concentric,0,3.0,21585.0,151333.0,247708.0,299603.0,277234.0
2026-04-08 21:23:17.563799,12167,1609502569730251,169695673,-1.087264,0.222528,0.345504,-3.4475,-8.79375,-2.70375,21.008001,-24.512001,6.448,concentric,0,3.0,21478.0,150957.0,247266.0,299355.0,277101.0
2026-04-08 21:23:17.568426,12168,1609502569739671,169706510,-1.087264,0.222528,0.345504,-8.68,-9.9575,-1.12,21.008001,-24.512001,6.448,concentric,0,3.0,21478.0,150957.0,247266.0,299355.0,277101.0
2026-04-08 21:23:17.569870,12169,1609502569748687,169715268,-1.081408,0.21472,0.281088,-8.79375,-8.30375,-3.07125,21.128,-24.416,6.272,concentric,0,3.0,21478.0,150957.0,247266.0,299355.0,277101.0
2026-04-08 21:23:17.571243,12170,1609502569763198,169730166,-1.124352,0.236192,0.36112,-7.525,-7.1225,-4.3575,20.872002,-24.624,5.352,concentric,0,3.0,21478.0,150957.0,247266.0,299355.0,277101.0
2026-04-08 21:23:17.577900,12171,1609502569772178,169738977,-1.124352,0.236192,0.36112,-7.91,-7.735,-3.64,20.872002,-24.624,5.352,concentric,0,3.0,21478.0,150957.0,247266.0,299355.0,277101.0
2026-04-08 21:23:17.606434,12172,1609502569786643,169751800,-1.1224,0.228384,0.238144,-7.67375,-8.4525,-3.64875,21.624,-24.752,5.456,concentric,0,3.0,21478.0,150957.0,247266.0,299355.0,277101.0
2026-04-08 21:23:17.610889,12173,1609502569795771,169762552,-1.1224,0.228384,0.238144,-6.46625,-7.81375,-5.38125,21.624,-24.752,5.456,concentric,0,3.0,21478.0,150957.0,247266.0,299355.0,277101.0
2026-04-08 21:23:17.613236,12174,1609502569804671,169771198,-1.134112,0.169824,0.269376,-4.87375,-8.0675,-3.885,21.824001,-24.936,5.632,concentric,0,3.0,21478.0,150957.0,247266.0,299355.0,277101.0
2026-04-08 21:23:17.673507,12185,1609502569819216,169786073,-1.134112,0.169824,0.269376,-3.24625,-8.98625,-1.47875,21.824001,-24.936,5.632,concentric,0,3.0,21464.0,150889.0,247208.0,299337.0,277106.0
2026-04-08 21:23:17.676534,12186,1609502569828155,169794790,-1.145824,0.238144,0.245952,3.19375,-8.11125,-2.1175,22.000002,-24.728,5.576,concentric,0,3.0,21464.0,150889.0,247208.0,299337.0,277106.0
2026-04-08 21:23:17.677578,12187,1609502569842612,169809702,-1.145824,0.284992,0.25376,9.5025,-6.58,-3.47375,22.000002,-24.728,5.576,concentric,0,3.0,21464.0,150889.0,247208.0,299337.0,277106.0
2026-04-08 21:23:17.681761,12188,1609502569851528,169818445,-1.128256,0.288896,0.25376,10.29875,-6.51875,-3.71875,21.616001,-24.608002,1.52,concentric,0,3.0,21464.0,150889.0,247208.0,299337.0,277106.0
2026-04-08 21:23:17.683465,12189,1609502569866052,169831310,-1.128256,0.236192,0.271328,6.16,-7.58625,-4.76,22.12,-24.888,5.4,concentric,0,3.0,21464.0,150889.0,247208.0,299337.0,277106.0
2026-04-08 21:23:17.685014,12190,1609502569875279,169842085,-1.128256,0.236192,0.271328,1.2075,-9.03,-4.85625,22.12,-24.888,5.4,concentric,0,3.0,21464.0,150889.0,247208.0,299337.0,277106.0
2026-04-08 21:23:17.690411,12191,1609502569884199,169850750,-1.106784,0.259616,0.255712,-1.47,-8.61,-4.1125,21.432001,-24.984001,6.72,concentric,0,3.0,21464.0,150889.0,247208.0,299337.0,277106.0
2026-04-08 21:23:17.737377,12192,1609502569898786,169865612,-1.106784,0.259616,0.255712,-1.05875,-6.5975,-5.5475,21.432001,-24.984001,6.72,concentric,0,3.0,21464.0,150889.0,247208.0,299337.0,277106.0
2026-04-08 21:23:17.738772,12193,1609502569907697,169874286,-1.075552,0.284992,0.306464,0.14,-5.1625,-6.36125,21.928001,-24.984001,5.256,concentric,0,3.0,21464.0,150889.0,247208.0,299337.0,277106.0
2026-04-08 21:23:17.769266,12204,1609502569922268,169889199,-1.075552,0.284992,0.306464,1.11125,-3.815,-5.2675,21.928001,-24.984001,5.256,concentric,0,3.0,21629.0,151561.0,248010.0,299835.0,277406.0
2026-04-08 21:23:17.770977,12205,1609502569931338,169897901,-1.130208,0.290848,0.271328,0.34125,-3.2725,-3.395,22.080002,-24.960001,5.344,concentric,0,3.0,21629.0,151561.0,248010.0,299835.0,277406.0
2026-04-08 21:23:17.772507,12206,1609502569945888,169912778,-1.124352,0.275232,0.31232,-3.22875,-3.85,-0.98875,21.824001,-25.352001,5.872,concentric,0,3.0,21629.0,151561.0,248010.0,299835.0,277406.0
2026-04-08 21:23:17.776755,12207,1609502569954944,169921449,-1.124352,0.275232,0.31232,-6.48375,-4.15625,-0.63875,21.824001,-25.352001,5.872,concentric,0,3.0,21629.0,151561.0,248010.0,299835.0,277406.0
2026-04-08 21:23:17.778494,12208,1609502569963939,169930177,-1.061888,0.257664,0.339648,-7.04375,-3.92875,-2.09125,21.704,-24.848001,3.736,concentric,0,3.0,21629.0,151561.0,248010.0,299835.0,277406.0
2026-04-08 21:23:17.785391,12209,1609502569978445,169945072,-1.061888,0.257664,0.339648,-7.98875,-4.05125,-3.4825,21.704,-24.848001,3.736,concentric,0,3.0,21629.0,151561.0,248010.0,299835.0,277406.0
2026-04-08 21:23:17.813923,12210,1609502569987419,169953746,-1.069696,0.298656,0.363072,-7.30625,-3.78,-2.65125,22.072,-24.944,5.672,concentric,0,3.0,21629.0,151561.0,248010.0,299835.0,277406.0
2026-04-08 21:23:17.818445,12211,1609502570001894,169968640,-1.069696,0.298656,0.363072,-3.50875,-4.13,-1.3475,22.072,-24.944,5.672,concentric,0,3.0,21629.0,151561.0,248010.0,299835.0,277406.0
2026-04-08 21:23:17.819992,12212,1609502570010824,169977301,-1.116544,0.267424,0.318176,-0.86625,-4.06,-0.67375,22.000002,-24.856,6.488,concentric,0,3.0,21629.0,151561.0,248010.0,299835.0,277406.0
2026-04-08 21:23:17.825351,12213,1609502570019791,169985986,-1.116544,0.267424,0.318176,-0.77875,-4.61125,0.21,22.000002,-24.856,6.488,concentric,0,3.0,21629.0,151561.0,248010.0,299835.0,277406.0
2026-04-08 21:23:17.852986,12224,1609502570034382,170000922,-1.136064,0.298656,0.300608,-1.54875,-4.5675,1.1025,22.184002,-25.352001,5.872,concentric,0,3.0,21646.0,151581.0,247979.0,299793.0,277388.0
2026-04-08 21:23:17.855443,12225,1609502570043298,170009585,-1.136064,0.298656,0.300608,-2.3275,-4.13,0.5075,22.184002,-25.352001,5.872,concentric,0,3.0,21646.0,151581.0,247979.0,299793.0,277388.0
2026-04-08 21:23:17.883976,12226,1609502570057792,170024465,-1.136064,0.324032,0.314272,-4.92625,-5.18,0.74375,21.456001,-24.768002,7.056,concentric,0,3.0,21646.0,151581.0,247979.0,299793.0,277388.0
2026-04-08 21:23:17.887669,12227,1609502570066722,170033115,-1.075552,0.275232,0.411872,-7.14875,-6.58875,1.6975,21.864,-25.256,5.56,concentric,0,3.0,21646.0,151581.0,247979.0,299793.0,277388.0
2026-04-08 21:23:17.895052,12228,1609502570081203,170047987,-1.075552,0.275232,0.411872,-7.77,-7.27125,1.72375,21.864,-25.256,5.56,concentric,0,3.0,21646.0,151581.0,247979.0,299793.0,277388.0
2026-04-08 21:23:17.897525,12229,1609502570090130,170056653,-1.095072,0.277184,0.374784,-5.775,-7.175,1.75875,22.032001,-25.232,5.88,concentric,0,3.0,21646.0,151581.0,247979.0,299793.0,277388.0
