pc_time,serial_num,sensor_ts,host_ts,ax,ay,az,gx,gy,gz,mx,my,mz,phase,rpe,weight_kg,ppg_a,ppg_b,ppg_c,ppg_d,ppg_e
2026-04-08 21:43:56.043525,174758,1609503808235134,1408201529,0.767136,0.505568,-0.132736,-0.76125,3.38625,17.82375,-15.064001,-10.76,-16.76,eccentric,4,3.0,20189.0,139090.0,221308.0,271225.0,256631.0
2026-04-08 21:43:56.075799,174769,1609503808249757,1408216476,0.767136,0.505568,-0.132736,3.64875,4.33125,14.30625,-15.064001,-10.76,-16.76,eccentric,4,3.0,20261.0,139610.0,222027.0,271910.0,257146.0
2026-04-08 21:43:56.078237,174770,1609503808258713,1408225146,0.732,0.523136,-0.056608,7.14,4.445,12.64375,-15.032001,-10.968,-16.736,eccentric,4,3.0,20261.0,139610.0,222027.0,271910.0,257146.0
2026-04-08 21:43:56.080719,174771,1609503808267634,1408233823,0.732,0.523136,-0.056608,10.605001,5.03125,14.28,-15.032001,-10.968,-16.736,eccentric,4,3.0,20261.0,139610.0,222027.0,271910.0,257146.0
2026-04-08 21:43:56.083224,174772,1609503808282079,1408248660,0.593408,0.464576,0.023424,16.09125,3.0625,17.82375,-15.376,-10.536,-16.728,eccentric,4,3.0,20261.0,139610.0,222027.0,271910.0,257146.0
2026-04-08 21:43:56.085779,174773,1609503808290972,1408257298,0.593408,0.464576,0.023424,11.47125,0.27125,20.65,-15.376,-10.536,-16.728,eccentric,4,3.0,20261.0,139610.0,222027.0,271910.0,257146.0
2026-04-08 21:43:56.088215,174774,1609503808305482,1408272189,0.691008,0.493856,-0.093696,2.03875,-0.385,16.73875,-15.240001,-10.008,-16.768002,eccentric,4,3.0,20261.0,139610.0,222027.0,271910.0,257146.0
2026-04-08 21:43:56.090858,174775,1609503808314438,1408280853,0.747616,0.544608,-0.066368,1.40875,-1.54,9.835,-15.400001,-9.904,-15.984001,eccentric,4,3.0,20261.0,139610.0,222027.0,271910.0,257146.0
2026-04-08 21:43:56.093284,174776,1609503808323431,1408289540,0.747616,0.544608,-0.066368,5.635,-1.1375,10.4125,-15.400001,-9.904,-15.984001,eccentric,4,3.0,20261.0,139610.0,222027.0,271910.0,257146.0
2026-04-08 21:43:56.095762,174777,1609503808337878,1408304414,0.669536,0.495808,0.021472,9.54625,-1.26,15.785,-15.432001,-10.208,-15.920001,eccentric,4,3.0,20261.0,139610.0,222027.0,271910.0,257146.0
2026-04-08 21:43:56.129670,174788,1609503808347084,1408313240,0.669536,0.495808,0.021472,2.1525,-3.10625,18.6725,-15.432001,-10.208,-15.920001,eccentric,4,3.0,19813.0,139045.0,222031.0,272291.0,257642.0
2026-04-08 21:43:56.132028,174789,1609503808361655,1408328226,0.79056,0.396256,-0.056608,-14.315001,-3.80625,13.8075,-15.256001,-10.456,-16.880001,eccentric,4,3.0,19813.0,139045.0,222031.0,272291.0,257642.0
2026-04-08 21:43:56.137072,174790,1609503808370551,1408336885,0.79056,0.396256,-0.056608,-19.94125,-4.41,8.07625,-15.256001,-10.456,-16.880001,eccentric,4,3.0,19813.0,139045.0,222031.0,272291.0,257642.0
2026-04-08 21:43:56.140833,174791,1609503808385126,1408351751,0.718336,0.495808,-0.089792,-12.425,-5.81875,8.75,-15.752001,-10.056001,-17.072,eccentric,4,3.0,19813.0,139045.0,222031.0,272291.0,257642.0
2026-04-08 21:43:56.170997,174792,1609503808394083,1408360454,0.728096,0.40992,-0.003904,-2.33625,-7.245,12.1975,-15.352001,-10.048,-16.072,eccentric,4,3.0,19813.0,139045.0,222031.0,272291.0,257642.0
2026-04-08 21:43:56.174569,174793,1609503808402987,1408369105,0.728096,0.40992,-0.003904,1.74125,-9.8,14.5775,-15.352001,-10.048,-16.072,eccentric,4,3.0,19813.0,139045.0,222031.0,272291.0,257642.0
2026-04-08 21:43:56.177132,174794,1609503808417523,1408383954,0.728096,0.431392,-0.111264,-2.0825,-11.78625,13.30875,-15.768001,-9.792001,-16.632,eccentric,4,3.0,19813.0,139045.0,222031.0,272291.0,257642.0
2026-04-08 21:43:56.182116,174795,1609503808426478,1408392631,0.728096,0.431392,-0.111264,-6.60625,-11.8825,9.3975,-15.768001,-9.792001,-16.632,eccentric,4,3.0,19813.0,139045.0,222031.0,272291.0,257642.0
2026-04-08 21:43:56.212334,174796,1609503808440950,1408407539,0.802272,0.501664,-0.081984,-6.30875,-12.03125,7.65625,-15.544001,-10.104,-16.848001,eccentric,4,3.0,19813.0,139045.0,222031.0,272291.0,257642.0
2026-04-08 21:43:56.240815,174807,1609503808450041,1408416547,0.802272,0.501664,-0.081984,-0.8925,-11.2875,9.42375,-15.544001,-10.104,-16.848001,eccentric,4,3.0,20058.0,139405.0,222205.0,272224.0,257482.0
2026-04-08 21:43:56.243298,174808,1609503808464518,1408431398,0.71248,0.470432,0.037088,2.31,-10.98125,12.1275,-15.464001,-9.728001,-16.832,eccentric,4,3.0,20058.0,139405.0,222205.0,272224.0,257482.0
2026-04-08 21:43:56.245797,174809,1609503808473509,1408440147,0.687104,0.402112,-0.171776,-4.4625,-10.96375,12.88875,-15.464001,-9.728001,-16.928001,eccentric,4,3.0,20058.0,139405.0,222205.0,272224.0,257482.0
2026-04-08 21:43:56.248275,174810,1609503808482515,1408448837,0.687104,0.402112,-0.171776,-11.40125,-9.68625,12.11875,-15.448001,-9.544001,-16.928001,eccentric,4,3.0,20058.0,139405.0,222205.0,272224.0,257482.0
2026-04-08 21:43:56.252036,174811,1609503808497006,1408463730,0.716384,0.425536,-0.162016,-8.91625,-8.07625,12.11875,-15.592001,-10.064,-16.008001,eccentric,4,3.0,20058.0,139405.0,222205.0,272224.0,257482.0
2026-04-08 21:43:56.282261,174812,1609503808506034,1408472422,0.716384,0.425536,-0.162016,-1.645,-8.26,12.74,-15.592001,-10.064,-16.008001,eccentric,4,3.0,20058.0,139405.0,222205.0,272224.0,257482.0
2026-04-08 21:43:56.285834,174813,1609503808520475,1408487279,0.718336,0.398208,-0.103456,-1.65375,-9.38875,12.48625,-15.216001,-9.872001,-16.312,eccentric,4,3.0,20058.0,139405.0,222205.0,272224.0,257482.0
2026-04-08 21:43:56.288321,174814,1609503808529386,1408495961,0.718336,0.398208,-0.103456,-7.525,-10.885,10.12375,-15.216001,-9.872001,-16.312,eccentric,4,3.0,20058.0,139405.0,222205.0,272224.0,257482.0
2026-04-08 21:43:56.377042,174825,1609503808543874,1408510793,0.743712,0.376736,0.031232,-10.45625,-11.2175,7.7525,-15.496,-9.96,-16.92,eccentric,4,3.0,19984.0,139279.0,222213.0,272296.0,257563.0
2026-04-08 21:43:56.379572,174826,1609503808552860,1408519471,0.743712,0.376736,0.031232,-8.9775,-11.43625,7.37625,-15.496,-9.96,-16.92,eccentric,4,3.0,19984.0,139279.0,222213.0,272296.0,257563.0
2026-04-08 21:43:56.382020,174827,1609503808561776,1408528150,0.724192,0.433344,-0.193248,-7.56875,-11.38375,8.12,-15.584001,-10.256001,-17.504002,eccentric,4,3.0,19984.0,139279.0,222213.0,272296.0,257563.0
2026-04-08 21:43:56.384587,174828,1609503808576257,1408543022,0.796416,0.40016,0.083936,-4.585,-11.06875,7.11375,-15.424001,-10.072001,-17.136002,eccentric,4,3.0,19984.0,139279.0,222213.0,272296.0,257563.0
2026-04-08 21:43:56.387091,174829,1609503808585198,1408551690,0.796416,0.40016,0.083936,0.665,-10.85875,6.99125,-15.424001,-10.072001,-17.136002,eccentric,4,3.0,19984.0,139279.0,222213.0,272296.0,257563.0
2026-04-08 21:43:56.389620,174830,1609503808599693,1408566579,0.696864,0.3416,-0.181536,3.07125,-10.3425,10.45625,-15.592001,-10.104,-16.864,eccentric,4,3.0,19984.0,139279.0,222213.0,272296.0,257563.0
2026-04-08 21:43:56.392133,174831,1609503808608644,1408575273,0.696864,0.3416,-0.181536,3.8675,-8.47,10.31625,-15.592001,-10.104,-16.864,eccentric,4,3.0,19984.0,139279.0,222213.0,272296.0,257563.0
2026-04-08 21:43:56.394607,174832,1609503808623127,1408590233,0.759328,0.335744,-0.064416,5.22375,-6.4925,6.3,-15.400001,-10.184,-17.168001,eccentric,4,3.0,19984.0,139279.0,222213.0,272296.0,257563.0
2026-04-08 21:43:56.397062,174833,1609503808632088,1408598913,0.759328,0.335744,-0.064416,8.46125,-6.265,4.27,-15.400001,-10.184,-17.168001,eccentric,4,3.0,19984.0,139279.0,222213.0,272296.0,257563.0
2026-04-08 21:43:56.399528,174834,1609503808641007,1408607560,0.767136,0.3904,0.06832,11.55,-5.48625,4.17375,-15.632001,-9.816001,-15.976001,eccentric,4,3.0,19984.0,139279.0,222213.0,272296.0,257563.0
2026-04-08 21:43:56.460916,174845,1609503808655712,1408622551,0.739808,0.37088,-0.12688,14.4025,-3.3775,5.45125,-15.928,-10.120001,-16.192001,eccentric,4,3.0,19643.0,138887.0,222390.0,272771.0,258049.0
2026-04-08 21:43:56.463317,174846,1609503808664740,1408631254,0.739808,0.37088,-0.12688,17.7975,-2.135,7.665,-15.928,-10.120001,-16.192001,eccentric,4,3.0,19643.0,138887.0,222390.0,272771.0,258049.0
2026-04-08 21:43:56.465930,174847,1609503808679242,1408646144,0.753472,0.355264,-0.228384,13.74625,-1.54875,9.30125,-15.544001,-9.784,-16.808,eccentric,4,3.0,19643.0,138887.0,222390.0,272771.0,258049.0
2026-04-08 21:43:56.468257,174848,1609503808688158,1408654801,0.753472,0.355264,-0.228384,2.35375,-0.56875,7.56875,-15.544001,-9.784,-16.808,eccentric,4,3.0,19643.0,138887.0,222390.0,272771.0,258049.0
2026-04-08 21:43:56.470909,174849,1609503808697104,1408663493,0.782752,0.310368,-0.037088,-8.26,0.42875,4.7775,-15.976001,-10.088,-16.992,eccentric,4,3.0,19643.0,138887.0,222390.0,272771.0,258049.0
2026-04-08 21:43:56.473350,174850,1609503808711589,1408678378,0.782752,0.310368,-0.037088,-15.72375,2.31,4.99625,-15.976001,-10.088,-16.992,eccentric,4,3.0,19643.0,138887.0,222390.0,272771.0,258049.0
2026-04-08 21:43:56.475773,174851,1609503808720502,1408687043,0.79056,0.277184,0.003904,-15.93375,3.36,7.6825,-16.096,-9.784,-15.984001,eccentric,4,3.0,19643.0,138887.0,222390.0,272771.0,258049.0
2026-04-08 21:43:56.505979,174852,1609503808734979,1408701936,0.79056,0.277184,-0.005856,-8.96875,2.82625,10.675,-16.096,-9.784,-15.984001,eccentric,4,3.0,19643.0,138887.0,222390.0,272771.0,258049.0
2026-04-08 21:43:56.511502,174853,1609503808743909,1408710653,0.776896,0.277184,-0.005856,-1.6625,0.0175,14.35,-15.768001,-9.824,-17.240002,eccentric,4,3.0,19643.0,138887.0,222390.0,272771.0,258049.0
2026-04-08 21:43:56.539499,174864,1609503808758557,1408725581,0.81008,0.2928,-0.142496,4.22625,-1.11125,17.185,-16.296001,-10.232,-16.824001,eccentric,4,3.0,19189.0,138348.0,222560.0,273289.0,258604.0
2026-04-08 21:43:56.542110,174865,1609503808767515,1408734293,0.81008,0.2928,-0.142496,4.97,0.5425,15.16375,-16.296001,-10.232,-16.824001,eccentric,4,3.0,19189.0,138348.0,222560.0,273289.0,258604.0
2026-04-08 21:43:56.544521,174866,1609503808776458,1408742980,0.860832,0.306464,-0.060512,0.91875,3.185,13.11625,-16.432001,-9.984,-15.464001,eccentric,4,3.0,19189.0,138348.0,222560.0,273289.0,258604.0
2026-04-08 21:43:56.547039,174867,1609503808790956,1408757877,0.860832,0.306464,-0.060512,-2.415,5.04875,14.44625,-16.432001,-9.984,-15.464001,eccentric,4,3.0,19189.0,138348.0,222560.0,273289.0,258604.0
2026-04-08 21:43:56.577308,174868,1609503808799883,1408766540,0.757376,0.296704,0.031232,-2.12625,5.6525,20.0025,-16.392,-9.912001,-16.480001,eccentric,4,3.0,19189.0,138348.0,222560.0,273289.0,258604.0
2026-04-08 21:43:56.580846,174869,1609503808814362,1408781397,0.757376,0.296704,0.031232,-1.02375,5.425,28.428751,-16.392,-9.912001,-16.480001,eccentric,4,3.0,19189.0,138348.0,222560.0,273289.0,258604.0
2026-04-08 21:43:56.583301,174870,1609503808823272,1408790096,0.77104,0.269376,-0.0488,1.09375,4.90875,32.59375,-17.072,-9.776,-15.016001,eccentric,4,3.0,19189.0,138348.0,222560.0,273289.0,258604.0
2026-04-08 21:43:56.644630,174871,1609503808837815,1408802981,0.981856,0.23424,-0.08784,-3.15,3.29875,32.92625,-17.304,-9.848001,-15.584001,eccentric,4,3.0,19189.0,138348.0,222560.0,273289.0,258604.0
2026-04-08 21:43:56.676118,174882,1609503808847393,1408813798,0.981856,0.23424,-0.08784,-16.59,1.23375,30.21375,-17.304,-9.848001,-15.584001,eccentric,4,3.0,18942.0,137932.0,222386.0,273238.0,258553.0
2026-04-08 21:43:56.678318,174883,1609503808856482,1408822554,0.882304,0.267424,-0.021472,-27.09,3.03625,26.08375,-17.568,-9.744,-15.776001,eccentric,4,3.0,18942.0,137932.0,222386.0,273238.0,258553.0
2026-04-08 21:43:56.680800,174884,1609503808870948,1408837376,0.882304,0.267424,-0.021472,-24.03625,6.29125,27.475,-17.568,-9.744,-15.776001,eccentric,4,3.0,18942.0,137932.0,222386.0,273238.0,258553.0
2026-04-08 21:43:56.683287,174885,1609503808879844,1408846037,0.753472,0.21472,-0.085888,-15.785,7.525,36.75875,-17.912,-9.784,-16.52,eccentric,4,3.0,18942.0,137932.0,222386.0,273238.0,258553.0
2026-04-08 21:43:56.685799,174886,1609503808894293,1408860895,0.753472,0.21472,-0.085888,-10.40375,6.32625,44.170002,-17.912,-9.784,-16.52,eccentric,4,3.0,18942.0,137932.0,222386.0,273238.0,258553.0
2026-04-08 21:43:56.688284,174887,1609503808903206,1408869572,0.886208,0.12688,-0.031232,-9.38,4.62875,44.5025,-18.152,-9.808001,-15.144001,eccentric,4,3.0,18942.0,137932.0,222386.0,273238.0,258553.0
2026-04-08 21:43:56.690794,174888,1609503808912108,1408878245,0.886208,0.12688,-0.031232,-12.25,2.3625,41.34375,-18.152,-9.808001,-15.144001,eccentric,4,3.0,18942.0,137932.0,222386.0,273238.0,258553.0
2026-04-08 21:43:56.693352,174889,1609503808926661,1408893188,0.962336,0.187392,0.046848,-18.33125,0.8925,38.78875,-18.368,-10.064,-16.216002,eccentric,4,3.0,18942.0,137932.0,222386.0,273238.0,258553.0
2026-04-08 21:43:56.695839,174890,1609503808935611,1408901949,0.962336,0.187392,0.046848,-15.33875,3.38625,40.013752,-18.368,-10.064,-16.216002,eccentric,4,3.0,18942.0,137932.0,222386.0,273238.0,258553.0
2026-04-08 21:43:56.729521,174901,1609503808950703,1408917174,0.804224,0.171776,-0.035136,-7.8925,4.85625,45.482502,-18.696001,-9.592,-15.888001,eccentric,4,3.0,18710.0,137293.0,221805.0,272890.0,258420.0
2026-04-08 21:43:56.732044,174902,1609503808959695,1408925878,0.81008,0.089792,0.003904,-7.315,3.92,51.59,-19.256,-9.016001,-14.064001,eccentric,4,3.0,18710.0,137293.0,221805.0,272890.0,258420.0
2026-04-08 21:43:56.734601,174903,1609503808974190,1408940791,0.81008,0.089792,0.003904,-12.25,1.2425,53.29625,-19.256,-9.016001,-14.064001,eccentric,4,3.0,18710.0,137293.0,221805.0,272890.0,258420.0
2026-04-08 21:43:56.738362,174904,1609503808983128,1408949562,0.841312,0.042944,-0.05856,-18.54125,-1.28625,50.16375,-19.400002,-9.136001,-13.840001,eccentric,4,3.0,18710.0,137293.0,221805.0,272890.0,258420.0
2026-04-08 21:43:56.768614,174905,1609503808992062,1408958253,0.841312,0.042944,-0.05856,-18.82125,-1.84625,47.4775,-19.400002,-9.136001,-13.840001,eccentric,4,3.0,18710.0,137293.0,221805.0,272890.0,258420.0
2026-04-08 21:43:56.772083,174906,1609503809006524,1408973078,0.895968,0.037088,-0.001952,-10.89375,-0.42875,49.4375,-19.696001,-9.376,-15.472001,eccentric,4,3.0,18710.0,137293.0,221805.0,272890.0,258420.0
2026-04-08 21:43:56.774609,174907,1609503809015453,1408981755,0.895968,0.037088,-0.001952,-4.12125,1.23375,52.57875,-19.696001,-9.376,-15.472001,eccentric,4,3.0,18710.0,137293.0,221805.0,272890.0,258420.0
2026-04-08 21:43:56.804785,174908,1609503809029935,1408996664,0.935008,0.062464,-0.115168,-1.47875,2.77375,53.87375,-20.0,-9.088,-17.696001,eccentric,4,3.0,18710.0,137293.0,221805.0,272890.0,258420.0
2026-04-08 21:43:56.812148,174909,1609503809038834,1409005331,1.011136,0.083936,0.011712,-7.2275,3.21125,52.4125,-20.384,-8.704,-15.376,eccentric,4,3.0,18710.0,137293.0,221805.0,272890.0,258420.0
2026-04-08 21:43:56.839562,174920,1609503809053381,1409020330,1.011136,0.083936,0.011712,-16.3275,5.80125,50.3125,-20.384,-8.704,-15.376,eccentric,4,3.0,18855.0,137070.0,221195.0,272026.0,257612.0
2026-04-08 21:43:56.842074,174921,1609503809062279,1409029031,0.958432,0.02928,0.093696,-15.7325,8.21625,51.84375,-20.888,-8.592,-14.240001,eccentric,4,3.0,18855.0,137070.0,221195.0,272026.0,257612.0
2026-04-08 21:43:56.844586,174922,1609503809071296,1409037776,0.958432,0.02928,0.093696,-13.90375,8.5925,56.1575,-20.888,-8.592,-14.240001,eccentric,4,3.0,18855.0,137070.0,221195.0,272026.0,257612.0
2026-04-08 21:43:56.847086,174923,1609503809085775,1409052771,0.929152,-0.025376,0.052704,-15.28625,6.78125,59.33375,-21.240002,-8.224,-14.008,eccentric,4,3.0,18855.0,137070.0,221195.0,272026.0,257612.0
2026-04-08 21:43:56.850757,174924,1609503809094679,1409061463,0.929152,-0.025376,0.052704,-15.365,5.55625,58.170002,-21.240002,-8.224,-14.008,eccentric,4,3.0,18855.0,137070.0,221195.0,272026.0,257612.0
2026-04-08 21:43:56.881044,174925,1609503809109245,1409076311,1.118496,-0.027328,-0.01952,-12.95,5.95875,55.7725,-21.352001,-8.152,-14.344001,eccentric,4,3.0,18855.0,137070.0,221195.0,272026.0,257612.0
2026-04-08 21:43:56.884806,174926,1609503809118166,1409084980,1.0736,0.060512,0.02928,-11.515,6.99125,55.13375,-22.048,-7.832,-13.6,eccentric,4,3.0,18855.0,137070.0,221195.0,272026.0,257612.0
2026-04-08 21:43:56.890897,174927,1609503809132619,1409097823,1.0736,0.060512,0.02928,-9.5025,10.7975,55.67625,-22.048,-7.832,-13.6,eccentric,4,3.0,18855.0,137070.0,221195.0,272026.0,257612.0
2026-04-08 21:43:56.897219,174928,1609503809141816,1409108587,0.933056,0.00976,-0.023424,-2.40625,13.8425,59.701252,-22.384,-7.248,-14.112,eccentric,4,3.0,18855.0,137070.0,221195.0,272026.0,257612.0
2026-04-08 21:43:56.960883,174939,1609503809150999,1409117255,0.933056,0.00976,-0.023424,0.7875,14.07875,66.9375,-22.384,-7.248,-14.112,eccentric,4,3.0,18645.0,136392.0,220601.0,271691.0,257510.0
2026-04-08 21:43:56.963290,174940,1609503809165586,1409132192,1.046272,-0.050752,0.115168,-3.66625,9.49375,70.8225,-22.936,-7.112001,-14.360001,eccentric,4,3.0,18645.0,136392.0,220601.0,271691.0,257510.0
2026-04-08 21:43:56.965782,174941,1609503809174548,1409140913,1.046272,-0.050752,0.115168,-7.76125,5.85375,67.50625,-22.936,-7.112001,-14.360001,eccentric,4,3.0,18645.0,136392.0,220601.0,271691.0,257510.0
2026-04-08 21:43:56.968289,174942,1609503809189012,1409155763,1.09312,-0.103456,0.007808,-2.03,5.80125,63.603752,-23.208,-6.744,-14.496,eccentric,4,3.0,18645.0,136392.0,220601.0,271691.0,257510.0
2026-04-08 21:43:56.970842,174943,1609503809197951,1409164422,1.09312,-0.056608,-0.013664,6.67625,6.86875,63.3675,-23.208,-6.744,-14.496,eccentric,4,3.0,18645.0,136392.0,220601.0,271691.0,257510.0
2026-04-08 21:43:56.973348,174944,1609503809206894,1409173092,0.944768,-0.0488,-0.013664,9.63375,7.8225,63.4725,-23.464,-6.552001,-15.464001,eccentric,4,3.0,18645.0,136392.0,220601.0,271691.0,257510.0
2026-04-08 21:43:56.985848,174945,1609503809221416,1409187963,1.08336,-0.085888,0.08784,10.54375,9.19625,61.34625,-23.976002,-5.992,-13.104001,eccentric,4,3.0,18645.0,136392.0,220601.0,271691.0,257510.0
2026-04-08 21:43:56.988283,174946,1609503809230340,1409196635,1.08336,-0.085888,0.08784,6.74625,10.2025,60.095,-23.976002,-5.992,-13.104001,eccentric,4,3.0,18645.0,136392.0,220601.0,271691.0,257510.0
2026-04-08 21:43:57.018436,174947,1609503809244807,1409211502,1.09312,-0.03904,0.001952,-0.5075,11.042501,57.35625,-24.664001,-5.488,-12.544001,eccentric,4,3.0,18645.0,136392.0,220601.0,271691.0,257510.0
2026-04-08 21:43:57.047084,174958,1609503809253881,1409220240,1.09312,-0.03904,0.001952,2.31,14.98875,55.39625,-24.664001,-5.488,-12.544001,eccentric,4,3.0,18542.0,135972.0,220198.0,271331.0,257187.0
2026-04-08 21:43:57.049523,174959,1609503809268315,1409235112,0.940864,-0.011712,-0.040992,9.19625,17.84125,59.6925,-24.944,-5.296001,-13.688001,eccentric,4,3.0,18542.0,135972.0,220198.0,271331.0,257187.0
2026-04-08 21:43:57.052077,174960,1609503809277275,1409243850,0.940864,-0.011712,-0.040992,6.16875,16.695,64.91625,-24.944,-5.296001,-13.688001,eccentric,4,3.0,18542.0,135972.0,220198.0,271331.0,257187.0
2026-04-08 21:43:57.054584,174961,1609503809286315,1409252540,0.964288,-0.072224,0.040992,2.73875,16.45,66.82375,-25.52,-4.872,-12.616,eccentric,4,3.0,18542.0,135972.0,220198.0,271331.0,257187.0
2026-04-08 21:43:57.057047,174962,1609503809300813,1409267426,0.976,-0.150304,0.042944,-1.6275,15.1725,67.235,-25.536001,-4.472,-11.952001,eccentric,4,3.0,18542.0,135972.0,220198.0,271331.0,257187.0
2026-04-08 21:43:57.088502,174963,1609503809309782,1409276096,0.976,-0.150304,0.042944,-6.50125,14.14,65.24875,-25.536001,-4.472,-11.952001,eccentric,4,3.0,18542.0,135972.0,220198.0,271331.0,257187.0
2026-04-08 21:43:57.092066,174964,1609503809324266,1409290991,0.958432,-0.181536,-0.037088,-8.2775,14.6125,60.61125,-26.024002,-3.68,-12.296001,eccentric,4,3.0,18542.0,135972.0,220198.0,271331.0,257187.0
2026-04-08 21:43:57.094571,174965,1609503809333159,1409299634,0.958432,-0.181536,-0.037088,-3.0275,16.98375,56.77875,-26.024002,-3.68,-12.296001,eccentric,4,3.0,18542.0,135972.0,220198.0,271331.0,257187.0
2026-04-08 21:43:57.124835,174966,1609503809347675,1409314510,1.018944,-0.138592,0.015616,1.56625,18.78625,56.7175,-26.304,-3.528,-12.096001,eccentric,4,3.0,18542.0,135972.0,220198.0,271331.0,257187.0
2026-04-08 21:43:57.159752,174978,1609503809356695,1409323194,1.018944,-0.138592,0.015616,2.7125,19.73125,56.69125,-26.304,-3.528,-12.096001,eccentric,4,3.0,18181.0,135285.0,219801.0,271322.0,257383.0
2026-04-08 21:43:57.164006,174979,1609503809365604,1409331905,1.003328,-0.111264,0.031232,-0.77,18.78625,54.845,-26.720001,-3.4,-11.768001,eccentric,4,3.0,18181.0,135285.0,219801.0,271322.0,257383.0
2026-04-08 21:43:57.165551,174980,1609503809380079,1409346743,0.99552,-0.144448,0.00976,-6.125,18.655,51.23125,-27.240002,-3.104,-11.264001,eccentric,4,3.0,18181.0,135285.0,219801.0,271322.0,257383.0
2026-04-08 21:43:57.167029,174981,1609503809389087,1409355508,0.99552,-0.144448,0.00976,-5.1625,18.78625,49.6825,-27.240002,-3.104,-11.264001,eccentric,4,3.0,18181.0,135285.0,219801.0,271322.0,257383.0
2026-04-08 21:43:57.171287,174982,1609503809403634,1409370407,1.013088,-0.122976,-0.015616,-1.58375,19.11875,50.44375,-27.792002,-2.864,-11.440001,eccentric,4,3.0,18181.0,135285.0,219801.0,271322.0,257383.0
2026-04-08 21:43:57.173793,174983,1609503809412552,1409379070,1.013088,-0.122976,-0.015616,1.645,18.94375,51.47625,-27.792002,-2.864,-11.440001,eccentric,4,3.0,18181.0,135285.0,219801.0,271322.0,257383.0
2026-04-08 21:43:57.202319,174984,1609503809427099,1409393928,1.05408,-0.113216,0.122976,2.555,18.10375,52.5,-27.984001,-1.984,-11.744,eccentric,4,3.0,18181.0,135285.0,219801.0,271322.0,257383.0
2026-04-08 21:43:57.206845,174985,1609503809436008,1409402581,1.05408,-0.113216,0.122976,-0.74375,16.47625,50.4,-27.984001,-1.984,-11.744,eccentric,4,3.0,18181.0,135285.0,219801.0,271322.0,257383.0
2026-04-08 21:43:57.208296,174986,1609503809444941,1409411308,1.153632,-0.154208,0.122976,-2.77375,15.75,45.50875,-28.320002,-1.84,-10.432,eccentric,4,3.0,18181.0,135285.0,219801.0,271322.0,257383.0
2026-04-08 21:43:57.270039,174997,1609503809459722,1409426305,1.153632,-0.10736,0.056608,0.7,16.87,41.16,-28.320002,-1.84,-10.432,eccentric,4,3.0,18092.0,135028.0,219600.0,271235.0,257355.0
2026-04-08 21:43:57.271733,174998,1609503809468705,1409434972,1.110688,-0.0976,0.056608,6.36125,17.43,40.7575,-28.544,-1.4,-9.808001,eccentric,4,3.0,18092.0,135028.0,219600.0,271235.0,257355.0
2026-04-08 21:43:57.273385,174999,1609503809483199,1409449823,1.085312,-0.05856,-0.027328,8.02375,17.84125,41.9125,-29.008001,-1.52,-9.992001,eccentric,4,3.0,18092.0,135028.0,219600.0,271235.0,257355.0
2026-04-08 21:43:57.277579,175000,1609503809492113,1409458477,1.085312,-0.05856,-0.027328,6.46625,17.4475,41.3,-29.008001,-1.52,-9.992001,eccentric,4,3.0,18092.0,135028.0,219600.0,271235.0,257355.0
2026-04-08 21:43:57.280907,175001,1609503809501045,1409467160,1.0736,-0.101504,-0.025376,3.7275,15.5575,39.9175,-29.112001,-0.832,-8.232,eccentric,4,3.0,18092.0,135028.0,219600.0,271235.0,257355.0
2026-04-08 21:43:57.284997,175002,1609503809515537,1409482106,1.0736,-0.101504,-0.025376,1.00625,13.32625,39.357502,-29.112001,-0.832,-8.232,eccentric,4,3.0,18092.0,135028.0,219600.0,271235.0,257355.0
2026-04-08 21:43:57.287428,175003,1609503809524444,1409490811,1.110688,-0.122976,0.042944,2.19625,11.3925,39.1125,-29.456001,-0.488,-7.32,eccentric,4,3.0,18092.0,135028.0,219600.0,271235.0,257355.0
2026-04-08 21:43:57.318837,175004,1609503809538938,1409505740,1.110688,-0.122976,0.042944,5.53,10.85,38.07125,-29.456001,-0.488,-7.32,eccentric,4,3.0,18092.0,135028.0,219600.0,271235.0,257355.0
2026-04-08 21:43:57.320526,175005,1609503809547871,1409514358,1.0736,-0.105408,-0.066368,8.7675,9.9575,36.513752,-29.408,-0.328,-7.368001,eccentric,4,3.0,18092.0,135028.0,219600.0,271235.0,257355.0
2026-04-08 21:43:57.348026,175016,1609503809562504,1409529259,1.042368,-0.070272,-0.044896,9.84375,8.84625,36.23375,-29.600002,-0.104,-8.88,eccentric,4,3.0,17926.0,134658.0,219453.0,271315.0,257565.0
2026-04-08 21:43:57.349611,175017,1609503809571422,1409537920,1.042368,-0.070272,-0.044896,9.10875,7.525,36.98625,-29.600002,-0.104,-8.88,eccentric,4,3.0,17926.0,134658.0,219453.0,271315.0,257565.0
2026-04-08 21:43:57.353859,175018,1609503809580339,1409546630,1.042368,-0.070272,0.005856,7.6125,5.355,38.185,-29.600002,-0.104,-8.88,eccentric,4,3.0,17926.0,134658.0,219453.0,271315.0,257565.0
2026-04-08 21:43:57.356278,175019,1609503809594839,1409561559,0.983808,-0.080032,0.005856,4.8125,4.375,39.01625,-30.016,0.224,-8.512,eccentric,4,3.0,17926.0,134658.0,219453.0,271315.0,257565.0
2026-04-08 21:43:57.360499,175020,1609503809603739,1409570240,0.999424,-0.138592,0.080032,2.93125,2.8175,38.68375,-30.088001,0.752,-7.72,eccentric,4,3.0,17926.0,134658.0,219453.0,271315.0,257565.0
2026-04-08 21:43:57.393298,175021,1609503809618207,1409585119,0.999424,-0.138592,0.080032,2.72125,1.1025,36.47,-30.088001,0.752,-7.72,eccentric,4,3.0,17926.0,134658.0,219453.0,271315.0,257565.0
2026-04-08 21:43:57.396982,175022,1609503809627151,1409593796,0.940864,-0.128832,0.037088,3.57,0.04375,33.57375,-30.056002,1.288,-8.104,eccentric,4,3.0,17926.0,134658.0,219453.0,271315.0,257565.0
2026-04-08 21:43:57.399101,175023,1609503809641637,1409608683,0.95648,-0.13664,0.03904,5.88,0.20125,32.43625,-30.080002,1.512,-8.072001,eccentric,4,3.0,17926.0,134658.0,219453.0,271315.0,257565.0
2026-04-08 21:43:57.458627,175034,1609503809650545,1409617314,0.95648,-0.13664,0.03904,7.245,0.245,32.50625,-30.080002,1.512,-8.072001,eccentric,4,3.0,17710.0,134159.0,219026.0,271138.0,257561.0
2026-04-08 21:43:57.458739,175035,1609503809659519,1409626050,0.95648,-0.13664,0.03904,4.7775,-0.735,31.40375,-30.080002,1.512,-8.072001,eccentric,4,3.0,17710.0,134159.0,219026.0,271138.0,257561.0
2026-04-08 21:43:57.461326,175036,1609503809673995,1409640969,0.974048,-0.160064,0.035136,0.11375,-1.61875,28.93625,-30.096,1.648,-7.68,eccentric,4,3.0,17710.0,134159.0,219026.0,271138.0,257561.0
2026-04-08 21:43:57.463819,175037,1609503809682890,1409649642,0.94672,-0.160064,0.025376,-2.6775,-2.02125,26.57375,-30.048002,2.288,-6.752,eccentric,4,3.0,17710.0,134159.0,219026.0,271138.0,257561.0
2026-04-08 21:43:57.465621,175038,1609503809697381,1409662547,0.94672,-0.160064,0.025376,-3.26375,-1.7325,24.71875,-30.048002,2.288,-6.752,eccentric,4,3.0,17710.0,134159.0,219026.0,271138.0,257561.0
2026-04-08 21:43:57.467051,175039,1609503809706584,1409673296,0.901824,-0.154208,0.033184,-3.05375,-1.54875,22.522501,-30.008001,2.232,-6.272,eccentric,4,3.0,17710.0,134159.0,219026.0,271138.0,257561.0
2026-04-08 21:43:57.478752,175040,1609503809721072,1409688201,0.901824,-0.154208,0.033184,-6.09,-2.555,20.055,-30.008001,2.232,-6.272,eccentric,4,3.0,17710.0,134159.0,219026.0,271138.0,257561.0
2026-04-08 21:43:57.508097,175041,1609503809730037,1409696857,0.876448,-0.160064,0.005856,-8.95125,-3.07125,18.62875,-29.920002,2.36,-6.792,eccentric,4,3.0,17710.0,134159.0,219026.0,271138.0,257561.0
2026-04-08 21:43:57.512850,175042,1609503809738982,1409705572,0.876448,-0.160064,0.005856,-9.17875,-3.115,16.09125,-29.920002,2.36,-6.792,eccentric,4,3.0,17710.0,134159.0,219026.0,271138.0,257561.0
2026-04-08 21:43:57.571716,175053,1609503809754064,1409720462,0.892064,-0.203008,0.017568,-10.19375,-2.89625,11.55875,-29.976002,2.048,-8.024,eccentric,4,3.0,17578.0,133639.0,218303.0,270542.0,257203.0
2026-04-08 21:43:57.573330,175054,1609503809763151,1409729114,0.870592,-0.199104,-0.01952,-10.4825,-3.26375,7.67375,-29.840002,2.664,-8.144,eccentric,4,3.0,17578.0,133639.0,218303.0,270542.0,257203.0
2026-04-08 21:43:57.576699,175055,1609503809777667,1409744021,0.870592,-0.199104,-0.01952,-7.11375,-3.91125,4.43625,-29.840002,2.664,-8.144,eccentric,4,3.0,17578.0,133639.0,218303.0,270542.0,257203.0
2026-04-08 21:43:57.578318,175056,1609503809786567,1409752695,0.923296,-0.17568,0.005856,-4.43625,-4.17375,1.4875,-29.856,1.992,-7.784,eccentric,4,3.0,17578.0,133639.0,218303.0,270542.0,257203.0
2026-04-08 21:43:57.580752,175057,1609503809795464,1409761375,0.923296,-0.17568,0.005856,-4.165,-4.99625,-1.07625,-29.856,1.992,-7.784,eccentric,4,3.0,17578.0,133639.0,218303.0,270542.0,257203.0
2026-04-08 21:43:57.585179,175058,1609503809810029,1409776257,0.915488,-0.13664,-0.099552,-5.69625,-5.46875,-3.49125,-29.528002,2.576,-7.064,eccentric,4,3.0,17578.0,133639.0,218303.0,270542.0,257203.0
2026-04-08 21:43:57.586796,175059,1609503809818982,1409784985,0.915488,-0.13664,-0.099552,-7.9625,-5.18875,-6.1425,-29.528002,2.576,-7.064,eccentric,4,3.0,17578.0,133639.0,218303.0,270542.0,257203.0
2026-04-08 21:43:57.589139,175060,1609503809833535,1409799966,0.944768,-0.134688,0.076128,-10.6225,-5.04875,-8.05,-29.976002,2.424,-7.312,eccentric,4,3.0,17578.0,133639.0,218303.0,270542.0,257203.0
2026-04-08 21:43:57.619380,175061,1609503809842492,1409808686,0.944768,-0.16592,-0.01952,-12.775,-4.9,-10.01,-29.976002,2.424,-9.360001,eccentric,4,3.0,17578.0,133639.0,218303.0,270542.0,257203.0
2026-04-08 21:43:57.647014,175072,1609503809857173,1409823554,0.886208,-0.16592,-0.01952,-11.71625,-6.41375,-12.27625,-29.976002,2.368,-9.704,eccentric,4,3.0,17569.0,133516.0,218105.0,270280.0,257005.0
2026-04-08 21:43:57.651357,175073,1609503809866133,1409832303,0.962336,-0.171776,0.013664,-9.205,-8.07625,-14.63875,-29.744001,2.048,-8.808001,eccentric,4,3.0,17569.0,133516.0,218105.0,270280.0,257005.0
2026-04-08 21:43:57.653028,175074,1609503809875032,1409841055,0.962336,-0.171776,0.013664,-6.27375,-10.22,-17.3425,-29.744001,2.048,-8.808001,eccentric,4,3.0,17569.0,133516.0,218105.0,270280.0,257005.0
2026-04-08 21:43:57.654558,175075,1609503809889597,1409855958,0.976,-0.113216,0.089792,-0.0175,-11.62,-18.97,-29.784002,1.736,-8.968,eccentric,4,3.0,17569.0,133516.0,218105.0,270280.0,257005.0
2026-04-08 21:43:57.661181,175076,1609503809898570,1409864645,0.976,-0.113216,0.089792,5.99375,-11.64625,-19.52125,-29.784002,1.736,-8.968,eccentric,4,3.0,17569.0,133516.0,218105.0,270280.0,257005.0
2026-04-08 21:43:57.689793,175077,1609503809913082,1409879519,0.976,-0.095648,0.033184,7.63,-12.29375,-20.6675,-29.848001,1.488,-8.944,concentric,4,3.0,17569.0,133516.0,218105.0,270280.0,257005.0
2026-04-08 21:43:57.695270,175078,1609503809922008,1409888211,0.976,-0.095648,0.033184,4.655,-13.3,-22.645,-29.848001,1.488,-8.944,concentric,4,3.0,17569.0,133516.0,218105.0,270280.0,257005.0
2026-04-08 21:43:57.731898,175079,1609503809936516,1409903465,1.018944,-0.12688,0.070272,1.4,-14.72625,-24.21125,-29.552002,1.488,-9.968,concentric,4,3.0,17569.0,133516.0,218105.0,270280.0,257005.0
2026-04-08 21:43:57.734714,175080,1609503809945456,1409912179,1.09312,-0.144448,-0.05856,-2.73875,-16.73,-25.38375,-29.960001,1.688,-9.0,concentric,4,3.0,17569.0,133516.0,218105.0,270280.0,257005.0
2026-04-08 21:43:57.766794,175091,1609503809954464,1409920895,1.09312,-0.144448,-0.05856,-4.515,-17.85875,-25.6025,-29.960001,1.688,-9.0,concentric,4,3.0,17903.0,134312.0,218726.0,270438.0,256822.0
2026-04-08 21:43:57.768297,175092,1609503809969066,1409935766,1.079456,-0.080032,0.017568,-1.86375,-17.08,-24.255,-29.096,1.088,-10.384001,concentric,4,3.0,17903.0,134312.0,218726.0,270438.0,256822.0
2026-04-08 21:43:57.772536,175093,1609503809978013,1409944464,1.079456,-0.080032,0.017568,0.665,-15.65375,-21.4375,-29.096,1.088,-10.384001,concentric,4,3.0,17903.0,134312.0,218726.0,270438.0,256822.0
2026-04-08 21:43:57.774300,175094,1609503809992465,1409959339,1.089216,-0.115168,0.140544,-1.75,-15.81125,-20.991251,-28.824001,1.16,-9.76,concentric,4,3.0,17903.0,134312.0,218726.0,270438.0,256822.0
2026-04-08 21:43:57.775868,175095,1609503810001536,1409968069,1.089216,-0.115168,0.140544,-6.5275,-17.57,-22.86375,-28.824001,1.16,-9.76,concentric,4,3.0,17903.0,134312.0,218726.0,270438.0,256822.0
2026-04-08 21:43:57.780075,175096,1609503810010609,1409976712,1.100928,-0.199104,0.134688,-10.94625,-19.03125,-25.305,-28.968002,0.864,-11.072001,concentric,4,3.0,17903.0,134312.0,218726.0,270438.0,256822.0
2026-04-08 21:43:57.781665,175097,1609503810025182,1409991602,1.056032,-0.179584,-0.099552,-11.62,-20.51875,-27.991251,-28.432001,0.848,-11.944,concentric,4,3.0,17903.0,134312.0,218726.0,270438.0,256822.0
2026-04-08 21:43:57.847654,175098,1609503810034104,1410000272,1.056032,-0.179584,-0.099552,-7.21,-19.32,-29.68875,-28.432001,0.848,-11.944,concentric,4,3.0,17903.0,134312.0,218726.0,270438.0,256822.0
2026-04-08 21:43:57.849311,175099,1609503810048615,1410015470,1.042368,-0.163968,-0.054656,-1.12,-17.77125,-30.485,-28.256,0.688,-11.608001,concentric,4,3.0,17903.0,134312.0,218726.0,270438.0,256822.0
2026-04-08 21:43:57.877603,175110,1609503810057665,1410024232,1.042368,-0.163968,-0.054656,-1.225,-17.24625,-30.31,-28.256,0.688,-11.608001,concentric,4,3.0,18293.0,134780.0,218664.0,269906.0,256168.0
2026-04-08 21:43:57.879293,175111,1609503810072163,1410039114,1.013088,-0.247904,-0.081984,-7.2275,-17.5,-33.31125,-27.976002,0.456,-12.296001,concentric,4,3.0,18293.0,134780.0,218664.0,269906.0,256168.0
2026-04-08 21:43:57.880923,175112,1609503810081080,1410047770,1.013088,-0.247904,-0.081984,-12.18875,-18.22625,-38.56125,-27.976002,0.456,-12.296001,concentric,4,3.0,18293.0,134780.0,218664.0,269906.0,256168.0
2026-04-08 21:43:57.885074,175113,1609503810090018,1410056434,1.016992,-0.284992,0.00976,-13.08125,-20.2825,-43.0325,-27.552002,0.224,-12.784,concentric,4,3.0,18293.0,134780.0,218664.0,269906.0,256168.0
2026-04-08 21:43:57.886812,175114,1609503810104536,1410071334,0.970144,-0.259616,-0.085888,-9.26625,-21.04375,-47.48625,-27.552002,-0.176,-10.536,concentric,4,3.0,18293.0,134780.0,218664.0,269906.0,256168.0
2026-04-08 21:43:57.888301,175115,1609503810113618,1410080119,0.970144,-0.259616,-0.085888,-1.44375,-21.25375,-51.7475,-26.864002,-0.176,-10.536,concentric,4,3.0,18293.0,134780.0,218664.0,269906.0,256168.0
2026-04-08 21:43:57.892572,175116,1609503810128127,1410095011,0.989664,-0.203008,-0.017568,5.32,-20.85125,-55.58,-26.760002,-0.448,-13.040001,concentric,4,3.0,18293.0,134780.0,218664.0,269906.0,256168.0
2026-04-08 21:43:57.895037,175117,1609503810137094,1410103694,0.989664,-0.203008,-0.017568,7.84875,-20.6675,-59.5,-26.760002,-0.448,-13.040001,concentric,4,3.0,18293.0,134780.0,218664.0,269906.0,256168.0
2026-04-08 21:43:57.923525,175118,1609503810151589,1410118570,1.016992,-0.206912,-0.091744,7.28,-21.20125,-63.84875,-26.472002,-0.816,-11.816001,concentric,4,3.0,18293.0,134780.0,218664.0,269906.0,256168.0
2026-04-08 21:43:57.953336,175129,1609503810160553,1410127331,1.016992,-0.206912,-0.091744,5.60875,-21.46375,-67.865,-26.472002,-0.816,-11.816001,concentric,4,3.0,18673.0,135194.0,218531.0,269479.0,255712.0
2026-04-08 21:43:57.954687,175130,1609503810169496,1410135991,1.067744,-0.1952,0.017568,4.8475,-21.42,-71.42625,-26.064001,-1.328,-14.096001,concentric,4,3.0,18673.0,135194.0,218531.0,269479.0,255712.0
2026-04-08 21:43:57.958887,175131,1609503810184006,1410150889,1.067744,-0.1952,0.017568,6.9475,-21.2975,-73.64875,-26.064001,-1.328,-14.096001,concentric,4,3.0,18673.0,135194.0,218531.0,269479.0,255712.0
2026-04-08 21:43:57.961301,175132,1609503810192924,1410159643,0.976,-0.169824,-0.111264,8.3475,-20.37875,-75.4775,-25.832,-2.008,-14.56,concentric,4,3.0,18673.0,135194.0,218531.0,269479.0,255712.0
2026-04-08 21:43:57.965011,175133,1609503810207417,1410174512,1.028704,-0.138592,0.054656,7.53375,-20.1425,-78.1025,-25.408,-2.512,-14.800001,concentric,4,3.0,18673.0,135194.0,218531.0,269479.0,255712.0
2026-04-08 21:43:57.993491,175134,1609503810216344,1410183181,1.028704,-0.138592,0.054656,5.0225,-20.055,-81.1825,-25.408,-2.512,-14.800001,concentric,4,3.0,18673.0,135194.0,218531.0,269479.0,255712.0
2026-04-08 21:43:57.998002,175135,1609503810225273,1410191897,1.091168,-0.154208,0.052704,5.50375,-20.65875,-83.86875,-25.408,-2.872,-14.768001,concentric,4,3.0,18673.0,135194.0,218531.0,269479.0,255712.0
2026-04-08 21:43:57.999556,175136,1609503810239739,1410206758,1.091168,-0.154208,0.052704,7.81375,-21.91,-85.0675,-24.736002,-2.872,-14.768001,concentric,4,3.0,18673.0,135194.0,218531.0,269479.0,255712.0
2026-04-08 21:43:58.006238,175137,1609503810248659,1410215413,1.069696,-0.105408,0.076128,10.59625,-22.35625,-85.95125,-24.304,-3.28,-15.232,concentric,4,3.0,18673.0,135194.0,218531.0,269479.0,255712.0
2026-04-08 21:43:58.037023,175148,1609503810263632,1410230416,1.069696,-0.105408,0.076128,12.38125,-23.485,-87.4825,-24.304,-3.28,-15.232,concentric,4,3.0,18902.0,135528.0,218566.0,269392.0,255555.0
2026-04-08 21:43:58.039540,175149,1609503810272557,1410239179,1.06384,-0.105408,-0.064416,14.35875,-22.93375,-90.06375,-23.744001,-3.776,-13.56,concentric,4,3.0,18902.0,135528.0,218566.0,269392.0,255555.0
2026-04-08 21:43:58.042019,175150,1609503810287076,1410254073,1.040416,-0.07808,-0.1952,16.5375,-22.1375,-90.86875,-23.720001,-4.224,-15.768001,concentric,4,3.0,18902.0,135528.0,218566.0,269392.0,255555.0
2026-04-08 21:43:58.072384,175151,1609503810295980,1410262743,1.040416,-0.07808,-0.1952,14.77,-22.09375,-90.4925,-23.720001,-4.224,-15.768001,concentric,4,3.0,18902.0,135528.0,218566.0,269392.0,255555.0
2026-04-08 21:43:58.076014,175152,1609503810304901,1410271387,1.040416,-0.07808,-0.1952,13.2475,-22.3825,-91.9975,-23.720001,-4.224,-15.768001,concentric,4,3.0,18902.0,135528.0,218566.0,269392.0,255555.0
2026-04-08 21:43:58.078424,175153,1609503810319368,1410286242,1.087264,-0.044896,-0.015616,10.99,-22.4875,-91.385,-23.168001,-4.792,-16.6,concentric,4,3.0,18902.0,135528.0,218566.0,269392.0,255555.0
2026-04-08 21:43:58.083415,175154,1609503810328333,1410294950,1.138016,-0.02928,0.072224,7.1225,-22.303751,-89.285,-22.640001,-5.088,-15.512001,concentric,4,3.0,18902.0,135528.0,218566.0,269392.0,255555.0
2026-04-08 21:43:58.146064,175155,1609503810342819,1410309799,1.138016,-0.02928,0.072224,5.76625,-22.25125,-88.90875,-22.640001,-5.088,-15.512001,concentric,4,3.0,18902.0,135528.0,218566.0,269392.0,255555.0
2026-04-08 21:43:58.149633,175156,1609503810351746,1410318443,1.192672,-0.072224,-0.095648,8.00625,-21.72625,-90.62375,-21.904001,-5.528,-16.744001,concentric,4,3.0,18902.0,135528.0,218566.0,269392.0,255555.0
2026-04-08 21:43:58.177115,175167,1609503810366381,1410333348,1.169248,0.066368,-0.013664,9.292501,-21.7875,-91.2275,-21.432001,-6.032,-15.792001,concentric,4,3.0,19072.0,136041.0,219027.0,269617.0,255575.0
2026-04-08 21:43:58.179506,175168,1609503810375317,1410342012,1.169248,0.066368,-0.013664,6.74625,-20.7375,-89.32,-21.432001,-6.032,-15.792001,concentric,4,3.0,19072.0,136041.0,219027.0,269617.0,255575.0
2026-04-08 21:43:58.182126,175169,1609503810384204,1410350676,1.169248,0.066368,-0.013664,5.88,-17.89375,-86.9925,-21.432001,-6.032,-15.792001,concentric,4,3.0,19072.0,136041.0,219027.0,269617.0,255575.0
2026-04-08 21:43:58.184563,175170,1609503810398645,1410365526,1.100928,0.070272,-0.060512,6.58875,-17.26375,-82.27625,-21.048,-6.856,-18.84,concentric,4,3.0,19072.0,136041.0,219027.0,269617.0,255575.0
2026-04-08 21:43:58.187092,175171,1609503810407591,1410374226,1.108736,-0.021472,-0.083936,0.97125,-19.38125,-77.93625,-20.12,-6.648,-16.592001,concentric,4,3.0,19072.0,136041.0,219027.0,269617.0,255575.0
2026-04-08 21:43:58.192614,175172,1609503810422095,1410389127,1.108736,-0.021472,-0.083936,-5.73125,-21.72625,-78.12875,-20.12,-6.648,-16.592001,concentric,4,3.0,19072.0,136041.0,219027.0,269617.0,255575.0
2026-04-08 21:43:58.195372,175173,1609503810431024,1410397863,1.136064,-0.021472,-0.044896,-6.79,-23.0825,-79.70375,-19.984001,-6.608,-16.472,concentric,4,3.0,19072.0,136041.0,219027.0,269617.0,255575.0
2026-04-08 21:43:58.222227,175174,1609503810445542,1410410708,1.136064,-0.021472,-0.044896,-5.94125,-22.26875,-79.24,-19.984001,-6.608,-16.472,concentric,4,3.0,19072.0,136041.0,219027.0,269617.0,255575.0
2026-04-08 21:43:58.250766,175185,1609503810454686,1410421473,1.089216,0.072224,-0.119072,-5.39,-19.46875,-77.55125,-19.104,-7.424,-16.04,concentric,4,3.0,19154.0,136350.0,219333.0,269873.0,255827.0
2026-04-08 21:43:58.260323,175186,1609503810463636,1410430224,1.089216,0.072224,-0.119072,-3.4825,-16.205,-74.10375,-19.104,-7.424,-16.04,concentric,4,3.0,19154.0,136350.0,219333.0,269873.0,255827.0
2026-04-08 21:43:58.265878,175187,1609503810478131,1410445129,1.036512,0.083936,0.02928,-5.38125,-15.04125,-69.1775,-19.056002,-7.584001,-17.936,concentric,4,3.0,19154.0,136350.0,219333.0,269873.0,255827.0
2026-04-08 21:43:58.268313,175188,1609503810487092,1410453795,1.01504,0.00976,-0.122976,-12.59125,-15.33,-65.12625,-17.008001,-7.960001,-18.824001,concentric,4,3.0,19154.0,136350.0,219333.0,269873.0,255827.0
2026-04-08 21:43:58.272068,175189,1609503810501614,1410468699,1.01504,0.00976,-0.122976,-20.23,-15.26875,-65.695,-18.224,-7.960001,-18.824001,concentric,4,3.0,19154.0,136350.0,219333.0,269873.0,255827.0
2026-04-08 21:43:58.273815,175190,1609503810510533,1410477346,0.989664,0.02928,-0.130784,-21.39375,-13.55375,-67.83,-17.824001,-7.888001,-17.944,concentric,4,3.0,19154.0,136350.0,219333.0,269873.0,255827.0
2026-04-08 21:43:58.303535,175191,1609503810525205,1410492260,0.989664,0.02928,-0.130784,-16.66875,-11.375,-64.47875,-17.824001,-7.888001,-17.944,concentric,4,3.0,19154.0,136350.0,219333.0,269873.0,255827.0
2026-04-08 21:43:58.310878,175192,1609503810534096,1410500934,0.96624,0.101504,-0.240096,-13.9475,-9.24,-59.4125,-17.448,-8.888001,-17.936,concentric,4,3.0,19154.0,136350.0,219333.0,269873.0,255827.0
2026-04-08 21:43:58.313275,175193,1609503810543002,1410509592,0.96624,0.101504,-0.240096,-13.0375,-6.08125,-56.28875,-17.448,-8.888001,-17.936,concentric,4,3.0,19154.0,136350.0,219333.0,269873.0,255827.0
2026-04-08 21:43:58.340777,175204,1609503810557563,1410524530,1.022848,0.132736,-0.15616,-19.13625,-2.00375,-54.73125,-17.392,-8.52,-18.44,concentric,4,3.0,19147.0,136355.0,219329.0,269885.0,255847.0
2026-04-08 21:43:58.343301,175205,1609503810566640,1410533280,1.022848,0.132736,-0.15616,-28.0875,2.6775,-53.40125,-17.392,-8.52,-18.44,concentric,4,3.0,19147.0,136355.0,219329.0,269885.0,255847.0
2026-04-08 21:43:58.345862,175206,1609503810581155,1410548176,1.042368,0.13664,-0.203008,-34.8425,5.46875,-50.47875,-17.0,-8.848001,-17.496,concentric,4,3.0,19147.0,136355.0,219329.0,269885.0,255847.0
2026-04-08 21:43:58.350974,175207,1609503810590145,1410556843,0.983808,0.12688,-0.089792,-38.71,7.63,-47.50375,-16.864,-8.992001,-17.128,concentric,4,3.0,19147.0,136355.0,219329.0,269885.0,255847.0
2026-04-08 21:43:58.360909,175208,1609503810599042,1410565524,0.983808,0.12688,-0.089792,-39.0075,8.47875,-44.23125,-16.864,-8.992001,-17.128,concentric,4,3.0,19147.0,136355.0,219329.0,269885.0,255847.0
2026-04-08 21:43:58.391050,175209,1609503810613556,1410580395,0.929152,0.171776,0.070272,-40.32875,7.63875,-39.9,-16.68,-9.784,-17.984001,concentric,4,3.0,19147.0,136355.0,219329.0,269885.0,255847.0
2026-04-08 21:43:58.394714,175210,1609503810622482,1410589082,0.929152,0.171776,0.070272,-36.995,8.417501,-38.63125,-16.68,-9.784,-17.984001,concentric,4,3.0,19147.0,136355.0,219329.0,269885.0,255847.0
2026-04-08 21:43:58.397187,175211,1609503810636963,1410603947,0.813984,0.128832,-0.128832,-30.28375,8.7675,-38.78875,-16.464,-9.736,-17.984001,concentric,4,3.0,19147.0,136355.0,219329.0,269885.0,255847.0
2026-04-08 21:43:58.403956,175212,1609503810645907,1410612609,0.813984,0.128832,-0.128832,-32.0775,9.1175,-38.40375,-16.464,-9.736,-17.984001,concentric,4,3.0,19147.0,136355.0,219329.0,269885.0,255847.0
2026-04-08 21:43:58.469553,175223,1609503810660525,1410627592,0.792512,0.201056,-0.148352,-30.42375,11.0075,-38.75375,-16.12,-9.984,-17.024,concentric,4,3.0,19107.0,136360.0,219346.0,269985.0,256068.0
2026-04-08 21:43:58.473865,175224,1609503810669467,1410636330,0.720288,0.251808,-0.099552,-17.03625,13.685,-34.107502,-16.184,-10.176001,-17.184,concentric,4,3.0,19107.0,136360.0,219346.0,269985.0,256068.0
2026-04-08 21:43:58.475589,175225,1609503810678382,1410644975,0.720288,0.251808,-0.099552,-11.34875,15.32125,-23.975,-16.184,-10.176001,-17.184,concentric,4,3.0,19107.0,136360.0,219346.0,269985.0,256068.0
2026-04-08 21:43:58.477088,175226,1609503810692819,1410659847,0.632448,0.169824,-0.189344,-19.59125,16.178751,-22.95125,-15.920001,-10.136001,-17.296001,concentric,4,3.0,19107.0,136360.0,219346.0,269985.0,256068.0
2026-04-08 21:43:58.481382,175227,1609503810701860,1410668575,0.632448,0.169824,-0.189344,-33.34625,17.7625,-29.82875,-15.920001,-10.136001,-17.296001,concentric,4,3.0,19107.0,136360.0,219346.0,269985.0,256068.0
2026-04-08 21:43:58.483064,175228,1609503810716352,1410683472,0.630496,0.240096,-0.017568,-42.81375,19.0575,-34.11625,-16.032001,-10.248,-17.304,concentric,4,3.0,19107.0,136360.0,219346.0,269985.0,256068.0
2026-04-08 21:43:58.484893,175229,1609503810725280,1410692137,0.630496,0.240096,-0.017568,-33.76625,22.645,-29.8025,-16.032001,-10.248,-17.304,concentric,4,3.0,19107.0,136360.0,219346.0,269985.0,256068.0
2026-04-08 21:43:58.515976,175230,1609503810739744,1410704986,0.610976,0.244,-0.134688,-15.12875,26.32875,-20.08125,-15.736001,-10.504001,-16.256,concentric,4,3.0,19107.0,136360.0,219346.0,269985.0,256068.0
2026-04-08 21:43:58.517923,175231,1609503810748969,1410715709,0.480192,0.23424,-0.244,-8.61,28.3675,-14.18375,-15.864,-10.400001,-17.216002,concentric,4,3.0,19107.0,136360.0,219346.0,269985.0,256068.0
2026-04-08 21:43:58.550497,175242,1609503810758189,1410724648,0.480192,0.23424,-0.244,-18.83,28.0875,-16.49375,-15.864,-10.400001,-17.216002,concentric,4,3.0,18999.0,136565.0,219879.0,270620.0,256638.0
2026-04-08 21:43:58.552052,175243,1609503810772813,1410739529,0.532896,0.333792,0.011712,-36.82,26.9325,-23.7825,-15.960001,-10.968,-16.768002,concentric,4,3.0,18999.0,136565.0,219879.0,270620.0,256638.0
2026-04-08 21:43:58.554531,175244,1609503810781810,1410748263,0.532896,0.333792,0.011712,-45.9025,25.83875,-30.1875,-15.960001,-10.968,-16.768002,concentric,4,3.0,18999.0,136565.0,219879.0,270620.0,256638.0
2026-04-08 21:43:58.558029,175245,1609503810796365,1410763138,0.59536,0.20496,0.158112,-33.5825,25.6025,-31.00125,-16.032001,-11.120001,-15.168001,concentric,4,3.0,18999.0,136565.0,219879.0,270620.0,256638.0
2026-04-08 21:43:58.560376,175246,1609503810805294,1410771854,0.59536,0.20496,0.158112,-24.5525,23.555,-22.79375,-16.032001,-11.120001,-15.168001,concentric,4,3.0,18999.0,136565.0,219879.0,270620.0,256638.0
2026-04-08 21:43:58.574989,175247,1609503810814242,1410780537,0.530944,0.216672,-0.08784,-19.69625,23.03,-17.491251,-15.864,-10.76,-15.016001,concentric,4,3.0,18999.0,136565.0,219879.0,270620.0,256638.0
2026-04-08 21:43:58.603501,175248,1609503810828843,1410795464,0.530944,0.310368,-0.13664,-5.8625,25.165,-19.52125,-15.864,-10.76,-15.016001,concentric,4,3.0,18999.0,136565.0,219879.0,270620.0,256638.0
2026-04-08 21:43:58.608064,175249,1609503810837770,1410804127,0.60512,0.30256,-0.13664,1.8025,25.45375,-20.32625,-15.776001,-10.904,-15.448001,concentric,4,3.0,18999.0,136565.0,219879.0,270620.0,256638.0
2026-04-08 21:43:58.609556,175250,1609503810852234,1410818990,0.659776,0.394304,0.169824,-3.535,20.2475,-19.241251,-15.824,-11.144,-16.328001,concentric,4,3.0,18999.0,136565.0,219879.0,270620.0,256638.0
2026-04-08 21:43:58.638972,175261,1609503810861400,1410827714,0.659776,0.394304,0.169824,-10.8675,15.91625,-20.95625,-15.824,-11.144,-16.328001,concentric,4,3.0,19164.0,137099.0,220539.0,271114.0,256909.0
2026-04-08 21:43:58.640544,175262,1609503810875930,1410842644,0.542656,0.304512,0.005856,-13.685,13.667501,-20.72875,-16.048,-10.856001,-15.280001,concentric,4,3.0,19164.0,137099.0,220539.0,271114.0,256909.0
2026-04-08 21:43:58.642518,175263,1609503810884860,1410851335,0.542656,0.304512,0.005856,-8.53125,13.877501,-14.98875,-16.048,-10.856001,-15.280001,concentric,4,3.0,19164.0,137099.0,220539.0,271114.0,256909.0
2026-04-08 21:43:58.649997,175264,1609503810893803,1410860077,0.632448,0.32208,-0.150304,-6.5975,17.01,-10.70125,-15.720001,-10.960001,-15.360001,concentric,4,3.0,19164.0,137099.0,220539.0,271114.0,256909.0
2026-04-08 21:43:58.678531,175265,1609503810908295,1410874955,0.632448,0.32208,-0.150304,-9.91375,21.0875,-12.39,-15.720001,-10.960001,-15.360001,concentric,4,3.0,19164.0,137099.0,220539.0,271114.0,256909.0
2026-04-08 21:43:58.682913,175266,1609503810917211,1410883609,0.642208,0.349408,0.099552,-16.6425,21.32375,-15.0325,-15.592001,-11.288,-14.992001,concentric,4,3.0,19164.0,137099.0,220539.0,271114.0,256909.0
2026-04-08 21:43:58.689957,175267,1609503810931676,1410898546,0.6344,0.300608,0.023424,-23.31875,19.0925,-14.55125,-15.992001,-11.264001,-16.400002,concentric,4,3.0,19164.0,137099.0,220539.0,271114.0,256909.0
2026-04-08 21:43:58.745891,175268,1609503810940586,1410907282,0.6344,0.300608,0.023424,-18.83,16.56375,-13.0725,-15.992001,-11.264001,-16.400002,concentric,4,3.0,19164.0,137099.0,220539.0,271114.0,256909.0
2026-04-08 21:43:58.747982,175269,1609503810955003,1410922139,0.659776,0.343552,-0.007808,-8.19,17.64,-9.84375,-15.960001,-11.240001,-15.800001,concentric,4,3.0,19164.0,137099.0,220539.0,271114.0,256909.0
2026-04-08 21:43:58.776856,175280,1609503810963950,1410930856,0.659776,0.343552,-0.007808,4.73375,17.59625,-4.4625,-15.960001,-11.240001,-15.800001,concentric,4,3.0,19435.0,138075.0,221666.0,272002.0,257414.0
2026-04-08 21:43:58.778376,175281,1609503810972909,1410939516,0.808128,0.40992,0.179584,11.2875,15.49625,-1.5925,-16.016,-11.52,-15.896001,concentric,4,3.0,19435.0,138075.0,221666.0,272002.0,257414.0
2026-04-08 21:43:58.782768,175282,1609503810987376,1410954345,0.808128,0.40992,0.179584,-0.95375,14.62125,-3.82375,-16.016,-11.52,-15.896001,concentric,4,3.0,19435.0,138075.0,221666.0,272002.0,257414.0
2026-04-08 21:43:58.786795,175283,1609503810996332,1410963029,0.782752,0.398208,0.177632,-9.79125,14.385,-6.3175,-16.344,-11.048,-15.776001,concentric,4,3.0,19435.0,138075.0,221666.0,272002.0,257414.0
2026-04-08 21:43:58.788276,175284,1609503811010821,1410977944,0.755424,0.320128,-0.197152,-5.2675,13.57125,-2.58125,-16.256,-11.000001,-13.944,concentric,4,3.0,19435.0,138075.0,221666.0,272002.0,257414.0
2026-04-08 21:43:58.792608,175285,1609503811019754,1410986624,0.755424,0.320128,-0.197152,-3.57,12.6,4.235,-16.256,-11.000001,-13.944,concentric,4,3.0,19435.0,138075.0,221666.0,272002.0,257414.0
2026-04-08 21:43:58.795013,175286,1609503811034293,1410999453,0.808128,0.456768,0.240096,-7.11375,11.17375,3.87625,-16.456001,-11.168,-14.632001,concentric,4,3.0,19435.0,138075.0,221666.0,272002.0,257414.0
2026-04-08 21:43:58.801193,175287,1609503811043512,1411010208,0.808128,0.456768,0.240096,-1.25125,11.48875,0.0175,-16.456001,-11.168,-14.632001,concentric,4,3.0,19435.0,138075.0,221666.0,272002.0,257414.0
2026-04-08 21:43:58.830906,175288,1609503811052494,1411018944,0.81008,0.4392,0.115168,10.99,13.6325,3.40375,-16.712,-11.160001,-15.928,concentric,4,3.0,19435.0,138075.0,221666.0,272002.0,257414.0
2026-04-08 21:43:58.862133,175299,1609503811067315,1411034343,0.81008,0.4392,0.115168,9.0125,15.5575,10.92875,-16.712,-11.160001,-15.928,concentric,4,3.0,19509.0,138547.0,222155.0,272382.0,257606.0
2026-04-08 21:43:58.864487,175300,1609503811076236,1411042997,0.856928,0.421632,0.013664,-1.75,17.98125,11.13875,-16.640001,-10.92,-15.432001,concentric,4,3.0,19509.0,138547.0,222155.0,272382.0,257606.0
2026-04-08 21:43:58.867033,175301,1609503811090731,1411057905,0.856928,0.47824,0.134688,-11.41,19.3025,7.09625,-16.640001,-10.92,-15.432001,concentric,4,3.0,19509.0,138547.0,222155.0,272382.0,257606.0
2026-04-08 21:43:58.869563,175302,1609503811099657,1411066583,0.825696,0.47824,0.134688,-12.88875,19.915,7.44625,-16.832,-11.112,-16.232,concentric,4,3.0,19509.0,138547.0,222155.0,272382.0,257606.0
2026-04-08 21:43:58.872036,175303,1609503811108598,1411075237,0.825696,0.47824,0.134688,-5.81875,19.20625,13.15125,-16.832,-11.112,-16.232,concentric,4,3.0,19509.0,138547.0,222155.0,272382.0,257606.0
2026-04-08 21:43:58.878347,175304,1609503811123115,1411090168,0.782752,0.402112,0.18544,-4.61125,18.20875,17.6225,-17.096,-11.112,-15.072001,concentric,4,3.0,19509.0,138547.0,222155.0,272382.0,257606.0
2026-04-08 21:43:58.910183,175305,1609503811132058,1411098846,0.776896,0.38064,0.193248,-7.3675,17.50875,17.64875,-17.208,-10.992001,-14.808001,concentric,4,3.0,19509.0,138547.0,222155.0,272382.0,257606.0
2026-04-08 21:43:58.913037,175306,1609503811146560,1411113683,0.776896,0.38064,0.193248,-7.5425,17.17625,15.47,-17.208,-10.992001,-14.808001,concentric,4,3.0,19509.0,138547.0,222155.0,272382.0,257606.0
2026-04-08 21:43:58.914614,175307,1609503811155462,1411122387,0.76128,0.41968,0.091744,-5.08375,15.88125,13.4925,-17.136002,-10.832001,-14.992001,concentric,4,3.0,19509.0,138547.0,222155.0,272382.0,257606.0
2026-04-08 21:43:58.942043,175318,1609503811170034,1411135227,0.76128,0.41968,0.091744,-3.3075,12.38125,12.80125,-17.136002,-10.832001,-14.992001,concentric,4,3.0,19440.0,138497.0,222232.0,272537.0,257816.0
2026-04-08 21:43:58.944583,175319,1609503811179283,1411146035,0.704672,0.411872,0.191296,-2.68625,8.04125,12.92375,-17.264,-10.784,-13.144001,concentric,4,3.0,19440.0,138497.0,222232.0,272537.0,257816.0
2026-04-08 21:43:58.947082,175320,1609503811188219,1411154700,0.704672,0.411872,0.191296,0.14875,6.34375,11.97,-17.264,-10.784,-13.144001,concentric,4,3.0,19440.0,138497.0,222232.0,272537.0,257816.0
