pc_time,serial_num,sensor_ts,host_ts,ax,ay,az,gx,gy,gz,mx,my,mz,phase,rpe,weight_kg,ppg_a,ppg_b,ppg_c,ppg_d,ppg_e
2026-04-08 21:44:23.290085,179893,1609503835494227,1435460546,0.786656,0.294752,0.074176,-7.84875,3.8675,5.52125,-16.960001,-10.016001,-15.536001,eccentric,4,3.0,18898.0,138483.0,224535.0,275012.0,259939.0
2026-04-08 21:44:23.292560,179894,1609503835508711,1435475400,0.81984,0.203008,-0.03904,-7.30625,4.62,4.78625,-17.152,-10.008,-16.568,eccentric,4,3.0,18898.0,138483.0,224535.0,275012.0,259939.0
2026-04-08 21:44:23.328710,179895,1609503835517661,1435484119,0.804224,0.296704,-0.01952,-6.7725,3.675,7.86625,-17.160002,-9.64,-16.344,eccentric,4,3.0,18898.0,138483.0,224535.0,275012.0,259939.0
2026-04-08 21:44:23.353966,179896,1609503835532189,1435499103,0.804224,0.296704,-0.01952,-5.3375,2.35375,11.22625,-17.160002,-9.64,-16.344,eccentric,4,3.0,18898.0,138483.0,224535.0,275012.0,259939.0
2026-04-08 21:44:23.355568,179897,1609503835541124,1435507773,0.823744,0.300608,0.052704,1.2775,2.82625,11.4975,-17.304,-9.576,-16.104,eccentric,4,3.0,18898.0,138483.0,224535.0,275012.0,259939.0
2026-04-08 21:44:23.357122,179898,1609503835550026,1435516466,0.823744,0.300608,0.052704,3.78,4.795,12.565,-17.304,-9.576,-16.104,eccentric,4,3.0,18898.0,138483.0,224535.0,275012.0,259939.0
2026-04-08 21:44:23.361345,179899,1609503835564489,1435531327,0.854976,0.310368,0.085888,-1.37375,5.88875,14.06125,-17.312,-9.848001,-16.072,eccentric,4,3.0,18898.0,138483.0,224535.0,275012.0,259939.0
2026-04-08 21:44:23.363092,179900,1609503835573408,1435539980,0.854976,0.310368,0.085888,-5.3725,7.06125,13.9825,-17.312,-9.848001,-16.072,eccentric,4,3.0,18898.0,138483.0,224535.0,275012.0,259939.0
2026-04-08 21:44:23.393067,179911,1609503835587877,1435554912,0.831552,0.275232,-0.031232,-3.395,6.5625,14.525,-17.568,-9.832001,-16.04,eccentric,4,3.0,18934.0,138706.0,224887.0,275387.0,260235.0
2026-04-08 21:44:23.395203,179912,1609503835596832,1435563593,0.85888,0.271328,0.173728,-4.05125,4.66375,17.491251,-17.768002,-9.488001,-17.504002,eccentric,4,3.0,18934.0,138706.0,224887.0,275387.0,260235.0
2026-04-08 21:44:23.398858,179913,1609503835611354,1435576531,0.85888,0.271328,0.173728,-4.9175,2.70375,17.2025,-17.768002,-9.488001,-17.504002,eccentric,4,3.0,18934.0,138706.0,224887.0,275387.0,260235.0
2026-04-08 21:44:23.400554,179914,1609503835620576,1435587310,0.895968,0.261568,-0.00976,-4.06875,2.87,14.525,-17.960001,-9.04,-15.256001,eccentric,4,3.0,18934.0,138706.0,224887.0,275387.0,260235.0
2026-04-08 21:44:23.402129,179915,1609503835629581,1435596020,0.895968,0.261568,-0.00976,-3.6925,4.68125,13.58875,-17.960001,-9.04,-15.256001,eccentric,4,3.0,18934.0,138706.0,224887.0,275387.0,260235.0
2026-04-08 21:44:23.406616,179916,1609503835644117,1435610917,0.862784,0.324032,0.11712,-1.70625,6.8775,13.58875,-18.008001,-9.192,-15.264001,eccentric,4,3.0,18934.0,138706.0,224887.0,275387.0,260235.0
2026-04-08 21:44:23.412602,179917,1609503835653064,1435619586,0.862784,0.324032,0.11712,1.9425,6.41375,14.875,-18.008001,-9.192,-15.264001,eccentric,4,3.0,18934.0,138706.0,224887.0,275387.0,260235.0
2026-04-08 21:44:23.441014,179918,1609503835667558,1435634539,0.841312,0.284992,0.06832,1.505,4.27875,15.9075,-18.352001,-9.224,-15.320001,eccentric,4,3.0,18934.0,138706.0,224887.0,275387.0,260235.0
2026-04-08 21:44:23.445575,179919,1609503835676485,1435643176,0.903776,0.275232,-0.042944,-5.0575,3.605,13.3175,-18.352001,-9.224,-17.84,eccentric,4,3.0,18934.0,138706.0,224887.0,275387.0,260235.0
2026-04-08 21:44:23.475731,179930,1609503835691370,1435658044,0.895968,0.275232,-0.042944,-8.89,4.97,10.35125,-18.08,-9.296001,-17.84,eccentric,4,3.0,18992.0,138858.0,224996.0,275417.0,260209.0
2026-04-08 21:44:23.478302,179931,1609503835700377,1435666841,0.835456,0.298656,0.056608,-3.5,7.63,11.445,-18.28,-9.184,-15.816001,eccentric,4,3.0,18992.0,138858.0,224996.0,275417.0,260209.0
2026-04-08 21:44:23.480739,179932,1609503835709354,1435675522,0.835456,0.298656,0.056608,2.8,6.615,13.29125,-18.28,-9.184,-15.816001,eccentric,4,3.0,18992.0,138858.0,224996.0,275417.0,260209.0
2026-04-08 21:44:23.483286,179933,1609503835723846,1435690391,0.827648,0.238144,-0.070272,4.1825,4.515,12.3725,-18.256,-8.848001,-15.104001,eccentric,4,3.0,18992.0,138858.0,224996.0,275417.0,260209.0
2026-04-08 21:44:23.488256,179934,1609503835732856,1435699150,0.827648,0.238144,-0.070272,2.65125,2.19625,10.1325,-18.256,-8.848001,-15.104001,eccentric,4,3.0,18992.0,138858.0,224996.0,275417.0,260209.0
2026-04-08 21:44:23.518505,179935,1609503835747346,1435714006,0.7808,0.296704,-0.052704,0.3325,1.2425,8.25125,-18.296001,-9.112,-16.088001,eccentric,4,3.0,18992.0,138858.0,224996.0,275417.0,260209.0
2026-04-08 21:44:23.522054,179936,1609503835756260,1435722743,0.7808,0.296704,-0.052704,0.42875,1.67125,6.76375,-18.296001,-9.112,-16.088001,eccentric,4,3.0,18992.0,138858.0,224996.0,275417.0,260209.0
2026-04-08 21:44:23.524592,179937,1609503835765103,1435731416,0.817888,0.284992,0.121024,2.68625,1.32125,7.04375,-18.136002,-9.008,-16.632,eccentric,4,3.0,18992.0,138858.0,224996.0,275417.0,260209.0
2026-04-08 21:44:23.554905,179938,1609503835779605,1435746322,0.763232,0.222528,-0.042944,3.99,-0.385,7.735,-18.304,-8.824,-15.488001,eccentric,4,3.0,18992.0,138858.0,224996.0,275417.0,260209.0
2026-04-08 21:44:23.585747,179949,1609503835788494,1435754983,0.763232,0.222528,-0.042944,2.94,-2.59,6.99125,-18.304,-8.824,-15.488001,eccentric,4,3.0,19012.0,139059.0,225349.0,275822.0,260550.0
2026-04-08 21:44:23.588272,179950,1609503835803029,1435769894,0.74176,0.238144,0.027328,2.8,-3.745,4.13,-18.312,-8.624001,-15.664001,eccentric,4,3.0,19012.0,139059.0,225349.0,275822.0,260550.0
2026-04-08 21:44:23.590779,179951,1609503835812026,1435778588,0.74176,0.238144,0.027328,6.51,-4.0075,3.21125,-18.312,-8.624001,-15.664001,eccentric,4,3.0,19012.0,139059.0,225349.0,275822.0,260550.0
2026-04-08 21:44:23.626000,179952,1609503835826521,1435793453,0.724192,0.220576,0.080032,9.5375,-4.20875,4.87375,-18.552,-8.664001,-14.896001,eccentric,4,3.0,19012.0,139059.0,225349.0,275822.0,260550.0
2026-04-08 21:44:23.630259,179953,1609503835835469,1435802148,0.724192,0.220576,0.080032,10.28125,-5.0575,5.215,-18.552,-8.664001,-14.896001,eccentric,4,3.0,19012.0,139059.0,225349.0,275822.0,260550.0
2026-04-08 21:44:23.633081,179954,1609503835844556,1435810854,0.747616,0.134688,-0.076128,8.7325,-5.1975,4.36625,-18.176,-8.704,-14.912001,eccentric,4,3.0,19012.0,139059.0,225349.0,275822.0,260550.0
2026-04-08 21:44:23.634670,179955,1609503835859029,1435825703,0.694912,0.179584,-0.1464,6.2475,-5.39,3.89375,-18.320002,-8.672001,-17.456001,eccentric,4,3.0,19012.0,139059.0,225349.0,275822.0,260550.0
2026-04-08 21:44:23.637008,179956,1609503835868056,1435834385,0.694912,0.179584,-0.1464,3.395,-2.75625,3.2025,-18.320002,-8.672001,-17.456001,eccentric,4,3.0,19012.0,139059.0,225349.0,275822.0,260550.0
2026-04-08 21:44:23.639553,179957,1609503835882526,1435849292,0.667584,0.203008,0.0976,3.5525,0.525,4.06875,-18.624,-8.56,-14.696001,eccentric,4,3.0,19012.0,139059.0,225349.0,275822.0,260550.0
2026-04-08 21:44:23.675764,179968,1609503835891581,1435858092,0.667584,0.203008,0.0976,4.4275,2.51125,7.8575,-18.624,-8.56,-14.696001,eccentric,4,3.0,18962.0,139211.0,225872.0,276544.0,261177.0
2026-04-08 21:44:23.678305,179969,1609503835906201,1435872975,0.675392,0.105408,-0.060512,3.2375,3.1675,10.4475,-18.832,-8.448,-15.480001,eccentric,4,3.0,18962.0,139211.0,225872.0,276544.0,261177.0
2026-04-08 21:44:23.680811,179970,1609503835915176,1435881701,0.675392,0.105408,-0.060512,-0.3325,4.1825,10.80625,-18.832,-8.448,-15.480001,eccentric,4,3.0,18962.0,139211.0,225872.0,276544.0,261177.0
2026-04-08 21:44:23.683373,179971,1609503835924130,1435890458,0.786656,0.101504,0.044896,-4.48,6.5275,11.82125,-18.792002,-8.768001,-15.384001,eccentric,4,3.0,18962.0,139211.0,225872.0,276544.0,261177.0
2026-04-08 21:44:23.716476,179972,1609503835938632,1435905350,0.778848,0.11712,-0.1952,-9.72125,11.6375,10.85875,-19.152,-8.752001,-15.528001,eccentric,4,3.0,18962.0,139211.0,225872.0,276544.0,261177.0
2026-04-08 21:44:23.719618,179973,1609503835947533,1435914015,0.778848,0.11712,-0.1952,-12.6,18.41,9.948751,-19.152,-8.752001,-15.528001,eccentric,4,3.0,18962.0,139211.0,225872.0,276544.0,261177.0
2026-04-08 21:44:23.722064,179974,1609503835962031,1435928861,0.677344,0.162016,0.0,-13.658751,25.7775,13.64125,-19.480001,-8.688001,-15.208001,eccentric,4,3.0,18962.0,139211.0,225872.0,276544.0,261177.0
2026-04-08 21:44:23.727142,179975,1609503835971446,1435937904,0.677344,0.162016,0.0,-14.70875,32.0775,21.41125,-19.480001,-8.688001,-15.208001,eccentric,4,3.0,18962.0,139211.0,225872.0,276544.0,261177.0
2026-04-08 21:44:23.757287,179976,1609503835980394,1435946589,0.74176,0.01952,-0.005856,-18.8125,32.5675,28.9275,-19.664001,-8.424001,-13.920001,eccentric,4,3.0,18962.0,139211.0,225872.0,276544.0,261177.0
2026-04-08 21:44:23.785932,179987,1609503835995134,1435961538,0.74176,0.01952,-0.005856,-29.1025,28.665,29.19875,-19.664001,-8.424001,-13.920001,eccentric,4,3.0,19049.0,139474.0,226125.0,276625.0,261169.0
2026-04-08 21:44:23.788338,179988,1609503836004091,1435970178,0.901824,-0.037088,0.056608,-34.4225,26.215,23.70375,-20.008001,-8.872001,-14.328001,eccentric,4,3.0,19049.0,139474.0,226125.0,276625.0,261169.0
2026-04-08 21:44:23.793316,179989,1609503836018573,1435985139,0.901824,0.06832,0.062464,-26.13625,26.495,20.23875,-20.008001,-8.872001,-14.328001,eccentric,4,3.0,19049.0,139474.0,226125.0,276625.0,261169.0
2026-04-08 21:44:23.793930,179990,1609503836027564,1435993811,0.75152,0.06832,0.062464,-11.29625,28.9275,23.397501,-20.256,-8.96,-14.408001,eccentric,4,3.0,19049.0,139474.0,226125.0,276625.0,261169.0
2026-04-08 21:44:23.796031,179991,1609503836036486,1436002514,0.75152,0.06832,0.062464,1.25125,28.7525,30.79125,-20.256,-8.96,-14.408001,eccentric,4,3.0,19049.0,139474.0,226125.0,276625.0,261169.0
2026-04-08 21:44:23.826044,179992,1609503836050994,1436017392,0.753472,0.042944,0.072224,3.82375,24.9725,36.4,-20.936,-8.88,-12.792001,eccentric,4,3.0,19049.0,139474.0,226125.0,276625.0,261169.0
2026-04-08 21:44:23.829554,179993,1609503836059888,1436026079,0.835456,-0.02928,0.119072,-2.0825,17.35125,37.9575,-21.032001,-8.376,-13.328001,eccentric,4,3.0,19049.0,139474.0,226125.0,276625.0,261169.0
2026-04-08 21:44:23.832075,179994,1609503836074346,1436041266,0.835456,-0.02928,0.119072,-8.05,9.37125,35.0,-21.032001,-8.376,-13.328001,eccentric,4,3.0,19049.0,139474.0,226125.0,276625.0,261169.0
2026-04-08 21:44:23.862308,179995,1609503836083359,1436050050,0.864736,-0.005856,0.197152,-4.99625,5.635,35.04375,-21.464,-8.168,-13.648001,eccentric,4,3.0,19049.0,139474.0,226125.0,276625.0,261169.0
2026-04-08 21:44:23.890776,180006,1609503836097922,1436064981,0.864736,-0.005856,0.197152,5.6875,4.0775,39.6725,-21.464,-8.168,-13.648001,eccentric,4,3.0,18967.0,139352.0,226293.0,277044.0,261574.0
2026-04-08 21:44:23.925763,180007,1609503836106843,1436073682,0.83936,0.007808,0.128832,12.915,4.01625,43.26875,-21.608002,-7.68,-12.360001,eccentric,4,3.0,18967.0,139352.0,226293.0,277044.0,261574.0
2026-04-08 21:44:23.928410,180008,1609503836115838,1436082364,0.83936,0.007808,0.128832,14.86625,3.0275,45.29,-21.608002,-7.68,-12.360001,eccentric,4,3.0,18967.0,139352.0,226293.0,277044.0,261574.0
2026-04-08 21:44:23.935121,180009,1609503836130351,1436097355,0.940864,-0.015616,0.027328,7.41125,0.02625,48.09875,-22.024,-7.616,-11.352,eccentric,4,3.0,18967.0,139352.0,226293.0,277044.0,261574.0
2026-04-08 21:44:23.936839,180010,1609503836139266,1436106033,0.940864,-0.015616,0.023424,-2.54625,-3.57875,47.9325,-22.024,-7.616,-11.352,eccentric,4,3.0,18967.0,139352.0,226293.0,277044.0,261574.0
2026-04-08 21:44:23.938372,180011,1609503836153742,1436120883,0.905728,-0.044896,0.023424,-6.65875,-3.675,39.9875,-22.424002,-7.192,-12.448001,eccentric,4,3.0,18967.0,139352.0,226293.0,277044.0,261574.0
2026-04-08 21:44:23.942595,180012,1609503836162645,1436129527,0.845216,-0.031232,0.074176,-5.52125,-2.3275,38.87625,-22.400002,-7.232,-13.192,eccentric,4,3.0,18967.0,139352.0,226293.0,277044.0,261574.0
2026-04-08 21:44:23.944330,180013,1609503836177139,1436142360,0.845216,-0.031232,0.074176,2.49375,-2.2575,46.97875,-22.400002,-7.232,-13.192,eccentric,4,3.0,18967.0,139352.0,226293.0,277044.0,261574.0
2026-04-08 21:44:23.945907,180014,1609503836186342,1436153096,0.972096,-0.0976,0.021472,9.94,-0.97125,50.16375,-22.952002,-7.04,-11.920001,eccentric,4,3.0,18967.0,139352.0,226293.0,277044.0,261574.0
2026-04-08 21:44:23.978867,180025,1609503836195574,1436161863,0.972096,-0.0976,0.021472,5.88,-0.1225,47.13625,-22.952002,-7.04,-11.920001,eccentric,4,3.0,18985.0,139287.0,226037.0,276590.0,261126.0
2026-04-08 21:44:23.980560,180026,1609503836210064,1436176764,1.028704,-0.011712,-0.015616,-9.05625,-2.42375,46.73375,-23.240002,-6.896,-11.704,eccentric,4,3.0,18985.0,139287.0,226037.0,276590.0,261126.0
2026-04-08 21:44:23.982089,180027,1609503836219017,1436185458,1.028704,-0.011712,-0.015616,-10.745,-1.12,42.2975,-23.240002,-6.896,-11.704,eccentric,4,3.0,18985.0,139287.0,226037.0,276590.0,261126.0
2026-04-08 21:44:24.013214,180028,1609503836233500,1436200422,0.938912,-0.042944,0.06832,-0.18375,1.37375,41.95625,-23.576,-6.776001,-12.696001,eccentric,4,3.0,18985.0,139287.0,226037.0,276590.0,261126.0
2026-04-08 21:44:24.015452,180029,1609503836242400,1436209088,0.915488,-0.040992,0.07808,1.89875,1.56625,49.2625,-23.840002,-6.296001,-12.200001,eccentric,4,3.0,18985.0,139287.0,226037.0,276590.0,261126.0
2026-04-08 21:44:24.020001,180030,1609503836256906,1436223962,0.915488,-0.040992,0.07808,2.93125,0.98,52.68375,-23.840002,-6.296001,-12.200001,eccentric,4,3.0,18985.0,139287.0,226037.0,276590.0,261126.0
2026-04-08 21:44:24.022112,180031,1609503836265820,1436232658,1.04432,-0.124928,0.050752,1.26,0.14875,52.2725,-24.008001,-5.856,-12.168,eccentric,4,3.0,18985.0,139287.0,226037.0,276590.0,261126.0
2026-04-08 21:44:24.052310,180032,1609503836274749,1436241353,1.04432,-0.124928,0.050752,-4.71625,-1.77625,52.40375,-24.008001,-5.856,-12.168,eccentric,4,3.0,18985.0,139287.0,226037.0,276590.0,261126.0
2026-04-08 21:44:24.055816,180033,1609503836289239,1436256197,1.186816,-0.12688,0.144448,-12.495,-4.83,49.34125,-24.488,-5.848,-12.160001,eccentric,4,3.0,18985.0,139287.0,226037.0,276590.0,261126.0
2026-04-08 21:44:24.083337,180044,1609503836298256,1436264984,1.186816,-0.12688,0.144448,-15.00625,-2.54625,41.81625,-24.488,-5.848,-12.160001,eccentric,4,3.0,19029.0,138869.0,225294.0,275832.0,260563.0
2026-04-08 21:44:24.085831,180045,1609503836312739,1436279840,1.0248,-0.0976,0.052704,-4.9525,-0.245,37.275,-24.584002,-5.656,-11.984,eccentric,4,3.0,19029.0,138869.0,225294.0,275832.0,260563.0
2026-04-08 21:44:24.088442,180046,1609503836321740,1436288603,0.989664,-0.0488,-0.013664,4.19125,0.91,38.701252,-25.008001,-5.464,-12.624001,eccentric,4,3.0,19029.0,138869.0,225294.0,275832.0,260563.0
2026-04-08 21:44:24.090828,180047,1609503836336231,1436301469,0.989664,-0.0488,-0.013664,9.54625,-0.7,41.79,-25.008001,-5.464,-12.624001,eccentric,4,3.0,19029.0,138869.0,225294.0,275832.0,260563.0
2026-04-08 21:44:24.121044,180048,1609503836345605,1436312221,1.01504,-0.080032,0.089792,12.32,-1.70625,41.6325,-25.232,-5.152,-12.168,eccentric,4,3.0,19029.0,138869.0,225294.0,275832.0,260563.0
2026-04-08 21:44:24.124600,180049,1609503836354529,1436320919,1.01504,-0.080032,0.089792,11.41,-2.10875,39.73375,-25.232,-5.152,-12.168,eccentric,4,3.0,19029.0,138869.0,225294.0,275832.0,260563.0
2026-04-08 21:44:24.127090,180050,1609503836369009,1436335805,1.0736,-0.115168,0.02928,9.98375,-1.645,38.68375,-25.872002,-4.984,-11.896001,eccentric,4,3.0,19029.0,138869.0,225294.0,275832.0,260563.0
2026-04-08 21:44:24.133302,180051,1609503836378003,1436344625,1.0736,-0.115168,0.02928,9.56375,0.84,37.275,-25.872002,-4.984,-11.896001,eccentric,4,3.0,19029.0,138869.0,225294.0,275832.0,260563.0
2026-04-08 21:44:24.192326,180062,1609503836392470,1436359513,0.983808,-0.076128,-0.06832,8.98625,4.2875,34.34375,-26.072,-4.824,-11.464001,eccentric,4,3.0,18887.0,138447.0,224916.0,275673.0,260553.0
2026-04-08 21:44:24.226204,180063,1609503836401762,1436368268,1.007232,-0.062464,0.134688,8.82,6.335,31.57,-26.072,-4.872,-10.808001,eccentric,4,3.0,18887.0,138447.0,224916.0,275673.0,260553.0
2026-04-08 21:44:24.229614,180064,1609503836410668,1436376939,1.007232,-0.062464,0.134688,8.00625,7.27125,29.3475,-26.408,-4.872,-10.808001,eccentric,4,3.0,18887.0,138447.0,224916.0,275673.0,260553.0
2026-04-08 21:44:24.232049,180065,1609503836425172,1436391821,1.106784,-0.080032,0.119072,6.23,6.9825,27.6325,-26.704,-4.92,-10.256001,eccentric,4,3.0,18887.0,138447.0,224916.0,275673.0,260553.0
2026-04-08 21:44:24.234558,180066,1609503836434153,1436400726,1.106784,-0.080032,0.119072,5.87125,6.93,24.82375,-26.704,-4.92,-10.256001,eccentric,4,3.0,18887.0,138447.0,224916.0,275673.0,260553.0
2026-04-08 21:44:24.240818,180067,1609503836448689,1436415602,1.118496,-0.0488,-0.050752,8.8375,9.86125,19.78375,-27.320002,-5.088,-10.896001,eccentric,4,3.0,18887.0,138447.0,224916.0,275673.0,260553.0
2026-04-08 21:44:24.243312,180068,1609503836457609,1436424259,1.118496,-0.0488,-0.050752,13.0725,14.16625,18.6725,-27.320002,-5.088,-10.896001,eccentric,4,3.0,18887.0,138447.0,224916.0,275673.0,260553.0
2026-04-08 21:44:24.245856,180069,1609503836472133,1436439106,1.067744,0.031232,0.132736,13.53625,16.80875,19.13625,-27.608002,-5.112001,-10.72,eccentric,4,3.0,18887.0,138447.0,224916.0,275673.0,260553.0
2026-04-08 21:44:24.248306,180070,1609503836481060,1436447831,1.067744,0.031232,0.132736,10.675,16.9575,16.45875,-27.608002,-5.112001,-10.72,eccentric,4,3.0,18887.0,138447.0,224916.0,275673.0,260553.0
2026-04-08 21:44:24.250807,180071,1609503836489985,1436456486,1.1224,-0.017568,0.0488,7.34125,16.2225,13.08125,-27.976002,-4.944,-10.6,eccentric,4,3.0,18887.0,138447.0,224916.0,275673.0,260553.0
2026-04-08 21:44:24.278252,180082,1609503836504573,1436471448,1.169248,-0.021472,0.083936,5.005,15.98625,12.215,-28.264002,-4.72,-8.152,eccentric,4,3.0,18828.0,138227.0,224771.0,275626.0,260591.0
2026-04-08 21:44:24.280883,180083,1609503836513528,1436480173,1.169248,-0.021472,0.083936,3.955,15.435,11.2175,-28.264002,-4.72,-8.152,eccentric,4,3.0,18828.0,138227.0,224771.0,275626.0,260591.0
2026-04-08 21:44:24.285810,180084,1609503836528132,1436495055,1.0248,0.007808,-0.023424,4.66375,15.33,8.225,-28.712002,-4.776,-7.784,eccentric,4,3.0,18828.0,138227.0,224771.0,275626.0,260591.0
2026-04-08 21:44:24.294574,180085,1609503836537109,1436503725,1.0248,0.007808,-0.023424,8.46125,15.00625,5.565,-28.712002,-4.776,-7.784,eccentric,4,3.0,18828.0,138227.0,224771.0,275626.0,260591.0
2026-04-08 21:44:24.324822,180086,1609503836546055,1436512418,1.038464,0.070272,0.191296,14.4375,13.667501,5.1625,-28.816002,-5.376,-9.496,eccentric,4,3.0,18828.0,138227.0,224771.0,275626.0,260591.0
2026-04-08 21:44:24.328430,180087,1609503836560531,1436527295,1.038464,0.070272,0.191296,20.06375,12.74,7.1925,-28.816002,-5.376,-9.496,eccentric,4,3.0,18828.0,138227.0,224771.0,275626.0,260591.0
2026-04-08 21:44:24.330778,180088,1609503836569440,1436535952,1.04432,0.095648,0.134688,23.16125,12.136251,9.02125,-29.136002,-5.536,-8.256001,eccentric,4,3.0,18828.0,138227.0,224771.0,275626.0,260591.0
2026-04-08 21:44:24.362128,180089,1609503836583916,1436550820,1.00528,0.101504,-0.011712,24.9375,12.85375,9.66875,-28.928001,-4.984,-6.688,eccentric,4,3.0,18828.0,138227.0,224771.0,275626.0,260591.0
2026-04-08 21:44:24.389550,180100,1609503836592834,1436559512,1.00528,0.101504,-0.011712,24.5175,12.285,10.78,-28.928001,-4.984,-6.688,eccentric,4,3.0,18521.0,137441.0,224183.0,275571.0,260760.0
2026-04-08 21:44:24.392037,180101,1609503836607333,1436574447,1.114592,0.08784,0.103456,23.485,12.18875,11.29625,-29.600002,-4.976,-8.256001,eccentric,4,3.0,18521.0,137441.0,224183.0,275571.0,260760.0
2026-04-08 21:44:24.394586,180102,1609503836616365,1436583209,1.114592,0.08784,0.103456,20.04625,11.87375,11.8125,-29.600002,-4.976,-8.256001,eccentric,4,3.0,18521.0,137441.0,224183.0,275571.0,260760.0
2026-04-08 21:44:24.397042,180103,1609503836625406,1436591969,1.0736,0.13664,0.162016,17.4125,11.80375,12.59125,-29.912,-5.12,-7.208,eccentric,4,3.0,18521.0,137441.0,224183.0,275571.0,260760.0
2026-04-08 21:44:24.399495,180104,1609503836639908,1436606847,1.0736,0.13664,0.162016,14.69125,11.935,12.99375,-29.912,-5.12,-7.208,eccentric,4,3.0,18521.0,137441.0,224183.0,275571.0,260760.0
2026-04-08 21:44:24.405755,180105,1609503836648843,1436615515,1.067744,0.085888,0.042944,10.7625,11.515,13.2125,-30.224,-5.048,-6.976,eccentric,4,3.0,18521.0,137441.0,224183.0,275571.0,260760.0
2026-04-08 21:44:24.436256,180106,1609503836663308,1436630421,0.987712,0.113216,0.054656,6.16875,9.730001,13.658751,-30.224,-5.048,-5.792,eccentric,4,3.0,18521.0,137441.0,224183.0,275571.0,260760.0
2026-04-08 21:44:24.439607,180107,1609503836672208,1436639104,0.987712,0.113216,0.054656,5.22375,8.6975,14.14,-30.248001,-4.968,-5.792,eccentric,4,3.0,18521.0,137441.0,224183.0,275571.0,260760.0
2026-04-08 21:44:24.442109,180108,1609503836686730,1436651901,1.018944,0.085888,0.103456,5.985,8.1025,15.30375,-29.792002,-4.752,-7.312,eccentric,4,3.0,18521.0,137441.0,224183.0,275571.0,260760.0
2026-04-08 21:44:24.535752,180119,1609503836696508,1436662785,1.018944,0.085888,0.103456,5.2325,7.83125,14.875,-29.792002,-4.752,-7.312,eccentric,4,3.0,18224.0,136577.0,223340.0,275108.0,260600.0
2026-04-08 21:44:24.538253,180120,1609503836705561,1436671487,0.958432,0.101504,0.091744,3.1325,7.1575,12.71375,-30.896002,-4.592,-7.136,eccentric,4,3.0,18224.0,136577.0,223340.0,275108.0,260600.0
2026-04-08 21:44:24.540770,180121,1609503836720036,1436686368,0.958432,0.101504,0.091744,1.35625,5.635,13.448751,-30.896002,-4.592,-7.136,eccentric,4,3.0,18224.0,136577.0,223340.0,275108.0,260600.0
2026-04-08 21:44:24.543283,180122,1609503836728986,1436695053,0.983808,0.062464,0.072224,-0.20125,3.955,14.385,-29.952002,-4.88,-7.352,eccentric,4,3.0,18224.0,136577.0,223340.0,275108.0,260600.0
2026-04-08 21:44:24.545788,180123,1609503836743489,1436709968,0.983808,0.046848,0.013664,-0.5425,2.765,12.915,-29.952002,-4.88,-7.352,eccentric,4,3.0,18224.0,136577.0,223340.0,275108.0,260600.0
2026-04-08 21:44:24.548279,180124,1609503836752391,1436718694,0.964288,0.046848,0.013664,-1.0675,1.70625,12.005,-30.520002,-4.84,-8.200001,eccentric,4,3.0,18224.0,136577.0,223340.0,275108.0,260600.0
2026-04-08 21:44:24.550751,180125,1609503836761285,1436727341,0.964288,0.046848,0.013664,-0.5425,2.21375,11.235,-30.520002,-4.84,-8.200001,eccentric,4,3.0,18224.0,136577.0,223340.0,275108.0,260600.0
2026-04-08 21:44:24.553253,180126,1609503836775765,1436742200,0.915488,0.056608,-0.023424,1.89875,2.77375,10.68375,-30.576002,-4.984,-6.76,eccentric,4,3.0,18224.0,136577.0,223340.0,275108.0,260600.0
2026-04-08 21:44:24.555747,180127,1609503836784680,1436750859,0.94672,0.033184,0.083936,2.45875,2.37125,9.87875,-30.552002,-4.072,-6.088,eccentric,4,3.0,18224.0,136577.0,223340.0,275108.0,260600.0
2026-04-08 21:44:24.620789,180138,1609503836799369,1436765895,0.94672,0.033184,0.083936,0.69125,0.69125,8.23375,-30.552002,-4.072,-6.088,eccentric,4,3.0,18129.0,136114.0,222690.0,274619.0,260334.0
2026-04-08 21:44:24.623385,180139,1609503836808331,1436774616,0.925248,0.015616,0.015616,1.8375,0.34125,7.18375,-30.624,-4.2,-6.184001,eccentric,4,3.0,18129.0,136114.0,222690.0,274619.0,260334.0
2026-04-08 21:44:24.625796,180140,1609503836822825,1436789528,0.925248,0.015616,0.015616,4.865,0.18375,6.02,-30.624,-4.2,-6.184001,eccentric,4,3.0,18129.0,136114.0,222690.0,274619.0,260334.0
2026-04-08 21:44:24.628361,180141,1609503836831716,1436798174,1.0248,0.007808,0.251808,5.88875,-0.25375,4.71625,-30.656002,-4.416,-7.256001,eccentric,4,3.0,18129.0,136114.0,222690.0,274619.0,260334.0
2026-04-08 21:44:24.630789,180142,1609503836840612,1436806845,1.0248,0.007808,0.251808,5.94125,-1.0325,3.0275,-30.656002,-4.416,-7.256001,eccentric,4,3.0,18129.0,136114.0,222690.0,274619.0,260334.0
2026-04-08 21:44:24.633354,180143,1609503836855073,1436821695,0.958432,-0.031232,-0.01952,7.42875,-2.275,1.96,-30.736002,-4.336,-6.776001,eccentric,4,3.0,18129.0,136114.0,222690.0,274619.0,260334.0
2026-04-08 21:44:24.635834,180144,1609503836863990,1436830354,0.958432,-0.031232,0.074176,7.58625,-2.3975,0.74375,-30.736002,-4.336,-6.776001,eccentric,4,3.0,18129.0,136114.0,222690.0,274619.0,260334.0
2026-04-08 21:44:24.638270,180145,1609503836878536,1436845235,0.964288,0.003904,0.064416,7.945,-2.0825,-0.49,-30.416002,-4.024,-4.8,eccentric,4,3.0,18129.0,136114.0,222690.0,274619.0,260334.0
2026-04-08 21:44:24.644655,180146,1609503836887613,1436853996,0.954528,0.035136,0.220576,7.32375,-1.74125,-1.16375,-30.296001,-4.016,-5.008,eccentric,4,3.0,18129.0,136114.0,222690.0,274619.0,260334.0
2026-04-08 21:44:24.674727,180157,1609503836902190,1436869253,0.954528,0.035136,0.220576,4.99625,-1.56625,-1.96,-30.296001,-4.016,-5.008,eccentric,4,3.0,18105.0,136064.0,222624.0,274523.0,260263.0
2026-04-08 21:44:24.677201,180158,1609503836911224,1436877979,0.935008,-0.031232,0.013664,2.56375,-2.8175,-3.22,-30.400002,-3.648,-6.744,eccentric,4,3.0,18105.0,136064.0,222624.0,274523.0,260263.0
2026-04-08 21:44:24.679571,180159,1609503836920147,1436886642,0.935008,-0.031232,0.013664,1.1725,-4.26125,-4.99625,-30.400002,-3.648,-6.744,eccentric,4,3.0,18105.0,136064.0,222624.0,274523.0,260263.0
2026-04-08 21:44:24.711085,180160,1609503836934608,1436901618,1.03456,-0.070272,0.218624,3.19375,-4.6025,-6.57125,-30.552002,-4.128,-7.048,eccentric,4,3.0,18105.0,136064.0,222624.0,274523.0,260263.0
2026-04-08 21:44:24.714625,180161,1609503836943492,1436910283,1.03456,-0.070272,0.218624,7.02625,-4.76,-7.02625,-30.552002,-4.128,-7.048,eccentric,4,3.0,18105.0,136064.0,222624.0,274523.0,260263.0
2026-04-08 21:44:24.717099,180162,1609503836958008,1436925135,0.962336,0.011712,-0.02928,10.63125,-3.96375,-7.09625,-30.536001,-4.32,-7.112001,eccentric,4,3.0,18105.0,136064.0,222624.0,274523.0,260263.0
2026-04-08 21:44:24.747211,180163,1609503836967008,1436933796,0.974048,0.062464,0.023424,11.6725,-2.79125,-5.95875,-30.408,-3.896,-6.704001,eccentric,4,3.0,18105.0,136064.0,222624.0,274523.0,260263.0
2026-04-08 21:44:24.751569,180164,1609503836981500,1436948637,0.974048,0.062464,0.023424,6.60625,-3.29875,-4.5325,-30.408,-3.896,-6.704001,eccentric,4,3.0,18105.0,136064.0,222624.0,274523.0,260263.0
2026-04-08 21:44:24.754294,180165,1609503836990445,1436957300,0.976,0.015616,0.150304,-2.205,-5.88875,-4.06,-30.456001,-4.4,-7.536,eccentric,4,3.0,18105.0,136064.0,222624.0,274523.0,260263.0
2026-04-08 21:44:24.780824,180176,1609503836999840,1436965968,0.976,0.015616,0.150304,-9.6775,-8.35625,-4.13,-30.456001,-4.4,-7.536,eccentric,4,3.0,18330.0,136806.0,223467.0,275076.0,260522.0
2026-04-08 21:44:24.787028,180177,1609503837014442,1436980941,0.991616,-0.033184,0.085888,-8.75875,-9.3975,-3.14125,-30.592001,-3.824,-7.808001,eccentric,4,3.0,18330.0,136806.0,223467.0,275076.0,260522.0
2026-04-08 21:44:24.789541,180178,1609503837023360,1436989593,0.991616,-0.033184,0.085888,0.735,-8.6275,-0.1225,-30.592001,-3.824,-7.808001,eccentric,4,3.0,18330.0,136806.0,223467.0,275076.0,260522.0
2026-04-08 21:44:24.825527,180179,1609503837037862,1437004534,1.06384,0.031232,0.18544,12.80125,-7.41125,3.31625,-30.288002,-3.608,-7.36,concentric,4,3.0,18330.0,136806.0,223467.0,275076.0,260522.0
2026-04-08 21:44:24.828329,180180,1609503837046876,1437013193,1.065792,0.095648,0.103456,17.92,-6.95625,6.02,-29.920002,-3.432,-8.56,concentric,4,3.0,18330.0,136806.0,223467.0,275076.0,260522.0
2026-04-08 21:44:24.831776,180181,1609503837055807,1437021850,1.065792,0.095648,0.103456,13.58,-7.18375,7.77875,-29.920002,-3.432,-8.56,concentric,4,3.0,18330.0,136806.0,223467.0,275076.0,260522.0
2026-04-08 21:44:24.833468,180182,1609503837070289,1437036695,1.14192,-0.017568,0.197152,4.62,-9.70375,9.47625,-29.920002,-3.144,-8.608001,concentric,4,3.0,18330.0,136806.0,223467.0,275076.0,260522.0
2026-04-08 21:44:24.835789,180183,1609503837079196,1437045379,1.14192,-0.017568,0.197152,-6.5625,-13.7725,9.765,-29.920002,-3.144,-8.608001,concentric,4,3.0,18330.0,136806.0,223467.0,275076.0,260522.0
2026-04-08 21:44:24.866060,180184,1609503837093718,1437060278,1.145824,-0.130784,0.261568,-11.08625,-18.68125,7.385,-29.560001,-3.016,-8.784,concentric,4,3.0,18330.0,136806.0,223467.0,275076.0,260522.0
2026-04-08 21:44:24.894725,180195,1609503837102684,1437069026,1.145824,-0.130784,0.261568,-3.885,-22.3825,5.06625,-29.560001,-3.016,-8.784,concentric,4,3.0,18626.0,137446.0,223967.0,275103.0,260296.0
2026-04-08 21:44:24.897201,180196,1609503837117160,1437083898,1.057984,-0.121024,0.095648,12.01375,-24.8325,3.05375,-29.344002,-2.48,-9.160001,concentric,4,3.0,18626.0,137446.0,223967.0,275103.0,260296.0
2026-04-08 21:44:24.899694,180197,1609503837126177,1437092638,1.057984,-0.035136,0.0,30.135,-23.7475,2.26625,-29.344002,-2.48,-7.112001,concentric,4,3.0,18626.0,137446.0,223967.0,275103.0,260296.0
2026-04-08 21:44:24.903657,180198,1609503837135106,1437101321,1.071648,-0.035136,0.0,39.357502,-22.6275,1.1375,-29.320002,-2.328,-7.336,concentric,4,3.0,18626.0,137446.0,223967.0,275103.0,260296.0
2026-04-08 21:44:24.911112,180199,1609503837149709,1437116212,1.163392,-0.023424,0.103456,32.03375,-23.1175,-1.77625,-28.504002,-1.712,-9.048,concentric,4,3.0,18626.0,137446.0,223967.0,275103.0,260296.0
2026-04-08 21:44:24.915250,180200,1609503837158629,1437124901,1.163392,-0.023424,0.103456,16.9575,-25.64625,-5.50375,-28.504002,-1.712,-9.048,concentric,4,3.0,18626.0,137446.0,223967.0,275103.0,260296.0
2026-04-08 21:44:24.943558,180201,1609503837173125,1437139750,1.067744,-0.0976,0.070272,4.17375,-26.845,-6.335,-28.264002,-1.584,-9.64,concentric,4,3.0,18626.0,137446.0,223967.0,275103.0,260296.0
2026-04-08 21:44:24.948037,180202,1609503837182056,1437148405,1.067744,-0.0976,0.070272,2.1875,-27.43125,-7.805,-28.264002,-1.584,-9.64,concentric,4,3.0,18626.0,137446.0,223967.0,275103.0,260296.0
2026-04-08 21:44:24.978902,180213,1609503837196577,1437163227,1.046272,-0.148352,0.095648,5.6525,-26.241251,-11.865,-28.272001,-1.84,-10.88,concentric,4,3.0,18641.0,137314.0,223634.0,274696.0,259928.0
2026-04-08 21:44:24.980514,180214,1609503837205922,1437171954,1.046272,-0.148352,0.095648,11.89125,-25.68125,-14.51625,-28.272001,-1.84,-10.88,concentric,4,3.0,18641.0,137314.0,223634.0,274696.0,259928.0
2026-04-08 21:44:24.982124,180215,1609503837214893,1437180644,1.016992,-0.122976,-0.103456,15.65375,-24.6925,-14.42875,-27.512001,-1.8,-9.432,concentric,4,3.0,18641.0,137314.0,223634.0,274696.0,259928.0
2026-04-08 21:44:24.987481,180216,1609503837229373,1437195500,1.04432,-0.08784,0.027328,13.58875,-25.20875,-14.83125,-27.136002,-1.704,-11.552001,concentric,4,3.0,18641.0,137314.0,223634.0,274696.0,259928.0
2026-04-08 21:44:25.016058,180217,1609503837238348,1437204210,1.04432,-0.08784,0.027328,8.53125,-26.18,-16.82625,-27.136002,-1.704,-11.552001,concentric,4,3.0,18641.0,137314.0,223634.0,274696.0,259928.0
2026-04-08 21:44:25.020570,180218,1609503837252812,1437219139,1.011136,-0.140544,0.162016,6.44,-26.15375,-19.29375,-26.944002,-1.44,-11.664001,concentric,4,3.0,18641.0,137314.0,223634.0,274696.0,259928.0
2026-04-08 21:44:25.022068,180219,1609503837261689,1437227787,1.011136,-0.140544,0.162016,9.14375,-25.9525,-20.86,-26.944002,-1.44,-11.664001,concentric,4,3.0,18641.0,137314.0,223634.0,274696.0,259928.0
2026-04-08 21:44:25.028795,180220,1609503837270586,1437236507,0.890112,-0.11712,-0.064416,11.97,-25.45375,-21.42,-26.320002,-1.536,-12.376,concentric,4,3.0,18641.0,137314.0,223634.0,274696.0,259928.0
2026-04-08 21:44:25.060737,180221,1609503837285030,1437251387,0.890112,-0.11712,-0.064416,16.35375,-23.31875,-22.23375,-26.320002,-1.536,-12.376,concentric,4,3.0,18641.0,137314.0,223634.0,274696.0,259928.0
2026-04-08 21:44:25.062981,180222,1609503837293926,1437260093,0.938912,-0.085888,-0.1952,17.928751,-21.875,-21.35,-25.984001,-1.448,-11.664001,concentric,4,3.0,18641.0,137314.0,223634.0,274696.0,259928.0
2026-04-08 21:44:25.090715,180233,1609503837308493,1437275021,0.91744,-0.091744,-0.167872,13.4225,-21.07,-20.895,-25.960001,-1.408,-11.496,concentric,4,3.0,18742.0,137602.0,223819.0,274683.0,259881.0
2026-04-08 21:44:25.126999,180234,1609503837317620,1437283787,0.91744,-0.091744,-0.167872,7.62125,-20.20375,-23.31,-25.960001,-1.408,-11.496,concentric,4,3.0,18742.0,137602.0,223819.0,274683.0,259881.0
2026-04-08 21:44:25.131433,180235,1609503837332134,1437298712,0.93696,-0.091744,0.089792,3.71,-18.445,-26.9325,-25.576002,-1.208,-12.240001,concentric,4,3.0,18742.0,137602.0,223819.0,274683.0,259881.0
2026-04-08 21:44:25.133109,180236,1609503837341068,1437307413,0.93696,-0.091744,0.089792,0.70875,-15.9775,-30.51125,-25.576002,-1.208,-12.240001,concentric,4,3.0,18742.0,137602.0,223819.0,274683.0,259881.0
2026-04-08 21:44:25.134592,180237,1609503837349975,1437316099,0.91744,-0.08784,-0.197152,-1.575,-13.825,-31.64875,-25.288002,-1.432,-13.376,concentric,4,3.0,18742.0,137602.0,223819.0,274683.0,259881.0
2026-04-08 21:44:25.138887,180238,1609503837364490,1437331024,0.91744,-0.08784,-0.197152,-4.1825,-12.95,-32.64625,-25.288002,-1.432,-13.376,concentric,4,3.0,18742.0,137602.0,223819.0,274683.0,259881.0
2026-04-08 21:44:25.141592,180239,1609503837373388,1437339673,0.974048,-0.109312,-0.124928,-6.65,-12.46,-33.6175,-24.848001,-1.496,-13.528001,concentric,4,3.0,18742.0,137602.0,223819.0,274683.0,259881.0
2026-04-08 21:44:25.153006,180240,1609503837387906,1437354566,0.9272,-0.081984,-0.001952,-8.54875,-11.89125,-34.64125,-24.848001,-1.496,-13.528001,concentric,4,3.0,18742.0,137602.0,223819.0,274683.0,259881.0
2026-04-08 21:44:25.178563,180251,1609503837396942,1437363512,0.929152,-0.081984,-0.001952,-11.85625,-11.83,-36.98625,-24.792002,-1.856,-13.776001,concentric,4,3.0,18765.0,137510.0,223431.0,274278.0,259542.0
2026-04-08 21:44:25.181752,180252,1609503837411441,1437378413,0.894016,-0.099552,-0.072224,-9.6425,-10.49125,-39.99625,-24.568,-2.256,-13.64,concentric,4,3.0,18765.0,137510.0,223431.0,274278.0,259542.0
2026-04-08 21:44:25.183351,180253,1609503837420365,1437387103,0.894016,-0.099552,-0.072224,-6.30875,-9.91375,-42.175,-24.568,-2.256,-13.64,concentric,4,3.0,18765.0,137510.0,223431.0,274278.0,259542.0
2026-04-08 21:44:25.187430,180254,1609503837429368,1437395807,0.913536,-0.040992,-0.103456,-3.2375,-9.17,-43.49625,-24.032001,-2.0,-13.656001,concentric,4,3.0,18765.0,137510.0,223431.0,274278.0,259542.0
2026-04-08 21:44:25.216095,180255,1609503837443861,1437410680,0.913536,-0.040992,-0.103456,-1.96,-8.46125,-45.2725,-24.032001,-2.0,-13.656001,concentric,4,3.0,18765.0,137510.0,223431.0,274278.0,259542.0
2026-04-08 21:44:25.220456,180256,1609503837452765,1437419323,1.011136,-0.02928,-0.03904,-5.08375,-7.46375,-46.75125,-23.776001,-2.664,-13.904,concentric,4,3.0,18765.0,137510.0,223431.0,274278.0,259542.0
2026-04-08 21:44:25.224205,180257,1609503837467250,1437434202,1.011136,-0.02928,-0.03904,-10.9375,-7.1225,-47.78375,-23.776001,-2.664,-13.904,concentric,4,3.0,18765.0,137510.0,223431.0,274278.0,259542.0
2026-04-08 21:44:25.254518,180258,1609503837476168,1437442864,1.018944,-0.066368,-0.005856,-17.22,-7.76125,-49.16625,-23.840002,-2.816,-11.912001,concentric,4,3.0,18765.0,137510.0,223431.0,274278.0,259542.0
2026-04-08 21:44:25.256758,180259,1609503837490690,1437457773,0.903776,-0.070272,-0.07808,-20.7375,-8.0325,-51.7475,-23.136002,-2.928,-14.352,concentric,4,3.0,18765.0,137510.0,223431.0,274278.0,259542.0
2026-04-08 21:44:25.286357,180270,1609503837500104,1437466632,0.903776,-0.070272,-0.07808,-16.91375,-8.26875,-54.355,-23.136002,-2.928,-14.352,concentric,4,3.0,18856.0,137727.0,223551.0,274296.0,259499.0
2026-04-08 21:44:25.288075,180271,1609503837509155,1437475319,0.977952,-0.054656,-0.15616,-12.285,-9.52875,-54.94125,-22.968,-3.376,-14.056001,concentric,4,3.0,18856.0,137727.0,223551.0,274296.0,259499.0
2026-04-08 21:44:25.289718,180272,1609503837523772,1437490271,0.977952,-0.054656,-0.15616,-9.4325,-11.36625,-56.25375,-22.968,-3.376,-14.056001,concentric,4,3.0,18856.0,137727.0,223551.0,274296.0,259499.0
2026-04-08 21:44:25.293737,180273,1609503837532682,1437498929,1.01504,-0.011712,0.121024,-9.40625,-14.69125,-57.70625,-22.584002,-3.36,-14.032001,concentric,4,3.0,18856.0,137727.0,223551.0,274296.0,259499.0
2026-04-08 21:44:25.322363,180274,1609503837547199,1437513805,1.01504,-0.011712,0.121024,-11.40125,-16.66,-62.9125,-22.584002,-3.36,-14.032001,concentric,4,3.0,18856.0,137727.0,223551.0,274296.0,259499.0
2026-04-08 21:44:25.326740,180275,1609503837556140,1437522485,0.983808,-0.007808,0.007808,-9.8175,-17.15875,-66.745,-22.368002,-3.88,-14.688001,concentric,4,3.0,18856.0,137727.0,223551.0,274296.0,259499.0
2026-04-08 21:44:25.328359,180276,1609503837565083,1437531141,0.983808,-0.007808,0.007808,-9.89625,-18.50625,-61.83625,-22.368002,-3.88,-14.688001,concentric,4,3.0,18856.0,137727.0,223551.0,274296.0,259499.0
2026-04-08 21:44:25.359463,180277,1609503837579600,1437546023,1.022848,0.02928,-0.035136,-6.92125,-18.6375,-56.385002,-21.984001,-4.664,-15.080001,concentric,4,3.0,18856.0,137727.0,223551.0,274296.0,259499.0
2026-04-08 21:44:25.361802,180278,1609503837588558,1437554683,1.022848,0.02928,-0.035136,-7.2625,-17.82375,-57.041252,-21.984001,-4.664,-15.080001,concentric,4,3.0,18856.0,137727.0,223551.0,274296.0,259499.0
2026-04-08 21:44:25.391974,180289,1609503837603134,1437569634,0.977952,0.027328,-0.013664,-16.45,-18.82125,-59.6225,-21.248001,-4.808,-16.528,concentric,4,3.0,18952.0,138181.0,224148.0,274768.0,259803.0
2026-04-08 21:44:25.394634,180290,1609503837612079,1437578361,0.899872,0.017568,-0.001952,-24.36875,-20.58875,-58.135002,-21.216002,-5.184,-15.752001,concentric,4,3.0,18952.0,138181.0,224148.0,274768.0,259803.0
2026-04-08 21:44:25.429799,180291,1609503837626560,1437593254,0.899872,0.017568,-0.001952,-25.34,-20.51,-57.041252,-21.216002,-5.184,-15.752001,concentric,4,3.0,18952.0,138181.0,224148.0,274768.0,259803.0
2026-04-08 21:44:25.433344,180292,1609503837635563,1437601937,0.925248,0.007808,-0.091744,-22.98625,-20.772501,-56.6475,-20.968,-5.296001,-15.392001,concentric,4,3.0,18952.0,138181.0,224148.0,274768.0,259803.0
2026-04-08 21:44:25.435797,180293,1609503837644480,1437610601,0.925248,0.007808,-0.091744,-20.9825,-19.45125,-54.6175,-20.968,-5.296001,-15.392001,concentric,4,3.0,18952.0,138181.0,224148.0,274768.0,259803.0
2026-04-08 21:44:25.438341,180294,1609503837658956,1437625486,0.911584,0.05856,-0.111264,-21.02625,-18.57625,-52.5,-20.416,-5.8,-16.0,concentric,4,3.0,18952.0,138181.0,224148.0,274768.0,259803.0
2026-04-08 21:44:25.440804,180295,1609503837667898,1437634189,0.911584,0.05856,-0.111264,-22.3825,-18.305,-53.7425,-20.416,-5.8,-16.0,concentric,4,3.0,18952.0,138181.0,224148.0,274768.0,259803.0
2026-04-08 21:44:25.443292,180296,1609503837682368,1437649080,0.964288,0.035136,0.046848,-22.61,-18.585001,-55.11625,-20.104,-6.088,-15.944001,concentric,4,3.0,18952.0,138181.0,224148.0,274768.0,259803.0
2026-04-08 21:44:25.448344,180297,1609503837691311,1437657750,0.940864,0.031232,-0.203008,-23.40625,-18.64625,-53.45375,-19.904001,-5.888001,-16.968,concentric,4,3.0,18952.0,138181.0,224148.0,274768.0,259803.0
2026-04-08 21:44:25.482008,180308,1609503837705915,1437672744,0.940864,0.031232,-0.203008,-24.6575,-16.94,-52.59625,-19.904001,-5.888001,-16.968,concentric,4,3.0,19043.0,138288.0,223984.0,274438.0,259482.0
2026-04-08 21:44:25.484497,180309,1609503837714863,1437681439,0.931104,0.083936,-0.044896,-25.89125,-14.0175,-53.27,-19.488,-6.656,-15.424001,concentric,4,3.0,19043.0,138288.0,223984.0,274438.0,259482.0
2026-04-08 21:44:25.487052,180310,1609503837723789,1437690173,0.931104,0.083936,-0.044896,-24.8325,-10.823751,-54.5475,-19.488,-6.656,-15.424001,concentric,4,3.0,19043.0,138288.0,223984.0,274438.0,259482.0
2026-04-08 21:44:25.517170,180311,1609503837738294,1437705051,0.83936,0.080032,-0.152256,-20.90375,-10.26375,-53.5675,-19.096,-6.8,-15.216001,concentric,4,3.0,19043.0,138288.0,223984.0,274438.0,259482.0
2026-04-08 21:44:25.520770,180312,1609503837747265,1437713749,0.83936,0.080032,-0.152256,-19.17125,-9.59875,-51.51125,-19.096,-6.8,-15.216001,concentric,4,3.0,19043.0,138288.0,223984.0,274438.0,259482.0
2026-04-08 21:44:25.523322,180313,1609503837761736,1437728621,0.892064,0.093696,0.099552,-19.69625,-10.42125,-50.46125,-18.752,-7.296001,-16.480001,concentric,4,3.0,19043.0,138288.0,223984.0,274438.0,259482.0
2026-04-08 21:44:25.527037,180314,1609503837770681,1437737290,0.77104,0.128832,-0.13664,-20.36125,-10.9025,-46.515,-18.752,-7.2,-16.336,concentric,4,3.0,19043.0,138288.0,223984.0,274438.0,259482.0
2026-04-08 21:44:25.557176,180315,1609503837785134,1437752176,0.77104,0.128832,-0.13664,-18.38375,-8.9775,-44.44125,-18.552,-7.2,-16.336,concentric,4,3.0,19043.0,138288.0,223984.0,274438.0,259482.0
2026-04-08 21:44:25.560791,180316,1609503837794043,1437760819,0.827648,0.091744,-0.111264,-18.515,-6.83375,-44.135,-18.112001,-7.632,-16.712,concentric,4,3.0,19043.0,138288.0,223984.0,274438.0,259482.0
2026-04-08 21:44:25.592080,180327,1609503837803432,1437769993,0.827648,0.091744,-0.111264,-20.06375,-6.475,-43.12875,-18.112001,-7.632,-16.712,concentric,4,3.0,18994.0,138295.0,224059.0,274636.0,259698.0
2026-04-08 21:44:25.594573,180328,1609503837817993,1437784982,0.735904,0.12688,-0.158112,-18.8475,-5.41625,-40.8975,-17.984001,-7.472,-15.408001,concentric,4,3.0,18994.0,138295.0,224059.0,274636.0,259698.0
2026-04-08 21:44:25.597106,180329,1609503837827012,1437793710,0.735904,0.12688,-0.158112,-16.1175,-3.57875,-37.61625,-17.984001,-7.472,-15.408001,concentric,4,3.0,18994.0,138295.0,224059.0,274636.0,259698.0
2026-04-08 21:44:25.599556,180330,1609503837841507,1437808575,0.755424,0.173728,-0.037088,-15.26,-0.7875,-35.8925,-18.144001,-8.024,-14.776001,concentric,4,3.0,18994.0,138295.0,224059.0,274636.0,259698.0
2026-04-08 21:44:25.605764,180331,1609503837850458,1437817262,0.755424,0.173728,0.072224,-15.42625,2.275,-35.14875,-18.144001,-8.024,-14.776001,concentric,4,3.0,18994.0,138295.0,224059.0,274636.0,259698.0
2026-04-08 21:44:25.637123,180332,1609503837859477,1437825954,0.681248,0.18544,0.06832,-17.29,1.7325,-33.495,-17.976002,-7.76,-15.768001,concentric,4,3.0,18994.0,138295.0,224059.0,274636.0,259698.0
2026-04-08 21:44:25.639532,180333,1609503837873925,1437840814,0.66368,0.150304,-0.017568,-19.73125,0.63875,-31.56125,-17.416,-8.472,-16.616001,concentric,4,3.0,18994.0,138295.0,224059.0,274636.0,259698.0
2026-04-08 21:44:25.642106,180334,1609503837882833,1437849475,0.66368,0.150304,-0.017568,-17.08,0.27125,-29.96875,-17.416,-8.472,-16.616001,concentric,4,3.0,18994.0,138295.0,224059.0,274636.0,259698.0
2026-04-08 21:44:25.672252,180335,1609503837897289,1437864422,0.710528,0.16592,-0.052704,-13.20375,1.6625,-26.9325,-17.544,-8.216001,-15.696001,concentric,4,3.0,18994.0,138295.0,224059.0,274636.0,259698.0
2026-04-08 21:44:25.737997,180346,1609503837906368,1437873194,0.710528,0.16592,-0.052704,-14.67375,2.79125,-23.45875,-17.544,-8.216001,-15.696001,concentric,4,3.0,18966.0,138461.0,224467.0,275125.0,260114.0
2026-04-08 21:44:25.739595,180347,1609503837920864,1437886031,0.743712,0.210816,-0.035136,-19.64375,5.76625,-23.7475,-17.160002,-8.704,-16.624,concentric,4,3.0,18966.0,138461.0,224467.0,275125.0,260114.0
2026-04-08 21:44:25.743845,180348,1609503837930087,1437896782,0.743712,0.210816,-0.035136,-21.2275,10.35125,-23.80875,-17.160002,-8.704,-16.624,concentric,4,3.0,18966.0,138461.0,224467.0,275125.0,260114.0
2026-04-08 21:44:25.745552,180349,1609503837939089,1437905552,0.691008,0.216672,0.01952,-17.5,13.0025,-16.35375,-17.552,-8.536,-18.088001,concentric,4,3.0,18966.0,138461.0,224467.0,275125.0,260114.0
2026-04-08 21:44:25.747230,180350,1609503837953579,1437920415,0.708576,0.138592,-0.035136,-17.00125,11.29625,-8.70625,-17.320002,-9.176001,-18.424002,concentric,4,3.0,18966.0,138461.0,224467.0,275125.0,260114.0
2026-04-08 21:44:25.751329,180351,1609503837962487,1437929086,0.708576,0.138592,-0.035136,-22.6275,8.49625,-7.84875,-17.320002,-9.176001,-18.424002,concentric,4,3.0,18966.0,138461.0,224467.0,275125.0,260114.0
2026-04-08 21:44:25.753015,180352,1609503837976951,1437943930,0.792512,0.148352,0.064416,-29.4175,8.40875,-12.46875,-17.512001,-8.952001,-16.536001,concentric,4,3.0,18966.0,138461.0,224467.0,275125.0,260114.0
2026-04-08 21:44:25.754606,180353,1609503837985957,1437952647,0.792512,0.148352,0.064416,-26.705,11.73375,-12.88875,-17.512001,-8.952001,-16.536001,concentric,4,3.0,18966.0,138461.0,224467.0,275125.0,260114.0
2026-04-08 21:44:25.783039,180364,1609503838000444,1437967538,0.67344,0.275232,-0.08784,-17.5,15.26875,-6.5975,-17.424002,-9.008,-16.048,concentric,4,3.0,18976.0,138564.0,224652.0,275313.0,260287.0
2026-04-08 21:44:25.785775,180365,1609503838009424,1437976321,0.67344,0.275232,-0.08784,-9.8875,17.7625,-0.9975,-17.424002,-9.008,-16.048,concentric,4,3.0,18976.0,138564.0,224652.0,275313.0,260287.0
2026-04-08 21:44:25.791610,180366,1609503838018449,1437985061,0.69296,0.22448,0.101504,-10.08875,17.54375,1.68875,-17.776001,-9.264001,-15.976001,concentric,4,3.0,18976.0,138564.0,224652.0,275313.0,260287.0
2026-04-08 21:44:25.794385,180367,1609503838032978,1437999985,0.767136,0.1952,0.220576,-19.88875,14.70875,0.9275,-17.776001,-9.248,-15.712001,concentric,4,3.0,18976.0,138564.0,224652.0,275313.0,260287.0
2026-04-08 21:44:25.823297,180368,1609503838041887,1438008713,0.767136,0.1952,0.220576,-30.0475,11.935,-2.7125,-17.776001,-9.248,-15.712001,concentric,4,3.0,18976.0,138564.0,224652.0,275313.0,260287.0
2026-04-08 21:44:25.825459,180369,1609503838056364,1438021527,0.765184,0.222528,0.181536,-25.2,12.4775,-3.82375,-17.672,-9.152,-15.656001,concentric,4,3.0,18976.0,138564.0,224652.0,275313.0,260287.0
2026-04-08 21:44:25.830177,180370,1609503838065532,1438032257,0.765184,0.222528,0.181536,-9.765,12.145,1.18125,-17.672,-9.152,-15.656001,concentric,4,3.0,18976.0,138564.0,224652.0,275313.0,260287.0
2026-04-08 21:44:25.831697,180371,1609503838074415,1438040926,0.728096,0.259616,-0.08784,-1.9425,11.698751,5.88,-17.76,-9.080001,-17.072,concentric,4,3.0,18976.0,138564.0,224652.0,275313.0,260287.0
2026-04-08 21:44:25.876998,180372,1609503838088940,1438055783,0.728096,0.259616,-0.08784,-1.26,11.2175,5.69625,-17.76,-9.080001,-17.072,concentric,4,3.0,18976.0,138564.0,224652.0,275313.0,260287.0
