pc_time,serial_num,sensor_ts,host_ts,ax,ay,az,gx,gy,gz,mx,my,mz,phase,rpe,weight_kg,ppg_a,ppg_b,ppg_c,ppg_d,ppg_e
2026-04-07 17:48:48.478621,219877,1198843399,1198844931,-1.057984,-0.080032,-0.00976,2.94875,-1.9075,19.97625,35.432003,15.280001,30.504002,eccentric,4,3.0,19520.0,291836.0,263837.0,310928.0,274739.0
2026-04-07 17:48:48.481143,219878,1198852396,1198853693,-1.057984,-0.080032,-0.00976,2.8875,-2.7825,20.67625,35.432003,15.280001,30.504002,eccentric,4,3.0,19520.0,291836.0,263837.0,310928.0,274739.0
2026-04-07 17:48:48.482647,219879,1198866970,1198868641,-1.061888,-0.074176,0.02928,1.60125,-4.20875,21.2975,35.312,15.192,32.472,eccentric,4,3.0,19520.0,291836.0,263837.0,310928.0,274739.0
2026-04-07 17:48:48.486919,219880,1198875870,1198877340,-1.061888,-0.074176,0.02928,0.5775,-5.36375,22.82875,35.312,15.192,32.472,eccentric,4,3.0,19520.0,291836.0,263837.0,310928.0,274739.0
2026-04-07 17:48:48.488569,219881,1198884790,1198886058,-1.046272,-0.091744,-0.011712,0.79625,-5.67875,24.12375,35.968002,15.224001,32.376003,eccentric,4,3.0,19520.0,291836.0,263837.0,310928.0,274739.0
2026-04-07 17:48:48.518837,219882,1198893785,1198894793,-1.046272,-0.091744,-0.011712,-1.4875,-5.50375,26.01375,35.968002,15.224001,32.376003,eccentric,4,3.0,19520.0,291836.0,263837.0,310928.0,274739.0
2026-04-07 17:48:48.523303,219883,1198908297,1198909704,-1.00528,-0.080032,0.02928,-3.57875,-4.7425,25.725,36.104,15.240001,30.760002,eccentric,4,3.0,19520.0,291836.0,263837.0,310928.0,274739.0
2026-04-07 17:48:48.525753,219884,1198917292,1198918381,-1.00528,-0.080032,0.02928,-1.98625,-1.93375,26.29375,36.104,15.240001,30.760002,eccentric,4,3.0,19520.0,291836.0,263837.0,310928.0,274739.0
2026-04-07 17:48:48.528869,219885,1198926199,1198927075,-1.059936,0.017568,0.011712,0.88375,0.30625,27.69375,36.672,14.784,30.232002,eccentric,4,3.0,19520.0,291836.0,263837.0,310928.0,274739.0
2026-04-07 17:48:48.601423,219896,1198941191,1198941992,-1.050176,-0.015616,0.013664,0.48125,1.05875,26.97625,37.312,14.848001,30.720001,eccentric,4,3.0,19623.0,292490.0,264277.0,311163.0,274743.0
2026-04-07 17:48:48.603880,219897,1198950651,1198952800,-1.050176,-0.015616,0.013664,-2.415,1.04125,27.06375,37.312,14.848001,30.720001,eccentric,4,3.0,19623.0,292490.0,264277.0,311163.0,274743.0
2026-04-07 17:48:48.606418,219898,1198959579,1198961532,-0.99552,-0.132736,0.021472,-6.9475,0.84,27.405,37.312,14.576001,30.304,eccentric,4,3.0,19623.0,292490.0,264277.0,311163.0,274743.0
2026-04-07 17:48:48.608973,219899,1198968656,1198970264,-0.99552,-0.132736,0.021472,-12.18,1.30375,26.565,37.320004,14.576001,30.304,eccentric,4,3.0,19623.0,292490.0,264277.0,311163.0,274743.0
2026-04-07 17:48:48.611444,219900,1198983213,1198985196,-0.954528,-0.124928,0.0,-14.2275,2.82625,25.8125,37.416,14.64,32.832,eccentric,4,3.0,19623.0,292490.0,264277.0,311163.0,274743.0
2026-04-07 17:48:48.613919,219901,1198992160,1198993911,-0.954528,-0.124928,0.0,-11.10375,5.2325,26.53,37.416,14.64,32.832,eccentric,4,3.0,19623.0,292490.0,264277.0,311163.0,274743.0
2026-04-07 17:48:48.616372,219902,1199001136,1199002633,-0.999424,0.005856,-0.033184,-3.6225,8.79375,26.94125,38.752003,13.856001,30.736002,eccentric,4,3.0,19623.0,292490.0,264277.0,311163.0,274743.0
2026-04-07 17:48:48.618917,219903,1199015641,1199017547,-0.999424,0.005856,-0.033184,4.655,12.67,26.1975,38.752003,13.856001,30.736002,eccentric,4,3.0,19623.0,292490.0,264277.0,311163.0,274743.0
2026-04-07 17:48:48.649039,219904,1199024609,1199026247,-0.981856,0.040992,0.003904,8.855001,15.86375,25.2525,38.920002,13.880001,29.784002,eccentric,4,3.0,19623.0,292490.0,264277.0,311163.0,274743.0
2026-04-07 17:48:48.652619,219905,1199033541,1199034936,-0.981856,0.040992,0.003904,7.7875,18.50625,24.29875,38.920002,13.880001,29.784002,eccentric,4,3.0,19623.0,292490.0,264277.0,311163.0,274743.0
2026-04-07 17:48:48.681381,219915,1199048084,1199049901,-0.972096,-0.052704,0.042944,0.09625,21.6825,23.40625,39.528004,13.608001,29.920002,eccentric,4,3.0,19890.0,295149.0,266471.0,313526.0,276677.0
2026-04-07 17:48:48.683955,219916,1199057074,1199058663,-0.972096,-0.052704,0.042944,-9.1175,22.365,22.32125,39.528004,13.608001,29.920002,eccentric,4,3.0,19890.0,295149.0,266471.0,313526.0,276677.0
2026-04-07 17:48:48.686440,219917,1199066184,1199067366,-1.057984,-0.046848,-0.052704,-13.448751,21.98875,20.5625,38.256,13.008,31.760002,eccentric,4,3.0,19890.0,295149.0,266471.0,313526.0,276677.0
2026-04-07 17:48:48.688865,219918,1199075132,1199076067,-1.057984,-0.046848,-0.052704,-9.4675,20.8775,18.9,38.256,13.008,31.760002,eccentric,4,3.0,19890.0,295149.0,266471.0,313526.0,276677.0
2026-04-07 17:48:48.692621,219919,1199089642,1199090989,-1.065792,0.056608,-0.10736,2.52875,19.46875,16.73,38.448,12.896001,31.352001,eccentric,4,3.0,19890.0,295149.0,266471.0,313526.0,276677.0
2026-04-07 17:48:48.736572,219920,1199098573,1199099663,-1.065792,0.056608,-0.10736,11.095,18.38375,14.875,38.448,12.896001,31.352001,eccentric,4,3.0,19890.0,295149.0,266471.0,313526.0,276677.0
2026-04-07 17:48:48.740228,219921,1199107499,1199108344,-1.04432,0.023424,-0.0976,10.10625,17.045,11.935,39.728,13.736001,29.872002,eccentric,4,3.0,19890.0,295149.0,266471.0,313526.0,276677.0
2026-04-07 17:48:48.742764,219922,1199121980,1199123244,-1.081408,-0.00976,-0.035136,4.375,15.56625,10.0625,39.496002,13.024,30.032001,eccentric,4,3.0,19890.0,295149.0,266471.0,313526.0,276677.0
2026-04-07 17:48:48.745221,219923,1199130882,1199131962,-1.081408,-0.00976,-0.035136,1.295,15.82,10.5525,39.496002,13.024,30.032001,eccentric,4,3.0,19890.0,295149.0,266471.0,313526.0,276677.0
2026-04-07 17:48:48.751420,219924,1199139820,1199140642,-1.081408,-0.00976,-0.062464,-0.74375,16.4675,10.3425,39.496002,13.024,30.032001,eccentric,4,3.0,19890.0,295149.0,266471.0,313526.0,276677.0
2026-04-07 17:48:48.776393,219934,1199154424,1199155625,-1.1224,-0.035136,-0.062464,-4.66375,16.77375,8.44375,40.072002,13.032001,29.864002,eccentric,4,3.0,20038.0,297011.0,268269.0,315765.0,278612.0
2026-04-07 17:48:48.780741,219935,1199163328,1199164387,-1.104832,-0.013664,-0.10736,-4.61125,15.96875,7.5425,40.72,12.912001,31.080002,eccentric,4,3.0,20038.0,297011.0,268269.0,315765.0,278612.0
2026-04-07 17:48:48.782334,219936,1199172354,1199173164,-1.104832,-0.013664,-0.10736,0.48125,15.198751,7.39375,40.72,12.912001,31.080002,eccentric,4,3.0,20038.0,297011.0,268269.0,315765.0,278612.0
2026-04-07 17:48:48.785919,219937,1199181941,1199183971,-1.116544,0.066368,-0.052704,6.08125,14.44625,5.85375,40.624,12.192,31.136002,eccentric,4,3.0,20038.0,297011.0,268269.0,315765.0,278612.0
2026-04-07 17:48:48.816228,219938,1199196485,1199196819,-1.116544,0.066368,-0.052704,9.87875,13.4575,3.29875,40.624,12.192,31.136002,eccentric,4,3.0,20038.0,297011.0,268269.0,315765.0,278612.0
2026-04-07 17:48:48.820733,219939,1199205720,1199207575,-1.145824,0.044896,-0.099552,10.52625,13.230001,2.03,40.776,12.352,29.52,eccentric,4,3.0,20038.0,297011.0,268269.0,315765.0,278612.0
2026-04-07 17:48:48.822644,219940,1199214653,1199216315,-1.145824,0.044896,-0.099552,7.18375,13.1075,0.42875,40.776,12.352,29.52,eccentric,4,3.0,20038.0,297011.0,268269.0,315765.0,278612.0
2026-04-07 17:48:48.852636,219941,1199229188,1199231244,-1.052128,-0.081984,-0.089792,0.55125,12.80125,-1.6625,40.688004,12.000001,30.864002,eccentric,4,3.0,20038.0,297011.0,268269.0,315765.0,278612.0
2026-04-07 17:48:48.854992,219942,1199238103,1199239948,-1.052128,-0.081984,-0.089792,-3.07125,13.195,-3.10625,40.688004,12.000001,30.864002,eccentric,4,3.0,20038.0,297011.0,268269.0,315765.0,278612.0
2026-04-07 17:48:48.892544,219953,1199247075,1199248778,-1.089216,-0.021472,-0.062464,-0.21875,14.0175,-4.7775,40.56,12.536,29.728,eccentric,4,3.0,20218.0,299193.0,270374.0,318310.0,280844.0
2026-04-07 17:48:48.894024,219954,1199255986,1199257527,-1.089216,-0.021472,-0.062464,8.30375,15.4875,-5.075,40.56,12.536,29.728,eccentric,4,3.0,20218.0,299193.0,270374.0,318310.0,280844.0
2026-04-07 17:48:48.898481,219955,1199270496,1199272463,-1.14192,0.089792,-0.01952,14.3325,16.6075,-4.73375,41.08,12.648001,29.168001,eccentric,4,3.0,20218.0,299193.0,270374.0,318310.0,280844.0
2026-04-07 17:48:48.900874,219956,1199279427,1199281210,-1.14192,0.089792,-0.01952,15.88125,16.84375,-4.6725,41.08,12.648001,29.168001,eccentric,4,3.0,20218.0,299193.0,270374.0,318310.0,280844.0
2026-04-07 17:48:48.905014,219957,1199288357,1199289932,-1.038464,0.021472,-0.062464,9.63375,16.77375,-4.41,40.832,12.488001,31.992,eccentric,4,3.0,20218.0,299193.0,270374.0,318310.0,280844.0
2026-04-07 17:48:48.906510,219958,1199302928,1199305003,-1.071648,-0.03904,-0.076128,-1.63625,17.33375,-5.94125,40.128002,11.960001,32.920002,eccentric,4,3.0,20218.0,299193.0,270374.0,318310.0,280844.0
2026-04-07 17:48:48.936915,219959,1199311993,1199313758,-1.071648,-0.03904,-0.076128,-6.895,17.7625,-8.32125,40.128002,11.960001,32.920002,eccentric,4,3.0,20218.0,299193.0,270374.0,318310.0,280844.0
2026-04-07 17:48:48.940213,219960,1199320924,1199322444,-1.071648,0.070272,-0.074176,-2.3975,18.6375,-10.3425,40.128002,11.960001,26.776001,eccentric,4,3.0,20218.0,299193.0,270374.0,318310.0,280844.0
2026-04-07 17:48:48.942676,219961,1199335416,1199337338,-1.09312,0.070272,-0.074176,4.69,18.94375,-12.01375,41.064003,13.064001,28.240002,eccentric,4,3.0,20218.0,299193.0,270374.0,318310.0,280844.0
2026-04-07 17:48:48.971402,219971,1199344417,1199346191,-1.118496,0.093696,-0.083936,13.125,18.8825,-14.21875,41.288002,12.480001,29.2,eccentric,4,3.0,20241.0,299742.0,271159.0,319414.0,281863.0
2026-04-07 17:48:48.973871,219972,1199353458,1199354913,-1.118496,0.093696,-0.083936,20.0375,16.87,-13.9475,41.288002,12.480001,29.2,eccentric,4,3.0,20241.0,299742.0,271159.0,319414.0,281863.0
2026-04-07 17:48:48.976390,219973,1199362400,1199363593,-1.1224,0.035136,-0.124928,17.15,14.13125,-13.055,40.816,12.432,32.832,eccentric,4,3.0,20241.0,299742.0,271159.0,319414.0,281863.0
2026-04-07 17:48:48.978857,219974,1199376947,1199378538,-1.1224,0.035136,-0.124928,11.82125,11.4275,-13.67625,40.816,12.432,32.832,eccentric,4,3.0,20241.0,299742.0,271159.0,319414.0,281863.0
2026-04-07 17:48:49.035425,219975,1199385951,1199387298,-1.081408,0.054656,-0.095648,10.00125,10.115,-12.3375,40.736,12.480001,30.856,eccentric,4,3.0,20241.0,299742.0,271159.0,319414.0,281863.0
2026-04-07 17:48:49.038945,219976,1199394850,1199395996,-1.081408,0.054656,-0.095648,10.2375,11.1125,-12.1625,40.736,12.480001,30.856,eccentric,4,3.0,20241.0,299742.0,271159.0,319414.0,281863.0
2026-04-07 17:48:49.041455,219977,1199409320,1199410898,-1.09312,-0.003904,-0.093696,7.35,11.305,-12.775,41.656002,12.616,29.016,eccentric,4,3.0,20241.0,299742.0,271159.0,319414.0,281863.0
2026-04-07 17:48:49.043956,219978,1199418234,1199419574,-1.09312,-0.003904,-0.093696,1.33,10.2375,-11.0775,41.656002,12.616,29.016,eccentric,4,3.0,20241.0,299742.0,271159.0,319414.0,281863.0
2026-04-07 17:48:49.046419,219979,1199427141,1199428250,-1.15168,0.00976,-0.111264,2.835,8.6275,-7.525,41.72,12.344001,29.328001,eccentric,4,3.0,20241.0,299742.0,271159.0,319414.0,281863.0
2026-04-07 17:48:49.071467,219989,1199441638,1199443153,-1.081408,0.044896,-0.134688,8.54875,7.11375,-1.995,41.72,12.344001,31.752,eccentric,4,3.0,20628.0,303661.0,274521.0,323278.0,285175.0
2026-04-07 17:48:49.074030,219990,1199450639,1199451982,-1.081408,0.044896,-0.134688,8.61,5.53875,1.9075,41.528004,12.352,31.752,eccentric,4,3.0,20628.0,303661.0,274521.0,323278.0,285175.0
2026-04-07 17:48:49.076444,219991,1199459589,1199460674,-1.081408,0.044896,-0.134688,6.5625,3.5875,1.54,41.528004,12.352,31.752,eccentric,4,3.0,20628.0,303661.0,274521.0,323278.0,285175.0
2026-04-07 17:48:49.078829,219992,1199474053,1199475607,-1.061888,0.083936,-0.12688,7.49875,2.05625,1.98625,41.640003,12.568001,30.176,eccentric,4,3.0,20628.0,303661.0,274521.0,323278.0,285175.0
2026-04-07 17:48:49.109106,219993,1199482996,1199484367,-1.11264,0.111264,-0.081984,8.015,1.30375,4.57625,41.536003,12.672001,29.648,eccentric,4,3.0,20628.0,303661.0,274521.0,323278.0,285175.0
2026-04-07 17:48:49.112603,219994,1199491950,1199493086,-1.11264,0.111264,-0.081984,8.3475,0.455,4.515,41.536003,12.672001,29.648,eccentric,4,3.0,20628.0,303661.0,274521.0,323278.0,285175.0
2026-04-07 17:48:49.115187,219995,1199500868,1199501780,-1.11264,0.111264,-0.081984,11.97,0.245,3.35125,41.536003,12.672001,29.648,eccentric,4,3.0,20628.0,303661.0,274521.0,323278.0,285175.0
2026-04-07 17:48:49.117640,219996,1199515326,1199516709,-1.110688,0.128832,-0.10736,13.95625,0.56,2.66875,41.656002,11.984,29.928001,eccentric,4,3.0,20628.0,303661.0,274521.0,323278.0,285175.0
2026-04-07 17:48:49.147970,219997,1199524250,1199525397,-1.124352,0.115168,-0.08784,12.87125,1.05875,0.3325,41.504,11.960001,31.608002,eccentric,4,3.0,20628.0,303661.0,274521.0,323278.0,285175.0
2026-04-07 17:48:49.151481,219998,1199533169,1199534106,-1.124352,0.115168,-0.08784,12.17125,1.1725,-1.2775,41.504,11.960001,31.608002,eccentric,4,3.0,20628.0,303661.0,274521.0,323278.0,285175.0
2026-04-07 17:48:49.178872,220009,1199547791,1199549069,-1.188768,0.080032,-0.115168,7.77,1.21625,-2.40625,42.224003,11.744,29.824001,eccentric,4,3.0,20982.0,306762.0,277093.0,326051.0,287735.0
2026-04-07 17:48:49.181367,220010,1199556699,1199557792,-1.188768,0.080032,-0.115168,0.90125,-1.46125,-2.37125,42.224003,11.744,29.824001,eccentric,4,3.0,20982.0,306762.0,277093.0,326051.0,287735.0
2026-04-07 17:48:49.183935,220011,1199565628,1199566522,-1.18096,0.023424,-0.152256,-2.98375,-5.1625,-0.95375,42.344,12.016001,29.840002,eccentric,4,3.0,20982.0,306762.0,277093.0,326051.0,287735.0
2026-04-07 17:48:49.186423,220012,1199580119,1199581487,-1.18096,0.023424,-0.152256,-0.81375,-6.62375,1.1375,42.344,12.016001,29.840002,eccentric,4,3.0,20982.0,306762.0,277093.0,326051.0,287735.0
2026-04-07 17:48:49.227652,220013,1199589081,1199590235,-1.167296,0.037088,-0.193248,4.55875,-7.56,3.08875,42.912003,11.992001,30.672,eccentric,4,3.0,20982.0,306762.0,277093.0,326051.0,287735.0
2026-04-07 17:48:49.232402,220014,1199597979,1199598987,-1.167296,0.037088,-0.193248,9.12625,-8.28625,5.08375,42.912003,11.992001,30.672,eccentric,4,3.0,20982.0,306762.0,277093.0,326051.0,287735.0
2026-04-07 17:48:49.234032,220015,1199612454,1199613891,-1.194624,0.046848,-0.160064,11.34875,-9.3275,6.23,42.472,11.512,29.880001,eccentric,4,3.0,20982.0,306762.0,277093.0,326051.0,287735.0
2026-04-07 17:48:49.236040,220016,1199621388,1199622595,-1.194624,0.046848,-0.160064,14.00875,-10.36875,8.32125,42.472,11.512,29.880001,eccentric,4,3.0,20982.0,306762.0,277093.0,326051.0,287735.0
2026-04-07 17:48:49.237564,220017,1199630267,1199631350,-1.188768,0.042944,-0.103456,15.82,-11.6725,9.93125,43.096,11.992001,29.344002,eccentric,4,3.0,20982.0,306762.0,277093.0,326051.0,287735.0
2026-04-07 17:48:49.243009,220018,1199639213,1199640106,-1.188768,0.042944,-0.103456,16.70375,-12.5475,11.0775,43.096,11.992001,29.344002,eccentric,4,3.0,20982.0,306762.0,277093.0,326051.0,287735.0
2026-04-07 17:48:49.267357,220028,1199653865,1199655071,-1.139968,0.062464,-0.056608,16.2925,-12.775,12.67875,43.088,11.032001,31.848001,eccentric,4,3.0,21630.0,312744.0,281993.0,331479.0,292634.0
2026-04-07 17:48:49.268980,220029,1199662761,1199663816,-1.118496,0.064416,-0.037088,15.42625,-11.3925,12.145,43.088,11.032001,30.336002,eccentric,4,3.0,21630.0,312744.0,281993.0,331479.0,292634.0
2026-04-07 17:48:49.275540,220030,1199671738,1199672535,-1.118496,0.064416,-0.037088,12.915,-9.66,11.5675,43.840004,11.032001,30.336002,eccentric,4,3.0,21630.0,312744.0,281993.0,331479.0,292634.0
2026-04-07 17:48:49.337695,220031,1199686194,1199687471,-1.124352,0.066368,-0.060512,8.5225,-7.805,11.94375,43.208,10.536,30.800001,eccentric,4,3.0,21630.0,312744.0,281993.0,331479.0,292634.0
2026-04-07 17:48:49.340184,220032,1199695087,1199696178,-1.124352,0.066368,-0.060512,3.75375,-6.3525,12.81875,43.208,10.536,30.800001,eccentric,4,3.0,21630.0,312744.0,281993.0,331479.0,292634.0
2026-04-07 17:48:49.342663,220033,1199704005,1199704859,-1.126304,0.052704,-0.101504,1.95125,-5.0225,12.4775,43.608,10.160001,31.784002,eccentric,4,3.0,21630.0,312744.0,281993.0,331479.0,292634.0
2026-04-07 17:48:49.345133,220034,1199718491,1199719839,-1.126304,0.052704,-0.101504,2.49375,-4.585,11.75125,43.608,10.160001,31.784002,eccentric,4,3.0,21630.0,312744.0,281993.0,331479.0,292634.0
2026-04-07 17:48:49.347654,220035,1199727380,1199728520,-1.104832,0.042944,-0.150304,2.49375,-5.32875,10.43875,44.048,9.992001,30.864002,eccentric,4,3.0,21630.0,312744.0,281993.0,331479.0,292634.0
2026-04-07 17:48:49.350106,220036,1199736296,1199737213,-1.104832,0.042944,-0.150304,4.2525,-6.6675,8.575,44.048,9.992001,30.864002,eccentric,4,3.0,21630.0,312744.0,281993.0,331479.0,292634.0
2026-04-07 17:48:49.375104,220046,1199750829,1199752185,-1.085312,0.042944,-0.15616,9.21375,-8.77625,7.28,43.432003,10.112,30.736002,eccentric,4,3.0,22133.0,317176.0,285620.0,335457.0,295711.0
2026-04-07 17:48:49.377621,220047,1199759786,1199760918,-1.085312,0.042944,-0.15616,16.9225,-9.70375,5.8625,43.432003,10.112,30.736002,eccentric,4,3.0,22133.0,317176.0,285620.0,335457.0,295711.0
2026-04-07 17:48:49.380175,220048,1199768726,1199769645,-1.052128,0.11712,-0.095648,23.59875,-9.415,4.0775,43.432003,9.968,30.784002,eccentric,4,3.0,22133.0,317176.0,285620.0,335457.0,295711.0
2026-04-07 17:48:49.382729,220049,1199777670,1199778365,-1.052128,0.11712,-0.095648,25.366251,-9.205,1.295,43.432003,9.968,30.784002,eccentric,4,3.0,22133.0,317176.0,285620.0,335457.0,295711.0
2026-04-07 17:48:49.416657,220050,1199792541,1199793278,-1.077504,0.13664,-0.017568,22.82875,-9.42375,-2.4325,43.864002,9.832001,31.664001,eccentric,4,3.0,22133.0,317176.0,285620.0,335457.0,295711.0
2026-04-07 17:48:49.420120,220051,1199801925,1199803982,-1.077504,0.13664,-0.017568,17.5525,-8.96875,-5.39875,43.864002,9.832001,31.664001,eccentric,4,3.0,22133.0,317176.0,285620.0,335457.0,295711.0
2026-04-07 17:48:49.422610,220052,1199810861,1199812678,-1.163392,0.062464,-0.001952,12.9325,-9.511251,-7.06125,43.824,10.192,32.552002,eccentric,4,3.0,22133.0,317176.0,285620.0,335457.0,295711.0
2026-04-07 17:48:49.428878,220053,1199825382,1199827580,-1.147776,-0.013664,-0.132736,9.9225,-10.85875,-8.42625,43.808002,9.856001,31.664001,eccentric,4,3.0,22133.0,317176.0,285620.0,335457.0,295711.0
2026-04-07 17:48:49.459075,220054,1199834325,1199836298,-1.147776,-0.013664,-0.132736,10.31625,-11.9875,-8.5575,43.808002,9.856001,31.664001,eccentric,4,3.0,22133.0,317176.0,285620.0,335457.0,295711.0
2026-04-07 17:48:49.490132,220065,1199843271,1199845316,-1.085312,0.01952,-0.160064,15.417501,-11.7075,-7.3675,43.808002,9.856001,31.664001,eccentric,4,3.0,22398.0,319578.0,287445.0,337246.0,296910.0
2026-04-07 17:48:49.492636,220066,1199857820,1199858182,-1.079456,0.01952,-0.160064,22.46125,-9.6775,-7.63,44.168003,9.704,31.936,eccentric,4,3.0,22398.0,319578.0,287445.0,337246.0,296910.0
2026-04-07 17:48:49.495210,220067,1199867043,1199869041,-1.114592,0.105408,-0.093696,26.005,-6.83375,-7.91,44.320004,9.200001,32.688,eccentric,4,3.0,22398.0,319578.0,287445.0,337246.0,296910.0
2026-04-07 17:48:49.497616,220068,1199876196,1199877801,-1.114592,0.105408,-0.093696,23.52,-3.6925,-5.845,44.320004,9.200001,32.688,eccentric,4,3.0,22398.0,319578.0,287445.0,337246.0,296910.0
2026-04-07 17:48:49.500154,220069,1199885177,1199886489,-1.179008,0.070272,-0.001952,16.1,-0.86625,-3.4475,44.4,9.400001,30.352001,eccentric,4,3.0,22398.0,319578.0,287445.0,337246.0,296910.0
2026-04-07 17:48:49.502735,220070,1199899717,1199901450,-1.179008,0.070272,-0.001952,7.27125,0.86625,-1.25125,44.4,9.400001,30.352001,eccentric,4,3.0,22398.0,319578.0,287445.0,337246.0,296910.0
2026-04-07 17:48:49.511468,220071,1199908725,1199910255,-1.223904,-0.007808,-0.007808,-0.315,1.23375,1.14625,44.456,9.088,32.472,eccentric,4,3.0,22398.0,319578.0,287445.0,337246.0,296910.0
2026-04-07 17:48:49.541526,220072,1199917659,1199918957,-1.223904,-0.007808,-0.007808,-4.48,1.2075,3.71875,44.456,9.088,32.472,eccentric,4,3.0,22398.0,319578.0,287445.0,337246.0,296910.0
2026-04-07 17:48:49.545255,220073,1199932177,1199933853,-1.198528,-0.05856,-0.052704,-4.31375,1.40875,7.49,44.176003,9.200001,32.256,eccentric,4,3.0,22398.0,319578.0,287445.0,337246.0,296910.0
2026-04-07 17:48:49.547678,220074,1199941121,1199942629,-1.198528,-0.05856,-0.052704,-3.70125,1.30375,11.45375,44.176003,9.200001,32.256,eccentric,4,3.0,22398.0,319578.0,287445.0,337246.0,296910.0
2026-04-07 17:48:49.573699,220084,1199950224,1199951407,-1.169248,-0.109312,-0.13664,-5.0575,1.07625,14.35875,44.776,8.808001,32.616,eccentric,4,3.0,22835.0,323083.0,290145.0,340033.0,299035.0
2026-04-07 17:48:49.575249,220085,1199959195,1199960161,-1.169248,-0.109312,-0.13664,-3.73625,1.77625,16.905,44.776,8.808001,32.616,eccentric,4,3.0,22835.0,323083.0,290145.0,340033.0,299035.0
2026-04-07 17:48:49.579748,220086,1199973718,1199975051,-1.155584,-0.0488,-0.13664,1.89,3.00125,19.95875,44.664,8.56,33.608,eccentric,4,3.0,22835.0,323083.0,290145.0,340033.0,299035.0
2026-04-07 17:48:49.586752,220087,1199982663,1199983835,-1.155584,-0.0488,-0.13664,7.62125,3.5,21.67375,44.664,8.56,33.608,eccentric,4,3.0,22835.0,323083.0,290145.0,340033.0,299035.0
2026-04-07 17:48:49.635034,220088,1199991651,1199992530,-1.192672,0.066368,-0.072224,11.0075,3.82375,21.69125,44.816,7.848001,33.800003,eccentric,4,3.0,22835.0,323083.0,290145.0,340033.0,299035.0
2026-04-07 17:48:49.639459,220089,1200006148,1200007430,-1.177056,0.080032,-0.027328,11.3575,3.7625,21.35,44.896004,7.784,31.216002,eccentric,4,3.0,22835.0,323083.0,290145.0,340033.0,299035.0
2026-04-07 17:48:49.641113,220090,1200015048,1200016161,-1.177056,0.080032,-0.027328,6.9475,3.05375,20.13375,44.896004,7.784,31.216002,eccentric,4,3.0,22835.0,323083.0,290145.0,340033.0,299035.0
2026-04-07 17:48:49.642701,220091,1200023989,1200024853,-1.177056,0.017568,-0.033184,0.49875,3.24625,17.38625,44.896004,7.784,31.216002,eccentric,4,3.0,22835.0,323083.0,290145.0,340033.0,299035.0
2026-04-07 17:48:49.646248,220092,1200038607,1200039809,-1.204384,0.017568,-0.033184,-1.42625,2.80875,14.385,45.104004,7.712,33.016003,eccentric,4,3.0,22835.0,323083.0,290145.0,340033.0,299035.0
2026-04-07 17:48:49.676364,220102,1200047983,1200048627,-1.153632,-0.025376,-0.07808,-1.645,0.97125,13.41375,45.288002,7.32,33.832,eccentric,4,3.0,23123.0,325504.0,292110.0,342062.0,300766.0
2026-04-07 17:48:49.678911,220103,1200057333,1200059450,-1.153632,-0.025376,-0.07808,-2.80875,0.1925,12.88875,45.288002,7.32,33.832,eccentric,4,3.0,23123.0,325504.0,292110.0,342062.0,300766.0
2026-04-07 17:48:49.681543,220104,1200066403,1200068181,-1.1224,-0.031232,-0.089792,-4.6025,-0.1575,11.75125,45.136,7.480001,34.296,eccentric,4,3.0,23123.0,325504.0,292110.0,342062.0,300766.0
2026-04-07 17:48:49.683886,220105,1200081098,1200083129,-1.1224,-0.031232,-0.089792,-6.755,-0.2275,10.8325,45.136,7.480001,34.296,eccentric,4,3.0,23123.0,325504.0,292110.0,342062.0,300766.0
2026-04-07 17:48:49.714434,220106,1200090082,1200091846,-1.11264,-0.003904,-0.062464,-7.25375,0.70875,10.42125,45.816,7.712,32.4,eccentric,4,3.0,23123.0,325504.0,292110.0,342062.0,300766.0
2026-04-07 17:48:49.717648,220107,1200099021,1200100559,-1.11264,-0.003904,-0.062464,-5.88,1.88125,9.8875,45.816,7.712,32.4,eccentric,4,3.0,23123.0,325504.0,292110.0,342062.0,300766.0
2026-04-07 17:48:49.720113,220108,1200107942,1200109260,-1.11264,0.060512,-0.005856,-4.6725,3.00125,8.40875,45.704002,7.24,32.528,eccentric,4,3.0,23123.0,325504.0,292110.0,342062.0,300766.0
2026-04-07 17:48:49.725217,220109,1200122477,1200124250,-1.11264,0.060512,-0.005856,-6.5975,4.85625,7.00875,45.704002,7.24,32.528,eccentric,4,3.0,23123.0,325504.0,292110.0,342062.0,300766.0
2026-04-07 17:48:49.755293,220110,1200131479,1200132986,-1.110688,0.083936,-0.003904,-11.6025,6.1775,4.41875,44.288002,6.592001,35.472,eccentric,4,3.0,23123.0,325504.0,292110.0,342062.0,300766.0
2026-04-07 17:48:49.758944,220111,1200140461,1200141672,-1.110688,0.083936,-0.003904,-19.18,5.985,1.9775,44.288002,6.592001,35.472,eccentric,4,3.0,23123.0,325504.0,292110.0,342062.0,300766.0
2026-04-07 17:48:49.794758,220122,1200155500,1200156741,-1.134112,0.00976,-0.081984,-26.285,5.53,0.53375,45.304,7.328001,32.192,eccentric,4,3.0,23478.0,328558.0,294708.0,344889.0,303193.0
2026-04-07 17:48:49.795126,220123,1200164482,1200165532,-1.134112,0.00976,-0.12688,-29.86375,4.34875,-0.65625,45.304,7.328001,32.192,eccentric,4,3.0,23478.0,328558.0,294708.0,344889.0,303193.0
2026-04-07 17:48:49.797579,220124,1200173527,1200174246,-1.087264,-0.066368,-0.12688,-27.685,2.96625,-1.995,45.840004,7.256001,34.832,eccentric,4,3.0,23478.0,328558.0,294708.0,344889.0,303193.0
2026-04-07 17:48:49.800126,220125,1200182896,1200185039,-1.087264,-0.066368,-0.12688,-20.62375,2.75625,-2.625,45.840004,7.256001,34.832,eccentric,4,3.0,23478.0,328558.0,294708.0,344889.0,303193.0
2026-04-07 17:48:49.802679,220126,1200197462,1200197898,-1.09312,-0.015616,-0.13664,-13.02875,3.92875,-3.36875,45.312,7.08,29.336,eccentric,4,3.0,23478.0,328558.0,294708.0,344889.0,303193.0
2026-04-07 17:48:49.832804,220127,1200206907,1200208682,-1.085312,0.03904,-0.083936,-9.948751,4.73375,-3.63125,46.312004,6.976,33.568,eccentric,4,3.0,23478.0,328558.0,294708.0,344889.0,303193.0
2026-04-07 17:48:49.836433,220128,1200215847,1200217371,-1.085312,0.03904,-0.083936,-10.49125,5.17125,-3.99,46.312004,6.976,33.568,eccentric,4,3.0,23478.0,328558.0,294708.0,344889.0,303193.0
2026-04-07 17:48:49.838869,220129,1200230347,1200232280,-1.108736,0.023424,-0.01952,-13.011251,5.01375,-5.355,46.376003,7.264,31.456001,eccentric,4,3.0,23478.0,328558.0,294708.0,344889.0,303193.0
2026-04-07 17:48:49.841416,220130,1200239281,1200241017,-1.108736,0.023424,-0.01952,-13.7375,6.3175,-7.16625,46.376003,7.264,31.456001,eccentric,4,3.0,23478.0,328558.0,294708.0,344889.0,303193.0
2026-04-07 17:48:49.876087,220140,1200248292,1200249732,-1.145824,-0.003904,-0.062464,-13.72,6.09875,-9.4325,45.552002,6.768,33.048,eccentric,4,3.0,23050.0,324557.0,291366.0,341107.0,299952.0
2026-04-07 17:48:49.879274,220141,1200257407,1200258541,-1.145824,-0.003904,-0.062464,-13.29125,5.43375,-10.52625,45.552002,6.768,33.048,eccentric,4,3.0,23050.0,324557.0,291366.0,341107.0,299952.0
2026-04-07 17:48:49.881445,220142,1200271970,1200273511,-1.098976,-0.031232,-0.101504,-12.18875,4.8475,-11.585,45.248,7.016,32.832,eccentric,4,3.0,23050.0,324557.0,291366.0,341107.0,299952.0
2026-04-07 17:48:49.883549,220143,1200280957,1200282220,-1.098976,-0.031232,-0.101504,-10.01875,5.355,-12.74,45.248,7.016,32.832,eccentric,4,3.0,23050.0,324557.0,291366.0,341107.0,299952.0
2026-04-07 17:48:49.890407,220144,1200289885,1200290969,-1.095072,-0.017568,-0.11712,-8.79375,6.195,-13.90375,45.528004,7.16,30.848001,eccentric,4,3.0,23050.0,324557.0,291366.0,341107.0,299952.0
2026-04-07 17:48:49.924153,220145,1200304400,1200305876,-1.095072,-0.017568,-0.11712,-6.9125,6.895,-15.4,45.528004,7.16,30.848001,eccentric,4,3.0,23050.0,324557.0,291366.0,341107.0,299952.0
2026-04-07 17:48:49.926451,220146,1200313308,1200314549,-1.134112,0.017568,-0.074176,-5.95,8.2075,-17.33375,45.448,7.472,29.488,eccentric,4,3.0,23050.0,324557.0,291366.0,341107.0,299952.0
2026-04-07 17:48:49.928457,220147,1200322193,1200323262,-1.134112,0.017568,-0.074176,-6.0025,8.44375,-18.31375,45.448,7.472,29.488,eccentric,4,3.0,23050.0,324557.0,291366.0,341107.0,299952.0
2026-04-07 17:48:49.959989,220148,1200336734,1200338269,-1.14192,0.021472,-0.0488,-6.5975,8.77625,-20.39625,45.712,7.744,31.096,eccentric,4,3.0,23050.0,324557.0,291366.0,341107.0,299952.0
2026-04-07 17:48:49.962485,220149,1200345651,1200346983,-1.110688,-0.003904,-0.062464,-6.27375,8.86375,-22.19,45.712,7.744,31.184002,eccentric,4,3.0,23050.0,324557.0,291366.0,341107.0,299952.0
2026-04-07 17:48:49.990113,220159,1200354626,1200355699,-1.114592,-0.003904,-0.062464,-6.335,8.9075,-24.605,46.120003,7.696001,31.184002,eccentric,4,3.0,22572.0,320284.0,287750.0,337012.0,296406.0
2026-04-07 17:48:49.993628,220160,1200369115,1200370656,-1.139968,0.011712,-0.052704,-7.39375,9.37125,-26.94125,44.448,7.704001,33.464,eccentric,4,3.0,22572.0,320284.0,287750.0,337012.0,296406.0
2026-04-07 17:48:49.995282,220161,1200378059,1200379380,-1.139968,0.011712,-0.052704,-7.63,9.19625,-28.56,44.448,7.704001,33.464,eccentric,4,3.0,22572.0,320284.0,287750.0,337012.0,296406.0
2026-04-07 17:48:49.998825,220162,1200386986,1200388114,-1.10288,-0.015616,-0.080032,-6.83375,8.67125,-28.83125,44.576,8.6,30.608002,eccentric,4,3.0,22572.0,320284.0,287750.0,337012.0,296406.0
2026-04-07 17:48:50.000961,220163,1200395916,1200396869,-1.10288,-0.015616,-0.080032,-7.09625,8.4875,-30.24875,44.576,8.6,30.608002,eccentric,4,3.0,22572.0,320284.0,287750.0,337012.0,296406.0
2026-04-07 17:48:50.033526,220164,1200410403,1200411795,-1.100928,0.011712,-0.101504,-5.9675,8.26,-31.5525,44.24,9.128,30.44,eccentric,4,3.0,22572.0,320284.0,287750.0,337012.0,296406.0
2026-04-07 17:48:50.034957,220165,1200419306,1200420464,-1.100928,0.011712,-0.101504,-3.73625,9.49375,-33.95,44.24,9.128,30.44,eccentric,4,3.0,22572.0,320284.0,287750.0,337012.0,296406.0
2026-04-07 17:48:50.037238,220166,1200428191,1200429166,-1.149728,0.025376,-0.101504,-2.7125,10.8325,-37.1,44.584003,9.408,30.600002,eccentric,4,3.0,22572.0,320284.0,287750.0,337012.0,296406.0
2026-04-07 17:48:50.067590,220167,1200442719,1200444072,-1.149728,0.025376,-0.101504,-2.9225,10.84125,-38.6575,44.584003,9.408,30.600002,eccentric,4,3.0,22572.0,320284.0,287750.0,337012.0,296406.0
2026-04-07 17:48:50.096121,220178,1200451756,1200452798,-1.136064,0.025376,-0.062464,-2.87,11.3575,-39.8825,44.208004,9.488001,30.592001,eccentric,4,3.0,22358.0,318056.0,285735.0,334620.0,294413.0
2026-04-07 17:48:50.097683,220179,1200460711,1200461533,-1.136064,0.025376,-0.062464,-4.1125,12.18875,-40.3025,44.208004,9.488001,30.592001,eccentric,4,3.0,22358.0,318056.0,285735.0,334620.0,294413.0
2026-04-07 17:48:50.104835,220180,1200475174,1200476522,-1.165344,-0.056608,-0.085888,-7.72625,12.95875,-40.6175,43.824,9.968,30.312002,eccentric,4,3.0,22358.0,318056.0,285735.0,334620.0,294413.0
2026-04-07 17:48:50.106296,220181,1200484163,1200485268,-1.165344,-0.056608,-0.085888,-11.0075,13.4225,-40.1975,43.824,9.968,30.312002,eccentric,4,3.0,22358.0,318056.0,285735.0,334620.0,294413.0
2026-04-07 17:48:50.107955,220182,1200493097,1200493988,-1.169248,-0.103456,-0.128832,-10.045,13.5275,-38.3075,44.304,10.232,29.776001,eccentric,4,3.0,22358.0,318056.0,285735.0,334620.0,294413.0
2026-04-07 17:48:50.112413,220183,1200507559,1200508981,-1.163392,-0.074176,-0.152256,-4.865,13.36125,-37.45,43.36,10.912001,30.528002,eccentric,4,3.0,22358.0,318056.0,285735.0,334620.0,294413.0
2026-04-07 17:48:50.141668,220184,1200516495,1200517730,-1.163392,-0.074176,-0.152256,0.9975,13.51,-37.02125,43.36,10.912001,30.528002,eccentric,4,3.0,22358.0,318056.0,285735.0,334620.0,294413.0
2026-04-07 17:48:50.145127,220185,1200525401,1200526483,-1.163392,-0.074176,-0.152256,6.58875,13.405,-36.2075,43.36,10.912001,30.528002,eccentric,4,3.0,22358.0,318056.0,285735.0,334620.0,294413.0
2026-04-07 17:48:50.147759,220186,1200534322,1200535193,-1.130208,-0.02928,-0.122976,11.1125,13.448751,-35.97125,43.048,10.632001,30.344002,eccentric,4,3.0,22358.0,318056.0,285735.0,334620.0,294413.0
2026-04-07 17:48:50.176360,220196,1200548868,1200550209,-1.153632,-0.042944,-0.080032,10.91125,13.877501,-35.6825,42.224003,10.656,31.840002,eccentric,4,3.0,21896.0,313792.0,282136.0,330682.0,291075.0
2026-04-07 17:48:50.178844,220197,1200557918,1200558997,-1.153632,-0.042944,-0.080032,7.4725,14.735,-35.30625,42.224003,10.656,31.840002,eccentric,4,3.0,21896.0,313792.0,282136.0,330682.0,291075.0
2026-04-07 17:48:50.181317,220198,1200566850,1200567755,-1.136064,-0.076128,-0.081984,4.1825,14.35875,-34.51,42.224003,11.128,32.480003,eccentric,4,3.0,21896.0,313792.0,282136.0,330682.0,291075.0
2026-04-07 17:48:50.185034,220199,1200581364,1200582706,-1.136064,-0.076128,-0.081984,2.905,14.945,-33.3025,41.936,11.128,32.480003,concentric,4,3.0,21896.0,313792.0,282136.0,330682.0,291075.0
2026-04-07 17:48:50.214189,220200,1200590307,1200591433,-1.114592,-0.07808,-0.105408,2.72125,16.17,-32.865,42.032,11.672001,28.928001,concentric,4,3.0,21896.0,313792.0,282136.0,330682.0,291075.0
2026-04-07 17:48:50.217658,220201,1200599217,1200600183,-1.114592,-0.07808,-0.105408,3.87625,16.73875,-33.15375,42.032,11.672001,28.928001,concentric,4,3.0,21896.0,313792.0,282136.0,330682.0,291075.0
2026-04-07 17:48:50.220083,220202,1200613674,1200615095,-1.136064,-0.095648,-0.124928,5.36375,16.96625,-32.69875,42.008003,11.952001,29.976002,concentric,4,3.0,21896.0,313792.0,282136.0,330682.0,291075.0
2026-04-07 17:48:50.225277,220203,1200622589,1200623790,-1.136064,-0.095648,-0.124928,6.13375,16.9575,-31.1325,42.008003,11.952001,29.976002,concentric,4,3.0,21896.0,313792.0,282136.0,330682.0,291075.0
2026-04-07 17:48:50.255357,220204,1200631509,1200632491,-1.100928,-0.07808,-0.138592,7.69125,16.135,-30.135,42.408,12.68,29.672,concentric,4,3.0,21896.0,313792.0,282136.0,330682.0,291075.0
2026-04-07 17:48:50.258882,220205,1200645952,1200647375,-1.100928,-0.07808,-0.138592,10.167501,15.46125,-30.205,42.408,12.68,29.672,concentric,4,3.0,21896.0,313792.0,282136.0,330682.0,291075.0
2026-04-07 17:48:50.283924,220215,1200654996,1200656134,-1.108736,-0.062464,-0.08784,11.82125,15.75875,-30.17,41.704002,12.72,28.024002,concentric,4,3.0,21001.0,305963.0,275743.0,323793.0,285764.0
2026-04-07 17:48:50.286442,220216,1200663925,1200664868,-1.108736,-0.062464,-0.08784,12.775,15.21625,-30.0475,41.704002,12.72,28.024002,concentric,4,3.0,21001.0,305963.0,275743.0,323793.0,285764.0
2026-04-07 17:48:50.288881,220217,1200673017,1200673596,-1.114592,-0.056608,-0.093696,10.84125,14.665,-29.33,41.632004,13.408001,29.608002,concentric,4,3.0,21001.0,305963.0,275743.0,323793.0,285764.0
2026-04-07 17:48:50.291472,220218,1200687781,1200688599,-1.1224,-0.040992,-0.103456,8.95125,14.6825,-29.11125,40.848003,13.200001,29.304,concentric,4,3.0,21001.0,305963.0,275743.0,323793.0,285764.0
2026-04-07 17:48:50.298883,220219,1200696769,1200697336,-1.1224,-0.040992,-0.103456,8.23375,15.4875,-29.4875,40.848003,13.200001,29.304,concentric,4,3.0,21001.0,305963.0,275743.0,323793.0,285764.0
2026-04-07 17:48:50.330201,220220,1200705945,1200708105,-1.1224,-0.040992,-0.103456,7.665,17.4125,-29.8725,40.848003,13.200001,29.304,concentric,4,3.0,21001.0,305963.0,275743.0,323793.0,285764.0
2026-04-07 17:48:50.332628,220221,1200720409,1200720933,-1.155584,-0.095648,-0.076128,5.4775,17.68375,-29.365,40.68,13.408001,29.024002,concentric,4,3.0,21001.0,305963.0,275743.0,323793.0,285764.0
2026-04-07 17:48:50.335139,220222,1200729783,1200731647,-1.14192,-0.08784,-0.122976,3.56125,16.0825,-27.93,40.352,13.64,29.792002,concentric,4,3.0,21001.0,305963.0,275743.0,323793.0,285764.0
2026-04-07 17:48:50.341382,220223,1200738753,1200740364,-1.14192,-0.08784,-0.122976,4.89125,14.77875,-27.51,40.352,13.64,29.792002,concentric,4,3.0,21001.0,305963.0,275743.0,323793.0,285764.0
2026-04-07 17:48:50.372723,220224,1200747782,1200749107,-1.136064,-0.005856,-0.148352,7.95375,13.895,-28.9275,40.352,14.120001,30.016,concentric,4,3.0,21001.0,305963.0,275743.0,323793.0,285764.0
2026-04-07 17:48:50.400140,220235,1200762330,1200764010,-1.136064,-0.005856,-0.148352,11.6375,14.56,-29.5925,40.808002,14.120001,30.016,concentric,4,3.0,20058.0,297600.0,268963.0,316601.0,279314.0
2026-04-07 17:48:50.402713,220236,1200771266,1200772697,-1.167296,0.0,-0.113216,11.97875,14.9625,-31.21125,40.08,14.472001,29.112001,concentric,4,3.0,20058.0,297600.0,268963.0,316601.0,279314.0
2026-04-07 17:48:50.405136,220237,1200780211,1200781500,-1.167296,0.0,-0.113216,9.0825,15.67125,-32.76,40.08,14.472001,29.112001,concentric,4,3.0,20058.0,297600.0,268963.0,316601.0,279314.0
2026-04-07 17:48:50.407656,220238,1200794732,1200796439,-1.21024,-0.11712,-0.076128,5.39875,15.53125,-33.11,39.216003,14.272,30.976002,concentric,4,3.0,20058.0,297600.0,268963.0,316601.0,279314.0
2026-04-07 17:48:50.410129,220239,1200803681,1200805213,-1.21024,-0.11712,-0.076128,4.24375,13.09,-32.27,39.216003,14.272,30.976002,concentric,4,3.0,20058.0,297600.0,268963.0,316601.0,279314.0
2026-04-07 17:48:50.415170,220240,1200812669,1200813933,-1.159488,-0.122976,-0.128832,6.7375,11.90875,-31.5,38.320004,13.832001,31.152002,concentric,4,3.0,20058.0,297600.0,268963.0,316601.0,279314.0
2026-04-07 17:48:50.446571,220241,1200827165,1200829298,-1.159488,-0.122976,-0.128832,11.36625,11.41,-30.19625,38.320004,13.832001,31.152002,concentric,4,3.0,20058.0,297600.0,268963.0,316601.0,279314.0
2026-04-07 17:48:50.448912,220242,1200836073,1200837986,-1.153632,-0.091744,-0.13664,13.34375,11.7775,-29.44375,39.016003,15.384001,29.448002,concentric,4,3.0,20058.0,297600.0,268963.0,316601.0,279314.0
2026-04-07 17:48:50.451394,220243,1200844995,1200846684,-1.153632,-0.091744,-0.13664,12.136251,13.34375,-26.88875,39.016003,15.384001,29.448002,concentric,4,3.0,20058.0,297600.0,268963.0,316601.0,279314.0
2026-04-07 17:48:50.510204,220253,1200854291,1200855468,-1.1712,-0.081984,-0.07808,10.5,13.02875,-22.91625,38.344,15.024001,29.168001,concentric,4,3.0,19628.0,293857.0,266014.0,313684.0,276997.0
2026-04-07 17:48:50.513638,220254,1200868830,1200870434,-1.15168,-0.101504,-0.101504,8.14625,11.865,-19.64375,37.960003,15.016001,30.736002,concentric,4,3.0,19628.0,293857.0,266014.0,313684.0,276997.0
2026-04-07 17:48:50.515146,220255,1200877746,1200879137,-1.15168,-0.101504,-0.101504,4.445,10.71875,-17.5175,37.960003,15.016001,30.736002,concentric,4,3.0,19628.0,293857.0,266014.0,313684.0,276997.0
2026-04-07 17:48:50.521397,220256,1200886709,1200887808,-1.15168,-0.101504,-0.101504,4.08625,9.0825,-15.49625,37.960003,15.016001,30.736002,concentric,4,3.0,19628.0,293857.0,266014.0,313684.0,276997.0
2026-04-07 17:48:50.524002,220257,1200901199,1200902697,-1.173152,-0.081984,-0.144448,7.595,8.8375,-14.315001,38.136,15.56,29.592001,concentric,4,3.0,19628.0,293857.0,266014.0,313684.0,276997.0
2026-04-07 17:48:50.526391,220258,1200910130,1200911451,-1.188768,-0.072224,-0.119072,10.2025,8.54875,-12.845,38.656002,15.568001,29.304,concentric,4,3.0,19628.0,293857.0,266014.0,313684.0,276997.0
2026-04-07 17:48:50.528890,220259,1200919137,1200920256,-1.188768,-0.072224,-0.119072,11.4975,7.67375,-10.7275,38.656002,15.568001,29.304,concentric,4,3.0,19628.0,293857.0,266014.0,313684.0,276997.0
2026-04-07 17:48:50.559050,220260,1200933714,1200935182,-1.192672,-0.062464,-0.095648,10.815,6.53625,-9.4325,37.344,15.568001,32.304,concentric,4,3.0,19628.0,293857.0,266014.0,313684.0,276997.0
2026-04-07 17:48:50.562632,220261,1200942665,1200943880,-1.192672,-0.062464,-0.095648,9.89625,6.23875,-7.595,37.344,15.568001,32.304,concentric,4,3.0,19628.0,293857.0,266014.0,313684.0,276997.0
2026-04-07 17:48:50.589499,220271,1200951933,1200952525,-1.192672,-0.105408,-0.091744,8.39125,5.59125,-6.76375,38.296,16.424002,29.592001,concentric,4,3.0,19359.0,291369.0,264089.0,311881.0,275936.0
2026-04-07 17:48:50.593181,220272,1200961133,1200961526,-1.192672,-0.105408,-0.091744,5.22375,4.3575,-6.4225,38.296,16.424002,29.592001,concentric,4,3.0,19359.0,291369.0,264089.0,311881.0,275936.0
2026-04-07 17:48:50.593896,220273,1200976074,1200976493,-1.163392,-0.056608,-0.121024,2.47625,2.905,-5.50375,37.992,15.648001,32.176003,concentric,4,3.0,19359.0,291369.0,264089.0,311881.0,275936.0
2026-04-07 17:48:50.596904,220274,1200985442,1200987392,-1.163392,-0.056608,-0.121024,3.33375,2.24,-5.50375,37.992,15.648001,32.176003,concentric,4,3.0,19359.0,291369.0,264089.0,311881.0,275936.0
2026-04-07 17:48:50.599318,220275,1200994461,1200996104,-1.216096,-0.035136,-0.144448,6.16,1.2425,-5.2675,37.664,15.896001,29.256,concentric,4,3.0,19359.0,291369.0,264089.0,311881.0,275936.0
2026-04-07 17:48:50.611863,220276,1201004132,1201005620,-1.216096,-0.035136,-0.144448,7.665,-0.5075,-3.12375,37.664,15.896001,29.256,concentric,4,3.0,19359.0,291369.0,264089.0,311881.0,275936.0
2026-04-07 17:48:50.640362,220277,1201018651,1201020522,-1.182912,-0.050752,-0.12688,5.39,-2.8,-3.26375,37.504,15.736001,30.016,concentric,4,3.0,19359.0,291369.0,264089.0,311881.0,275936.0
2026-04-07 17:48:50.648175,220278,1201027580,1201029172,-1.182912,-0.050752,-0.12688,5.88875,-5.6,-4.69875,37.504,15.736001,30.016,concentric,4,3.0,19359.0,291369.0,264089.0,311881.0,275936.0
2026-04-07 17:48:50.650597,220279,1201036573,1201037866,-1.110688,-0.06832,-0.111264,6.3,-7.6475,-4.29625,37.256,16.224,29.408,concentric,4,3.0,19359.0,291369.0,264089.0,311881.0,275936.0
2026-04-07 17:48:50.660600,220280,1201045489,1201046578,-1.110688,-0.06832,-0.111264,4.50625,-8.72375,-5.775,37.256,16.224,29.408,concentric,4,3.0,19359.0,291369.0,264089.0,311881.0,275936.0
2026-04-07 17:48:50.707772,220291,1201060536,1201061598,-1.1224,-0.021472,-0.05856,3.115,-7.805,-6.44875,36.848003,15.632001,31.880001,concentric,4,3.0,19094.0,288880.0,262075.0,309810.0,274553.0
2026-04-07 17:48:50.712131,220292,1201069523,1201070341,-1.169248,-0.021472,-0.105408,3.99875,-6.65,-7.07,36.872,16.632,29.696001,concentric,4,3.0,19094.0,288880.0,262075.0,309810.0,274553.0
2026-04-07 17:48:50.718209,220293,1201078434,1201079102,-1.169248,-0.021472,-0.105408,3.675,-7.41125,-8.67125,36.872,16.632,29.696001,concentric,4,3.0,19094.0,288880.0,262075.0,309810.0,274553.0
2026-04-07 17:48:50.719895,220294,1201093417,1201094098,-1.136064,-0.064416,-0.121024,1.0675,-8.58375,-7.6475,36.528,15.832001,31.528002,concentric,4,3.0,19094.0,288880.0,262075.0,309810.0,274553.0
2026-04-07 17:48:50.721483,220295,1201102867,1201104873,-1.136064,-0.064416,-0.121024,-0.98875,-9.695,-8.68875,36.528,15.832001,31.528002,concentric,4,3.0,19094.0,288880.0,262075.0,309810.0,274553.0
2026-04-07 17:48:50.725701,220296,1201111808,1201113580,-1.13216,-0.06832,-0.103456,0.4025,-11.31375,-10.10625,36.272003,15.328001,31.992,concentric,4,3.0,19094.0,288880.0,262075.0,309810.0,274553.0
2026-04-07 17:48:50.727369,220297,1201120755,1201122288,-1.13216,-0.06832,-0.103456,2.52,-12.792501,-10.7625,36.272003,15.328001,31.992,concentric,4,3.0,19094.0,288880.0,262075.0,309810.0,274553.0
2026-04-07 17:48:50.757673,220298,1201135246,1201137252,-1.098976,-0.031232,-0.066368,2.0475,-13.67625,-12.20625,35.544003,15.496,32.440002,concentric,4,3.0,19094.0,288880.0,262075.0,309810.0,274553.0
2026-04-07 17:48:50.759807,220299,1201144155,1201145977,-1.098976,-0.031232,-0.066368,0.65625,-13.0025,-13.230001,35.544003,15.496,32.440002,concentric,4,3.0,19094.0,288880.0,262075.0,309810.0,274553.0
2026-04-07 17:48:50.785213,220309,1201153150,1201154734,-1.163392,0.027328,-0.122976,3.29,-12.29375,-13.15125,35.592003,15.752001,34.616,concentric,4,3.0,18805.0,286269.0,260173.0,308221.0,273732.0
2026-04-07 17:48:50.789412,220310,1201167766,1201169752,-1.163392,0.027328,-0.122976,8.6975,-10.3425,-10.56125,35.592003,15.752001,34.616,concentric,4,3.0,18805.0,286269.0,260173.0,308221.0,273732.0
2026-04-07 17:48:50.791193,220311,1201176811,1201178510,-1.16144,-0.046848,-0.003904,14.1925,-7.9975,-11.375,35.72,16.112001,34.096,concentric,4,3.0,18805.0,286269.0,260173.0,308221.0,273732.0
2026-04-07 17:48:50.792683,220312,1201185750,1201187227,-1.16144,-0.046848,-0.003904,15.14625,-7.3325,-15.05,35.72,16.112001,34.096,concentric,4,3.0,18805.0,286269.0,260173.0,308221.0,273732.0
2026-04-07 17:48:50.800520,220313,1201194704,1201195993,-1.106784,-0.099552,-0.02928,9.75625,-10.70125,-15.198751,34.752003,15.728001,32.896,concentric,4,3.0,18805.0,286269.0,260173.0,308221.0,273732.0
2026-04-07 17:48:50.830308,220314,1201209214,1201210959,-1.106784,-0.099552,-0.128832,1.1025,-13.0025,-16.23125,34.752003,15.728001,32.896,concentric,4,3.0,18805.0,286269.0,260173.0,308221.0,273732.0
2026-04-07 17:48:50.833761,220315,1201218122,1201219645,-0.968192,-0.095648,-0.128832,-8.44375,-13.16,-17.21125,34.656002,16.584002,33.896,concentric,4,3.0,18805.0,286269.0,260173.0,308221.0,273732.0
2026-04-07 17:48:50.835944,220316,1201227024,1201228332,-0.968192,-0.095648,-0.128832,-11.29625,-10.66625,-18.89125,34.656002,16.584002,33.896,concentric,4,3.0,18805.0,286269.0,260173.0,308221.0,273732.0
2026-04-07 17:48:50.876299,220317,1201241529,1201243220,-0.944768,-0.091744,-0.08784,-9.87875,-8.49625,-21.04375,35.2,15.800001,32.384003,concentric,4,3.0,18805.0,286269.0,260173.0,308221.0,273732.0
2026-04-07 17:48:50.880806,220318,1201250467,1201251986,-0.99552,-0.064416,-0.052704,-5.53,-8.4,-21.23625,34.416,16.16,34.056,concentric,4,3.0,18805.0,286269.0,260173.0,308221.0,273732.0
2026-04-07 17:48:50.905044,220328,1201259379,1201260725,-0.99552,-0.064416,-0.052704,0.41125,-8.23375,-21.1925,34.416,16.16,34.056,concentric,4,3.0,19008.0,288201.0,261729.0,309592.0,274529.0
2026-04-07 17:48:50.906598,220329,1201273855,1201275694,-0.886208,-0.06832,-0.040992,5.83625,-8.61,-21.83125,33.696003,15.992001,34.544003,concentric,4,3.0,19008.0,288201.0,261729.0,309592.0,274529.0
2026-04-07 17:48:50.910770,220330,1201282799,1201284431,-0.886208,-0.06832,-0.040992,5.03125,-11.68125,-23.178751,33.696003,15.992001,34.544003,concentric,4,3.0,19008.0,288201.0,261729.0,309592.0,274529.0
2026-04-07 17:48:50.912879,220331,1201291760,1201293200,-0.938912,-0.072224,-0.119072,1.82,-13.34375,-26.27625,33.760002,16.264,32.848003,concentric,4,3.0,19008.0,288201.0,261729.0,309592.0,274529.0
2026-04-07 17:48:50.914414,220332,1201306365,1201308151,-0.938912,-0.072224,-0.119072,4.55,-14.1225,-29.26,33.760002,16.264,32.848003,concentric,4,3.0,19008.0,288201.0,261729.0,309592.0,274529.0
2026-04-07 17:48:50.919286,220333,1201315332,1201316858,-0.901824,-0.066368,-0.080032,9.275,-13.4925,-29.8725,34.352,16.672,31.160002,concentric,4,3.0,19008.0,288201.0,261729.0,309592.0,274529.0
2026-04-07 17:48:50.947899,220334,1201324346,1201325557,-0.901824,-0.066368,-0.080032,11.69,-12.32,-31.35125,34.352,16.672,31.160002,concentric,4,3.0,19008.0,288201.0,261729.0,309592.0,274529.0
2026-04-07 17:48:50.951375,220335,1201333335,1201334239,-0.921344,-0.128832,-0.050752,10.01,-11.71625,-34.3875,32.608,15.872001,33.744003,concentric,4,3.0,19008.0,288201.0,261729.0,309592.0,274529.0
2026-04-07 17:48:50.953862,220336,1201347796,1201349144,-0.921344,-0.128832,-0.050752,7.76125,-11.43625,-34.9125,32.608,15.872001,33.744003,concentric,4,3.0,19008.0,288201.0,261729.0,309592.0,274529.0
2026-04-07 17:48:50.981428,220347,1201356826,1201357889,-0.962336,-0.13664,-0.056608,8.86375,-11.725,-34.4925,32.768,16.728,33.488003,concentric,4,3.0,18957.0,287943.0,261753.0,309911.0,275027.0
2026-04-07 17:48:50.984029,220348,1201365887,1201366665,-0.962336,-0.13664,-0.056608,11.3225,-11.29625,-33.74875,32.768,16.728,33.488003,concentric,4,3.0,18957.0,287943.0,261753.0,309911.0,275027.0
2026-04-07 17:48:50.986660,220349,1201380811,1201381603,-0.892064,-0.12688,-0.076128,12.6,-9.87,-33.355,32.952,17.136002,32.872,concentric,4,3.0,18957.0,287943.0,261753.0,309911.0,275027.0
2026-04-07 17:48:51.016637,220350,1201390202,1201392384,-0.892064,-0.124928,-0.01952,11.9,-7.5775,-33.3025,32.952,17.136002,30.824001,concentric,4,3.0,18957.0,287943.0,261753.0,309911.0,275027.0
2026-04-07 17:48:51.020160,220351,1201399119,1201401089,-0.880352,-0.124928,-0.01952,11.87375,-4.99625,-35.02625,32.288002,17.128,32.544003,concentric,4,3.0,18957.0,287943.0,261753.0,309911.0,275027.0
2026-04-07 17:48:51.022675,220352,1201408048,1201409794,-0.880352,-0.124928,-0.01952,12.215,-2.24875,-33.22375,32.288002,17.128,32.544003,concentric,4,3.0,18957.0,287943.0,261753.0,309911.0,275027.0
2026-04-07 17:48:51.025370,220353,1201422513,1201424718,-0.923296,-0.10736,-0.035136,15.417501,0.00875,-31.56125,31.184002,16.976002,35.128002,concentric,4,3.0,18957.0,287943.0,261753.0,309911.0,275027.0
2026-04-07 17:48:51.056663,220354,1201431427,1201433477,-0.960384,-0.17568,-0.081984,15.0325,0.8925,-30.24875,30.912,17.456001,33.536003,concentric,4,3.0,18957.0,287943.0,261753.0,309911.0,275027.0
2026-04-07 17:48:51.060246,220355,1201440392,1201442161,-0.960384,-0.17568,-0.081984,14.4025,1.925,-27.34375,30.912,17.456001,33.536003,concentric,4,3.0,18957.0,287943.0,261753.0,309911.0,275027.0
2026-04-07 17:48:51.090125,220365,1201455459,1201457113,-0.909632,-0.22448,-0.083936,16.8875,2.96625,-24.5525,30.552002,16.896,35.704002,concentric,4,3.0,19019.0,288828.0,262647.0,311123.0,276117.0
2026-04-07 17:48:51.092643,220366,1201464418,1201465884,-0.909632,-0.22448,-0.083936,16.2575,4.4275,-21.1925,30.552002,16.896,35.704002,concentric,4,3.0,19019.0,288828.0,262647.0,311123.0,276117.0
2026-04-07 17:48:51.095093,220367,1201473466,1201474576,-0.895968,-0.152256,-0.005856,15.77625,5.565,-19.73125,30.880001,17.416,32.800003,concentric,4,3.0,19019.0,288828.0,262647.0,311123.0,276117.0
2026-04-07 17:48:51.097573,220368,1201482416,1201483285,-0.895968,-0.152256,-0.005856,17.89375,7.56875,-18.0425,30.880001,17.416,32.800003,concentric,4,3.0,19019.0,288828.0,262647.0,311123.0,276117.0
2026-04-07 17:48:51.100105,220369,1201496926,1201498170,-0.880352,-0.160064,0.062464,13.81625,10.5175,-16.8525,30.392002,17.400002,32.936,concentric,4,3.0,19019.0,288828.0,262647.0,311123.0,276117.0
2026-04-07 17:48:51.131972,220370,1201505875,1201506889,-0.880352,-0.160064,0.062464,4.4975,12.22375,-16.3625,30.392002,17.400002,32.936,concentric,4,3.0,19019.0,288828.0,262647.0,311123.0,276117.0
2026-04-07 17:48:51.133895,220371,1201514791,1201515601,-0.884256,-0.16592,0.00976,-0.86625,14.67375,-14.16625,31.880001,17.736,33.216003,concentric,4,3.0,19019.0,288828.0,262647.0,311123.0,276117.0
2026-04-07 17:48:51.136480,220372,1201529212,1201530481,-0.884256,-0.16592,0.00976,-2.49375,15.61,-12.6175,31.880001,17.736,33.216003,concentric,4,3.0,19019.0,288828.0,262647.0,311123.0,276117.0
2026-04-07 17:48:51.154312,220373,1201538241,1201539193,-0.83936,-0.171776,-0.052704,-3.4825,14.8575,-13.055,31.768002,17.968,31.464,concentric,4,3.0,19019.0,288828.0,262647.0,311123.0,276117.0
2026-04-07 17:48:51.156500,220374,1201547175,1201547927,-0.83936,-0.171776,-0.052704,-2.205,15.085,-13.09,31.768002,17.968,31.464,concentric,4,3.0,19019.0,288828.0,262647.0,311123.0,276117.0
