pc_time,serial_num,sensor_ts,host_ts,ax,ay,az,gx,gy,gz,mx,my,mz,phase,rpe,weight_kg,ppg_a,ppg_b,ppg_c,ppg_d,ppg_e
2026-04-07 17:49:14.479987,224724,1224849333,1224850893,-0.895968,-0.251808,-0.025376,-11.698751,-4.935,-10.68375,32.392002,16.112001,34.472,eccentric,4,3.0,20896.0,306695.0,277359.0,327036.0,288292.0
2026-04-07 17:49:14.482502,224725,1224858254,1224859585,-0.8784,-0.238144,0.060512,-7.55125,-5.495,-11.9875,31.608002,16.240002,34.344,eccentric,4,3.0,20896.0,306695.0,277359.0,327036.0,288292.0
2026-04-07 17:49:14.484824,224726,1224867159,1224868239,-0.8784,-0.238144,0.060512,-1.37375,-3.61375,-8.74125,31.608002,16.240002,34.344,eccentric,4,3.0,20896.0,306695.0,277359.0,327036.0,288292.0
2026-04-07 17:49:14.487428,224727,1224881708,1224883217,-0.874496,-0.21472,0.121024,0.245,-2.7825,-6.39625,31.824001,16.08,36.16,eccentric,4,3.0,20896.0,306695.0,277359.0,327036.0,288292.0
2026-04-07 17:49:14.522154,224738,1224890759,1224892013,-0.874496,-0.21472,0.121024,-0.83125,-2.07375,-5.94125,31.824001,16.08,36.16,eccentric,4,3.0,20678.0,304844.0,275917.0,325682.0,287296.0
2026-04-07 17:49:14.523792,224739,1224899690,1224900804,-0.892064,-0.121024,0.121024,0.735,-0.44625,-5.29375,31.224,16.184,35.816,eccentric,4,3.0,20678.0,304844.0,275917.0,325682.0,287296.0
2026-04-07 17:49:14.527995,224740,1224914189,1224915719,-0.892064,-0.121024,0.121024,4.7075,1.8025,-5.38125,31.224,16.184,35.816,eccentric,4,3.0,20678.0,304844.0,275917.0,325682.0,287296.0
2026-04-07 17:49:14.529566,224741,1224923190,1224924457,-0.911584,-0.152256,0.13664,1.785,5.425,-5.4425,31.128002,15.936001,34.784,eccentric,4,3.0,20678.0,304844.0,275917.0,325682.0,287296.0
2026-04-07 17:49:14.536556,224742,1224932133,1224933207,-0.911584,-0.152256,0.13664,-7.83125,8.225,-5.81875,31.128002,15.936001,34.784,eccentric,4,3.0,20678.0,304844.0,275917.0,325682.0,287296.0
2026-04-07 17:49:14.565129,224743,1224941080,1224941975,-0.88816,-0.306464,0.01952,-20.62375,8.75875,-4.5325,31.400002,16.168001,34.024002,eccentric,4,3.0,20678.0,304844.0,275917.0,325682.0,287296.0
2026-04-07 17:49:14.569632,224744,1224955547,1224956912,-0.88816,-0.306464,-0.01952,-24.91125,7.42,-3.50875,31.400002,16.168001,34.024002,eccentric,4,3.0,20678.0,304844.0,275917.0,325682.0,287296.0
2026-04-07 17:49:14.571268,224745,1224964456,1224965585,-0.915488,-0.249856,-0.01952,-15.4525,5.73125,-2.54625,32.136,16.656,33.584003,eccentric,4,3.0,20678.0,304844.0,275917.0,325682.0,287296.0
2026-04-07 17:49:14.577861,224746,1224973371,1224974348,-0.915488,-0.249856,-0.01952,1.435,5.0575,-1.00625,32.136,16.656,33.584003,eccentric,4,3.0,20678.0,304844.0,275917.0,325682.0,287296.0
2026-04-07 17:49:14.633467,224756,1224988338,1224989365,-0.948672,-0.121024,0.101504,13.11625,5.46,-1.74125,31.424002,16.032001,33.936,eccentric,4,3.0,20401.0,302164.0,273613.0,323080.0,285167.0
2026-04-07 17:49:14.634981,224757,1224997304,1224998073,-0.958432,-0.10736,0.15616,11.375,4.8125,-1.5225,31.784002,15.800001,34.072002,eccentric,4,3.0,20401.0,302164.0,273613.0,323080.0,285167.0
2026-04-07 17:49:14.639226,224758,1225006730,1225008850,-0.958432,-0.10736,0.15616,0.9275,4.48,-1.72375,31.784002,15.800001,34.072002,eccentric,4,3.0,20401.0,302164.0,273613.0,323080.0,285167.0
2026-04-07 17:49:14.640997,224759,1225015728,1225017613,-0.958432,-0.10736,0.140544,-11.935,5.39875,-0.76125,31.784002,15.800001,34.072002,eccentric,4,3.0,20401.0,302164.0,273613.0,323080.0,285167.0
2026-04-07 17:49:14.642490,224760,1225030381,1225032559,-0.929152,-0.232288,0.148352,-20.41375,9.555,0.6125,30.880001,15.672001,38.24,eccentric,4,3.0,20401.0,302164.0,273613.0,323080.0,285167.0
2026-04-07 17:49:14.646872,224761,1225039329,1225041325,-0.983808,-0.333792,0.111264,-23.24,13.79,0.72625,30.888002,15.872001,35.992,eccentric,4,3.0,20401.0,302164.0,273613.0,323080.0,285167.0
2026-04-07 17:49:14.654130,224762,1225048239,1225050116,-0.983808,-0.333792,0.111264,-18.08625,15.75875,3.29,30.888002,15.872001,35.992,eccentric,4,3.0,20401.0,302164.0,273613.0,323080.0,285167.0
2026-04-07 17:49:14.682706,224763,1225062734,1225064999,-1.040416,-0.171776,-0.031232,-10.61375,15.53125,7.49,31.232002,15.792001,35.088,eccentric,4,3.0,20401.0,302164.0,273613.0,323080.0,285167.0
2026-04-07 17:49:14.687365,224764,1225071712,1225073643,-1.040416,-0.171776,-0.031232,-4.22625,13.8425,8.00625,31.232002,15.792001,35.088,eccentric,4,3.0,20401.0,302164.0,273613.0,323080.0,285167.0
2026-04-07 17:49:14.688935,224765,1225080709,1225082378,-1.04432,-0.142496,-0.052704,-1.1725,10.98125,6.195,32.52,16.464,33.024002,eccentric,4,3.0,20401.0,302164.0,273613.0,323080.0,285167.0
2026-04-07 17:49:14.714773,224775,1225095347,1225097306,-1.04432,-0.142496,-0.052704,-2.5725,7.8225,5.90625,32.52,16.464,33.024002,eccentric,4,3.0,20221.0,300333.0,272124.0,321442.0,283934.0
2026-04-07 17:49:14.716221,224776,1225104295,1225106007,-1.046272,-0.22448,0.037088,-8.7325,4.76,5.3025,33.2,16.432001,31.920002,eccentric,4,3.0,20221.0,300333.0,272124.0,321442.0,283934.0
2026-04-07 17:49:14.720320,224777,1225113219,1225114729,-1.046272,-0.22448,0.037088,-11.10375,3.1675,4.78625,33.2,16.432001,31.920002,eccentric,4,3.0,20221.0,300333.0,272124.0,321442.0,283934.0
2026-04-07 17:49:14.726613,224778,1225122172,1225123493,-1.03456,-0.277184,0.070272,-8.7325,1.1725,5.0225,32.872,16.672,33.032,eccentric,4,3.0,20221.0,300333.0,272124.0,321442.0,283934.0
2026-04-07 17:49:14.768947,224779,1225136646,1225138406,-1.081408,-0.206912,0.005856,-5.48625,0.18375,4.62875,32.872,16.672,30.984001,eccentric,4,3.0,20221.0,300333.0,272124.0,321442.0,283934.0
2026-04-07 17:49:14.772390,224780,1225145543,1225147076,-1.08336,-0.206912,0.005856,1.1375,0.5425,4.41,32.656002,15.632001,32.392002,eccentric,4,3.0,20221.0,300333.0,272124.0,321442.0,283934.0
2026-04-07 17:49:14.775003,224781,1225154487,1225155803,-1.08336,-0.206912,0.005856,5.915,1.32125,4.31375,32.656002,15.632001,32.392002,eccentric,4,3.0,20221.0,300333.0,272124.0,321442.0,283934.0
2026-04-07 17:49:14.783643,224782,1225168944,1225170721,-1.067744,-0.169824,0.027328,4.33125,2.24875,3.43,32.936,16.448,32.832,eccentric,4,3.0,20221.0,300333.0,272124.0,321442.0,283934.0
2026-04-07 17:49:14.786224,224783,1225177861,1225179429,-1.095072,-0.208864,0.027328,0.91875,3.78,2.66,33.312,15.800001,33.600002,eccentric,4,3.0,20221.0,300333.0,272124.0,321442.0,283934.0
2026-04-07 17:49:14.849973,224794,1225186983,1225188347,-1.095072,-0.208864,0.027328,-1.44375,4.025,2.275,33.312,15.800001,33.600002,eccentric,4,3.0,20400.0,302346.0,273810.0,323299.0,285431.0
2026-04-07 17:49:14.852497,224795,1225201528,1225203328,-1.052128,-0.25376,0.033184,-4.585,3.0975,2.10875,32.616,15.904,32.856003,eccentric,4,3.0,20400.0,302346.0,273810.0,323299.0,285431.0
2026-04-07 17:49:14.854929,224796,1225210455,1225212035,-1.052128,-0.25376,0.033184,-9.7475,2.17875,0.14,32.616,15.904,32.856003,eccentric,4,3.0,20400.0,302346.0,273810.0,323299.0,285431.0
2026-04-07 17:49:14.857528,224797,1225219376,1225220740,-1.056032,-0.208864,-0.027328,-7.35,2.52,-1.32125,32.792,15.728001,32.992,eccentric,4,3.0,20400.0,302346.0,273810.0,323299.0,285431.0
2026-04-07 17:49:14.860009,224798,1225233959,1225235690,-1.056032,-0.208864,-0.027328,0.49875,2.6075,-0.86625,32.792,15.728001,32.992,eccentric,4,3.0,20400.0,302346.0,273810.0,323299.0,285431.0
2026-04-07 17:49:14.862459,224799,1225242921,1225244423,-0.974048,-0.17568,0.01952,3.115,2.07375,-0.945,33.016003,15.68,33.128002,eccentric,4,3.0,20400.0,302346.0,273810.0,323299.0,285431.0
2026-04-07 17:49:14.865024,224800,1225251963,1225253178,-0.974048,-0.17568,0.01952,4.305,1.96,-2.80875,33.016003,15.68,33.128002,eccentric,4,3.0,20400.0,302346.0,273810.0,323299.0,285431.0
2026-04-07 17:49:14.867426,224801,1225260871,1225261944,-0.991616,-0.18544,0.02928,5.31125,1.54875,-2.82625,33.552002,16.024,33.072002,eccentric,4,3.0,20400.0,302346.0,273810.0,323299.0,285431.0
2026-04-07 17:49:14.897633,224802,1225275419,1225276862,-0.991616,-0.18544,0.02928,3.92,0.9625,-1.00625,33.552002,16.024,33.072002,eccentric,4,3.0,20400.0,302346.0,273810.0,323299.0,285431.0
2026-04-07 17:49:14.901146,224803,1225284326,1225285535,-0.952576,-0.20496,0.023424,2.17875,1.12,0.0525,33.344,15.760001,31.928001,eccentric,4,3.0,20400.0,302346.0,273810.0,323299.0,285431.0
2026-04-07 17:49:14.926202,224813,1225293264,1225294274,-0.952576,-0.20496,0.023424,1.65375,1.60125,-1.295,33.344,15.760001,31.928001,eccentric,4,3.0,20429.0,302598.0,274050.0,323607.0,285685.0
2026-04-07 17:49:14.928653,224814,1225307959,1225309204,-0.91744,-0.17568,0.03904,3.33375,2.12625,-0.84,33.216003,15.880001,33.08,eccentric,4,3.0,20429.0,302598.0,274050.0,323607.0,285685.0
2026-04-07 17:49:14.931162,224815,1225316972,1225317961,-0.91744,-0.17568,0.007808,6.1775,3.01,-0.0875,33.216003,15.880001,33.08,eccentric,4,3.0,20429.0,302598.0,274050.0,323607.0,285685.0
2026-04-07 17:49:14.933666,224816,1225325901,1225326687,-0.91744,-0.15616,0.013664,7.035,3.10625,-0.105,32.368,15.544001,36.624,eccentric,4,3.0,20429.0,302598.0,274050.0,323607.0,285685.0
2026-04-07 17:49:14.963860,224817,1225340428,1225341630,-0.901824,-0.109312,-0.013664,7.55125,1.02375,0.8575,32.552002,15.536001,34.448,eccentric,4,3.0,20429.0,302598.0,274050.0,323607.0,285685.0
2026-04-07 17:49:14.967450,224818,1225349341,1225350292,-0.901824,-0.109312,-0.013664,12.29375,-0.98875,2.03875,32.552002,15.536001,34.448,eccentric,4,3.0,20429.0,302598.0,274050.0,323607.0,285685.0
2026-04-07 17:49:14.969938,224819,1225358257,1225358992,-0.905728,-0.10736,0.064416,16.695,-0.595,2.065,33.848003,15.776001,34.112003,eccentric,4,3.0,20429.0,302598.0,274050.0,323607.0,285685.0
2026-04-07 17:49:14.972497,224820,1225367643,1225369738,-0.905728,-0.10736,0.064416,19.27625,0.6125,1.68875,33.848003,15.776001,34.112003,eccentric,4,3.0,20429.0,302598.0,274050.0,323607.0,285685.0
2026-04-07 17:49:15.003603,224821,1225382325,1225382650,-0.903776,-0.179584,0.103456,18.4975,2.59,3.7975,33.248,15.688001,33.4,eccentric,4,3.0,20429.0,302598.0,274050.0,323607.0,285685.0
2026-04-07 17:49:15.033028,224831,1225391744,1225393508,-0.903776,-0.179584,0.103456,13.4575,3.70125,5.94125,33.248,15.688001,33.4,eccentric,4,3.0,20524.0,303336.0,274602.0,324170.0,286098.0
2026-04-07 17:49:15.034739,224832,1225400677,1225402265,-0.901824,-0.15616,0.050752,11.13875,3.15,6.8775,34.464,16.568,33.712,eccentric,4,3.0,20524.0,303336.0,274602.0,324170.0,286098.0
2026-04-07 17:49:15.036326,224833,1225415212,1225417206,-0.901824,-0.15616,0.050752,12.31125,2.65125,7.315,34.464,16.568,33.712,eccentric,4,3.0,20524.0,303336.0,274602.0,324170.0,286098.0
2026-04-07 17:49:15.040644,224834,1225424166,1225425943,-0.9272,-0.0488,-0.044896,14.0525,0.84875,7.035,34.104,15.232,35.56,eccentric,4,3.0,20524.0,303336.0,274602.0,324170.0,286098.0
2026-04-07 17:49:15.077748,224835,1225433154,1225434678,-0.9272,-0.0488,-0.044896,17.255,0.21875,7.2625,34.104,15.232,35.56,eccentric,4,3.0,20524.0,303336.0,274602.0,324170.0,286098.0
2026-04-07 17:49:15.084290,224836,1225442214,1225443398,-0.931104,-0.060512,0.007808,17.1675,-0.21,7.62125,33.808002,14.912001,35.68,eccentric,4,3.0,20524.0,303336.0,274602.0,324170.0,286098.0
2026-04-07 17:49:15.086006,224837,1225456722,1225458279,-0.931104,-0.060512,0.007808,12.285,-0.525,8.02375,33.808002,14.912001,35.68,eccentric,4,3.0,20524.0,303336.0,274602.0,324170.0,286098.0
2026-04-07 17:49:15.087500,224838,1225465642,1225467001,-1.026752,-0.115168,0.134688,6.93,-0.32375,9.3625,34.672,15.184001,33.528,eccentric,4,3.0,20524.0,303336.0,274602.0,324170.0,286098.0
2026-04-07 17:49:15.091767,224839,1225474580,1225475690,-1.026752,-0.115168,0.134688,6.3525,-0.2275,12.4075,34.672,15.184001,33.528,eccentric,4,3.0,20524.0,303336.0,274602.0,324170.0,286098.0
2026-04-07 17:49:15.118460,224850,1225489613,1225490603,-1.057984,-0.095648,0.060512,10.5875,-0.39375,14.096251,35.280003,14.856001,34.320004,eccentric,4,3.0,20474.0,302826.0,274136.0,323560.0,285517.0
2026-04-07 17:49:15.119964,224851,1225498635,1225499384,-0.974048,-0.093696,0.050752,15.16375,0.39375,14.7,33.232002,15.024001,35.696003,eccentric,4,3.0,20474.0,302826.0,274136.0,323560.0,285517.0
2026-04-07 17:49:15.124215,224852,1225507944,1225510188,-0.974048,-0.093696,0.050752,17.77125,1.5225,13.86,34.464,15.024001,35.696003,eccentric,4,3.0,20474.0,302826.0,274136.0,323560.0,285517.0
2026-04-07 17:49:15.126676,224853,1225516904,1225518890,-0.974048,-0.093696,0.050752,15.32125,2.4325,13.02875,34.464,15.024001,35.696003,eccentric,4,3.0,20474.0,302826.0,274136.0,323560.0,285517.0
2026-04-07 17:49:15.155167,224854,1225531418,1225531753,-1.032608,-0.06832,0.02928,9.730001,2.59,13.37875,35.024002,14.768001,35.84,eccentric,4,3.0,20474.0,302826.0,274136.0,323560.0,285517.0
2026-04-07 17:49:15.159683,224855,1225540706,1225542553,-1.104832,-0.035136,0.080032,7.7,4.165,14.69125,35.736,15.296001,34.312,eccentric,4,3.0,20474.0,302826.0,274136.0,323560.0,285517.0
2026-04-07 17:49:15.161238,224856,1225549664,1225551252,-1.104832,-0.035136,0.080032,11.8125,6.0375,16.38,35.736,15.296001,34.312,eccentric,4,3.0,20474.0,302826.0,274136.0,323560.0,285517.0
2026-04-07 17:49:15.192290,224857,1225564260,1225566150,-1.011136,-0.074176,0.023424,13.1425,5.565,17.1325,35.904003,14.672001,34.688004,eccentric,4,3.0,20474.0,302826.0,274136.0,323560.0,285517.0
2026-04-07 17:49:15.196788,224858,1225573228,1225574848,-1.011136,-0.074176,0.023424,11.13875,5.005,16.178751,35.904003,14.672001,34.688004,eccentric,4,3.0,20474.0,302826.0,274136.0,323560.0,285517.0
2026-04-07 17:49:15.198478,224859,1225582191,1225583545,-0.960384,-0.093696,0.003904,9.14375,3.45625,14.7,35.344,14.472001,35.408,eccentric,4,3.0,20474.0,302826.0,274136.0,323560.0,285517.0
2026-04-07 17:49:15.235466,224869,1225591636,1225592556,-0.960384,-0.093696,0.003904,9.292501,2.1175,14.65625,35.344,14.472001,35.408,eccentric,4,3.0,20580.0,303611.0,274730.0,324123.0,285903.0
2026-04-07 17:49:15.237173,224870,1225606192,1225607504,-1.081408,-0.011712,0.027328,13.48375,2.35375,15.18125,35.584003,13.856001,37.472,eccentric,4,3.0,20580.0,303611.0,274730.0,324123.0,285903.0
2026-04-07 17:49:15.238729,224871,1225615122,1225616211,-1.081408,-0.011712,0.027328,20.195,2.79125,15.8025,35.584003,13.856001,37.472,eccentric,4,3.0,20580.0,303611.0,274730.0,324123.0,285903.0
2026-04-07 17:49:15.242975,224872,1225624051,1225624895,-0.968192,0.005856,0.066368,19.7575,2.09125,17.99875,36.224003,14.032001,35.232002,eccentric,4,3.0,20580.0,303611.0,274730.0,324123.0,285903.0
2026-04-07 17:49:15.245402,224873,1225638614,1225639844,-0.968192,-0.08784,0.035136,11.69,2.485,17.38625,36.224003,14.032001,35.232002,eccentric,4,3.0,20580.0,303611.0,274730.0,324123.0,285903.0
2026-04-07 17:49:15.251545,224874,1225647537,1225648634,-0.983808,-0.080032,0.035136,6.53625,2.4325,15.408751,36.752003,13.936001,35.440002,eccentric,4,3.0,20580.0,303611.0,274730.0,324123.0,285903.0
2026-04-07 17:49:15.280203,224875,1225656522,1225657329,-0.983808,-0.080032,0.035136,6.16875,1.72375,15.715,36.752003,13.936001,35.440002,eccentric,4,3.0,20580.0,303611.0,274730.0,324123.0,285903.0
2026-04-07 17:49:15.284620,224876,1225665431,1225666019,-1.042368,-0.025376,0.044896,8.35625,2.555,16.31,36.976,13.784,35.68,eccentric,4,3.0,20580.0,303611.0,274730.0,324123.0,285903.0
2026-04-07 17:49:15.286173,224877,1225680171,1225680885,-1.032608,0.033184,0.052704,15.417501,4.83,16.35375,37.4,13.8,34.736,eccentric,4,3.0,20580.0,303611.0,274730.0,324123.0,285903.0
2026-04-07 17:49:15.313492,224887,1225689809,1225691792,-1.032608,0.033184,0.052704,18.585001,6.81625,17.68375,37.4,13.8,34.736,eccentric,4,3.0,20611.0,303821.0,274834.0,324054.0,285733.0
2026-04-07 17:49:15.316750,224888,1225698881,1225700615,-1.032608,-0.060512,0.056608,12.74875,8.3475,17.38625,37.4,13.8,34.736,eccentric,4,3.0,20611.0,303821.0,274834.0,324054.0,285733.0
2026-04-07 17:49:15.319191,224889,1225713415,1225715546,-0.987712,-0.050752,0.056608,5.01375,9.59875,15.61,37.224003,13.72,36.976,eccentric,4,3.0,20611.0,303821.0,274834.0,324054.0,285733.0
2026-04-07 17:49:15.372311,224890,1225722402,1225724376,-1.018944,-0.074176,0.03904,1.82875,10.63125,14.6125,37.784,12.76,36.928,eccentric,4,3.0,20611.0,303821.0,274834.0,324054.0,285733.0
2026-04-07 17:49:15.376765,224891,1225731322,1225733056,-1.018944,-0.074176,0.03904,3.52625,10.92,14.7175,37.784,12.76,36.928,eccentric,4,3.0,20611.0,303821.0,274834.0,324054.0,285733.0
2026-04-07 17:49:15.378476,224892,1225740233,1225741716,-1.040416,0.060512,0.06832,9.3975,11.3925,14.51625,38.24,12.84,35.472,eccentric,4,3.0,20611.0,303821.0,274834.0,324054.0,285733.0
2026-04-07 17:49:15.379986,224893,1225754731,1225756695,-1.040416,0.060512,0.06832,17.50875,14.27125,13.93875,38.24,12.84,35.472,eccentric,4,3.0,20611.0,303821.0,274834.0,324054.0,285733.0
2026-04-07 17:49:15.384386,224894,1225763645,1225765376,-1.036512,0.037088,0.074176,19.775,17.1675,13.95625,38.568,12.696001,35.448,eccentric,4,3.0,20611.0,303821.0,274834.0,324054.0,285733.0
2026-04-07 17:49:15.385874,224895,1225772560,1225774053,-1.036512,0.037088,0.074176,12.4075,18.69,12.5125,38.568,12.696001,35.448,eccentric,4,3.0,20611.0,303821.0,274834.0,324054.0,285733.0
2026-04-07 17:49:15.445482,224905,1225787096,1225789443,-1.016992,-0.033184,0.044896,2.1875,19.10125,11.5325,38.4,12.704,34.408,eccentric,4,3.0,20732.0,305183.0,275980.0,325403.0,286911.0
2026-04-07 17:49:15.447146,224906,1225796090,1225798194,-1.016992,-0.033184,0.044896,-3.00125,19.1975,9.975,38.4,12.704,34.408,eccentric,4,3.0,20732.0,305183.0,275980.0,325403.0,286911.0
2026-04-07 17:49:15.448704,224907,1225805010,1225806890,-1.038464,0.007808,0.031232,-3.42125,18.75125,7.49875,38.688004,12.944,35.432003,eccentric,4,3.0,20732.0,305183.0,275980.0,325403.0,286911.0
2026-04-07 17:49:15.453248,224908,1225819525,1225821762,-1.038464,0.072224,0.01952,2.02125,20.195,6.51,38.688004,12.944,35.432003,eccentric,4,3.0,20732.0,305183.0,275980.0,325403.0,286911.0
2026-04-07 17:49:15.457138,224909,1225828526,1225830519,-1.081408,0.072224,0.01952,6.685,21.14875,4.90875,38.592003,12.272,36.384003,eccentric,4,3.0,20732.0,305183.0,275980.0,325403.0,286911.0
2026-04-07 17:49:15.458684,224910,1225837457,1225839199,-1.081408,0.072224,0.01952,6.71125,22.33875,4.55,38.592003,12.272,36.384003,eccentric,4,3.0,20732.0,305183.0,275980.0,325403.0,286911.0
2026-04-07 17:49:15.462961,224911,1225852041,1225854158,-1.097024,0.074176,0.064416,5.81875,23.68625,4.2525,39.048,12.728001,36.904003,eccentric,4,3.0,20732.0,305183.0,275980.0,325403.0,286911.0
2026-04-07 17:49:15.467837,224912,1225861004,1225862870,-1.075552,0.03904,0.040992,4.89125,24.01,2.9575,39.376003,12.240001,39.800003,eccentric,4,3.0,20732.0,305183.0,275980.0,325403.0,286911.0
2026-04-07 17:49:15.496396,224913,1225869936,1225871623,-1.075552,0.03904,0.040992,2.33625,23.4325,0.595,39.376003,12.240001,39.800003,eccentric,4,3.0,20732.0,305183.0,275980.0,325403.0,286911.0
2026-04-07 17:49:15.501004,224914,1225878853,1225880324,-1.075552,0.03904,0.040992,-1.88125,22.89,-0.88375,39.376003,12.240001,39.800003,eccentric,4,3.0,20732.0,305183.0,275980.0,325403.0,286911.0
2026-04-07 17:49:15.529221,224925,1225893597,1225895290,-1.095072,0.040992,-0.031232,-5.215,22.365,-0.58625,39.592003,12.656,33.696003,eccentric,4,3.0,20832.0,306103.0,276800.0,326304.0,287675.0
2026-04-07 17:49:15.530946,224926,1225902569,1225904031,-1.116544,0.003904,-0.037088,-4.1825,23.0475,-1.04125,40.152,12.52,34.784,eccentric,4,3.0,20832.0,306103.0,276800.0,326304.0,287675.0
2026-04-07 17:49:15.532505,224927,1225911564,1225912852,-1.116544,0.003904,-0.037088,-2.02125,23.695,-0.06125,40.152,12.52,34.784,eccentric,4,3.0,20832.0,306103.0,276800.0,326304.0,287675.0
2026-04-07 17:49:15.536640,224928,1225926044,1225927783,-1.1224,0.005856,-0.01952,-2.14375,22.89,1.05,40.296,12.480001,34.88,eccentric,4,3.0,20832.0,306103.0,276800.0,326304.0,287675.0
2026-04-07 17:49:15.540345,224929,1225934994,1225936614,-1.1224,0.005856,-0.01952,1.81125,22.19875,0.7875,40.296,12.480001,34.88,eccentric,4,3.0,20832.0,306103.0,276800.0,326304.0,287675.0
2026-04-07 17:49:15.568969,224930,1225943897,1225945302,-1.126304,0.066368,-0.033184,5.0225,20.62375,1.14625,40.672,12.392,34.264,eccentric,4,3.0,20832.0,306103.0,276800.0,326304.0,287675.0
2026-04-07 17:49:15.573393,224931,1225958384,1225960283,-1.126304,0.066368,-0.033184,6.44,18.725,1.86375,40.672,12.392,34.264,eccentric,4,3.0,20832.0,306103.0,276800.0,326304.0,287675.0
2026-04-07 17:49:15.575026,224932,1225967286,1225968971,-1.149728,0.06832,-0.03904,7.595,18.3225,2.37125,40.208,11.960001,34.176003,eccentric,4,3.0,20832.0,306103.0,276800.0,326304.0,287675.0
2026-04-07 17:49:15.581582,224933,1225976188,1225977653,-1.149728,0.06832,-0.03904,4.865,17.29,2.93125,40.208,11.960001,34.176003,eccentric,4,3.0,20832.0,306103.0,276800.0,326304.0,287675.0
2026-04-07 17:49:15.610113,224934,1225985143,1225986344,-1.14192,0.00976,-0.052704,-1.14625,16.42375,3.64875,41.584003,11.824,34.280003,eccentric,4,3.0,20832.0,306103.0,276800.0,326304.0,287675.0
2026-04-07 17:49:15.637978,224944,1225999644,1226001338,-1.14192,0.00976,-0.052704,-2.695,16.2225,3.7625,41.584003,11.824,34.280003,eccentric,4,3.0,21052.0,308254.0,278745.0,328643.0,289685.0
2026-04-07 17:49:15.640678,224945,1226008547,1226010058,-1.110688,-0.00976,-0.015616,-0.13125,15.5575,4.795,41.36,12.144001,33.608,eccentric,4,3.0,21052.0,308254.0,278745.0,328643.0,289685.0
2026-04-07 17:49:15.673602,224946,1226017504,1226018771,-1.110688,-0.00976,-0.015616,1.6275,14.30625,5.7925,41.36,12.144001,33.608,eccentric,4,3.0,21052.0,308254.0,278745.0,328643.0,289685.0
2026-04-07 17:49:15.678040,224947,1226032037,1226033712,-1.087264,0.046848,-0.033184,3.78875,12.285,6.55375,40.768,10.960001,35.68,eccentric,4,3.0,21052.0,308254.0,278745.0,328643.0,289685.0
2026-04-07 17:49:15.679700,224948,1226040985,1226042406,-1.08336,0.13664,-0.046848,6.04625,10.61375,7.315,40.768,11.272,32.664,eccentric,4,3.0,21052.0,308254.0,278745.0,328643.0,289685.0
2026-04-07 17:49:15.681250,224949,1226049920,1226051117,-1.08336,0.13664,-0.046848,6.9475,9.47625,8.26,40.600002,11.272,32.664,eccentric,4,3.0,21052.0,308254.0,278745.0,328643.0,289685.0
2026-04-07 17:49:15.685457,224950,1226064382,1226066018,-1.16144,0.140544,-0.017568,10.745,9.6425,6.9825,41.576,11.344001,34.0,eccentric,4,3.0,21052.0,308254.0,278745.0,328643.0,289685.0
2026-04-07 17:49:15.687960,224951,1226073284,1226074701,-1.16144,0.140544,-0.017568,14.105001,10.8325,3.745,41.576,11.344001,34.0,eccentric,4,3.0,21052.0,308254.0,278745.0,328643.0,289685.0
2026-04-07 17:49:15.689047,224952,1226082325,1226083391,-1.149728,0.11712,0.00976,10.2725,11.55,1.435,41.480003,11.080001,34.04,eccentric,4,3.0,21052.0,308254.0,278745.0,328643.0,289685.0
2026-04-07 17:49:15.714968,224962,1226096843,1226098421,-1.149728,0.11712,0.00976,4.54125,12.215,0.42,41.480003,11.080001,34.04,eccentric,4,3.0,21406.0,311489.0,281371.0,331401.0,292213.0
2026-04-07 17:49:15.719203,224963,1226105828,1226107202,-1.126304,0.01952,-0.046848,-2.52,12.60875,-0.48125,41.776,10.928,35.536003,eccentric,4,3.0,21406.0,311489.0,281371.0,331401.0,292213.0
2026-04-07 17:49:15.720872,224964,1226114766,1226115942,-1.126304,0.01952,-0.046848,-11.61125,12.67875,-0.23625,41.776,10.928,35.536003,eccentric,4,3.0,21406.0,311489.0,281371.0,331401.0,292213.0
2026-04-07 17:49:15.751082,224965,1226123684,1226124689,-1.1224,-0.01952,-0.072224,-17.03625,11.68125,-0.14,41.832,11.176001,35.504,eccentric,4,3.0,21406.0,311489.0,281371.0,331401.0,292213.0
2026-04-07 17:49:15.753332,224966,1226138176,1226139572,-1.1224,-0.01952,-0.072224,-17.29875,11.31375,2.03875,41.832,11.176001,35.504,eccentric,4,3.0,21406.0,311489.0,281371.0,331401.0,292213.0
2026-04-07 17:49:15.757976,224967,1226147092,1226148340,-1.136064,0.031232,-0.062464,-12.53875,11.29625,4.06875,42.408,11.216001,33.392002,eccentric,4,3.0,21406.0,311489.0,281371.0,331401.0,292213.0
2026-04-07 17:49:15.760410,224968,1226155970,1226157087,-1.136064,0.031232,-0.062464,-6.615,11.27875,6.0025,42.408,11.216001,33.392002,eccentric,4,3.0,21406.0,311489.0,281371.0,331401.0,292213.0
2026-04-07 17:49:15.789024,224969,1226170454,1226171981,-1.13216,0.091744,-0.083936,-4.03375,9.79125,8.54,42.488003,10.832001,33.728,eccentric,4,3.0,21406.0,311489.0,281371.0,331401.0,292213.0
2026-04-07 17:49:15.793518,224970,1226179404,1226180687,-1.13216,0.091744,-0.083936,-2.45875,8.18125,9.8,42.488003,10.832001,33.728,eccentric,4,3.0,21406.0,311489.0,281371.0,331401.0,292213.0
2026-04-07 17:49:15.794988,224971,1226188310,1226189391,-1.145824,0.101504,-0.03904,0.93625,7.945,10.64,42.616,10.176001,33.264,eccentric,4,3.0,21406.0,311489.0,281371.0,331401.0,292213.0
2026-04-07 17:49:15.823493,224982,1226202880,1226204352,-1.134112,0.085888,-0.056608,-1.00625,6.3525,9.94,41.712,9.76,34.864002,eccentric,4,3.0,21817.0,315311.0,284667.0,335252.0,295546.0
2026-04-07 17:49:15.825061,224983,1226211933,1226213164,-1.134112,0.085888,-0.056608,-6.30875,3.98125,8.25125,41.712,9.76,34.864002,eccentric,4,3.0,21817.0,315311.0,284667.0,335252.0,295546.0
2026-04-07 17:49:15.829146,224984,1226220898,1226221909,-1.134112,0.085888,-0.056608,-7.20125,2.4675,7.27125,41.712,9.76,34.864002,eccentric,4,3.0,21817.0,315311.0,284667.0,335252.0,295546.0
2026-04-07 17:49:15.857612,224985,1226235390,1226236805,-1.06384,0.066368,-0.07808,-7.69125,2.7475,5.17125,41.496002,9.304001,34.800003,eccentric,4,3.0,21817.0,315311.0,284667.0,335252.0,295546.0
2026-04-07 17:49:15.862308,224986,1226244386,1226245496,-1.126304,0.074176,-0.062464,-8.96,3.22,4.165,43.384003,9.896001,32.976,eccentric,4,3.0,21817.0,315311.0,284667.0,335252.0,295546.0
2026-04-07 17:49:15.863775,224987,1226253280,1226254211,-1.126304,0.074176,-0.062464,-7.77,3.5175,3.7975,43.384003,9.896001,32.976,eccentric,4,3.0,21817.0,315311.0,284667.0,335252.0,295546.0
2026-04-07 17:49:15.867832,224988,1226262203,1226262919,-1.186816,0.10736,-0.025376,-2.94875,4.3925,4.235,43.024002,9.984,30.840002,eccentric,4,3.0,21817.0,315311.0,284667.0,335252.0,295546.0
2026-04-07 17:49:15.902276,224989,1226277169,1226277850,-1.186816,0.10736,-0.025376,-0.735,5.3725,4.9525,43.024002,9.984,30.840002,eccentric,4,3.0,21817.0,315311.0,284667.0,335252.0,295546.0
2026-04-07 17:49:15.906842,224990,1226286540,1226288634,-1.182912,0.076128,-0.011712,-3.71875,4.43625,4.83,43.68,9.72,32.712,eccentric,4,3.0,21817.0,315311.0,284667.0,335252.0,295546.0
2026-04-07 17:49:15.931728,225000,1226295778,1226297398,-1.182912,0.076128,-0.011712,-7.00875,2.5725,4.2875,43.68,9.72,32.712,eccentric,4,3.0,22122.0,318560.0,287482.0,338641.0,298481.0
2026-04-07 17:49:15.933750,225001,1226304748,1226306168,-1.1712,0.013664,-0.121024,-11.13,1.30375,4.76875,43.928,9.464001,32.728,eccentric,4,3.0,22122.0,318560.0,287482.0,338641.0,298481.0
2026-04-07 17:49:15.936250,225002,1226319317,1226321111,-1.1712,0.013664,-0.121024,-14.28,-0.39375,5.53,43.928,9.464001,32.728,eccentric,4,3.0,22122.0,318560.0,287482.0,338641.0,298481.0
2026-04-07 17:49:15.938646,225003,1226328297,1226329827,-1.13216,-0.005856,-0.115168,-14.28875,-0.7525,5.9675,43.472004,9.376,33.24,eccentric,4,3.0,22122.0,318560.0,287482.0,338641.0,298481.0
2026-04-07 17:49:15.973670,225004,1226337252,1226338527,-1.13216,-0.005856,-0.115168,-10.21125,-0.28875,6.01125,43.472004,9.376,33.24,eccentric,4,3.0,22122.0,318560.0,287482.0,338641.0,298481.0
2026-04-07 17:49:15.979298,225005,1226351773,1226353476,-1.149728,0.064416,-0.08784,-5.01375,0.2625,5.67,43.408,9.208,32.456,eccentric,4,3.0,22122.0,318560.0,287482.0,338641.0,298481.0
2026-04-07 17:49:15.980976,225006,1226360695,1226362181,-1.149728,0.064416,-0.08784,-2.16125,0.665,6.36125,43.408,9.208,32.456,eccentric,4,3.0,22122.0,318560.0,287482.0,338641.0,298481.0
2026-04-07 17:49:15.982513,225007,1226369618,1226370868,-1.14192,0.132736,-0.027328,-0.97125,0.14,7.3325,43.936,8.832001,32.944,eccentric,4,3.0,22122.0,318560.0,287482.0,338641.0,298481.0
2026-04-07 17:49:15.989138,225008,1226384150,1226385864,-1.138016,0.152256,-0.003904,-0.5775,-0.21,6.46625,44.232002,9.064,32.672,eccentric,4,3.0,22122.0,318560.0,287482.0,338641.0,298481.0
2026-04-07 17:49:16.041276,225018,1226393651,1226394959,-1.138016,0.152256,-0.003904,-1.77625,0.8575,2.75625,44.232002,9.064,32.672,eccentric,4,3.0,22550.0,322692.0,290992.0,342623.0,301811.0
2026-04-07 17:49:16.045513,225019,1226402701,1226403826,-1.149728,0.158112,-0.033184,-3.7625,1.5925,-2.2925,44.248,8.584001,32.568,eccentric,4,3.0,22550.0,322692.0,290992.0,342623.0,301811.0
2026-04-07 17:49:16.047196,225020,1226411619,1226412539,-1.149728,0.158112,-0.033184,-6.65,1.7325,-6.08125,44.248,8.584001,32.568,eccentric,4,3.0,22550.0,322692.0,290992.0,342623.0,301811.0
2026-04-07 17:49:16.050540,225021,1226426198,1226427572,-1.182912,0.11712,-0.060512,-10.885,2.59,-9.9225,44.120003,8.440001,35.832,eccentric,4,3.0,22550.0,322692.0,290992.0,342623.0,301811.0
2026-04-07 17:49:16.052947,225022,1226435139,1226436292,-1.182912,0.11712,-0.060512,-13.7375,1.75,-13.0375,44.120003,8.440001,35.832,eccentric,4,3.0,22550.0,322692.0,290992.0,342623.0,301811.0
2026-04-07 17:49:16.055399,225023,1226444163,1226444998,-1.179008,0.023424,-0.105408,-15.60125,0.23625,-13.20375,43.136,8.744,35.656002,eccentric,4,3.0,22550.0,322692.0,290992.0,342623.0,301811.0
2026-04-07 17:49:16.087296,225024,1226458699,1226459880,-1.179008,0.023424,-0.105408,-15.0675,-1.4875,-11.6375,43.136,8.744,35.656002,eccentric,4,3.0,22550.0,322692.0,290992.0,342623.0,301811.0
2026-04-07 17:49:16.089598,225025,1226467637,1226468641,-1.134112,-0.011712,-0.124928,-11.97875,-2.68625,-8.9775,43.960003,8.584001,32.704002,eccentric,4,3.0,22550.0,322692.0,290992.0,342623.0,301811.0
2026-04-07 17:49:16.094199,225026,1226476593,1226477331,-1.134112,-0.011712,-0.124928,-8.05,-3.35125,-7.4375,43.960003,8.584001,32.704002,eccentric,4,3.0,22550.0,322692.0,290992.0,342623.0,301811.0
2026-04-07 17:49:16.095953,225027,1226485910,1226488065,-1.165344,-0.001952,-0.091744,-3.3075,-3.22,-5.36375,44.744003,8.368,32.816,eccentric,4,3.0,22550.0,322692.0,290992.0,342623.0,301811.0
2026-04-07 17:49:16.123565,225038,1226500666,1226501023,-1.165344,-0.001952,-0.091744,-0.595,-3.08875,-1.2425,44.744003,8.368,32.816,eccentric,4,3.0,22963.0,327175.0,294901.0,347464.0,305743.0
2026-04-07 17:49:16.125057,225039,1226509992,1226511829,-1.173152,0.007808,-0.052704,2.33625,-3.85,4.33125,44.552002,8.352,33.272003,eccentric,4,3.0,22963.0,327175.0,294901.0,347464.0,305743.0
2026-04-07 17:49:16.129149,225040,1226518973,1226520541,-1.173152,0.007808,-0.052704,5.43375,-4.2525,10.255,44.552002,8.352,33.272003,eccentric,4,3.0,22963.0,327175.0,294901.0,347464.0,305743.0
2026-04-07 17:49:16.157634,225041,1226533604,1226535486,-1.167296,0.011712,0.003904,6.5975,-3.87625,15.3475,44.648003,7.960001,32.696003,eccentric,4,3.0,22963.0,327175.0,294901.0,347464.0,305743.0
2026-04-07 17:49:16.162092,225042,1226542538,1226544184,-1.167296,0.011712,0.021472,5.45125,-4.9,19.85375,44.648003,7.960001,32.696003,eccentric,4,3.0,22963.0,327175.0,294901.0,347464.0,305743.0
2026-04-07 17:49:16.163647,225043,1226551473,1226552869,-1.157536,0.015616,0.021472,6.965,-3.6925,24.185,44.392002,8.128,33.648003,eccentric,4,3.0,22963.0,327175.0,294901.0,347464.0,305743.0
2026-04-07 17:49:16.167790,225044,1226560412,1226561603,-1.157536,0.015616,0.021472,5.64375,-3.9025,27.86,44.392002,8.128,33.648003,eccentric,4,3.0,22963.0,327175.0,294901.0,347464.0,305743.0
2026-04-07 17:49:16.196436,225045,1226574892,1226576545,-1.149728,0.015616,-0.033184,5.145,-4.71625,31.10625,44.392002,7.184001,34.68,eccentric,4,3.0,22963.0,327175.0,294901.0,347464.0,305743.0
2026-04-07 17:49:16.200940,225046,1226583824,1226585229,-1.147776,0.08784,-0.05856,6.93,-4.48875,31.7275,45.504,8.136001,32.992,eccentric,4,3.0,22963.0,327175.0,294901.0,347464.0,305743.0
2026-04-07 17:49:16.225056,225056,1226592733,1226593865,-1.147776,0.08784,-0.05856,9.3625,-3.47375,31.26375,45.504,8.136001,32.992,eccentric,4,3.0,23123.0,328625.0,296058.0,348643.0,306522.0
2026-04-07 17:49:16.227513,225057,1226607624,1226608859,-1.136064,0.095648,-0.0488,9.3275,-3.22875,30.17,44.904003,6.192,34.816,eccentric,4,3.0,23123.0,328625.0,296058.0,348643.0,306522.0
2026-04-07 17:49:16.231715,225058,1226616713,1226617553,-1.136064,0.095648,-0.0488,6.895,-2.73875,29.47,44.904003,6.192,34.816,eccentric,4,3.0,23123.0,328625.0,296058.0,348643.0,306522.0
2026-04-07 17:49:16.234219,225059,1226625669,1226626268,-1.13216,0.070272,-0.0488,3.64,-2.47625,28.0525,44.784,5.64,34.952003,eccentric,4,3.0,23123.0,328625.0,296058.0,348643.0,306522.0
2026-04-07 17:49:16.272438,225060,1226634962,1226637067,-1.13216,0.070272,-0.0488,0.84,-2.975,26.495,44.784,5.64,34.952003,eccentric,4,3.0,23123.0,328625.0,296058.0,348643.0,306522.0
2026-04-07 17:49:16.276720,225061,1226649513,1226649959,-1.120448,0.080032,-0.03904,0.07875,-2.45875,24.73625,45.848003,6.24,33.336002,eccentric,4,3.0,23123.0,328625.0,296058.0,348643.0,306522.0
2026-04-07 17:49:16.278427,225062,1226658890,1226660757,-1.120448,0.080032,-0.03904,1.155,-3.5175,22.715,45.848003,6.24,33.336002,eccentric,4,3.0,23123.0,328625.0,296058.0,348643.0,306522.0
2026-04-07 17:49:16.279962,225063,1226667816,1226669430,-1.11264,0.0976,-0.035136,1.93375,-3.64,20.895,45.848003,5.816001,33.512,eccentric,4,3.0,23123.0,328625.0,296058.0,348643.0,306522.0
2026-04-07 17:49:16.311133,225064,1226682362,1226684344,-1.11264,0.0976,-0.035136,1.6625,-3.15875,18.99625,45.848003,5.816001,33.512,eccentric,4,3.0,23123.0,328625.0,296058.0,348643.0,306522.0
2026-04-07 17:49:16.315545,225065,1226691320,1226693131,-1.118496,0.0976,-0.027328,0.4025,-2.485,17.395,45.592003,5.528,34.528,eccentric,4,3.0,23123.0,328625.0,296058.0,348643.0,306522.0
2026-04-07 17:49:16.341210,225075,1226700247,1226701830,-1.118496,0.0976,-0.027328,-1.04125,-2.30125,16.17,45.592003,5.528,34.528,eccentric,4,3.0,23290.0,329924.0,297087.0,349807.0,307413.0
2026-04-07 17:49:16.345571,225076,1226714725,1226716788,-1.100928,0.074176,-0.007808,-2.4675,-2.75625,14.91875,46.112003,5.288,33.816,eccentric,4,3.0,23290.0,329924.0,297087.0,349807.0,307413.0
2026-04-07 17:49:16.347264,225077,1226723637,1226725521,-1.100928,0.070272,-0.001952,-3.64,-3.3425,13.64125,46.112003,5.288,33.816,eccentric,4,3.0,23290.0,329924.0,297087.0,349807.0,307413.0
2026-04-07 17:49:16.349176,225078,1226732632,1226734289,-1.106784,0.070272,-0.001952,-5.50375,-3.28125,12.18,45.920002,5.424,33.784,eccentric,4,3.0,23290.0,329924.0,297087.0,349807.0,307413.0
2026-04-07 17:49:16.352867,225079,1226741562,1226743021,-1.106784,0.070272,-0.001952,-6.4225,-3.36,11.47125,45.920002,5.424,33.784,eccentric,4,3.0,23290.0,329924.0,297087.0,349807.0,307413.0
2026-04-07 17:49:16.381393,225080,1226756054,1226757940,-1.087264,0.033184,-0.03904,-7.1925,-3.29875,11.042501,46.104004,5.112001,34.464,eccentric,4,3.0,23290.0,329924.0,297087.0,349807.0,307413.0
2026-04-07 17:49:16.385935,225081,1226764976,1226766648,-1.104832,0.050752,-0.040992,-7.56875,-2.72125,10.68375,45.920002,4.768,33.56,eccentric,4,3.0,23290.0,329924.0,297087.0,349807.0,307413.0
2026-04-07 17:49:16.387453,225082,1226773884,1226775327,-1.104832,0.050752,-0.040992,-5.17125,-2.38875,10.9025,45.920002,4.768,33.56,eccentric,4,3.0,23290.0,329924.0,297087.0,349807.0,307413.0
2026-04-07 17:49:16.394101,225083,1226788338,1226790235,-1.11264,0.091744,-0.011712,-2.87,-1.68875,11.38375,45.992,4.904,33.672,eccentric,4,3.0,23290.0,329924.0,297087.0,349807.0,307413.0
2026-04-07 17:49:16.423171,225094,1226797799,1226799208,-1.11264,0.091744,-0.011712,-2.65125,-1.2075,10.465,45.992,4.904,33.672,eccentric,4,3.0,23395.0,330747.0,297663.0,350343.0,307757.0
2026-04-07 17:49:16.430985,225095,1226806746,1226807931,-1.116544,0.101504,-0.003904,-4.73375,-1.505,9.8,45.840004,4.088,33.376003,eccentric,4,3.0,23395.0,330747.0,297663.0,350343.0,307757.0
2026-04-07 17:49:16.432737,225096,1226821190,1226822825,-1.116544,0.101504,-0.003904,-6.64125,-1.1375,9.42375,45.840004,4.088,33.376003,eccentric,4,3.0,23395.0,330747.0,297663.0,350343.0,307757.0
2026-04-07 17:49:16.436552,225097,1226830111,1226831521,-1.116544,0.076128,-0.021472,-8.14625,-1.07625,8.33,46.408,4.848,33.792,eccentric,4,3.0,23395.0,330747.0,297663.0,350343.0,307757.0
2026-04-07 17:49:16.442903,225098,1226839112,1226840285,-1.116544,0.076128,-0.021472,-9.3275,-0.77875,7.55125,46.408,4.848,33.792,eccentric,4,3.0,23395.0,330747.0,297663.0,350343.0,307757.0
2026-04-07 17:49:16.471381,225099,1226848038,1226848991,-1.116544,0.070272,-0.02928,-8.225,-1.015,6.125,46.008003,4.808,35.064003,eccentric,4,3.0,23395.0,330747.0,297663.0,350343.0,307757.0
2026-04-07 17:49:16.485464,225100,1226862542,1226863924,-1.116544,0.070272,-0.02928,-5.3375,-0.735,4.90875,46.008003,4.808,35.064003,eccentric,4,3.0,23395.0,330747.0,297663.0,350343.0,307757.0
2026-04-07 17:49:16.487185,225101,1226871444,1226872609,-1.106784,0.085888,-0.025376,-2.205,-0.30625,3.89375,46.688004,4.92,31.656002,eccentric,4,3.0,23395.0,330747.0,297663.0,350343.0,307757.0
2026-04-07 17:49:16.489001,225102,1226880373,1226881359,-1.106784,0.085888,-0.025376,-1.2775,0.0875,2.23125,46.688004,4.92,31.656002,eccentric,4,3.0,23395.0,330747.0,297663.0,350343.0,307757.0
2026-04-07 17:49:16.522434,225112,1226895357,1226896403,-1.118496,0.0976,-0.023424,-2.58125,0.245,1.19,46.056004,4.216,33.68,eccentric,4,3.0,23359.0,330234.0,297181.0,349674.0,307155.0
2026-04-07 17:49:16.526725,225113,1226904398,1226905170,-1.118496,0.089792,-0.023424,-4.5325,-0.44625,-0.39375,46.056004,4.216,31.632002,eccentric,4,3.0,23359.0,330234.0,297181.0,349674.0,307155.0
2026-04-07 17:49:16.528415,225114,1226913859,1226915989,-1.118496,0.089792,-0.023424,-3.85875,-0.1575,-2.16125,45.752003,4.264,32.144,eccentric,4,3.0,23359.0,330234.0,297181.0,349674.0,307155.0
2026-04-07 17:49:16.530070,225115,1226922814,1226924717,-1.118496,0.089792,-0.023424,-2.21375,0.385,-3.92875,45.752003,4.264,32.144,eccentric,4,3.0,23359.0,330234.0,297181.0,349674.0,307155.0
2026-04-07 17:49:16.571007,225116,1226937397,1226939627,-1.097024,0.083936,-0.023424,-1.47875,0.5425,-4.83,45.872,4.296,36.2,eccentric,4,3.0,23359.0,330234.0,297181.0,349674.0,307155.0
2026-04-07 17:49:16.573326,225117,1226946303,1226948330,-1.10288,0.072224,-0.03904,-1.4,0.88375,-5.25,46.576004,4.304,33.656002,eccentric,4,3.0,23359.0,330234.0,297181.0,349674.0,307155.0
2026-04-07 17:49:16.577972,225118,1226955265,1226957076,-1.10288,0.072224,-0.03904,-1.0325,1.33,-5.7575,46.576004,4.304,33.656002,eccentric,4,3.0,23359.0,330234.0,297181.0,349674.0,307155.0
2026-04-07 17:49:16.579540,225119,1226969753,1226971977,-1.089216,0.062464,-0.035136,-1.11125,2.07375,-7.2625,46.696003,4.368,33.704002,eccentric,4,3.0,23359.0,330234.0,297181.0,349674.0,307155.0
2026-04-07 17:49:16.584252,225120,1226978715,1226980709,-1.089216,0.062464,-0.035136,-1.3825,2.17,-8.40875,46.696003,4.368,33.704002,eccentric,4,3.0,23359.0,330234.0,297181.0,349674.0,307155.0
2026-04-07 17:49:16.612718,225121,1226987771,1226989433,-1.085312,0.074176,-0.01952,-0.035,2.3275,-9.4325,46.696003,4.16,34.616,eccentric,4,3.0,23359.0,330234.0,297181.0,349674.0,307155.0
2026-04-07 17:49:16.638674,225131,1227002321,1227004460,-1.085312,0.074176,-0.01952,0.8925,2.89625,-10.71875,46.696003,4.16,34.616,eccentric,4,3.0,23141.0,327929.0,295138.0,347233.0,305099.0
2026-04-07 17:49:16.641236,225132,1227011257,1227013225,-1.08336,0.072224,-0.031232,1.365,2.58125,-11.89125,46.368004,5.0,33.688,eccentric,4,3.0,23141.0,327929.0,295138.0,347233.0,305099.0
2026-04-07 17:49:16.643742,225133,1227020199,1227021965,-1.08336,0.072224,-0.031232,0.51625,2.73875,-12.50375,46.368004,5.0,33.688,eccentric,4,3.0,23141.0,327929.0,295138.0,347233.0,305099.0
2026-04-07 17:49:16.646244,225134,1227029150,1227030681,-1.089216,0.070272,-0.03904,1.11125,3.15,-13.72875,45.320004,3.976,36.528,eccentric,4,3.0,23141.0,327929.0,295138.0,347233.0,305099.0
2026-04-07 17:49:16.650311,225135,1227043676,1227045586,-1.089216,0.070272,-0.03904,3.4475,3.24625,-16.0825,45.320004,3.976,36.528,eccentric,4,3.0,23141.0,327929.0,295138.0,347233.0,305099.0
2026-04-07 17:49:16.678927,225136,1227052644,1227054377,-1.091168,0.085888,-0.03904,6.08125,3.6925,-17.7625,44.568,3.92,35.552002,eccentric,4,3.0,23141.0,327929.0,295138.0,347233.0,305099.0
2026-04-07 17:49:16.683468,225137,1227061566,1227063068,-1.091168,0.085888,-0.03904,7.69125,4.375,-19.81,44.568,3.92,35.552002,eccentric,4,3.0,23141.0,327929.0,295138.0,347233.0,305099.0
2026-04-07 17:49:16.684997,225138,1227076047,1227077956,-1.08336,0.081984,-0.046848,7.42875,4.375,-21.11375,45.960003,4.664,33.736,eccentric,4,3.0,23141.0,327929.0,295138.0,347233.0,305099.0
2026-04-07 17:49:16.690397,225139,1227084965,1227086664,-1.08336,0.050752,-0.037088,6.48375,3.99,-22.07625,45.960003,4.664,33.736,eccentric,4,3.0,23141.0,327929.0,295138.0,347233.0,305099.0
2026-04-07 17:49:16.718885,225140,1227094072,1227095377,-1.079456,0.054656,-0.037088,6.8425,4.27875,-23.625,45.88,5.096,33.232002,eccentric,4,3.0,23141.0,327929.0,295138.0,347233.0,305099.0
2026-04-07 17:49:16.764054,225151,1227108614,1227110359,-1.104832,0.076128,-0.062464,6.02,4.0775,-25.147501,45.816,5.488,33.744003,eccentric,4,3.0,22875.0,324874.0,292352.0,343767.0,302123.0
2026-04-07 17:49:16.770447,225152,1227117526,1227119037,-1.104832,0.076128,-0.062464,6.1425,4.7075,-27.09,45.816,5.488,33.744003,eccentric,4,3.0,22875.0,324874.0,292352.0,343767.0,302123.0
2026-04-07 17:49:16.772165,225153,1227126465,1227127765,-1.114592,0.06832,-0.040992,6.44875,5.64375,-29.225,45.784,5.624,33.848003,eccentric,4,3.0,22875.0,324874.0,292352.0,343767.0,302123.0
2026-04-07 17:49:16.773749,225154,1227140973,1227142702,-1.114592,0.06832,-0.040992,6.335,5.83625,-30.45875,45.784,5.624,33.848003,eccentric,4,3.0,22875.0,324874.0,292352.0,343767.0,302123.0
2026-04-07 17:49:16.778030,225155,1227149889,1227151439,-1.108736,0.035136,-0.042944,5.1975,5.8975,-30.905,45.624,5.712,35.08,eccentric,4,3.0,22875.0,324874.0,292352.0,343767.0,302123.0
2026-04-07 17:49:16.779752,225156,1227158867,1227160183,-1.108736,0.035136,-0.042944,4.41875,6.23,-30.87875,45.624,5.712,35.08,eccentric,4,3.0,22875.0,324874.0,292352.0,343767.0,302123.0
2026-04-07 17:49:16.781580,225157,1227167808,1227168884,-1.097024,0.017568,-0.056608,4.585,6.79,-31.3075,44.784,5.976,34.856003,eccentric,4,3.0,22875.0,324874.0,292352.0,343767.0,302123.0
2026-04-07 17:49:16.787798,225158,1227182312,1227183819,-1.097024,0.017568,-0.056608,6.1425,7.1925,-32.26125,44.784,5.976,34.856003,eccentric,4,3.0,22875.0,324874.0,292352.0,343767.0,302123.0
2026-04-07 17:49:16.816384,225159,1227191232,1227192513,-1.126304,0.042944,-0.056608,8.1375,8.575,-33.3725,44.864002,6.256001,33.0,eccentric,4,3.0,22875.0,324874.0,292352.0,343767.0,302123.0
2026-04-07 17:49:16.875843,225169,1227200361,1227201332,-1.126304,0.042944,-0.056608,8.32125,10.045,-34.265,44.864002,6.256001,33.0,eccentric,4,3.0,22710.0,322411.0,289884.0,340281.0,298934.0
2026-04-07 17:49:16.880516,225170,1227214903,1227216233,-1.136064,0.035136,-0.056608,7.11375,10.64,-34.46625,45.440002,7.256001,33.4,eccentric,4,3.0,22710.0,322411.0,289884.0,340281.0,298934.0
2026-04-07 17:49:16.882186,225171,1227223953,1227224933,-1.136064,0.035136,-0.056608,3.21125,10.77125,-33.39875,45.440002,7.256001,33.4,eccentric,4,3.0,22710.0,322411.0,289884.0,340281.0,298934.0
2026-04-07 17:49:16.883750,225172,1227232932,1227233642,-1.118496,0.003904,-0.044896,-0.60375,11.8825,-33.17125,44.264004,6.656,34.640003,eccentric,4,3.0,22710.0,322411.0,289884.0,340281.0,298934.0
2026-04-07 17:49:16.887999,225173,1227242437,1227244463,-1.118496,0.003904,-0.044896,-1.3125,12.792501,-32.87375,44.264004,6.656,34.640003,concentric,4,3.0,22710.0,322411.0,289884.0,340281.0,298934.0
2026-04-07 17:49:16.889705,225174,1227257033,1227257349,-1.126304,0.0,-0.0488,0.79625,13.37875,-32.68125,44.992,7.336,33.064003,concentric,4,3.0,22710.0,322411.0,289884.0,340281.0,298934.0
2026-04-07 17:49:16.893165,225175,1227266203,1227268083,-1.124352,0.031232,-0.062464,3.6225,13.51,-34.02875,44.992,7.76,32.568,concentric,4,3.0,22710.0,322411.0,289884.0,340281.0,298934.0
2026-04-07 17:49:16.895648,225176,1227275193,1227276761,-1.124352,0.031232,-0.062464,6.5275,14.4375,-35.7175,44.304,7.76,32.568,concentric,4,3.0,22710.0,322411.0,289884.0,340281.0,298934.0
2026-04-07 17:49:16.899689,225177,1227289750,1227291712,-1.15168,0.06832,-0.056608,7.84875,15.408751,-37.2925,44.536003,7.856,32.688,concentric,4,3.0,22710.0,322411.0,289884.0,340281.0,298934.0
2026-04-07 17:49:16.923779,225187,1227299127,1227300561,-1.15168,0.06832,-0.056608,6.69375,15.636251,-37.625,44.536003,7.856,32.688,concentric,4,3.0,22220.0,317299.0,285308.0,334586.0,294081.0
2026-04-07 17:49:16.928054,225188,1227308174,1227309371,-1.147776,0.017568,-0.062464,4.05125,15.58375,-38.045002,44.68,8.752001,33.336002,concentric,4,3.0,22220.0,317299.0,285308.0,334586.0,294081.0
2026-04-07 17:49:16.930484,225189,1227317132,1227318059,-1.147776,0.017568,-0.062464,0.06125,15.82875,-37.8175,44.68,8.752001,33.336002,concentric,4,3.0,22220.0,317299.0,285308.0,334586.0,294081.0
2026-04-07 17:49:16.936546,225190,1227331653,1227333025,-1.145824,-0.056608,-0.070272,-2.80875,16.66,-36.785,44.24,8.448,32.544003,concentric,4,3.0,22220.0,317299.0,285308.0,334586.0,294081.0
2026-04-07 17:49:16.965167,225191,1227340611,1227341734,-1.145824,-0.056608,-0.070272,-3.49125,15.96,-37.54625,44.24,8.448,32.544003,concentric,4,3.0,22220.0,317299.0,285308.0,334586.0,294081.0
2026-04-07 17:49:16.969609,225192,1227349531,1227350414,-1.1712,-0.003904,-0.064416,-1.00625,16.66875,-38.42125,43.552002,9.224,32.744003,concentric,4,3.0,22220.0,317299.0,285308.0,334586.0,294081.0
2026-04-07 17:49:16.971156,225193,1227364020,1227365278,-1.1712,-0.003904,-0.064416,3.87625,16.975,-37.68625,43.552002,9.224,32.744003,concentric,4,3.0,22220.0,317299.0,285308.0,334586.0,294081.0
2026-04-07 17:49:16.978200,225194,1227372994,1227374021,-1.155584,0.046848,-0.056608,8.09375,17.3425,-37.9925,43.000004,9.728001,32.4,concentric,4,3.0,22220.0,317299.0,285308.0,334586.0,294081.0
2026-04-07 17:49:16.986781,225195,1227381988,1227382729,-1.155584,0.046848,-0.056608,5.145,18.06,-36.84625,43.000004,9.728001,32.4,concentric,4,3.0,22220.0,317299.0,285308.0,334586.0,294081.0
2026-04-07 17:49:17.015281,225196,1227391348,1227393487,-1.165344,0.003904,-0.076128,-3.15875,18.29625,-34.6325,42.84,9.856001,32.024002,concentric,4,3.0,22220.0,317299.0,285308.0,334586.0,294081.0
2026-04-07 17:49:17.044705,225207,1227405927,1227406684,-1.165344,0.003904,-0.076128,-10.29,18.68125,-35.09625,42.84,9.856001,32.024002,concentric,4,3.0,21594.0,311114.0,280027.0,328547.0,289245.0
2026-04-07 17:49:17.046262,225208,1227415375,1227417431,-1.192672,-0.017568,-0.054656,-10.5,19.41625,-35.34125,43.160004,10.224001,32.272003,concentric,4,3.0,21594.0,311114.0,280027.0,328547.0,289245.0
2026-04-07 17:49:17.050445,225209,1227424311,1227426181,-1.192672,-0.017568,-0.054656,-5.60875,19.66125,-34.55375,43.160004,10.224001,32.272003,concentric,4,3.0,21594.0,311114.0,280027.0,328547.0,289245.0
2026-04-07 17:49:17.052155,225210,1227438860,1227441112,-1.149728,0.00976,-0.06832,-3.01875,20.02875,-34.545002,43.216003,10.112,33.512,concentric,4,3.0,21594.0,311114.0,280027.0,328547.0,289245.0
2026-04-07 17:49:17.053729,225211,1227447858,1227449816,-1.10288,0.046848,-0.056608,-4.5325,20.27375,-35.48125,42.544003,10.976001,33.232002,concentric,4,3.0,21594.0,311114.0,280027.0,328547.0,289245.0
2026-04-07 17:49:17.085379,225212,1227456791,1227458518,-1.10288,0.046848,-0.056608,-6.69375,21.56875,-36.085,42.544003,10.976001,33.232002,concentric,4,3.0,21594.0,311114.0,280027.0,328547.0,289245.0
2026-04-07 17:49:17.091743,225213,1227471310,1227473434,-1.1224,0.085888,-0.027328,-8.51375,23.66875,-37.826252,42.464,11.328,31.2,concentric,4,3.0,21594.0,311114.0,280027.0,328547.0,289245.0
2026-04-07 17:49:17.093505,225214,1227480225,1227482129,-1.1224,0.085888,-0.027328,-9.40625,25.48,-39.48875,42.464,11.328,31.2,concentric,4,3.0,21594.0,311114.0,280027.0,328547.0,289245.0
2026-04-07 17:49:17.095288,225215,1227489148,1227490838,-1.143872,0.060512,-0.015616,-11.48875,26.897501,-39.6725,42.312,11.656,30.912,concentric,4,3.0,21594.0,311114.0,280027.0,328547.0,289245.0
2026-04-07 17:49:17.123750,225225,1227498630,1227499540,-1.143872,0.060512,-0.015616,-16.45875,28.105,-40.11875,42.312,11.656,30.912,concentric,4,3.0,21205.0,307637.0,277225.0,325507.0,286917.0
2026-04-07 17:49:17.127943,225226,1227513256,1227514545,-1.153632,-0.0488,-0.03904,-24.928751,28.62125,-39.80375,41.4,11.952001,32.0,concentric,4,3.0,21205.0,307637.0,277225.0,325507.0,286917.0
2026-04-07 17:49:17.129541,225227,1227522278,1227523271,-1.153632,-0.0488,-0.03904,-30.24,28.1575,-37.065,41.4,11.952001,32.0,concentric,4,3.0,21205.0,307637.0,277225.0,325507.0,286917.0
2026-04-07 17:49:17.136799,225228,1227531218,1227531999,-1.120448,-0.091744,-0.0976,-29.05,27.02875,-34.86875,40.872,11.848001,31.944002,concentric,4,3.0,21205.0,307637.0,277225.0,325507.0,286917.0
2026-04-07 17:49:17.172335,225229,1227540651,1227542741,-1.120448,-0.091744,-0.0976,-23.05625,26.08375,-33.18875,40.872,11.848001,31.944002,concentric,4,3.0,21205.0,307637.0,277225.0,325507.0,286917.0
2026-04-07 17:49:17.174587,225230,1227555166,1227555607,-1.130208,-0.00976,-0.119072,-15.23375,26.0575,-31.675,41.320004,12.888001,29.832,concentric,4,3.0,21205.0,307637.0,277225.0,325507.0,286917.0
2026-04-07 17:49:17.179185,225231,1227564442,1227566366,-1.130208,-0.00976,-0.119072,-8.93375,26.80125,-29.82875,41.320004,12.888001,29.832,concentric,4,3.0,21205.0,307637.0,277225.0,325507.0,286917.0
2026-04-07 17:49:17.180803,225232,1227573382,1227575052,-1.1712,0.015616,-0.124928,-6.6675,26.39875,-27.27375,41.184002,12.896001,29.888,concentric,4,3.0,21205.0,307637.0,277225.0,325507.0,286917.0
2026-04-07 17:49:17.211072,225233,1227587922,1227589967,-1.159488,-0.00976,-0.08784,-7.58625,25.33125,-24.61375,40.928,13.304001,30.816002,concentric,4,3.0,21205.0,307637.0,277225.0,325507.0,286917.0
2026-04-07 17:49:17.213388,225234,1227596826,1227598708,-1.159488,-0.00976,-0.08784,-8.65375,23.6775,-23.625,40.928,13.304001,30.816002,concentric,4,3.0,21205.0,307637.0,277225.0,325507.0,286917.0
2026-04-07 17:49:17.238821,225244,1227605833,1227607421,-1.159488,-0.00976,-0.08784,-5.74875,22.70625,-23.35375,40.928,13.304001,30.816002,concentric,4,3.0,20864.0,305262.0,275546.0,324147.0,285809.0
2026-04-07 17:49:17.243015,225245,1227620398,1227622418,-1.179008,-0.015616,-0.101504,-2.77375,22.68875,-22.8375,40.696003,14.272,26.760002,concentric,4,3.0,20864.0,305262.0,275546.0,324147.0,285809.0
2026-04-07 17:49:17.246198,225246,1227629351,1227631158,-1.186816,-0.037088,-0.109312,-2.9575,21.7175,-23.4325,39.256,12.952001,30.008001,concentric,4,3.0,20864.0,305262.0,275546.0,324147.0,285809.0
2026-04-07 17:49:17.249999,225247,1227638283,1227639872,-1.186816,-0.037088,-0.109312,-1.925,21.35,-22.95125,39.256,12.952001,30.008001,concentric,4,3.0,20864.0,305262.0,275546.0,324147.0,285809.0
2026-04-07 17:49:17.252525,225248,1227647245,1227648605,-1.186816,-0.037088,-0.111264,1.1025,20.81625,-21.30625,39.256,12.952001,30.008001,concentric,4,3.0,20864.0,305262.0,275546.0,324147.0,285809.0
2026-04-07 17:49:17.285986,225249,1227661765,1227663486,-1.177056,-0.050752,-0.111264,1.75875,18.83875,-19.13625,39.848003,13.344001,28.576002,concentric,4,3.0,20864.0,305262.0,275546.0,324147.0,285809.0
2026-04-07 17:49:17.290474,225250,1227670742,1227672239,-1.13216,-0.042944,-0.105408,2.1,16.555,-18.62,40.096,14.168,29.256,concentric,4,3.0,20864.0,305262.0,275546.0,324147.0,285809.0
2026-04-07 17:49:17.292427,225251,1227679648,1227680917,-1.13216,-0.042944,-0.105408,1.81125,14.455,-18.43625,40.096,14.168,29.256,concentric,4,3.0,20864.0,305262.0,275546.0,324147.0,285809.0
2026-04-07 17:49:17.300290,225252,1227694151,1227695861,-1.186816,0.015616,-0.142496,2.0475,11.94375,-18.3225,39.656002,14.56,29.176,concentric,4,3.0,20864.0,305262.0,275546.0,324147.0,285809.0
2026-04-07 17:49:17.328069,225263,1227703380,1227704584,-1.186816,0.015616,-0.142496,5.15375,9.6425,-18.69875,39.656002,14.56,29.176,concentric,4,3.0,20356.0,300619.0,271724.0,319997.0,281968.0
2026-04-07 17:49:17.329723,225264,1227712336,1227713320,-1.134112,0.02928,-0.17568,8.21625,6.95625,-18.27875,39.008003,14.032001,30.744001,concentric,4,3.0,20356.0,300619.0,271724.0,319997.0,281968.0
2026-04-07 17:49:17.331273,225265,1227726844,1227728218,-1.134112,0.02928,-0.17568,9.835,5.85375,-19.31125,39.008003,14.032001,30.744001,concentric,4,3.0,20356.0,300619.0,271724.0,319997.0,281968.0
2026-04-07 17:49:17.368526,225266,1227735785,1227736962,-1.163392,-0.031232,-0.062464,10.823751,6.62375,-18.82125,38.960003,14.352,33.256,concentric,4,3.0,20356.0,300619.0,271724.0,319997.0,281968.0
2026-04-07 17:49:17.370004,225267,1227744682,1227745647,-1.163392,-0.031232,-0.062464,12.25875,5.32875,-16.91375,38.960003,14.352,33.256,concentric,4,3.0,20356.0,300619.0,271724.0,319997.0,281968.0
2026-04-07 17:49:17.374637,225268,1227753604,1227754339,-1.138016,-0.080032,0.0,8.68875,3.8325,-16.73875,39.408,15.184001,29.144001,concentric,4,3.0,20356.0,300619.0,271724.0,319997.0,281968.0
2026-04-07 17:49:17.376165,225269,1227768494,1227769221,-1.14192,-0.050752,-0.085888,4.935,2.9225,-15.9425,39.408,15.024001,28.632002,concentric,4,3.0,20356.0,300619.0,271724.0,319997.0,281968.0
2026-04-07 17:49:17.382994,225270,1227777829,1227779949,-1.14192,-0.050752,-0.085888,4.29625,2.44125,-15.4875,39.368,15.024001,28.632002,concentric,4,3.0,20356.0,300619.0,271724.0,319997.0,281968.0
2026-04-07 17:49:17.411471,225271,1227786765,1227788694,-1.14192,-0.050752,-0.085888,4.48875,2.89625,-13.92125,39.368,15.024001,28.632002,concentric,4,3.0,20356.0,300619.0,271724.0,319997.0,281968.0
2026-04-07 17:49:17.439495,225281,1227801483,1227803615,-1.149728,-0.013664,-0.076128,5.04875,3.6225,-12.15375,38.824,14.744,29.28,concentric,4,3.0,19857.0,296123.0,268190.0,316330.0,279119.0
2026-04-07 17:49:17.476797,225282,1227810544,1227812328,-1.169248,-0.03904,-0.06832,5.9675,4.20875,-11.97875,38.768,15.128,29.528002,concentric,4,3.0,19857.0,296123.0,268190.0,316330.0,279119.0
2026-04-07 17:49:17.478472,225283,1227819545,1227821069,-1.169248,-0.03904,-0.06832,4.31375,3.6575,-11.55,38.768,15.128,29.528002,concentric,4,3.0,19857.0,296123.0,268190.0,316330.0,279119.0
2026-04-07 17:49:17.480957,225284,1227828633,1227829828,-1.206336,-0.050752,-0.122976,4.235,3.605,-11.13,38.768,14.816001,31.232002,concentric,4,3.0,19857.0,296123.0,268190.0,316330.0,279119.0
2026-04-07 17:49:17.482401,225285,1227843220,1227844737,-1.206336,-0.050752,-0.122976,8.47,3.31625,-9.03,37.512,14.816001,31.232002,concentric,4,3.0,19857.0,296123.0,268190.0,316330.0,279119.0
2026-04-07 17:49:17.486690,225286,1227852153,1227853415,-1.138016,-0.076128,-0.113216,11.62,2.0475,-7.98,38.320004,14.752001,29.560001,concentric,4,3.0,19857.0,296123.0,268190.0,316330.0,279119.0
2026-04-07 17:49:17.488406,225287,1227861114,1227862125,-1.138016,-0.076128,-0.113216,14.56,2.02125,-8.3825,38.320004,14.752001,29.560001,concentric,4,3.0,19857.0,296123.0,268190.0,316330.0,279119.0
2026-04-07 17:49:17.490074,225288,1227875599,1227877020,-1.184864,-0.044896,-0.074176,17.2025,3.185,-7.84875,38.328003,14.864,29.488,concentric,4,3.0,19857.0,296123.0,268190.0,316330.0,279119.0
2026-04-07 17:49:17.494048,225289,1227884506,1227885743,-1.184864,-0.044896,-0.074176,17.35125,3.36,-8.12,38.328003,14.864,29.488,concentric,4,3.0,19857.0,296123.0,268190.0,316330.0,279119.0
2026-04-07 17:49:17.499070,225290,1227893578,1227894439,-1.14192,-0.021472,-0.11712,14.3675,0.9275,-7.90125,37.248,15.096001,31.952002,concentric,4,3.0,19857.0,296123.0,268190.0,316330.0,279119.0
2026-04-07 17:49:17.530452,225300,1227908150,1227909597,-1.14192,-0.021472,-0.11712,12.74875,-0.105,-8.32125,37.248,15.096001,31.952002,concentric,4,3.0,19817.0,295874.0,268068.0,316507.0,279428.0
2026-04-07 17:49:17.532208,225301,1227917093,1227918372,-1.095072,-0.02928,-0.142496,12.25875,-0.49,-9.47625,36.576,14.736001,31.016,concentric,4,3.0,19817.0,295874.0,268068.0,316507.0,279428.0
2026-04-07 17:49:17.533876,225302,1227926021,1227927109,-1.095072,-0.02928,-0.142496,10.96375,-0.6475,-10.17625,36.576,14.736001,31.016,concentric,4,3.0,19817.0,295874.0,268068.0,316507.0,279428.0
2026-04-07 17:49:17.544353,225303,1227934958,1227935814,-1.143872,-0.072224,-0.113216,11.57625,-2.07375,-8.9425,37.288002,15.176001,31.408,concentric,4,3.0,19817.0,295874.0,268068.0,316507.0,279428.0
2026-04-07 17:49:17.572663,225304,1227949493,1227950786,-1.056032,-0.060512,-0.07808,12.775,-3.99875,-6.71125,37.584003,15.584001,30.128002,concentric,4,3.0,19817.0,295874.0,268068.0,316507.0,279428.0
2026-04-07 17:49:17.577222,225305,1227958401,1227959477,-1.056032,-0.060512,-0.07808,13.8075,-5.48625,-5.08375,37.584003,15.584001,30.128002,concentric,4,3.0,19817.0,295874.0,268068.0,316507.0,279428.0
2026-04-07 17:49:17.578705,225306,1227967313,1227968170,-1.056032,-0.060512,-0.07808,16.42375,-6.2825,-5.145,37.584003,15.584001,30.128002,concentric,4,3.0,19817.0,295874.0,268068.0,316507.0,279428.0
2026-04-07 17:49:17.609774,225307,1227981877,1227983068,-1.00528,-0.027328,-0.109312,17.0275,-5.55625,-5.62625,36.968002,14.992001,29.632002,concentric,4,3.0,19817.0,295874.0,268068.0,316507.0,279428.0
2026-04-07 17:49:17.612073,225308,1227990785,1227991775,-0.964288,0.021472,-0.062464,14.665,-4.71625,-6.7025,37.072002,15.112,28.736002,concentric,4,3.0,19817.0,295874.0,268068.0,316507.0,279428.0
2026-04-07 17:49:17.616802,225309,1227999674,1228000494,-0.964288,0.021472,-0.062464,10.92875,-3.6575,-9.26625,37.072002,15.112,28.736002,concentric,4,3.0,19817.0,295874.0,268068.0,316507.0,279428.0
2026-04-07 17:49:17.643502,225320,1228014170,1228015418,-1.018944,0.031232,-0.089792,6.335,-1.96,-13.3,37.320004,15.56,30.568,concentric,4,3.0,20044.0,297986.0,269764.0,318225.0,280676.0
2026-04-07 17:49:17.645076,225321,1228023195,1228024196,-1.018944,0.031232,-0.089792,2.05625,-1.7325,-17.26375,37.320004,15.56,30.568,concentric,4,3.0,20044.0,297986.0,269764.0,318225.0,280676.0
2026-04-07 17:49:17.647521,225322,1228032129,1228032941,-1.061888,0.007808,-0.158112,4.54125,-1.98625,-18.64625,36.68,15.200001,32.128002,concentric,4,3.0,20044.0,297986.0,269764.0,318225.0,280676.0
2026-04-07 17:49:17.650090,225323,1228041101,1228041725,-1.061888,0.007808,-0.158112,8.61875,-3.38625,-17.94625,36.68,15.200001,32.128002,concentric,4,3.0,20044.0,297986.0,269764.0,318225.0,280676.0
2026-04-07 17:49:17.682297,225324,1228056020,1228056661,-1.007232,-0.046848,-0.179584,9.28375,-4.82125,-19.355,36.216003,15.624001,30.656002,concentric,4,3.0,20044.0,297986.0,269764.0,318225.0,280676.0
2026-04-07 17:49:17.686726,225325,1228065281,1228067435,-1.007232,-0.046848,-0.179584,12.64375,-5.76625,-22.09375,36.216003,15.624001,30.656002,concentric,4,3.0,20044.0,297986.0,269764.0,318225.0,280676.0
2026-04-07 17:49:17.688212,225326,1228074200,1228076148,-1.104832,-0.046848,-0.16592,18.8825,-5.46,-22.1375,36.4,15.368001,30.28,concentric,4,3.0,20044.0,297986.0,269764.0,318225.0,280676.0
2026-04-07 17:49:17.694066,225327,1228088857,1228091012,-1.104832,-0.046848,-0.16592,21.97125,-5.67,-20.93875,36.4,15.368001,30.28,concentric,4,3.0,20044.0,297986.0,269764.0,318225.0,280676.0
2026-04-07 17:49:17.722683,225328,1228097805,1228099721,-1.020896,-0.02928,-0.109312,19.15375,-5.3375,-21.3675,36.264,15.664001,31.2,concentric,4,3.0,20044.0,297986.0,269764.0,318225.0,280676.0
2026-04-07 17:49:17.782799,225338,1228106859,1228108613,-1.020896,-0.02928,-0.109312,14.1925,-3.1675,-23.23125,36.264,15.664001,31.2,concentric,4,3.0,20182.0,299316.0,270847.0,319525.0,281826.0
2026-04-07 17:49:17.784991,225339,1228115866,1228117339,-1.09312,-0.050752,-0.080032,11.0075,0.105,-23.56375,35.528,15.816001,30.920002,concentric,4,3.0,20182.0,299316.0,270847.0,319525.0,281826.0
2026-04-07 17:49:17.787651,225340,1228130430,1228132343,-1.098976,-0.050752,-0.177632,6.34375,1.91625,-22.715,34.416,15.824,33.896,concentric,4,3.0,20182.0,299316.0,270847.0,319525.0,281826.0
2026-04-07 17:49:17.789942,225341,1228139407,1228141088,-1.098976,-0.050752,-0.177632,4.62875,1.82875,-22.07625,34.416,15.824,33.896,concentric,4,3.0,20182.0,299316.0,270847.0,319525.0,281826.0
2026-04-07 17:49:17.793286,225342,1228148352,1228149786,-1.098976,-0.050752,-0.177632,7.2625,3.3775,-22.225,34.416,15.824,33.896,concentric,4,3.0,20182.0,299316.0,270847.0,319525.0,281826.0
2026-04-07 17:49:17.794943,225343,1228162884,1228164677,-1.022848,-0.062464,-0.189344,10.167501,4.83875,-21.69125,35.088,15.824,29.704,concentric,4,3.0,20182.0,299316.0,270847.0,319525.0,281826.0
2026-04-07 17:49:17.797351,225344,1228171803,1228173371,-1.01504,-0.103456,-0.095648,10.9025,6.51,-22.225,35.36,15.792001,29.672,concentric,4,3.0,20182.0,299316.0,270847.0,319525.0,281826.0
2026-04-07 17:49:17.799963,225345,1228180783,1228182108,-1.01504,-0.103456,-0.095648,8.89875,8.54,-21.11375,35.36,15.792001,29.672,concentric,4,3.0,20182.0,299316.0,270847.0,319525.0,281826.0
2026-04-07 17:49:17.807328,225346,1228195325,1228197085,-1.138016,-0.080032,-0.080032,7.385,10.07125,-19.81875,34.488003,15.952001,30.464,concentric,4,3.0,20182.0,299316.0,270847.0,319525.0,281826.0
2026-04-07 17:49:17.836719,225356,1228204681,1228205840,-1.138016,-0.080032,-0.080032,8.89875,10.1325,-19.565,34.488003,15.952001,30.464,concentric,4,3.0,20179.0,299316.0,271009.0,319921.0,282384.0
2026-04-07 17:49:17.840227,225357,1228213648,1228214643,-1.056032,-0.046848,-0.144448,12.78375,9.3625,-17.9725,33.552002,16.256,32.496002,concentric,4,3.0,20179.0,299316.0,271009.0,319921.0,282384.0
2026-04-07 17:49:17.844222,225358,1228222587,1228223383,-1.056032,-0.046848,-0.144448,13.08125,9.49375,-15.7675,33.552002,16.256,32.496002,concentric,4,3.0,20179.0,299316.0,271009.0,319921.0,282384.0
2026-04-07 17:49:17.846651,225359,1228237573,1228238331,-1.028704,-0.142496,-0.10736,9.5025,10.21125,-16.07375,34.488003,15.960001,31.488,concentric,4,3.0,20179.0,299316.0,271009.0,319921.0,282384.0
2026-04-07 17:49:17.875143,225360,1228247006,1228249165,-1.028704,-0.142496,-0.10736,6.39625,9.511251,-16.1525,34.488003,15.960001,31.488,concentric,4,3.0,20179.0,299316.0,271009.0,319921.0,282384.0
2026-04-07 17:49:17.879727,225361,1228255950,1228257862,-0.942816,-0.13664,-0.089792,4.94375,8.68875,-15.05875,33.624,16.264,31.2,concentric,4,3.0,20179.0,299316.0,271009.0,319921.0,282384.0
2026-04-07 17:49:17.882116,225362,1228264871,1228266547,-0.942816,-0.13664,-0.089792,3.29,8.89875,-15.26875,33.624,16.264,31.2,concentric,4,3.0,20179.0,299316.0,271009.0,319921.0,282384.0
2026-04-07 17:49:17.884519,225363,1228279348,1228281436,-0.981856,-0.12688,-0.181536,2.63375,8.6275,-17.272501,33.752003,16.264,30.760002,concentric,4,3.0,20179.0,299316.0,271009.0,319921.0,282384.0
2026-04-07 17:49:17.914864,225364,1228288293,1228290173,-0.981856,-0.12688,-0.181536,1.9775,6.99125,-19.897501,33.752003,16.264,30.760002,concentric,4,3.0,20179.0,299316.0,271009.0,319921.0,282384.0
2026-04-07 17:49:17.917115,225365,1228297209,1228298883,-0.901824,-0.11712,-0.20496,0.65625,5.1625,-19.2675,33.384003,16.472,33.176003,concentric,4,3.0,20179.0,299316.0,271009.0,319921.0,282384.0
2026-04-07 17:49:17.946074,225376,1228312225,1228313913,-0.895968,-0.152256,-0.138592,0.25375,3.1325,-19.915,33.480003,16.384,31.008001,concentric,4,3.0,20206.0,299980.0,271630.0,320721.0,283040.0
2026-04-07 17:49:17.947519,225377,1228321272,1228322630,-0.895968,-0.152256,-0.138592,3.66625,1.4525,-20.79875,33.480003,16.384,31.008001,concentric,4,3.0,20206.0,299980.0,271630.0,320721.0,283040.0
2026-04-07 17:49:17.952140,225378,1228330211,1228331368,-0.895968,-0.152256,-0.050752,7.385,0.6825,-20.1075,33.480003,16.384,31.008001,concentric,4,3.0,20206.0,299980.0,271630.0,320721.0,283040.0
2026-04-07 17:49:17.954170,225379,1228344767,1228346244,-0.89792,-0.179584,-0.050752,7.7175,-0.7,-20.3525,33.264,16.400002,31.928001,concentric,4,3.0,20206.0,299980.0,271630.0,320721.0,283040.0
2026-04-07 17:49:17.958291,225380,1228353833,1228354972,-0.86864,-0.1464,-0.132736,6.5275,-3.08875,-20.5975,32.688,15.896001,32.584003,concentric,4,3.0,20206.0,299980.0,271630.0,320721.0,283040.0
2026-04-07 17:49:17.988505,225381,1228362779,1228363659,-0.86864,-0.1464,-0.132736,6.06375,-5.53875,-20.195,32.688,15.896001,32.584003,concentric,4,3.0,20206.0,299980.0,271630.0,320721.0,283040.0
2026-04-07 17:49:17.992942,225382,1228371737,1228372392,-0.812032,-0.124928,-0.122976,7.6825,-6.405,-19.67,32.688,16.488,31.592001,concentric,4,3.0,20206.0,299980.0,271630.0,320721.0,283040.0
2026-04-07 17:49:17.994591,225383,1228386548,1228387279,-0.812032,-0.124928,-0.122976,7.1225,-5.80125,-19.6,32.688,16.488,31.592001,concentric,4,3.0,20206.0,299980.0,271630.0,320721.0,283040.0
2026-04-07 17:49:18.001572,225384,1228396014,1228398127,-0.812032,-0.158112,-0.015616,4.9,-5.6,-19.705,32.664,15.792001,30.896002,concentric,4,3.0,20206.0,299980.0,271630.0,320721.0,283040.0
2026-04-07 17:49:18.032062,225394,1228405536,1228406913,-0.812032,-0.158112,-0.015616,2.72125,-5.45125,-19.74875,32.664,15.792001,30.896002,concentric,4,3.0,20158.0,299297.0,271024.0,320124.0,282618.0
2026-04-07 17:49:18.034420,225395,1228414602,1228415730,-0.835456,-0.20496,0.025376,-1.56625,-4.5325,-18.26125,31.520002,16.048,33.624,concentric,4,3.0,20158.0,299297.0,271024.0,320124.0,282618.0
2026-04-07 17:49:18.035318,225396,1228429129,1228430788,-0.835456,-0.20496,0.025376,-8.07625,-5.88875,-17.2025,31.520002,16.048,33.624,concentric,4,3.0,20158.0,299297.0,271024.0,320124.0,282618.0
2026-04-07 17:49:18.072577,225397,1228438067,1228439519,-0.808128,-0.181536,-0.16592,-9.6775,-8.44375,-15.5925,31.176,15.728001,33.920002,concentric,4,3.0,20158.0,299297.0,271024.0,320124.0,282618.0
2026-04-07 17:49:18.080534,225398,1228446992,1228448201,-0.808128,-0.181536,-0.16592,-5.0225,-9.8175,-14.00875,31.176,15.728001,33.920002,concentric,4,3.0,20158.0,299297.0,271024.0,320124.0,282618.0
2026-04-07 17:49:18.082160,225399,1228461440,1228463171,-0.704672,-0.154208,-0.119072,3.38625,-8.085,-12.41625,32.448,16.256,31.320002,concentric,4,3.0,20158.0,299297.0,271024.0,320124.0,282618.0
2026-04-07 17:49:18.083724,225400,1228470341,1228471855,-0.704672,-0.154208,-0.119072,8.4525,-4.45375,-10.15875,32.448,16.256,31.320002,concentric,4,3.0,20158.0,299297.0,271024.0,320124.0,282618.0
2026-04-07 17:49:18.087839,225401,1228479261,1228480552,-0.84912,-0.199104,0.035136,9.7125,-2.6775,-8.26,32.936,16.856,32.664,concentric,4,3.0,20158.0,299297.0,271024.0,320124.0,282618.0
2026-04-07 17:49:18.121691,225402,1228493801,1228495492,-0.8784,-0.210816,0.027328,5.66125,-2.98375,-5.78375,32.640003,16.848001,31.096,concentric,4,3.0,20158.0,299297.0,271024.0,320124.0,282618.0
2026-04-07 17:49:18.145121,225412,1228502715,1228504519,-0.8784,-0.210816,0.027328,0.035,-4.655,-2.555,32.640003,16.848001,31.096,concentric,4,3.0,19973.0,297703.0,269811.0,319003.0,281976.0
2026-04-07 17:49:18.149259,225413,1228511713,1228513220,-0.815936,-0.134688,-0.103456,-3.0625,-6.15125,-0.35,32.640003,16.800001,30.864002,concentric,4,3.0,19973.0,297703.0,269811.0,319003.0,281976.0
2026-04-07 17:49:18.150892,225414,1228520609,1228521951,-0.815936,-0.134688,-0.103456,-2.45875,-7.14,0.0525,31.728,16.800001,30.864002,concentric,4,3.0,19973.0,297703.0,269811.0,319003.0,281976.0
2026-04-07 17:49:18.152580,225415,1228535084,1228536870,-0.808128,-0.193248,-0.060512,0.3675,-4.865,-0.98875,32.328003,15.992001,32.640003,concentric,4,3.0,19973.0,297703.0,269811.0,319003.0,281976.0
2026-04-07 17:49:18.156769,225416,1228544057,1228545588,-0.808128,-0.193248,-0.060512,1.33875,-2.42375,-0.4725,32.328003,15.992001,32.640003,concentric,4,3.0,19973.0,297703.0,269811.0,319003.0,281976.0
2026-04-07 17:49:18.158342,225417,1228553006,1228554322,-0.870592,-0.267424,0.080032,-1.1025,1.19875,0.875,32.248,16.336,32.24,concentric,4,3.0,19973.0,297703.0,269811.0,319003.0,281976.0
2026-04-07 17:49:18.188552,225418,1228567482,1228569246,-0.870592,-0.267424,0.080032,-4.97875,3.185,3.4825,32.248,16.336,32.24,concentric,4,3.0,19973.0,297703.0,269811.0,319003.0,281976.0
2026-04-07 17:49:18.193176,225419,1228576405,1228577925,-0.979904,-0.1464,0.013664,-6.72875,2.6775,7.06125,32.776,16.056002,31.000002,concentric,4,3.0,19973.0,297703.0,269811.0,319003.0,281976.0
2026-04-07 17:49:18.194587,225420,1228585305,1228586609,-0.979904,-0.1464,0.013664,-5.425,1.26875,10.325,32.776,16.056002,31.000002,concentric,4,3.0,19973.0,297703.0,269811.0,319003.0,281976.0
2026-04-07 17:49:18.224852,225421,1228599797,1228601543,-0.915488,-0.070272,-0.056608,-5.0575,-1.155,10.8675,32.736,15.544001,32.144,concentric,4,3.0,19973.0,297703.0,269811.0,319003.0,281976.0
2026-04-07 17:49:18.253406,225432,1228608854,1228610307,-0.915488,-0.070272,-0.056608,-10.61375,-3.61375,8.61875,32.736,15.544001,32.144,concentric,4,3.0,19735.0,295239.0,267706.0,316582.0,279990.0
2026-04-07 17:49:18.254983,225433,1228617751,1228618976,-0.909632,-0.15616,-0.070272,-15.74125,-5.25,6.3525,33.0,16.536001,30.848001,concentric,4,3.0,19735.0,295239.0,267706.0,316582.0,279990.0
2026-04-07 17:49:18.259188,225434,1228632286,1228633921,-1.028704,-0.308416,-0.011712,-19.48625,-3.78,5.845,33.0,16.552,30.664001,concentric,4,3.0,19735.0,295239.0,267706.0,316582.0,279990.0
2026-04-07 17:49:18.261067,225435,1228641352,1228642651,-1.028704,-0.308416,-0.011712,-21.25375,-4.0775,6.72875,33.448,16.552,30.664001,concentric,4,3.0,19735.0,295239.0,267706.0,316582.0,279990.0
2026-04-07 17:49:18.262590,225436,1228650275,1228651363,-1.028704,-0.308416,-0.011712,-21.60375,-5.45125,10.78,33.448,16.552,30.664001,concentric,4,3.0,19735.0,295239.0,267706.0,316582.0,279990.0
2026-04-07 17:49:18.266756,225437,1228659294,1228660120,-0.94672,-0.197152,-0.00976,-21.98875,-7.14,14.77,33.616,16.640001,29.720001,concentric,4,3.0,19735.0,295239.0,267706.0,316582.0,279990.0
2026-04-07 17:49:18.295152,225438,1228673775,1228675009,-1.020896,-0.083936,0.00976,-17.35125,-6.58875,14.8225,33.856003,16.008001,30.416002,concentric,4,3.0,19735.0,295239.0,267706.0,316582.0,279990.0
2026-04-07 17:49:18.299639,225439,1228682670,1228683726,-1.020896,-0.083936,0.00976,-13.6325,-5.1275,14.2975,33.856003,16.008001,30.416002,concentric,4,3.0,19735.0,295239.0,267706.0,316582.0,279990.0
2026-04-07 17:49:18.302007,225440,1228691603,1228692435,-1.020896,-0.083936,0.00976,-16.6425,-6.46625,13.25625,33.856003,16.008001,30.416002,concentric,4,3.0,19735.0,295239.0,267706.0,316582.0,279990.0
