pc_time,serial_num,sensor_ts,host_ts,ax,ay,az,gx,gy,gz,mx,my,mz,phase,rpe,weight_kg,ppg_a,ppg_b,ppg_c,ppg_d,ppg_e
2026-04-08 21:45:59.455830,197972,1609503931678152,1531645048,0.661728,0.08784,-0.132736,11.34875,4.99625,-27.51,-18.304,-5.312,-17.688002,eccentric,4,3.0,19544.0,139544.0,224634.0,275497.0,260423.0
2026-04-08 21:45:59.460289,197973,1609503931687119,1531653725,0.661728,0.040992,-0.122976,20.62375,2.59875,-21.455,-18.304,-5.312,-15.64,eccentric,4,3.0,19544.0,139544.0,224634.0,275497.0,260423.0
2026-04-08 21:45:59.486904,197984,1609503931701939,1531668606,0.77104,0.040992,-0.122976,20.83375,0.51625,-21.02625,-18.568,-5.184,-15.152,eccentric,4,3.0,19537.0,139787.0,225144.0,276050.0,260854.0
2026-04-08 21:45:59.488543,197985,1609503931710920,1531677294,0.821792,0.085888,-0.177632,15.23375,-1.65375,-23.96625,-18.696001,-5.352,-17.008001,eccentric,4,3.0,19537.0,139787.0,225144.0,276050.0,260854.0
2026-04-08 21:45:59.491006,197986,1609503931719892,1531685990,0.821792,0.085888,-0.177632,7.42875,-1.89875,-25.06,-18.696001,-5.352,-17.008001,eccentric,4,3.0,19537.0,139787.0,225144.0,276050.0,260854.0
2026-04-08 21:45:59.495010,197987,1609503931734382,1531700940,0.851072,0.179584,-0.07808,10.00125,0.5075,-21.455,-18.376001,-5.064,-16.2,eccentric,4,3.0,19537.0,139787.0,225144.0,276050.0,260854.0
2026-04-08 21:45:59.523582,197988,1609503931743355,1531709632,0.851072,0.179584,-0.07808,21.74375,2.66,-15.085,-18.376001,-5.064,-16.2,eccentric,4,3.0,19537.0,139787.0,225144.0,276050.0,260854.0
2026-04-08 21:45:59.528100,197989,1609503931757841,1531724535,0.856928,0.121024,-0.220576,23.5025,3.815,-7.90125,-18.672,-5.184,-17.52,eccentric,4,3.0,19537.0,139787.0,225144.0,276050.0,260854.0
2026-04-08 21:45:59.529623,197990,1609503931766778,1531733215,0.856928,0.121024,-0.220576,13.5975,1.81125,-6.30875,-18.672,-5.184,-17.52,eccentric,4,3.0,19537.0,139787.0,225144.0,276050.0,260854.0
2026-04-08 21:45:59.536242,197991,1609503931775803,1531741900,0.88816,0.138592,-0.10736,-1.39125,1.8375,-9.6075,-18.248001,-5.256,-18.088001,eccentric,4,3.0,19537.0,139787.0,225144.0,276050.0,260854.0
2026-04-08 21:45:59.564838,197992,1609503931790229,1531756796,0.85888,0.15616,-0.21472,-5.7225,2.5375,-7.14875,-18.656,-4.984,-16.984001,eccentric,4,3.0,19537.0,139787.0,225144.0,276050.0,260854.0
2026-04-08 21:45:59.630733,198003,1609503931799158,1531765415,0.85888,0.15616,-0.21472,1.21625,3.9375,0.0,-18.656,-4.984,-16.984001,eccentric,4,3.0,19549.0,139863.0,225258.0,276217.0,260994.0
2026-04-08 21:45:59.633206,198004,1609503931813668,1531780311,0.772992,0.177632,-0.042944,3.325,2.84375,6.4925,-18.52,-4.776,-17.256,eccentric,4,3.0,19549.0,139863.0,225258.0,276217.0,260994.0
2026-04-08 21:45:59.634703,198005,1609503931822611,1531789006,0.772992,0.177632,-0.042944,2.87,3.91125,7.35,-18.52,-4.776,-17.256,eccentric,4,3.0,19549.0,139863.0,225258.0,276217.0,260994.0
2026-04-08 21:45:59.635883,198006,1609503931837131,1531803855,0.86864,0.101504,-0.216672,2.2575,5.1625,6.85125,-18.872002,-4.744,-17.52,eccentric,4,3.0,19549.0,139863.0,225258.0,276217.0,260994.0
2026-04-08 21:45:59.640138,198007,1609503931846060,1531812533,0.86864,0.101504,-0.216672,-5.60875,6.3525,7.90125,-18.872002,-4.744,-17.52,eccentric,4,3.0,19549.0,139863.0,225258.0,276217.0,260994.0
2026-04-08 21:45:59.641889,198008,1609503931854988,1531821200,0.872544,0.193248,-0.111264,-15.25125,8.82,8.74125,-18.816,-5.128,-17.152,eccentric,4,3.0,19549.0,139863.0,225258.0,276217.0,260994.0
2026-04-08 21:45:59.643395,198009,1609503931869554,1531836155,0.749568,0.206912,-0.02928,-17.17625,10.167501,11.06875,-18.768002,-5.112001,-16.216002,eccentric,4,3.0,19549.0,139863.0,225258.0,276217.0,260994.0
2026-04-08 21:45:59.647557,198010,1609503931878494,1531844853,0.749568,0.206912,-0.02928,-14.91875,8.28625,17.255,-18.768002,-5.112001,-16.216002,eccentric,4,3.0,19549.0,139863.0,225258.0,276217.0,260994.0
2026-04-08 21:45:59.653813,198011,1609503931893062,1531859745,0.792512,0.044896,-0.093696,-15.636251,5.66125,20.6675,-18.68,-5.056,-16.792002,eccentric,4,3.0,19549.0,139863.0,225258.0,276217.0,260994.0
2026-04-08 21:45:59.687611,198022,1609503931902475,1531868806,0.792512,0.044896,-0.093696,-19.18875,2.695,18.7775,-18.68,-5.056,-16.792002,eccentric,4,3.0,19459.0,139606.0,224949.0,275973.0,260849.0
2026-04-08 21:45:59.689379,198023,1609503931911496,1531877522,0.81008,0.050752,-0.1952,-18.7775,1.05875,16.00375,-19.2,-4.896,-16.512001,eccentric,4,3.0,19459.0,139606.0,224949.0,275973.0,260849.0
2026-04-08 21:45:59.690930,198024,1609503931925992,1531892500,0.81008,0.050752,-0.1952,-12.705,-0.4375,15.56625,-19.2,-4.896,-16.512001,eccentric,4,3.0,19459.0,139606.0,224949.0,275973.0,260849.0
2026-04-08 21:45:59.694215,198025,1609503931935002,1531901229,0.786656,0.095648,-0.220576,-6.04625,-0.1925,17.255,-19.2,-4.648,-15.952001,eccentric,4,3.0,19459.0,139606.0,224949.0,275973.0,260849.0
2026-04-08 21:45:59.724462,198026,1609503931949489,1531916077,0.710528,0.11712,-0.173728,-0.95375,0.62125,19.7575,-18.952002,-4.624,-15.424001,eccentric,4,3.0,19459.0,139606.0,224949.0,275973.0,260849.0
2026-04-08 21:45:59.728916,198027,1609503931958432,1531924737,0.710528,0.11712,-0.173728,-4.515,0.49,20.46625,-18.952002,-4.624,-15.424001,eccentric,4,3.0,19459.0,139606.0,224949.0,275973.0,260849.0
2026-04-08 21:45:59.733016,198028,1609503931972908,1531939622,0.759328,0.050752,-0.072224,-13.230001,1.12875,18.8475,-19.184,-4.584,-16.992,eccentric,4,3.0,19459.0,139606.0,224949.0,275973.0,260849.0
2026-04-08 21:45:59.763244,198029,1609503931981821,1531948294,0.759328,0.050752,-0.072224,-18.0425,2.345,18.82125,-19.184,-4.584,-16.992,eccentric,4,3.0,19459.0,139606.0,224949.0,275973.0,260849.0
2026-04-08 21:45:59.767769,198030,1609503931990725,1531956950,0.69296,0.005856,-0.23424,-18.20875,2.9575,22.33,-19.416,-4.496,-16.832,eccentric,4,3.0,19459.0,139606.0,224949.0,275973.0,260849.0
2026-04-08 21:45:59.799330,198041,1609503932005277,1531971825,0.69296,0.005856,-0.23424,-16.94875,4.025,25.33125,-19.416,-4.496,-16.832,eccentric,4,3.0,19458.0,139769.0,225312.0,276362.0,261137.0
2026-04-08 21:45:59.800877,198042,1609503932014232,1531980511,0.765184,-0.025376,-0.040992,-16.2925,4.7075,27.15125,-19.688002,-4.744,-17.008001,eccentric,4,3.0,19458.0,139769.0,225312.0,276362.0,261137.0
2026-04-08 21:45:59.805133,198043,1609503932028722,1531995399,0.765184,-0.025376,-0.040992,-18.5675,4.69,26.705,-19.688002,-4.744,-17.008001,eccentric,4,3.0,19458.0,139769.0,225312.0,276362.0,261137.0
2026-04-08 21:45:59.807577,198044,1609503932037661,1532004127,0.745664,0.0,-0.044896,-20.29125,5.92375,25.48,-19.848001,-4.4,-13.528001,eccentric,4,3.0,19458.0,139769.0,225312.0,276362.0,261137.0
2026-04-08 21:45:59.813818,198045,1609503932052213,1532019068,0.767136,-0.011712,-0.033184,-18.13875,8.60125,27.01125,-19.808,-4.544,-15.760001,eccentric,4,3.0,19458.0,139769.0,225312.0,276362.0,261137.0
2026-04-08 21:45:59.842345,198046,1609503932061131,1532027759,0.767136,-0.011712,-0.033184,-14.595,11.87375,30.79125,-19.808,-4.544,-15.760001,eccentric,4,3.0,19458.0,139769.0,225312.0,276362.0,261137.0
2026-04-08 21:45:59.846983,198047,1609503932070092,1532036429,0.747616,-0.052704,-0.179584,-14.3325,12.8625,33.92375,-20.392,-4.32,-16.856,eccentric,4,3.0,19458.0,139769.0,225312.0,276362.0,261137.0
2026-04-08 21:45:59.849265,198048,1609503932085023,1532051554,0.747616,-0.052704,-0.179584,-18.10375,13.1075,34.72,-20.392,-4.32,-16.856,eccentric,4,3.0,19458.0,139769.0,225312.0,276362.0,261137.0
2026-04-08 21:45:59.855059,198049,1609503932093964,1532060259,0.837408,-0.054656,-0.052704,-22.07625,13.18625,32.7075,-20.024,-4.4,-16.344,eccentric,4,3.0,19458.0,139769.0,225312.0,276362.0,261137.0
2026-04-08 21:45:59.916327,198060,1609503932108662,1532075223,0.837408,-0.054656,-0.052704,-22.98625,15.04125,31.54375,-20.024,-4.4,-16.344,eccentric,4,3.0,19482.0,139953.0,225624.0,276651.0,261339.0
2026-04-08 21:45:59.919160,198061,1609503932117621,1532083956,0.745664,0.027328,-0.021472,-20.81625,18.585001,34.02875,-20.688002,-4.392,-16.352001,eccentric,4,3.0,19482.0,139953.0,225624.0,276651.0,261339.0
2026-04-08 21:45:59.925172,198062,1609503932126548,1532092729,0.745664,0.027328,-0.021472,-15.575,20.67625,39.36625,-20.688002,-4.392,-16.352001,eccentric,4,3.0,19482.0,139953.0,225624.0,276651.0,261339.0
2026-04-08 21:45:59.926879,198063,1609503932140993,1532107576,0.823744,-0.025376,-0.003904,-18.0075,21.7525,43.40875,-20.912,-4.224,-16.04,eccentric,4,3.0,19482.0,139953.0,225624.0,276651.0,261339.0
2026-04-08 21:45:59.928422,198064,1609503932149875,1532116225,0.823744,-0.025376,-0.16592,-28.647501,20.125,42.5775,-20.912,-4.224,-16.04,eccentric,4,3.0,19482.0,139953.0,225624.0,276651.0,261339.0
2026-04-08 21:45:59.932645,198065,1609503932164355,1532131135,0.886208,-0.10736,-0.16592,-43.16375,18.27,37.47625,-21.216002,-4.656,-13.880001,eccentric,4,3.0,19482.0,139953.0,225624.0,276651.0,261339.0
2026-04-08 21:45:59.935158,198066,1609503932173263,1532139845,0.817888,-0.066368,-0.152256,-51.3625,20.13375,33.285,-21.296001,-4.136,-14.624001,eccentric,4,3.0,19482.0,139953.0,225624.0,276651.0,261339.0
2026-04-08 21:45:59.966465,198067,1609503932187740,1532154774,0.817888,-0.066368,-0.152256,-45.4475,23.37125,32.92625,-21.296001,-4.136,-14.624001,eccentric,4,3.0,19482.0,139953.0,225624.0,276651.0,261339.0
2026-04-08 21:45:59.968251,198068,1609503932196990,1532163535,0.856928,-0.035136,0.033184,-37.65125,24.3775,36.12875,-21.544,-3.976,-15.352001,eccentric,4,3.0,19482.0,139953.0,225624.0,276651.0,261339.0
2026-04-08 21:45:59.999410,198079,1609503932206369,1532172795,0.856928,-0.035136,0.033184,-33.39875,23.135,38.54375,-21.544,-3.976,-15.352001,eccentric,4,3.0,19332.0,139538.0,225310.0,276422.0,261214.0
2026-04-08 21:46:00.000986,198080,1609503932221012,1532187755,0.899872,-0.142496,0.005856,-33.06625,19.38125,37.8525,-22.184002,-4.272,-15.000001,eccentric,4,3.0,19332.0,139538.0,225310.0,276422.0,261214.0
2026-04-08 21:46:00.007756,198081,1609503932229951,1532196442,0.899872,-0.142496,0.005856,-37.2575,11.01625,35.46375,-22.184002,-4.272,-15.000001,eccentric,4,3.0,19332.0,139538.0,225310.0,276422.0,261214.0
2026-04-08 21:46:00.009725,198082,1609503932244458,1532211383,0.853024,-0.138592,0.07808,-33.705,7.21875,32.17375,-22.720001,-4.072,-15.68,eccentric,4,3.0,19332.0,139538.0,225310.0,276422.0,261214.0
2026-04-08 21:46:00.015000,198083,1609503932253366,1532220104,0.89792,-0.128832,0.095648,-22.015,5.18,31.4825,-22.624,-4.008,-14.880001,eccentric,4,3.0,19332.0,139538.0,225310.0,276422.0,261214.0
2026-04-08 21:46:00.043654,198084,1609503932262282,1532228792,0.89792,-0.128832,0.095648,-8.6625,2.6425,32.62,-22.624,-4.008,-14.880001,eccentric,4,3.0,19332.0,139538.0,225310.0,276422.0,261214.0
2026-04-08 21:46:00.048070,198085,1609503932276729,1532243700,0.894016,-0.122976,-0.115168,-1.505,1.68875,32.34875,-22.920002,-3.984,-15.032001,eccentric,4,3.0,19332.0,139538.0,225310.0,276422.0,261214.0
2026-04-08 21:46:00.049588,198086,1609503932285631,1532252356,0.894016,-0.122976,-0.115168,-4.2875,-0.14875,32.62,-22.920002,-3.984,-15.032001,eccentric,4,3.0,19332.0,139538.0,225310.0,276422.0,261214.0
2026-04-08 21:46:00.110960,198097,1609503932300125,1532267180,1.05408,-0.21472,0.015616,-18.76,-3.7625,28.2975,-23.088001,-4.352,-14.960001,eccentric,4,3.0,19410.0,139815.0,225700.0,276681.0,261288.0
2026-04-08 21:46:00.113741,198098,1609503932309072,1532275880,1.05408,-0.21472,0.015616,-32.34,-4.3225,21.11375,-23.088001,-4.352,-14.960001,eccentric,4,3.0,19410.0,139815.0,225700.0,276681.0,261288.0
2026-04-08 21:46:00.114930,198099,1609503932323558,1532288715,0.948672,-0.212768,-0.02928,-27.6325,-4.8125,16.28375,-23.464,-4.424,-15.592001,eccentric,4,3.0,19410.0,139815.0,225700.0,276681.0,261288.0
2026-04-08 21:46:00.118888,198100,1609503932332680,1532299455,0.83936,-0.12688,-0.056608,-14.752501,-2.5025,17.33375,-23.464,-4.32,-14.840001,eccentric,4,3.0,19410.0,139815.0,225700.0,276681.0,261288.0
2026-04-08 21:46:00.120578,198101,1609503932341710,1532308163,0.83936,-0.12688,-0.056608,0.62125,-0.65625,20.37,-23.464,-4.32,-14.840001,eccentric,4,3.0,19410.0,139815.0,225700.0,276681.0,261288.0
2026-04-08 21:46:00.122270,198102,1609503932356255,1532323070,1.016992,-0.181536,-0.00976,4.12125,1.3125,21.81375,-23.920002,-4.224,-14.6,eccentric,4,3.0,19410.0,139815.0,225700.0,276681.0,261288.0
2026-04-08 21:46:00.125420,198103,1609503932365203,1532331762,1.016992,-0.181536,-0.00976,-5.3025,1.09375,22.522501,-23.920002,-4.224,-14.6,eccentric,4,3.0,19410.0,139815.0,225700.0,276681.0,261288.0
2026-04-08 21:46:00.158579,198104,1609503932379684,1532346642,1.011136,-0.158112,-0.033184,-17.5525,1.18125,18.41875,-24.168001,-4.528,-14.160001,eccentric,4,3.0,19410.0,139815.0,225700.0,276681.0,261288.0
2026-04-08 21:46:00.170807,198105,1609503932388623,1532355326,1.011136,-0.158112,-0.033184,-21.4025,3.03625,15.32125,-24.168001,-4.528,-14.160001,eccentric,4,3.0,19410.0,139815.0,225700.0,276681.0,261288.0
2026-04-08 21:46:00.233379,198116,1609503932403409,1532370275,0.997472,-0.171776,-0.011712,-21.2975,7.2275,16.835001,-24.112001,-4.536,-14.352,eccentric,4,3.0,19381.0,139657.0,225543.0,276551.0,261184.0
2026-04-08 21:46:00.235881,198117,1609503932412417,1532378996,0.892064,-0.140544,-0.001952,-17.17625,9.38,17.64875,-24.816002,-4.416,-14.880001,eccentric,4,3.0,19381.0,139657.0,225543.0,276551.0,261184.0
2026-04-08 21:46:00.238402,198118,1609503932421321,1532387673,0.892064,-0.140544,-0.001952,-12.10125,9.30125,16.8,-24.816002,-4.416,-14.880001,eccentric,4,3.0,19381.0,139657.0,225543.0,276551.0,261184.0
2026-04-08 21:46:00.240866,198119,1609503932435775,1532402532,1.085312,-0.1952,0.16592,-9.24875,8.72375,16.35375,-25.088001,-4.384,-13.952001,eccentric,4,3.0,19381.0,139657.0,225543.0,276551.0,261184.0
2026-04-08 21:46:00.243391,198120,1609503932444670,1532411171,1.085312,-0.1952,0.16592,-9.00375,6.65875,13.895,-25.088001,-4.384,-13.952001,eccentric,4,3.0,19381.0,139657.0,225543.0,276551.0,261184.0
2026-04-08 21:46:00.245833,198121,1609503932459214,1532426098,1.06384,-0.160064,0.122976,-8.3475,5.08375,7.46375,-25.368002,-4.576,-13.944,eccentric,4,3.0,19381.0,139657.0,225543.0,276551.0,261184.0
2026-04-08 21:46:00.248552,198122,1609503932468264,1532434838,1.06384,-0.160064,0.122976,-3.8675,5.8625,-0.11375,-25.368002,-4.576,-13.944,eccentric,4,3.0,19381.0,139657.0,225543.0,276551.0,261184.0
2026-04-08 21:46:00.250868,198123,1609503932482772,1532449731,1.001376,-0.10736,-0.037088,3.94625,5.3725,-4.17375,-25.784,-4.824,-13.648001,eccentric,4,3.0,19381.0,139657.0,225543.0,276551.0,261184.0
2026-04-08 21:46:00.253376,198124,1609503932491701,1532458409,1.001376,-0.10736,-0.037088,10.26375,6.1425,-4.48875,-25.784,-4.824,-13.648001,eccentric,4,3.0,19381.0,139657.0,225543.0,276551.0,261184.0
2026-04-08 21:46:00.283601,198125,1609503932500667,1532467107,1.13216,-0.054656,-0.10736,12.95,8.88125,-2.47625,-25.664001,-4.424,-12.688001,eccentric,4,3.0,19381.0,139657.0,225543.0,276551.0,261184.0
2026-04-08 21:46:00.314608,198136,1609503932515233,1532481991,1.106784,-0.027328,-0.052704,11.585,10.3775,-3.35125,-25.912,-5.088,-13.152,eccentric,4,3.0,19520.0,139645.0,225351.0,276138.0,260684.0
2026-04-08 21:46:00.317122,198137,1609503932524131,1532490659,1.106784,-0.027328,-0.052704,8.75,13.65,-6.50125,-25.912,-5.088,-13.152,eccentric,4,3.0,19520.0,139645.0,225351.0,276138.0,260684.0
2026-04-08 21:46:00.319721,198138,1609503932538722,1532505592,1.0248,-0.070272,-0.140544,10.52625,16.14375,-7.27125,-26.672,-5.12,-12.088,eccentric,4,3.0,19520.0,139645.0,225351.0,276138.0,260684.0
2026-04-08 21:46:00.322125,198139,1609503932547682,1532514287,1.0248,-0.070272,-0.140544,11.8125,16.28375,-5.9325,-26.672,-5.12,-12.088,eccentric,4,3.0,19520.0,139645.0,225351.0,276138.0,260684.0
2026-04-08 21:46:00.324613,198140,1609503932556709,1532522973,1.08336,-0.060512,0.044896,13.0025,14.56,-6.22125,-26.640001,-4.952,-11.088,eccentric,4,3.0,19520.0,139645.0,225351.0,276138.0,260684.0
2026-04-08 21:46:00.330889,198141,1609503932571225,1532537842,1.08336,-0.060512,0.044896,16.19625,13.76375,-8.417501,-26.640001,-4.952,-11.088,eccentric,4,3.0,19520.0,139645.0,225351.0,276138.0,260684.0
2026-04-08 21:46:00.361114,198142,1609503932580188,1532546569,1.149728,-0.050752,0.134688,18.99625,13.8075,-11.6725,-27.176,-5.12,-10.352,eccentric,4,3.0,19520.0,139645.0,225351.0,276138.0,260684.0
2026-04-08 21:46:00.364651,198143,1609503932594676,1532561435,1.087264,-0.005856,-0.216672,23.616251,16.3275,-15.98625,-27.016,-5.896,-11.912001,eccentric,4,3.0,19520.0,139645.0,225351.0,276138.0,260684.0
2026-04-08 21:46:00.392105,198154,1609503932603597,1532570607,1.087264,-0.005856,-0.216672,29.40875,20.5275,-19.022501,-27.016,-5.896,-11.912001,eccentric,4,3.0,19293.0,138921.0,224670.0,275845.0,260655.0
2026-04-08 21:46:00.394664,198155,1609503932618148,1532583459,1.0736,0.095648,0.015616,33.73125,22.75,-17.96375,-27.464,-6.008,-10.832001,eccentric,4,3.0,19293.0,138921.0,224670.0,275845.0,260655.0
2026-04-08 21:46:00.397131,198156,1609503932627564,1532594256,1.0736,0.095648,0.015616,31.85875,23.59,-14.21,-27.464,-6.008,-10.832001,eccentric,4,3.0,19293.0,138921.0,224670.0,275845.0,260655.0
2026-04-08 21:46:00.399630,198157,1609503932636496,1532602935,1.003328,0.06832,-0.113216,26.15375,22.2775,-10.167501,-27.592001,-6.248,-10.84,eccentric,4,3.0,19293.0,138921.0,224670.0,275845.0,260655.0
2026-04-08 21:46:00.431522,198158,1609503932651004,1532617799,1.003328,0.06832,-0.113216,19.57375,21.16625,-8.40875,-27.592001,-6.248,-10.84,eccentric,4,3.0,19293.0,138921.0,224670.0,275845.0,260655.0
2026-04-08 21:46:00.434369,198159,1609503932659989,1532626485,1.071648,0.080032,0.050752,16.7475,21.3675,-10.00125,-27.680002,-6.376,-10.360001,eccentric,4,3.0,19293.0,138921.0,224670.0,275845.0,260655.0
2026-04-08 21:46:00.436199,198160,1609503932674468,1532641365,1.013088,0.08784,-0.1464,17.2025,21.5775,-10.91125,-28.080002,-6.344,-9.304001,eccentric,4,3.0,19293.0,138921.0,224670.0,275845.0,260655.0
2026-04-08 21:46:00.442140,198161,1609503932683416,1532650091,1.013088,0.08784,-0.1464,16.975,22.9425,-7.48125,-28.080002,-6.344,-9.304001,eccentric,4,3.0,19293.0,138921.0,224670.0,275845.0,260655.0
2026-04-08 21:46:00.507328,198162,1609503932692372,1532658765,1.013088,0.08784,-0.1464,11.165,21.79625,-4.5325,-28.080002,-6.344,-9.304001,eccentric,4,3.0,19293.0,138921.0,224670.0,275845.0,260655.0
2026-04-08 21:46:00.534645,198173,1609503932707487,1532673762,0.991616,0.124928,0.132736,-0.35875,19.18875,-4.12125,-28.000002,-6.192,-10.104,eccentric,4,3.0,18938.0,137761.0,223312.0,275098.0,260358.0
2026-04-08 21:46:00.540876,198174,1609503932716421,1532682446,1.001376,0.070272,0.162016,-5.7575,16.3275,-2.8175,-28.264002,-6.512,-10.56,eccentric,4,3.0,18938.0,137761.0,223312.0,275098.0,260358.0
2026-04-08 21:46:00.543367,198175,1609503932730889,1532697328,1.001376,0.070272,0.162016,-5.495,14.8925,-0.23625,-28.264002,-6.512,-10.56,eccentric,4,3.0,18938.0,137761.0,223312.0,275098.0,260358.0
2026-04-08 21:46:00.545894,198176,1609503932739827,1532705992,0.93696,0.064416,0.027328,-0.49,13.58875,1.0325,-28.496002,-6.536,-10.288,eccentric,4,3.0,18938.0,137761.0,223312.0,275098.0,260358.0
2026-04-08 21:46:00.548530,198177,1609503932754300,1532720884,0.993568,0.091744,0.10736,3.87625,12.04875,1.61,-28.496002,-6.536,-10.872001,eccentric,4,3.0,18938.0,137761.0,223312.0,275098.0,260358.0
2026-04-08 21:46:00.550816,198178,1609503932763255,1532729557,0.993568,0.091744,0.10736,7.25375,10.15875,3.73625,-28.504002,-6.504,-10.872001,eccentric,4,3.0,18938.0,137761.0,223312.0,275098.0,260358.0
2026-04-08 21:46:00.553376,198179,1609503932772188,1532738282,0.993568,0.091744,0.10736,11.0075,9.59,5.1625,-28.504002,-6.504,-10.872001,eccentric,4,3.0,18938.0,137761.0,223312.0,275098.0,260358.0
2026-04-08 21:46:00.555841,198180,1609503932786755,1532753184,1.026752,0.062464,0.046848,12.97625,9.68625,5.8625,-28.656002,-6.408001,-9.568001,eccentric,4,3.0,18938.0,137761.0,223312.0,275098.0,260358.0
2026-04-08 21:46:00.558333,198181,1609503932795676,1532761862,0.977952,0.062464,0.00976,13.7725,9.82625,6.83375,-28.952002,-6.000001,-7.672,eccentric,4,3.0,18938.0,137761.0,223312.0,275098.0,260358.0
2026-04-08 21:46:00.619568,198192,1609503932810289,1532776856,0.977952,0.062464,0.00976,14.525,10.05375,9.52,-28.952002,-6.000001,-7.672,eccentric,4,3.0,18897.0,137491.0,223004.0,274864.0,260256.0
2026-04-08 21:46:00.622022,198193,1609503932819302,1532785582,0.999424,0.066368,-0.044896,14.980001,9.7825,12.25,-29.104002,-5.912,-8.464001,eccentric,4,3.0,18897.0,137491.0,223004.0,274864.0,260256.0
2026-04-08 21:46:00.624632,198194,1609503932828246,1532794273,0.999424,0.066368,-0.044896,13.08125,8.77625,13.9825,-29.104002,-5.912,-8.464001,eccentric,4,3.0,18897.0,137491.0,223004.0,274864.0,260256.0
2026-04-08 21:46:00.627225,198195,1609503932842712,1532809133,1.04432,0.042944,0.052704,7.9975,7.5775,15.68,-29.080002,-5.848,-9.384001,eccentric,4,3.0,18897.0,137491.0,223004.0,274864.0,260256.0
2026-04-08 21:46:00.629621,198196,1609503932851623,1532817799,1.04432,0.042944,0.052704,3.2375,6.78125,15.627501,-29.080002,-5.848,-9.384001,eccentric,4,3.0,18897.0,137491.0,223004.0,274864.0,260256.0
2026-04-08 21:46:00.632112,198197,1609503932866217,1532832720,0.933056,0.03904,-0.021472,1.715,6.27375,14.79625,-29.104002,-5.608,-9.336,eccentric,4,3.0,18897.0,137491.0,223004.0,274864.0,260256.0
2026-04-08 21:46:00.634610,198198,1609503932875084,1532841408,0.935008,0.0488,-0.076128,1.19,5.9675,15.408751,-29.104002,-5.608,-9.424001,eccentric,4,3.0,18897.0,137491.0,223004.0,274864.0,260256.0
2026-04-08 21:46:00.665557,198199,1609503932889613,1532856308,0.935008,0.0488,-0.076128,1.11125,6.055,15.82875,-29.472002,-5.168,-9.424001,eccentric,4,3.0,18897.0,137491.0,223004.0,274864.0,260256.0
2026-04-08 21:46:00.668292,198200,1609503932898613,1532865048,0.911584,0.072224,-0.011712,-0.77,5.36375,16.59875,-29.480001,-5.104,-9.016001,eccentric,4,3.0,18897.0,137491.0,223004.0,274864.0,260256.0
2026-04-08 21:46:00.698328,198211,1609503932907978,1532874245,0.911584,0.072224,-0.011712,-3.5,4.27875,16.8,-29.480001,-5.104,-9.016001,eccentric,4,3.0,18932.0,137660.0,223218.0,275037.0,260332.0
2026-04-08 21:46:00.700853,198212,1609503932922510,1532889128,0.944768,0.003904,0.0,-5.94125,3.01,15.2775,-29.36,-5.152,-9.400001,eccentric,4,3.0,18932.0,137660.0,223218.0,275037.0,260332.0
2026-04-08 21:46:00.703383,198213,1609503932931427,1532897848,0.944768,0.003904,0.0,-5.29375,1.72375,14.21,-29.36,-5.152,-9.400001,eccentric,4,3.0,18932.0,137660.0,223218.0,275037.0,260332.0
2026-04-08 21:46:00.705889,198214,1609503932945961,1532912768,0.935008,-0.025376,-0.023424,-3.2725,0.8575,12.8625,-29.240002,-5.2,-9.192,eccentric,4,3.0,18932.0,137660.0,223218.0,275037.0,260332.0
2026-04-08 21:46:00.736071,198215,1609503932954921,1532921463,0.935008,-0.025376,-0.023424,-0.67375,0.65625,12.38125,-29.240002,-5.2,-9.192,eccentric,4,3.0,18932.0,137660.0,223218.0,275037.0,260332.0
2026-04-08 21:46:00.739591,198216,1609503932969409,1532936331,0.895968,0.01952,-0.083936,1.1025,0.20125,11.4975,-29.28,-4.912,-9.712001,eccentric,4,3.0,18932.0,137660.0,223218.0,275037.0,260332.0
2026-04-08 21:46:00.742096,198217,1609503932978376,1532944984,0.952576,0.046848,0.0976,1.82,0.11375,10.12375,-29.208002,-4.976,-9.528001,eccentric,4,3.0,18932.0,137660.0,223218.0,275037.0,260332.0
2026-04-08 21:46:00.745827,198218,1609503932987335,1532953688,0.952576,0.046848,0.0976,0.69125,0.0175,9.1525,-29.208002,-4.976,-9.528001,eccentric,4,3.0,18932.0,137660.0,223218.0,275037.0,260332.0
2026-04-08 21:46:00.803555,198219,1609503933001811,1532968546,0.901824,0.00976,-0.08784,-2.52,-0.67375,8.61875,-29.448002,-4.688,-9.04,concentric,4,3.0,18932.0,137660.0,223218.0,275037.0,260332.0
2026-04-08 21:46:00.835810,198230,1609503933010849,1532977227,0.901824,0.00976,-0.08784,-6.1425,-1.435,6.95625,-29.448002,-4.688,-9.04,concentric,4,3.0,19008.0,137895.0,223455.0,275178.0,260408.0
2026-04-08 21:46:00.838391,198231,1609503933025359,1532992025,0.981856,-0.027328,0.109312,-9.47625,-2.75625,5.10125,-29.296001,-4.672,-8.888001,concentric,4,3.0,19008.0,137895.0,223455.0,275178.0,260408.0
2026-04-08 21:46:00.840827,198232,1609503933034259,1533000687,0.981856,-0.027328,0.109312,-9.8875,-2.80875,2.66875,-29.296001,-4.672,-8.888001,concentric,4,3.0,19008.0,137895.0,223455.0,275178.0,260408.0
2026-04-08 21:46:00.843385,198233,1609503933048705,1533015545,0.911584,-0.015616,-0.064416,-8.1375,-3.045,0.72625,-29.264002,-4.896,-9.056001,concentric,4,3.0,19008.0,137895.0,223455.0,275178.0,260408.0
2026-04-08 21:46:00.845908,198234,1609503933057701,1533024305,0.940864,0.005856,-0.066368,-5.43375,-3.4825,-1.015,-29.344002,-4.432,-8.352,concentric,4,3.0,19008.0,137895.0,223455.0,275178.0,260408.0
2026-04-08 21:46:00.848895,198235,1609503933066679,1533033021,0.940864,0.005856,-0.066368,-1.95125,-4.54125,-1.7675,-29.344002,-4.432,-8.352,concentric,4,3.0,19008.0,137895.0,223455.0,275178.0,260408.0
2026-04-08 21:46:00.850806,198236,1609503933081155,1533047901,0.972096,0.023424,0.124928,-0.2975,-5.73125,-2.6425,-28.880001,-4.6,-8.576,concentric,4,3.0,19008.0,137895.0,223455.0,275178.0,260408.0
2026-04-08 21:46:00.853292,198237,1609503933090140,1533056589,0.972096,0.023424,0.124928,-1.75,-7.245,-4.06,-28.880001,-4.6,-8.576,concentric,4,3.0,19008.0,137895.0,223455.0,275178.0,260408.0
2026-04-08 21:46:00.909970,198248,1609503933104670,1533071428,0.962336,0.02928,-0.031232,-2.905,-8.7325,-5.5475,-29.44,-4.456,-8.64,concentric,4,3.0,19147.0,138376.0,223980.0,275543.0,260568.0
2026-04-08 21:46:00.912241,198249,1609503933113667,1533080155,0.962336,0.02928,-0.031232,-2.3275,-9.84375,-5.4075,-29.44,-4.456,-8.64,concentric,4,3.0,19147.0,138376.0,223980.0,275543.0,260568.0
2026-04-08 21:46:00.914679,198250,1609503933122588,1533088823,1.013088,0.040992,0.037088,0.81375,-9.345,-4.24375,-28.904001,-4.568,-9.792001,concentric,4,3.0,19147.0,138376.0,223980.0,275543.0,260568.0
2026-04-08 21:46:00.917129,198251,1609503933137097,1533103702,0.958432,0.044896,0.02928,4.73375,-8.6975,-3.01875,-28.904001,-4.48,-11.240001,concentric,4,3.0,19147.0,138376.0,223980.0,275543.0,260568.0
2026-04-08 21:46:00.919555,198252,1609503933146027,1533112436,0.958432,0.044896,0.02928,5.5125,-9.555,-2.05625,-28.992,-4.48,-11.240001,concentric,4,3.0,19147.0,138376.0,223980.0,275543.0,260568.0
2026-04-08 21:46:00.922110,198253,1609503933160556,1533127356,0.997472,0.007808,-0.113216,3.92,-10.45625,-2.03875,-29.080002,-4.32,-9.8,concentric,4,3.0,19147.0,138376.0,223980.0,275543.0,260568.0
2026-04-08 21:46:00.952280,198254,1609503933169464,1533136029,0.997472,0.007808,-0.113216,-0.1225,-11.6375,-2.37125,-29.080002,-4.32,-9.8,concentric,4,3.0,19147.0,138376.0,223980.0,275543.0,260568.0
2026-04-08 21:46:00.955880,198255,1609503933183963,1533150908,1.097024,0.033184,0.103456,-3.14125,-12.83625,-1.47875,-28.352001,-4.072,-11.320001,concentric,4,3.0,19147.0,138376.0,223980.0,275543.0,260568.0
2026-04-08 21:46:00.958319,198256,1609503933192876,1533159587,1.097024,0.033184,0.103456,-4.26125,-13.99125,0.56,-28.352001,-4.072,-11.320001,concentric,4,3.0,19147.0,138376.0,223980.0,275543.0,260568.0
2026-04-08 21:46:00.960840,198257,1609503933201879,1533168242,1.011136,-0.003904,-0.062464,-3.4125,-14.06125,2.7125,-28.384,-3.968,-10.6,concentric,4,3.0,19147.0,138376.0,223980.0,275543.0,260568.0
2026-04-08 21:46:00.988865,198268,1609503933216432,1533183163,1.011136,-0.003904,-0.062464,-2.52875,-15.0325,3.885,-28.384,-3.968,-10.6,concentric,4,3.0,19171.0,138441.0,224000.0,275477.0,260511.0
2026-04-08 21:46:00.990325,198269,1609503933225449,1533191838,1.059936,-0.015616,0.132736,-1.82875,-16.24,5.11875,-28.568,-3.888,-6.264,concentric,4,3.0,19171.0,138441.0,224000.0,275477.0,260511.0
2026-04-08 21:46:01.021088,198270,1609503933239976,1533206749,1.003328,0.011712,-0.007808,-0.06125,-17.185,5.48625,-28.088001,-3.608,-10.632001,concentric,4,3.0,19171.0,138441.0,224000.0,275477.0,260511.0
2026-04-08 21:46:01.024627,198271,1609503933248961,1533215418,1.003328,0.011712,-0.007808,0.35875,-18.06,6.2825,-28.088001,-3.608,-10.632001,concentric,4,3.0,19171.0,138441.0,224000.0,275477.0,260511.0
2026-04-08 21:46:01.027156,198272,1609503933263436,1533230274,0.997472,-0.013664,-0.033184,-1.75,-19.97625,5.88875,-27.856,-3.488,-11.424001,concentric,4,3.0,19171.0,138441.0,224000.0,275477.0,260511.0
2026-04-08 21:46:01.032158,198273,1609503933272377,1533238928,0.997472,-0.013664,-0.033184,-4.8475,-20.86875,4.9175,-27.856,-3.488,-11.424001,concentric,4,3.0,19171.0,138441.0,224000.0,275477.0,260511.0
2026-04-08 21:46:01.062270,198274,1609503933281380,1533247658,0.938912,-0.05856,-0.007808,-8.86375,-22.26,3.71875,-27.496002,-3.408,-11.336,concentric,4,3.0,19171.0,138441.0,224000.0,275477.0,260511.0
2026-04-08 21:46:01.065897,198275,1609503933295844,1533262519,0.938912,-0.05856,-0.007808,-11.795,-23.415,1.25125,-27.496002,-3.408,-11.336,concentric,4,3.0,19171.0,138441.0,224000.0,275477.0,260511.0
2026-04-08 21:46:01.069439,198276,1609503933304746,1533271183,0.960384,-0.089792,0.02928,-10.22,-24.3075,-1.04125,-26.992,-3.248,-11.240001,concentric,4,3.0,19171.0,138441.0,224000.0,275477.0,260511.0
2026-04-08 21:46:01.133312,198287,1609503933319361,1533286107,1.018944,-0.064416,0.062464,-6.11625,-24.63125,-3.17625,-27.272001,-3.088,-13.040001,concentric,4,3.0,19291.0,138672.0,224148.0,275401.0,260366.0
2026-04-08 21:46:01.135887,198288,1609503933328280,1533294777,1.018944,-0.064416,0.062464,-2.84375,-25.06875,-5.64375,-27.272001,-3.088,-13.040001,concentric,4,3.0,19291.0,138672.0,224148.0,275401.0,260366.0
2026-04-08 21:46:01.138398,198289,1609503933342739,1533309615,0.954528,-0.072224,-0.062464,-0.14875,-24.35125,-7.0,-26.704,-3.104,-12.960001,concentric,4,3.0,19291.0,138672.0,224148.0,275401.0,260366.0
2026-04-08 21:46:01.140863,198290,1609503933351669,1533318257,0.954528,-0.072224,-0.062464,-0.06125,-23.9225,-8.09375,-26.704,-3.104,-12.960001,concentric,4,3.0,19291.0,138672.0,224148.0,275401.0,260366.0
2026-04-08 21:46:01.143352,198291,1609503933360708,1533327017,1.020896,-0.122976,-0.046848,-4.095,-24.42125,-9.77375,-26.328001,-3.104,-13.168,concentric,4,3.0,19291.0,138672.0,224148.0,275401.0,260366.0
2026-04-08 21:46:01.145874,198292,1609503933375330,1533341956,1.020896,-0.122976,-0.046848,-5.97625,-23.8,-12.81875,-26.328001,-3.104,-13.168,concentric,4,3.0,19291.0,138672.0,224148.0,275401.0,260366.0
2026-04-08 21:46:01.149772,198293,1609503933384239,1533350731,1.061888,-0.148352,-0.033184,-4.73375,-22.522501,-15.085,-26.096,-3.12,-13.248001,concentric,4,3.0,19291.0,138672.0,224148.0,275401.0,260366.0
2026-04-08 21:46:01.178680,198294,1609503933398738,1533365624,1.048224,-0.142496,0.027328,-4.095,-21.76125,-17.2025,-26.096,-2.992,-10.296001,concentric,4,3.0,19291.0,138672.0,224148.0,275401.0,260366.0
2026-04-08 21:46:01.209617,198305,1609503933407695,1533374826,1.048224,-0.142496,0.027328,-2.8525,-20.58,-20.055,-25.856,-2.992,-10.296001,concentric,4,3.0,19414.0,138895.0,224208.0,275234.0,260178.0
2026-04-08 21:46:01.212239,198306,1609503933422296,1533387732,1.056032,-0.119072,-0.115168,-2.24875,-20.04625,-22.5925,-25.384,-3.184,-13.944,concentric,4,3.0,19414.0,138895.0,224208.0,275234.0,260178.0
2026-04-08 21:46:01.214639,198307,1609503933431510,1533398493,1.056032,-0.119072,-0.115168,-3.91125,-20.5625,-25.445,-25.384,-3.184,-13.944,concentric,4,3.0,19414.0,138895.0,224208.0,275234.0,260178.0
2026-04-08 21:46:01.217212,198308,1609503933440483,1533407219,1.14192,-0.121024,-0.06832,-1.54,-19.022501,-26.31125,-25.256,-3.192,-13.744,concentric,4,3.0,19414.0,138895.0,224208.0,275234.0,260178.0
2026-04-08 21:46:01.219610,198309,1609503933454999,1533422147,1.14192,-0.121024,-0.06832,2.33625,-17.7275,-25.445,-25.256,-3.192,-13.744,concentric,4,3.0,19414.0,138895.0,224208.0,275234.0,260178.0
2026-04-08 21:46:01.225303,198310,1609503933463940,1533430905,1.079456,-0.105408,0.021472,3.6225,-17.605,-25.27,-25.128,-3.104,-14.456,concentric,4,3.0,19414.0,138895.0,224208.0,275234.0,260178.0
2026-04-08 21:46:01.254816,198311,1609503933478461,1533443749,1.079456,-0.105408,0.005856,7.56875,-17.745,-26.7925,-25.128,-3.104,-14.456,concentric,4,3.0,19414.0,138895.0,224208.0,275234.0,260178.0
2026-04-08 21:46:01.258409,198312,1609503933487748,1533454484,0.935008,-0.080032,0.001952,12.53,-19.88875,-26.87125,-24.384,-3.128,-14.952001,concentric,4,3.0,19414.0,138895.0,224208.0,275234.0,260178.0
2026-04-08 21:46:01.261288,198313,1609503933496649,1533463145,0.935008,-0.080032,0.001952,15.37375,-21.2625,-26.03125,-24.384,-3.128,-14.952001,concentric,4,3.0,19414.0,138895.0,224208.0,275234.0,260178.0
2026-04-08 21:46:01.291003,198324,1609503933511645,1533478054,0.95648,-0.0976,-0.128832,18.62,-22.40875,-26.1275,-23.984001,-3.312,-15.016001,concentric,4,3.0,19422.0,138880.0,224052.0,275086.0,260064.0
2026-04-08 21:46:01.293438,198325,1609503933520748,1533486770,1.032608,-0.072224,0.017568,18.12125,-22.995,-26.29375,-23.944,-2.848,-13.568001,concentric,4,3.0,19422.0,138880.0,224052.0,275086.0,260064.0
2026-04-08 21:46:01.295871,198326,1609503933535284,1533501674,1.032608,-0.072224,0.017568,16.00375,-22.00625,-27.3,-23.944,-2.848,-13.568001,concentric,4,3.0,19422.0,138880.0,224052.0,275086.0,260064.0
2026-04-08 21:46:01.326058,198327,1609503933544229,1533510370,1.003328,-0.08784,0.0,13.895,-20.16,-28.09625,-23.744001,-2.84,-14.648001,concentric,4,3.0,19422.0,138880.0,224052.0,275086.0,260064.0
2026-04-08 21:46:01.329619,198328,1609503933553215,1533519125,1.003328,-0.08784,0.0,10.9025,-18.095,-26.1275,-23.744001,-2.84,-14.648001,concentric,4,3.0,19422.0,138880.0,224052.0,275086.0,260064.0
2026-04-08 21:46:01.332190,198329,1609503933567694,1533534031,0.905728,-0.121024,-0.128832,9.65125,-17.68375,-25.01625,-23.336,-3.136,-15.784,concentric,4,3.0,19422.0,138880.0,224052.0,275086.0,260064.0
2026-04-08 21:46:01.334596,198330,1609503933576595,1533542706,0.905728,-0.121024,-0.128832,5.1975,-16.8875,-24.710001,-23.336,-3.136,-15.784,concentric,4,3.0,19422.0,138880.0,224052.0,275086.0,260064.0
2026-04-08 21:46:01.364890,198331,1609503933591054,1533557618,0.929152,-0.095648,-0.033184,-0.4725,-15.7675,-24.94625,-23.04,-3.072,-15.256001,concentric,4,3.0,19422.0,138880.0,224052.0,275086.0,260064.0
2026-04-08 21:46:01.368408,198332,1609503933600020,1533566273,0.884256,-0.099552,-0.148352,-2.835,-14.6125,-26.6175,-23.04,-3.072,-15.504001,concentric,4,3.0,19422.0,138880.0,224052.0,275086.0,260064.0
2026-04-08 21:46:01.434653,198343,1609503933614663,1533581181,0.884256,-0.099552,-0.148352,-5.4075,-12.50375,-27.8775,-22.616001,-3.064,-15.504001,concentric,4,3.0,19504.0,139121.0,224253.0,275234.0,260171.0
2026-04-08 21:46:01.437191,198344,1609503933623603,1533589859,0.84912,-0.13664,-0.089792,-10.2375,-9.70375,-28.805,-22.592001,-3.344,-15.352001,concentric,4,3.0,19504.0,139121.0,224253.0,275234.0,260171.0
2026-04-08 21:46:01.442150,198345,1609503933632540,1533598558,0.84912,-0.13664,-0.089792,-11.94375,-8.4875,-29.5925,-22.592001,-3.344,-15.352001,concentric,4,3.0,19504.0,139121.0,224253.0,275234.0,260171.0
2026-04-08 21:46:01.444646,198346,1609503933647012,1533613483,0.833504,-0.142496,-0.158112,-11.19125,-6.78125,-28.55125,-22.184002,-3.248,-17.92,concentric,4,3.0,19504.0,139121.0,224253.0,275234.0,260171.0
2026-04-08 21:46:01.447169,198347,1609503933655918,1533622143,0.833504,-0.142496,-0.158112,-10.35125,-4.57625,-28.0175,-22.184002,-3.248,-17.92,concentric,4,3.0,19504.0,139121.0,224253.0,275234.0,260171.0
2026-04-08 21:46:01.449630,198348,1609503933670414,1533637053,0.853024,-0.10736,-0.111264,-9.80875,-2.86125,-28.30625,-22.264002,-3.648,-15.056001,concentric,4,3.0,19504.0,139121.0,224253.0,275234.0,260171.0
2026-04-08 21:46:01.452130,198349,1609503933679405,1533645746,0.853024,-0.10736,-0.111264,-13.36125,-1.26,-28.8575,-22.264002,-3.648,-15.056001,concentric,4,3.0,19504.0,139121.0,224253.0,275234.0,260171.0
2026-04-08 21:46:01.454657,198350,1609503933693946,1533660629,0.860832,-0.115168,-0.015616,-14.805,0.53375,-29.75875,-22.016,-3.688,-15.000001,concentric,4,3.0,19504.0,139121.0,224253.0,275234.0,260171.0
2026-04-08 21:46:01.484771,198351,1609503933702910,1533669324,0.909632,-0.091744,0.046848,-15.408751,2.47625,-29.60125,-21.768002,-3.56,-14.376,concentric,4,3.0,19504.0,139121.0,224253.0,275234.0,260171.0
2026-04-08 21:46:01.517174,198362,1609503933712419,1533678443,0.909632,-0.091744,0.046848,-14.752501,2.7475,-28.2625,-21.768002,-3.56,-14.376,concentric,4,3.0,19877.0,140086.0,224904.0,275356.0,260003.0
2026-04-08 21:46:01.519617,198363,1609503933726909,1533693329,0.98576,-0.130784,-0.00976,-10.2725,2.80875,-27.0375,-21.648,-3.888,-16.264,concentric,4,3.0,19877.0,140086.0,224904.0,275356.0,260003.0
2026-04-08 21:46:01.522099,198364,1609503933735796,1533701987,0.98576,-0.130784,-0.00976,-5.71375,3.8675,-26.495,-21.648,-3.888,-16.264,concentric,4,3.0,19877.0,140086.0,224904.0,275356.0,260003.0
2026-04-08 21:46:01.524600,198365,1609503933750307,1533716949,0.974048,-0.080032,0.076128,-3.9375,5.18875,-24.77125,-21.136002,-4.128,-15.792001,concentric,4,3.0,19877.0,140086.0,224904.0,275356.0,260003.0
2026-04-08 21:46:01.527135,198366,1609503933759378,1533725673,0.974048,-0.080032,0.076128,-6.09,6.475,-24.26375,-21.136002,-4.128,-15.792001,concentric,4,3.0,19877.0,140086.0,224904.0,275356.0,260003.0
2026-04-08 21:46:01.529650,198367,1609503933768320,1533734392,1.130208,-0.0976,-0.238144,-8.23375,8.855001,-25.5325,-21.384,-4.232,-14.936001,concentric,4,3.0,19877.0,140086.0,224904.0,275356.0,260003.0
2026-04-08 21:46:01.559840,198368,1609503933782787,1533749278,1.05408,0.035136,-0.158112,-9.765,10.52625,-25.9875,-20.960001,-4.616,-14.376,concentric,4,3.0,19877.0,140086.0,224904.0,275356.0,260003.0
2026-04-08 21:46:01.563367,198369,1609503933791720,1533757944,1.05408,0.035136,-0.158112,-12.1975,10.22875,-26.7225,-20.960001,-4.616,-14.376,concentric,4,3.0,19877.0,140086.0,224904.0,275356.0,260003.0
2026-04-08 21:46:01.565869,198370,1609503933806231,1533772798,1.095072,0.023424,-0.074176,-12.17125,12.4075,-24.115,-20.952002,-4.408,-15.992001,concentric,4,3.0,19877.0,140086.0,224904.0,275356.0,260003.0
2026-04-08 21:46:01.593339,198381,1609503933815228,1533781532,1.095072,0.023424,-0.074176,-12.55625,11.08625,-18.375,-20.952002,-4.408,-15.992001,concentric,4,3.0,20360.0,141212.0,225639.0,275649.0,260042.0
2026-04-08 21:46:01.595887,198382,1609503933829716,1533796440,1.09312,-0.081984,0.05856,-15.30375,7.53375,-18.585001,-21.176,-4.128,-15.384001,concentric,4,3.0,20360.0,141212.0,225639.0,275649.0,260042.0
2026-04-08 21:46:01.602096,198383,1609503933838635,1533805105,1.09312,-0.081984,0.05856,-11.4275,4.69,-24.395,-21.176,-4.128,-15.384001,concentric,4,3.0,20360.0,141212.0,225639.0,275649.0,260042.0
2026-04-08 21:46:01.607123,198384,1609503933847587,1533813763,0.94672,-0.089792,-0.062464,-0.2975,-0.2275,-27.3,-21.000002,-4.368,-15.440001,concentric,4,3.0,20360.0,141212.0,225639.0,275649.0,260042.0
2026-04-08 21:46:01.637413,198385,1609503933862053,1533828642,0.796416,0.005856,-0.218624,10.78,-3.3425,-25.17375,-20.6,-4.32,-14.496,concentric,4,3.0,20360.0,141212.0,225639.0,275649.0,260042.0
2026-04-08 21:46:01.640882,198386,1609503933870957,1533837312,0.796416,0.005856,-0.218624,19.39,-5.94125,-23.3625,-20.6,-4.32,-14.496,concentric,4,3.0,20360.0,141212.0,225639.0,275649.0,260042.0
2026-04-08 21:46:01.644697,198387,1609503933885447,1533852168,0.786656,0.074176,-0.081984,21.21875,-6.50125,-22.0675,-20.344002,-4.592,-16.256,concentric,4,3.0,20360.0,141212.0,225639.0,275649.0,260042.0
2026-04-08 21:46:01.702366,198388,1609503933894405,1533860848,0.786656,0.074176,-0.081984,12.18,-9.2225,-20.7375,-20.344002,-4.592,-16.256,concentric,4,3.0,20360.0,141212.0,225639.0,275649.0,260042.0
2026-04-08 21:46:01.730873,198399,1609503933908898,1533875689,0.76128,0.021472,-0.07808,0.595,-7.25375,-22.8725,-20.288,-4.392,-17.592001,concentric,4,3.0,19731.0,140111.0,225150.0,275958.0,260758.0
2026-04-08 21:46:01.733380,198400,1609503933917822,1533884411,0.76128,0.021472,-0.07808,-6.27375,-3.91125,-22.09375,-20.288,-4.392,-17.592001,concentric,4,3.0,19731.0,140111.0,225150.0,275958.0,260758.0
2026-04-08 21:46:01.735891,198401,1609503933926728,1533893070,0.620736,0.060512,-0.070272,-11.87375,-1.46125,-17.15,-20.080002,-4.64,-16.352001,concentric,4,3.0,19731.0,140111.0,225150.0,275958.0,260758.0
2026-04-08 21:46:01.738397,198402,1609503933941188,1533907927,0.620736,0.060512,-0.070272,-15.93375,0.105,-11.305,-20.080002,-4.64,-16.352001,concentric,4,3.0,19731.0,140111.0,225150.0,275958.0,260758.0
2026-04-08 21:46:01.740866,198403,1609503933950085,1533916616,0.74176,-0.062464,-0.183488,-22.32125,0.35875,-9.94,-19.992,-4.872,-16.056002,concentric,4,3.0,19731.0,140111.0,225150.0,275958.0,260758.0
2026-04-08 21:46:01.743349,198404,1609503933964707,1533931547,0.747616,-0.011712,-0.109312,-31.26375,0.58625,-12.73125,-19.92,-4.448,-15.568001,concentric,4,3.0,19731.0,140111.0,225150.0,275958.0,260758.0
2026-04-08 21:46:01.745889,198405,1609503933973764,1533940271,0.747616,-0.011712,-0.109312,-39.66375,2.4325,-16.44125,-19.92,-4.448,-15.568001,concentric,4,3.0,19731.0,140111.0,225150.0,275958.0,260758.0
2026-04-08 21:46:01.748757,198406,1609503933988274,1533955223,0.733952,0.031232,-0.01952,-35.56875,4.7775,-15.44375,-19.968,-5.16,-15.552001,concentric,4,3.0,19731.0,140111.0,225150.0,275958.0,260758.0
2026-04-08 21:46:01.779521,198407,1609503933997231,1533963905,0.733952,0.031232,-0.01952,-24.71875,5.04875,-8.60125,-19.968,-5.16,-15.552001,concentric,4,3.0,19731.0,140111.0,225150.0,275958.0,260758.0
2026-04-08 21:46:01.781768,198408,1609503934006158,1533972564,0.669536,0.027328,0.017568,-20.79875,4.50625,-4.96125,-19.84,-4.84,-15.160001,concentric,4,3.0,19731.0,140111.0,225150.0,275958.0,260758.0
2026-04-08 21:46:01.809764,198419,1609503934020704,1533987472,0.669536,0.027328,0.017568,-18.40125,3.42125,-6.545,-19.84,-4.84,-15.160001,concentric,4,3.0,19680.0,139831.0,224694.0,275490.0,260439.0
2026-04-08 21:46:01.813931,198420,1609503934029698,1533996149,0.788608,-0.044896,-0.007808,-20.44,2.5725,-7.93625,-19.864,-5.32,-16.0,concentric,4,3.0,19680.0,139831.0,224694.0,275490.0,260439.0
2026-04-08 21:46:01.815639,198421,1609503934044270,1534011043,0.806176,0.050752,-0.144448,-24.710001,2.0125,-9.765,-19.784,-5.304,-14.576001,concentric,4,3.0,19680.0,139831.0,224694.0,275490.0,260439.0
2026-04-08 21:46:01.817180,198422,1609503934053293,1534019735,0.806176,0.050752,-0.144448,-25.4275,2.73,-11.2,-19.784,-5.304,-14.576001,concentric,4,3.0,19680.0,139831.0,224694.0,275490.0,260439.0
2026-04-08 21:46:01.825046,198423,1609503934062241,1534028425,0.806176,0.050752,-0.144448,-22.70625,6.51875,-7.0875,-19.784,-5.304,-14.576001,concentric,4,3.0,19680.0,139831.0,224694.0,275490.0,260439.0
2026-04-08 21:46:01.879591,198424,1609503934076750,1534043350,0.747616,0.03904,0.011712,-15.925,11.15625,0.2275,-19.976002,-5.104,-13.840001,concentric,4,3.0,19680.0,139831.0,224694.0,275490.0,260439.0
2026-04-08 21:46:01.881763,198425,1609503934085667,1534052007,0.728096,-0.054656,0.042944,-13.06375,10.52625,1.61,-20.152,-5.152,-16.248001,concentric,4,3.0,19680.0,139831.0,224694.0,275490.0,260439.0
2026-04-08 21:46:01.886412,198426,1609503934100125,1534066944,0.728096,-0.054656,0.042944,-9.730001,7.3675,-3.38625,-20.152,-5.152,-16.248001,concentric,4,3.0,19680.0,139831.0,224694.0,275490.0,260439.0
2026-04-08 21:46:01.888218,198427,1609503934109017,1534075604,0.769088,0.03904,0.013664,-5.69625,4.57625,-4.47125,-19.472,-5.168,-16.064001,concentric,4,3.0,19680.0,139831.0,224694.0,275490.0,260439.0
2026-04-08 21:46:01.916392,198438,1609503934123509,1534090477,0.911584,0.093696,-0.154208,-0.735,2.8875,-0.09625,-19.472,-5.576,-16.240002,concentric,4,3.0,19840.0,140252.0,225089.0,275681.0,260449.0
2026-04-08 21:46:01.919332,198439,1609503934132516,1534099285,0.911584,0.093696,-0.154208,5.97625,3.1675,2.54625,-19.896002,-5.576,-16.240002,concentric,4,3.0,19840.0,140252.0,225089.0,275681.0,260449.0
2026-04-08 21:46:01.926410,198440,1609503934141475,1534108000,0.911584,0.093696,-0.154208,7.00875,4.31375,5.67875,-19.896002,-5.576,-16.240002,concentric,4,3.0,19840.0,140252.0,225089.0,275681.0,260449.0
2026-04-08 21:46:01.928152,198441,1609503934156014,1534122966,0.884256,0.103456,0.177632,0.41125,6.23,8.42625,-20.0,-4.864,-15.192,concentric,4,3.0,19840.0,140252.0,225089.0,275681.0,260449.0
2026-04-08 21:46:01.929643,198442,1609503934164959,1534131689,0.784704,-0.025376,0.122976,-4.57625,8.085,8.54,-20.144001,-4.736,-15.656001,concentric,4,3.0,19840.0,140252.0,225089.0,275681.0,260449.0
2026-04-08 21:46:01.960773,198443,1609503934179468,1534146579,0.784704,-0.025376,0.122976,-3.745,5.76625,9.12625,-20.144001,-4.736,-15.656001,concentric,4,3.0,19840.0,140252.0,225089.0,275681.0,260449.0
2026-04-08 21:46:01.963032,198444,1609503934188387,1534155234,0.88816,0.0,0.003904,0.315,2.03,9.09125,-19.936,-4.872,-14.688001,concentric,4,3.0,19840.0,140252.0,225089.0,275681.0,260449.0
2026-04-08 21:46:01.968565,198445,1609503934202854,1534168069,0.88816,0.0,0.003904,5.81,-0.83125,5.2675,-19.936,-4.872,-14.688001,concentric,4,3.0,19840.0,140252.0,225089.0,275681.0,260449.0
2026-04-08 21:46:02.032983,198456,1609503934212679,1534179100,0.911584,0.140544,0.037088,12.55625,-0.51625,2.16125,-20.240002,-4.768,-16.304,concentric,4,3.0,19919.0,140689.0,225768.0,276265.0,260875.0
2026-04-08 21:46:02.034780,198457,1609503934221684,1534187781,0.911584,0.140544,0.037088,20.32625,2.16125,5.425,-20.240002,-4.768,-16.304,concentric,4,3.0,19919.0,140689.0,225768.0,276265.0,260875.0
2026-04-08 21:46:02.035872,198458,1609503934236137,1534202695,0.786656,0.0976,-0.027328,26.46875,3.535,11.095,-19.952002,-4.216,-18.256,concentric,4,3.0,19919.0,140689.0,225768.0,276265.0,260875.0
2026-04-08 21:46:02.040139,198459,1609503934245064,1534211360,0.831552,0.013664,-0.07808,17.43875,2.5375,12.71375,-20.032001,-4.768,-15.216001,concentric,4,3.0,19919.0,140689.0,225768.0,276265.0,260875.0
2026-04-08 21:46:02.041923,198460,1609503934259541,1534226322,0.831552,0.013664,-0.07808,2.8175,0.1225,7.455,-20.032001,-4.768,-15.216001,concentric,4,3.0,19919.0,140689.0,225768.0,276265.0,260875.0
2026-04-08 21:46:02.043407,198461,1609503934268508,1534234995,0.915488,0.074176,-0.121024,-7.81375,-1.23375,2.3625,-20.024,-4.472,-14.496,concentric,4,3.0,19919.0,140689.0,225768.0,276265.0,260875.0
2026-04-08 21:46:02.047514,198462,1609503934277468,1534243665,0.915488,0.074176,-0.121024,-10.5175,-0.56,3.8675,-20.024,-4.472,-14.496,concentric,4,3.0,19919.0,140689.0,225768.0,276265.0,260875.0
2026-04-08 21:46:02.050929,198463,1609503934291943,1534258601,0.812032,0.130784,0.183488,-0.7525,0.95375,7.84875,-20.152,-4.176,-14.128,concentric,4,3.0,19919.0,140689.0,225768.0,276265.0,260875.0
2026-04-08 21:46:02.082445,198464,1609503934300874,1534267291,0.812032,0.130784,0.183488,8.5925,-0.53375,10.8325,-20.152,-4.176,-14.128,concentric,4,3.0,19919.0,140689.0,225768.0,276265.0,260875.0
2026-04-08 21:46:02.109838,198475,1609503934315929,1534282185,0.798368,0.005856,0.00976,6.60625,-3.4475,10.24625,-20.224,-4.416,-16.312,concentric,4,3.0,19865.0,140617.0,225716.0,276227.0,260824.0
2026-04-08 21:46:02.114548,198476,1609503934324879,1534290917,0.89792,0.037088,-0.062464,-2.5375,-7.14875,5.95,-20.072,-4.512,-15.224001,concentric,4,3.0,19865.0,140617.0,225716.0,276227.0,260824.0
2026-04-08 21:46:02.115750,198477,1609503934333862,1534299604,0.89792,0.037088,-0.062464,-8.4875,-8.645,1.2775,-20.072,-4.512,-15.224001,concentric,4,3.0,19865.0,140617.0,225716.0,276227.0,260824.0
2026-04-08 21:46:02.120190,198478,1609503934348379,1534314488,0.925248,0.08784,-0.035136,-8.785,-7.30625,0.875,-20.296001,-3.848,-15.120001,concentric,4,3.0,19865.0,140617.0,225716.0,276227.0,260824.0
2026-04-08 21:46:02.121751,198479,1609503934357438,1534323208,0.925248,0.08784,-0.035136,-5.24125,-5.565,2.8875,-20.296001,-3.848,-15.120001,concentric,4,3.0,19865.0,140617.0,225716.0,276227.0,260824.0
2026-04-08 21:46:02.151160,198480,1609503934371954,1534338062,0.776896,0.056608,-0.070272,-0.48125,-4.24375,5.45125,-20.224,-3.976,-15.072001,concentric,4,3.0,19865.0,140617.0,225716.0,276227.0,260824.0
2026-04-08 21:46:02.154726,198481,1609503934380872,1534346722,0.776896,0.056608,-0.070272,-1.1025,-4.27,6.16875,-20.224,-3.976,-15.072001,concentric,4,3.0,19865.0,140617.0,225716.0,276227.0,260824.0
2026-04-08 21:46:02.162777,198482,1609503934395326,1534361602,0.854976,0.033184,-0.013664,-4.55875,-6.0025,5.11875,-20.144001,-4.344,-16.12,concentric,4,3.0,19865.0,140617.0,225716.0,276227.0,260824.0
2026-04-08 21:46:02.165126,198483,1609503934404388,1534370387,0.854976,0.033184,-0.013664,-7.46375,-7.32375,3.9375,-20.144001,-4.344,-16.12,concentric,4,3.0,19865.0,140617.0,225716.0,276227.0,260824.0
