pc_time,serial_num,sensor_ts,host_ts,ax,ay,az,gx,gy,gz,mx,my,mz,phase,rpe,weight_kg,ppg_a,ppg_b,ppg_c,ppg_d,ppg_e
2026-04-08 21:45:39.882257,194297,1609503912092426,1512059353,0.782752,0.173728,-0.284992,4.41,1.23375,-0.35,-17.552,-6.408001,-17.968,eccentric,4,3.0,18755.0,138072.0,224055.0,275475.0,260651.0
2026-04-08 21:45:39.886474,194298,1609503912101452,1512068005,0.862784,0.183488,-0.11712,1.8025,3.24625,3.08,-17.368,-6.2,-18.264,eccentric,4,3.0,18755.0,138072.0,224055.0,275475.0,260651.0
2026-04-08 21:45:39.890525,194299,1609503912115967,1512082979,0.862784,0.183488,-0.11712,-2.47625,4.97,4.52375,-17.368,-6.2,-18.264,eccentric,4,3.0,18755.0,138072.0,224055.0,275475.0,260651.0
2026-04-08 21:45:39.892663,194300,1609503912124960,1512091666,0.767136,0.177632,-0.220576,-4.17375,7.09625,5.7925,-17.832,-5.992,-17.480001,eccentric,4,3.0,18755.0,138072.0,224055.0,275475.0,260651.0
2026-04-08 21:45:39.899966,194301,1609503912139497,1512106580,0.874496,0.152256,-0.035136,-6.79,8.75,8.575,-18.016,-5.992,-17.76,eccentric,4,3.0,18755.0,138072.0,224055.0,275475.0,260651.0
2026-04-08 21:45:39.928487,194302,1609503912148424,1512115266,0.874496,0.152256,-0.035136,-8.07625,9.44125,10.5875,-18.016,-5.992,-17.76,eccentric,4,3.0,18755.0,138072.0,224055.0,275475.0,260651.0
2026-04-08 21:45:39.932122,194303,1609503912157370,1512123940,0.874496,0.152256,-0.035136,-5.36375,8.82875,11.66375,-18.016,-5.992,-17.76,eccentric,4,3.0,18755.0,138072.0,224055.0,275475.0,260651.0
2026-04-08 21:45:39.936252,194304,1609503912171853,1512138797,0.802272,0.13664,-0.23424,-2.49375,7.8575,13.965,-17.784,-6.304,-16.096,eccentric,4,3.0,18755.0,138072.0,224055.0,275475.0,260651.0
2026-04-08 21:45:39.942461,194305,1609503912180769,1512147469,0.77104,0.15616,-0.099552,-0.945,6.79,15.67125,-17.816,-5.824,-17.712,eccentric,4,3.0,18755.0,138072.0,224055.0,275475.0,260651.0
2026-04-08 21:45:40.000815,194316,1609503912195585,1512162421,0.77104,0.15616,-0.099552,0.8575,6.30875,16.1175,-17.816,-5.824,-17.712,eccentric,4,3.0,18654.0,137861.0,223877.0,275435.0,260710.0
2026-04-08 21:45:40.003311,194317,1609503912204589,1512171077,0.833504,0.128832,-0.093696,0.58625,6.265,17.22875,-17.776001,-6.048,-17.76,eccentric,4,3.0,18654.0,137861.0,223877.0,275435.0,260710.0
2026-04-08 21:45:40.005775,194318,1609503912213490,1512179753,0.833504,0.128832,-0.093696,0.98875,6.22125,18.3925,-17.776001,-6.048,-17.76,eccentric,4,3.0,18654.0,137861.0,223877.0,275435.0,260710.0
2026-04-08 21:45:40.008362,194319,1609503912228104,1512194652,0.76128,0.15616,-0.062464,2.42375,5.985,19.78375,-18.376001,-5.816001,-17.752,eccentric,4,3.0,18654.0,137861.0,223877.0,275435.0,260710.0
2026-04-08 21:45:40.010871,194320,1609503912237171,1512203322,0.76128,0.15616,-0.062464,2.065,4.795,21.866251,-18.376001,-5.816001,-17.752,eccentric,4,3.0,18654.0,137861.0,223877.0,275435.0,260710.0
2026-04-08 21:45:40.013391,194321,1609503912251676,1512218286,0.85888,0.111264,-0.0488,2.52,5.075,22.33875,-18.384,-5.472,-16.632,eccentric,4,3.0,18654.0,137861.0,223877.0,275435.0,260710.0
2026-04-08 21:45:40.018343,194322,1609503912260612,1512226995,0.776896,0.154208,-0.12688,2.23125,7.14,22.28625,-18.400002,-5.368,-16.888,eccentric,4,3.0,18654.0,137861.0,223877.0,275435.0,260710.0
2026-04-08 21:45:40.048530,194323,1609503912275132,1512241882,0.776896,0.154208,-0.12688,-2.1875,9.66,23.24875,-18.400002,-5.368,-16.888,eccentric,4,3.0,18654.0,137861.0,223877.0,275435.0,260710.0
2026-04-08 21:45:40.052089,194324,1609503912284056,1512250549,0.798368,0.144448,-0.021472,-6.20375,11.2175,24.00125,-18.400002,-5.168,-17.44,eccentric,4,3.0,18654.0,137861.0,223877.0,275435.0,260710.0
2026-04-08 21:45:40.054547,194325,1609503912292954,1512259209,0.798368,0.144448,-0.021472,-7.37625,12.215,26.075,-18.400002,-5.168,-17.44,eccentric,4,3.0,18654.0,137861.0,223877.0,275435.0,260710.0
2026-04-08 21:45:40.144643,194336,1609503912307612,1512274206,0.767136,0.109312,-0.128832,-8.40875,11.935,29.11125,-18.720001,-5.288,-17.36,eccentric,4,3.0,18673.0,138011.0,224171.0,275685.0,260875.0
2026-04-08 21:45:40.147107,194337,1609503912316610,1512282926,0.767136,0.109312,-0.128832,-8.8725,11.47125,30.14375,-18.720001,-5.288,-17.36,eccentric,4,3.0,18673.0,138011.0,224171.0,275685.0,260875.0
2026-04-08 21:45:40.149574,194338,1609503912331117,1512297814,0.812032,0.046848,-0.203008,-7.98,10.9375,29.49625,-18.936,-5.376,-17.384,eccentric,4,3.0,18673.0,138011.0,224171.0,275685.0,260875.0
2026-04-08 21:45:40.152080,194339,1609503912340150,1512306498,0.812032,0.054656,-0.1952,-5.95,10.40375,29.91625,-18.936,-5.376,-17.384,eccentric,4,3.0,18673.0,138011.0,224171.0,275685.0,260875.0
2026-04-08 21:45:40.154550,194340,1609503912349080,1512315153,0.782752,0.054656,-0.1952,-1.7325,9.59875,30.26625,-19.192001,-5.2,-16.424002,eccentric,4,3.0,18673.0,138011.0,224171.0,275685.0,260875.0
2026-04-08 21:45:40.157078,194341,1609503912363596,1512330042,0.804224,0.017568,-0.189344,3.35125,8.6625,30.86125,-19.304,-4.736,-17.192001,eccentric,4,3.0,18673.0,138011.0,224171.0,275685.0,260875.0
2026-04-08 21:45:40.159565,194342,1609503912372508,1512338708,0.804224,0.017568,-0.189344,7.805,7.63,32.85625,-19.304,-4.736,-17.192001,eccentric,4,3.0,18673.0,138011.0,224171.0,275685.0,260875.0
2026-04-08 21:45:40.162117,194343,1609503912386994,1512353591,0.876448,0.001952,-0.288896,9.61625,6.79875,33.9325,-19.776001,-4.704,-16.072,eccentric,4,3.0,18673.0,138011.0,224171.0,275685.0,260875.0
2026-04-08 21:45:40.191179,194354,1609503912396077,1512362405,0.876448,0.001952,-0.288896,7.875,8.39125,33.5125,-19.776001,-4.704,-16.072,eccentric,4,3.0,18732.0,138259.0,224524.0,275928.0,261005.0
2026-04-08 21:45:40.194054,194355,1609503912410754,1512377328,0.895968,0.03904,-0.150304,2.555,10.823751,33.11,-19.720001,-4.112,-15.872001,eccentric,4,3.0,18732.0,138259.0,224524.0,275928.0,261005.0
2026-04-08 21:45:40.196678,194356,1609503912419825,1512386079,0.895968,0.03904,-0.150304,-1.68875,12.11875,33.95875,-19.720001,-4.112,-15.872001,eccentric,4,3.0,18732.0,138259.0,224524.0,275928.0,261005.0
2026-04-08 21:45:40.198815,194357,1609503912428861,1512394792,0.833504,0.056608,0.066368,-1.23375,12.94125,36.75,-20.168001,-4.28,-15.832001,eccentric,4,3.0,18732.0,138259.0,224524.0,275928.0,261005.0
2026-04-08 21:45:40.202910,194358,1609503912443380,1512409666,0.86864,0.001952,0.0488,-0.49875,12.705,40.97625,-20.296001,-3.768,-15.008,eccentric,4,3.0,18732.0,138259.0,224524.0,275928.0,261005.0
2026-04-08 21:45:40.233425,194359,1609503912452291,1512418406,0.86864,0.001952,0.0488,-0.88375,11.6025,41.9475,-20.296001,-3.768,-15.008,eccentric,4,3.0,18732.0,138259.0,224524.0,275928.0,261005.0
2026-04-08 21:45:40.236924,194360,1609503912466714,1512433272,0.827648,-0.021472,-0.162016,1.18125,11.83,41.36125,-20.448002,-3.784,-16.848001,eccentric,4,3.0,18732.0,138259.0,224524.0,275928.0,261005.0
2026-04-08 21:45:40.238431,194361,1609503912475638,1512441941,0.827648,-0.021472,-0.162016,4.0775,13.6325,43.74125,-20.448002,-3.784,-16.848001,eccentric,4,3.0,18732.0,138259.0,224524.0,275928.0,261005.0
2026-04-08 21:45:40.269600,194362,1609503912490192,1512456818,0.827648,-0.001952,-0.130784,3.07125,16.5375,45.255,-20.896002,-3.36,-16.616001,eccentric,4,3.0,18732.0,138259.0,224524.0,275928.0,261005.0
2026-04-08 21:45:40.298053,194373,1609503912499700,1512465721,0.827648,-0.001952,-0.130784,-0.035,18.6725,45.14125,-20.896002,-3.36,-16.616001,eccentric,4,3.0,18605.0,137873.0,224161.0,275719.0,260912.0
2026-04-08 21:45:40.299743,194374,1609503912508651,1512474421,0.823744,-0.056608,-0.162016,-4.3925,19.78375,45.96375,-20.848001,-3.424,-17.264,eccentric,4,3.0,18605.0,137873.0,224161.0,275719.0,260912.0
2026-04-08 21:45:40.303888,194375,1609503912523304,1512489235,0.909632,-0.093696,-0.060512,-6.335,19.7925,47.15375,-21.6,-2.832,-15.360001,eccentric,4,3.0,18605.0,137873.0,224161.0,275719.0,260912.0
2026-04-08 21:45:40.305609,194376,1609503912532313,1512497951,0.909632,-0.093696,-0.060512,-7.13125,19.705,47.95,-21.6,-2.832,-15.360001,eccentric,4,3.0,18605.0,137873.0,224161.0,275719.0,260912.0
2026-04-08 21:45:40.307960,194377,1609503912541826,1512508699,0.899872,-0.076128,-0.025376,-5.08375,19.11875,47.81,-21.6,-2.344,-13.920001,eccentric,4,3.0,18605.0,137873.0,224161.0,275719.0,260912.0
2026-04-08 21:45:40.338313,194378,1609503912556315,1512521517,0.899872,-0.076128,-0.025376,-1.37375,20.27375,48.0725,-21.84,-2.344,-13.920001,eccentric,4,3.0,18605.0,137873.0,224161.0,275719.0,260912.0
2026-04-08 21:45:40.341144,194379,1609503912565489,1512532282,0.847168,-0.062464,-0.20496,0.4725,22.53125,47.88,-21.880001,-2.272,-14.376,eccentric,4,3.0,18605.0,137873.0,224161.0,275719.0,260912.0
2026-04-08 21:45:40.344790,194380,1609503912580030,1512547147,0.847168,-0.062464,-0.20496,-1.35625,24.45625,47.013752,-21.880001,-2.272,-14.376,eccentric,4,3.0,18605.0,137873.0,224161.0,275719.0,260912.0
2026-04-08 21:45:40.353390,194381,1609503912588972,1512555844,0.847168,-0.099552,-0.171776,-3.0975,24.40375,45.85,-22.168001,-2.224,-15.496,eccentric,4,3.0,18605.0,137873.0,224161.0,275719.0,260912.0
2026-04-08 21:45:40.420140,194392,1609503912603537,1512568764,0.93696,-0.171776,-0.001952,-6.37875,22.75,45.78,-22.656,-2.048,-16.584002,eccentric,4,3.0,18557.0,137777.0,224066.0,275683.0,260919.0
2026-04-08 21:45:40.421902,194393,1609503912612828,1512579531,0.93696,-0.171776,-0.001952,-7.8575,19.3375,44.33625,-22.656,-2.048,-16.584002,eccentric,4,3.0,18557.0,137777.0,224066.0,275683.0,260919.0
2026-04-08 21:45:40.423405,194394,1609503912621792,1512588211,0.93696,-0.171776,0.00976,-3.08,16.77375,41.326252,-22.656,-2.048,-16.584002,eccentric,4,3.0,18557.0,137777.0,224066.0,275683.0,260919.0
2026-04-08 21:45:40.427708,194395,1609503912636262,1512603093,0.919392,-0.18544,0.00976,6.72,15.3825,39.43625,-23.12,-1.824,-17.432001,eccentric,4,3.0,18557.0,137777.0,224066.0,275683.0,260919.0
2026-04-08 21:45:40.429802,194396,1609503912645171,1512611743,0.983808,-0.140544,0.042944,15.04125,14.8575,38.68375,-22.952002,-1.784,-14.832001,eccentric,4,3.0,18557.0,137777.0,224066.0,275683.0,260919.0
2026-04-08 21:45:40.433235,194397,1609503912659727,1512626610,0.983808,-0.140544,0.042944,18.50625,15.7675,37.170002,-22.952002,-1.784,-14.832001,eccentric,4,3.0,18557.0,137777.0,224066.0,275683.0,260919.0
2026-04-08 21:45:40.435391,194398,1609503912668793,1512635342,0.962336,-0.13664,-0.197152,14.6475,15.46125,34.04625,-23.6,-1.176,-12.76,eccentric,4,3.0,18557.0,137777.0,224066.0,275683.0,260919.0
2026-04-08 21:45:40.437608,194399,1609503912677788,1512644021,0.962336,-0.13664,-0.197152,9.415,15.77625,29.9075,-23.6,-1.176,-12.76,eccentric,4,3.0,18557.0,137777.0,224066.0,275683.0,260919.0
2026-04-08 21:45:40.466188,194400,1609503912692271,1512658929,0.94672,-0.111264,0.10736,12.075,17.01,27.93,-23.896002,-1.016,-13.400001,eccentric,4,3.0,18557.0,137777.0,224066.0,275683.0,260919.0
2026-04-08 21:45:40.495616,194411,1609503912701379,1512667623,0.94672,-0.111264,0.10736,16.21375,17.17625,29.09375,-23.896002,-1.016,-13.400001,eccentric,4,3.0,18435.0,137442.0,223802.0,275543.0,260845.0
2026-04-08 21:45:40.497270,194412,1609503912715893,1512682559,0.964288,-0.160064,0.05856,17.745,14.81375,29.91625,-23.728,-1.136,-14.208001,eccentric,4,3.0,18435.0,137442.0,223802.0,275543.0,260845.0
2026-04-08 21:45:40.501385,194413,1609503912724825,1512691296,0.931104,-0.17568,-0.033184,17.00125,11.917501,26.8275,-24.320002,-0.912,-13.480001,eccentric,4,3.0,18435.0,137442.0,223802.0,275543.0,260845.0
2026-04-08 21:45:40.502978,194414,1609503912739312,1512706243,0.931104,-0.17568,-0.033184,19.48625,10.71875,23.5725,-24.320002,-0.912,-13.480001,eccentric,4,3.0,18435.0,137442.0,223802.0,275543.0,260845.0
2026-04-08 21:45:40.507457,194415,1609503912748310,1512714927,0.915488,-0.144448,-0.144448,25.4275,11.15625,22.33875,-24.44,-0.928,-12.432,eccentric,4,3.0,18435.0,137442.0,223802.0,275543.0,260845.0
2026-04-08 21:45:40.536157,194416,1609503912757231,1512723623,0.915488,-0.144448,-0.144448,28.0,12.1625,21.58625,-24.44,-0.928,-12.432,eccentric,4,3.0,18435.0,137442.0,223802.0,275543.0,260845.0
2026-04-08 21:45:40.540599,194417,1609503912771696,1512738465,0.977952,-0.124928,-0.070272,25.82125,13.36125,18.9,-25.024002,-0.664,-13.360001,eccentric,4,3.0,18435.0,137442.0,223802.0,275543.0,260845.0
2026-04-08 21:45:40.542142,194418,1609503912780627,1512747136,0.977952,-0.124928,-0.070272,23.1525,15.14625,17.6225,-25.024002,-0.664,-13.360001,eccentric,4,3.0,18435.0,137442.0,223802.0,275543.0,260845.0
2026-04-08 21:45:40.573278,194419,1609503912795105,1512762006,1.05408,-0.160064,0.05856,18.6375,16.07375,18.0425,-25.112001,-0.528,-13.544001,eccentric,4,3.0,18435.0,137442.0,223802.0,275543.0,260845.0
2026-04-08 21:45:40.601871,194430,1609503912804075,1512770710,1.075552,-0.1952,-0.03904,12.7575,17.47375,13.62375,-25.744001,-0.608,-12.920001,eccentric,4,3.0,18365.0,137229.0,223619.0,275378.0,260742.0
2026-04-08 21:45:40.604277,194431,1609503912818547,1512785645,1.075552,-0.1952,-0.03904,11.8125,19.31125,8.88125,-25.744001,-0.608,-12.920001,eccentric,4,3.0,18365.0,137229.0,223619.0,275378.0,260742.0
2026-04-08 21:45:40.605851,194432,1609503912827594,1512794354,0.944768,-0.101504,-0.085888,15.05,21.84875,5.39,-25.888,-0.464,-12.360001,eccentric,4,3.0,18365.0,137229.0,223619.0,275378.0,260742.0
2026-04-08 21:45:40.610151,194433,1609503912836627,1512803081,0.944768,-0.101504,-0.085888,16.86125,25.06,3.00125,-25.888,-0.464,-12.360001,eccentric,4,3.0,18365.0,137229.0,223619.0,275378.0,260742.0
2026-04-08 21:45:40.612565,194434,1609503912851138,1512817972,0.981856,-0.124928,-0.076128,16.73875,25.68125,0.6825,-26.008001,-0.912,-11.52,eccentric,4,3.0,18365.0,137229.0,223619.0,275378.0,260742.0
2026-04-08 21:45:40.644570,194435,1609503912860060,1512826655,0.981856,-0.124928,-0.076128,17.9375,26.15375,-2.59,-26.008001,-0.912,-11.52,eccentric,4,3.0,18365.0,137229.0,223619.0,275378.0,260742.0
2026-04-08 21:45:40.647297,194436,1609503912874536,1512841495,1.095072,-0.17568,0.031232,20.685,27.1775,-8.785,-26.736002,-1.08,-11.76,eccentric,4,3.0,18365.0,137229.0,223619.0,275378.0,260742.0
2026-04-08 21:45:40.650455,194437,1609503912883448,1512850233,1.095072,-0.17568,-0.054656,21.69125,28.0175,-9.87,-26.736002,-1.08,-11.76,eccentric,4,3.0,18365.0,137229.0,223619.0,275378.0,260742.0
2026-04-08 21:45:40.657478,194438,1609503912897879,1512863064,0.976,-0.021472,-0.054656,22.89875,29.05,-6.85125,-27.112001,-1.424,-11.496,eccentric,4,3.0,18365.0,137229.0,223619.0,275378.0,260742.0
2026-04-08 21:45:40.717646,194449,1609503912907680,1512873879,0.950624,-0.040992,-0.091744,22.522501,30.817501,-7.23625,-27.032001,-1.368,-11.256001,eccentric,4,3.0,18190.0,136696.0,223079.0,274987.0,260512.0
2026-04-08 21:45:40.719351,194450,1609503912916613,1512882558,0.950624,-0.040992,-0.091744,18.305,32.4975,-10.386251,-27.032001,-1.368,-11.256001,eccentric,4,3.0,18190.0,136696.0,223079.0,274987.0,260512.0
2026-04-08 21:45:40.720863,194451,1609503912931084,1512897446,1.028704,-0.12688,-0.121024,17.08875,33.90625,-13.667501,-27.472002,-1.88,-11.120001,eccentric,4,3.0,18190.0,136696.0,223079.0,274987.0,260512.0
2026-04-08 21:45:40.725280,194452,1609503912940009,1512906099,1.028704,-0.12688,-0.121024,14.761251,33.66125,-13.685,-27.472002,-1.88,-11.120001,eccentric,4,3.0,18190.0,136696.0,223079.0,274987.0,260512.0
2026-04-08 21:45:40.726848,194453,1609503912954588,1512921159,1.030656,-0.07808,-0.089792,15.82,32.80375,-13.0375,-27.824001,-1.688,-10.752001,eccentric,4,3.0,18190.0,136696.0,223079.0,274987.0,260512.0
2026-04-08 21:45:40.728530,194454,1609503912963543,1512929916,1.030656,-0.07808,-0.089792,19.22375,33.215,-14.91,-27.824001,-1.688,-10.752001,eccentric,4,3.0,18190.0,136696.0,223079.0,274987.0,260512.0
2026-04-08 21:45:40.732485,194455,1609503912972540,1512938633,0.979904,-0.013664,-0.103456,19.94125,34.55375,-15.54,-28.664001,-1.624,-9.808001,eccentric,4,3.0,18190.0,136696.0,223079.0,274987.0,260512.0
2026-04-08 21:45:40.761129,194456,1609503912987031,1512953518,1.065792,-0.035136,-0.052704,15.54875,34.6325,-14.34125,-28.432001,-2.584,-9.552,eccentric,4,3.0,18190.0,136696.0,223079.0,274987.0,260512.0
2026-04-08 21:45:40.765675,194457,1609503912995942,1512962160,1.065792,-0.035136,-0.052704,9.38,34.2475,-15.855001,-28.432001,-2.584,-9.552,eccentric,4,3.0,18190.0,136696.0,223079.0,274987.0,260512.0
2026-04-08 21:45:40.794054,194468,1609503913010439,1512977039,1.00528,-0.03904,-0.046848,3.64,33.6175,-17.29875,-28.632002,-3.016,-9.376,eccentric,4,3.0,18043.0,136123.0,222437.0,274580.0,260342.0
2026-04-08 21:45:40.795640,194469,1609503913019484,1512985815,1.00528,-0.03904,-0.046848,1.40875,32.8825,-17.675,-28.632002,-3.016,-9.376,eccentric,4,3.0,18043.0,136123.0,222437.0,274580.0,260342.0
2026-04-08 21:45:40.797107,194470,1609503913028459,1512994486,1.038464,-0.027328,-0.070272,2.2225,32.62875,-18.865,-29.064001,-3.296,-8.76,eccentric,4,3.0,18043.0,136123.0,222437.0,274580.0,260342.0
2026-04-08 21:45:40.803730,194471,1609503913043032,1513009363,1.038464,-0.027328,-0.070272,5.5475,32.0425,-18.6375,-29.064001,-3.296,-8.76,eccentric,4,3.0,18043.0,136123.0,222437.0,274580.0,260342.0
2026-04-08 21:45:40.833302,194472,1609503913051980,1513018080,0.960384,0.0488,-0.00976,7.8575,31.1325,-17.053751,-29.28,-3.76,-7.136,eccentric,4,3.0,18043.0,136123.0,222437.0,274580.0,260342.0
2026-04-08 21:45:40.836801,194473,1609503913066450,1513032990,1.016992,0.01952,-0.023424,5.66125,28.81375,-15.49625,-29.288002,-3.632,-11.304001,eccentric,4,3.0,18043.0,136123.0,222437.0,274580.0,260342.0
2026-04-08 21:45:40.838393,194474,1609503913075378,1513041688,1.016992,0.01952,-0.023424,1.435,25.025,-14.2975,-29.288002,-3.632,-11.304001,eccentric,4,3.0,18043.0,136123.0,222437.0,274580.0,260342.0
2026-04-08 21:45:40.869466,194475,1609503913089903,1513056635,1.022848,0.023424,-0.027328,-0.02625,22.3125,-12.95,-29.352001,-3.56,-6.416,eccentric,4,3.0,18043.0,136123.0,222437.0,274580.0,260342.0
2026-04-08 21:45:40.901851,194486,1609503913098812,1513065259,1.022848,0.023424,-0.027328,0.63,20.44875,-10.2025,-29.352001,-3.56,-6.416,eccentric,4,3.0,17916.0,135554.0,221683.0,274074.0,260081.0
2026-04-08 21:45:40.903340,194487,1609503913107823,1513073943,1.013088,0.037088,-0.007808,-1.96875,17.745,-7.44625,-29.688002,-4.208,-7.488,eccentric,4,3.0,17916.0,135554.0,221683.0,274074.0,260081.0
2026-04-08 21:45:40.909250,194488,1609503913122296,1513088846,1.013088,0.037088,-0.007808,-6.895,14.7875,-5.57375,-29.688002,-4.208,-7.488,eccentric,4,3.0,17916.0,135554.0,221683.0,274074.0,260081.0
2026-04-08 21:45:40.910566,194489,1609503913131336,1513097588,0.991616,0.072224,0.1464,-8.33,12.43375,-5.495,-29.936,-4.088,-6.584,eccentric,4,3.0,17916.0,135554.0,221683.0,274074.0,260081.0
2026-04-08 21:45:40.911529,194490,1609503913145906,1513112516,1.040416,0.017568,0.101504,-8.93375,10.96375,-4.6025,-30.032001,-3.672,-6.000001,eccentric,4,3.0,17916.0,135554.0,221683.0,274074.0,260081.0
2026-04-08 21:45:40.918767,194491,1609503913154820,1513121186,1.040416,0.017568,0.101504,-10.115,8.81125,-3.7975,-30.032001,-3.672,-6.000001,eccentric,4,3.0,17916.0,135554.0,221683.0,274074.0,260081.0
2026-04-08 21:45:40.947163,194492,1609503913169278,1513136049,0.99552,0.037088,0.054656,-10.85875,6.43125,-4.025,-30.2,-3.888,-6.048,eccentric,4,3.0,17916.0,135554.0,221683.0,274074.0,260081.0
2026-04-08 21:45:40.951790,194493,1609503913178208,1513144738,0.99552,0.037088,0.054656,-9.9225,5.18,-3.52625,-30.2,-3.888,-6.048,eccentric,4,3.0,17916.0,135554.0,221683.0,274074.0,260081.0
2026-04-08 21:45:40.953408,194494,1609503913187129,1513153409,0.958432,0.040992,-0.013664,-10.70125,4.165,-3.01875,-29.960001,-4.288,-6.984,eccentric,4,3.0,17916.0,135554.0,221683.0,274074.0,260081.0
2026-04-08 21:45:41.014687,194505,1609503913202156,1513168359,0.958432,0.040992,-0.013664,-9.56375,3.0275,-3.0625,-29.960001,-4.288,-6.984,eccentric,4,3.0,17837.0,135161.0,221132.0,273727.0,259872.0
2026-04-08 21:45:41.021368,194506,1609503913211323,1513177091,0.921344,0.07808,0.148352,-9.1175,2.10875,-2.4675,-30.144001,-4.176,-5.16,eccentric,4,3.0,17837.0,135161.0,221132.0,273727.0,259872.0
2026-04-08 21:45:41.023894,194507,1609503913225796,1513191949,0.921344,0.07808,0.220576,-8.61875,0.74375,-2.0475,-30.144001,-4.176,-5.16,eccentric,4,3.0,17837.0,135161.0,221132.0,273727.0,259872.0
2026-04-08 21:45:41.025612,194508,1609503913234712,1513200717,0.958432,0.08784,0.220576,-8.56625,-0.39375,0.21875,-30.248001,-4.224,-6.936,eccentric,4,3.0,17837.0,135161.0,221132.0,273727.0,259872.0
2026-04-08 21:45:41.028076,194509,1609503913243624,1513209370,0.958432,0.08784,0.220576,-10.78875,-1.6975,2.485,-30.248001,-4.224,-6.936,eccentric,4,3.0,17837.0,135161.0,221132.0,273727.0,259872.0
2026-04-08 21:45:41.030526,194510,1609503913258212,1513224268,0.987712,0.031232,0.109312,-15.54875,-3.22875,1.96875,-30.264002,-4.256,-7.168,eccentric,4,3.0,17837.0,135161.0,221132.0,273727.0,259872.0
2026-04-08 21:45:41.032083,194511,1609503913267178,1513232953,0.8784,0.031232,0.148352,-18.34,-5.34625,1.2425,-30.832,-4.464,-6.08,eccentric,4,3.0,17837.0,135161.0,221132.0,273727.0,259872.0
2026-04-08 21:45:41.063249,194512,1609503913281725,1513247862,0.8784,0.031232,0.148352,-19.52125,-6.545,0.48125,-30.832,-4.464,-6.08,eccentric,4,3.0,17837.0,135161.0,221132.0,273727.0,259872.0
2026-04-08 21:45:41.067772,194513,1609503913290658,1513256565,0.964288,-0.015616,0.060512,-16.65125,-7.1925,-0.5425,-30.376001,-4.544,-7.04,eccentric,4,3.0,17837.0,135161.0,221132.0,273727.0,259872.0
2026-04-08 21:45:41.093438,194524,1609503913305337,1513271498,0.964288,-0.015616,0.060512,-13.335,-7.42875,0.6825,-30.376001,-4.544,-7.04,eccentric,4,3.0,17810.0,134974.0,220872.0,273534.0,259771.0
2026-04-08 21:45:41.097755,194525,1609503913314230,1513280231,0.919392,0.040992,0.220576,-11.585,-8.3475,1.26875,-30.464,-4.608,-7.328001,eccentric,4,3.0,17810.0,134974.0,220872.0,273534.0,259771.0
2026-04-08 21:45:41.099384,194526,1609503913323213,1513288964,0.919392,0.040992,0.220576,-10.955,-8.56625,-1.23375,-30.464,-4.608,-7.328001,eccentric,4,3.0,17810.0,134974.0,220872.0,273534.0,259771.0
2026-04-08 21:45:41.101713,194527,1609503913337787,1513303859,0.915488,0.040992,0.199104,-9.765,-8.39125,-2.09125,-30.368002,-4.368,-6.096,eccentric,4,3.0,17810.0,134974.0,220872.0,273534.0,259771.0
2026-04-08 21:45:41.105420,194528,1609503913346693,1513312521,0.915488,-0.011712,0.206912,-9.0475,-8.32125,-2.7125,-30.368002,-4.368,-6.096,eccentric,4,3.0,17810.0,134974.0,220872.0,273534.0,259771.0
2026-04-08 21:45:41.135791,194529,1609503913361182,1513327454,0.972096,-0.011712,0.206912,-9.21375,-8.51375,-3.96375,-30.352001,-4.736,-7.752,eccentric,4,3.0,17810.0,134974.0,220872.0,273534.0,259771.0
2026-04-08 21:45:41.140104,194530,1609503913370084,1513336116,0.915488,-0.072224,0.05856,-9.37125,-9.3275,-7.91,-30.248001,-4.672,-7.72,eccentric,4,3.0,17810.0,134974.0,220872.0,273534.0,259771.0
2026-04-08 21:45:41.144247,194531,1609503913384556,1513350979,0.915488,-0.072224,0.05856,-8.53125,-10.386251,-9.35375,-30.248001,-4.672,-7.72,eccentric,4,3.0,17810.0,134974.0,220872.0,273534.0,259771.0
2026-04-08 21:45:41.174552,194532,1609503913393481,1513359678,0.895968,-0.060512,0.08784,-1.86375,-11.2525,-9.75625,-30.320002,-4.768,-6.584,eccentric,4,3.0,17810.0,134974.0,220872.0,273534.0,259771.0
2026-04-08 21:45:41.210182,194543,1609503913402536,1513368672,0.895968,-0.060512,0.08784,10.45625,-9.8875,-12.24125,-30.320002,-4.768,-6.584,eccentric,4,3.0,17805.0,134847.0,220663.0,273347.0,259669.0
2026-04-08 21:45:41.211878,194544,1609503913417066,1513383537,0.962336,0.040992,0.206912,23.065,-7.14,-12.1625,-30.36,-4.952,-7.912,eccentric,4,3.0,17805.0,134847.0,220663.0,273347.0,259669.0
2026-04-08 21:45:41.214307,194545,1609503913425995,1513392219,0.962336,0.040992,0.206912,33.215,-5.1625,-9.6075,-30.36,-4.952,-7.912,eccentric,4,3.0,17805.0,134847.0,220663.0,273347.0,259669.0
2026-04-08 21:45:41.215878,194546,1609503913440485,1513407084,0.952576,0.144448,0.20496,31.7975,-4.9175,-4.41,-30.12,-5.016,-7.24,eccentric,4,3.0,17805.0,134847.0,220663.0,273347.0,259669.0
2026-04-08 21:45:41.220083,194547,1609503913449469,1513415791,0.989664,0.037088,0.052704,16.765,-7.44625,0.60375,-30.240002,-4.496,-7.264,eccentric,4,3.0,17805.0,134847.0,220663.0,273347.0,259669.0
2026-04-08 21:45:41.223776,194548,1609503913464039,1513430665,0.989664,0.037088,0.052704,3.71,-10.6925,3.45625,-30.240002,-4.496,-7.264,eccentric,4,3.0,17805.0,134847.0,220663.0,273347.0,259669.0
2026-04-08 21:45:41.252479,194549,1609503913472991,1513439328,0.987712,-0.023424,0.286944,-0.14,-12.36375,5.005,-30.032001,-4.576,-7.464,concentric,4,3.0,17805.0,134847.0,220663.0,273347.0,259669.0
2026-04-08 21:45:41.256847,194550,1609503913482010,1513448004,0.987712,-0.023424,0.286944,5.3375,-12.18875,5.8975,-30.032001,-4.576,-7.464,concentric,4,3.0,17805.0,134847.0,220663.0,273347.0,259669.0
2026-04-08 21:45:41.259128,194551,1609503913496676,1513462935,1.022848,0.02928,0.208864,12.1975,-11.5325,8.56625,-29.768002,-4.264,-8.624001,concentric,4,3.0,17805.0,134847.0,220663.0,273347.0,259669.0
2026-04-08 21:45:41.323881,194562,1609503913505736,1513471662,1.022848,0.02928,0.208864,15.89875,-12.41625,11.69,-29.768002,-4.264,-8.624001,concentric,4,3.0,17873.0,135147.0,221107.0,273691.0,259857.0
2026-04-08 21:45:41.325595,194563,1609503913520259,1513486554,0.933056,0.13664,0.15616,15.33,-13.92125,15.12875,-30.048002,-3.704,-8.024,concentric,4,3.0,17873.0,135147.0,221107.0,273691.0,259857.0
2026-04-08 21:45:41.327184,194564,1609503913529165,1513495217,0.944768,0.062464,0.144448,11.7075,-15.846251,19.005,-29.896002,-3.544,-10.584001,concentric,4,3.0,17873.0,135147.0,221107.0,273691.0,259857.0
2026-04-08 21:45:41.331447,194565,1609503913538064,1513503857,0.944768,0.062464,0.144448,7.665,-17.5,20.965,-29.896002,-3.544,-10.584001,concentric,4,3.0,17873.0,135147.0,221107.0,273691.0,259857.0
2026-04-08 21:45:41.333134,194566,1609503913552534,1513518790,1.0248,-0.027328,0.216672,5.6175,-18.55875,23.87875,-29.848001,-3.264,-9.280001,concentric,4,3.0,17873.0,135147.0,221107.0,273691.0,259857.0
2026-04-08 21:45:41.334639,194567,1609503913561618,1513527534,1.0248,-0.027328,0.216672,5.53,-19.7925,25.795,-29.848001,-3.264,-9.280001,concentric,4,3.0,17873.0,135147.0,221107.0,273691.0,259857.0
2026-04-08 21:45:41.338773,194568,1609503913576160,1513542440,0.997472,-0.06832,-0.023424,8.68,-20.1425,25.03375,-29.496002,-2.872,-9.632001,concentric,4,3.0,17873.0,135147.0,221107.0,273691.0,259857.0
2026-04-08 21:45:41.345058,194569,1609503913585067,1513551111,0.997472,-0.06832,-0.023424,11.99625,-20.2125,22.9425,-29.496002,-2.872,-9.632001,concentric,4,3.0,17873.0,135147.0,221107.0,273691.0,259857.0
2026-04-08 21:45:41.397302,194570,1609503913599557,1513565991,1.052128,-0.054656,0.173728,13.8425,-20.76375,21.28,-29.336,-2.368,-9.552,concentric,4,3.0,17873.0,135147.0,221107.0,273691.0,259857.0
2026-04-08 21:45:41.425791,194581,1609503913608534,1513574699,0.989664,0.017568,0.154208,14.51625,-20.85125,20.09,-29.336,-2.368,-11.632001,concentric,4,3.0,18041.0,135731.0,221798.0,274035.0,259992.0
2026-04-08 21:45:41.428410,194582,1609503913617470,1513583373,0.99552,0.017568,0.154208,15.05,-20.116251,20.13375,-29.368002,-2.008,-11.632001,concentric,4,3.0,18041.0,135731.0,221798.0,274035.0,259992.0
2026-04-08 21:45:41.430858,194583,1609503913631957,1513598261,0.923296,-0.02928,-0.10736,10.52625,-19.2325,21.805,-28.944002,-1.88,-10.472,concentric,4,3.0,18041.0,135731.0,221798.0,274035.0,259992.0
2026-04-08 21:45:41.433359,194584,1609503913640859,1513606935,0.923296,-0.02928,-0.10736,2.0825,-20.44875,22.86375,-28.944002,-1.88,-10.472,concentric,4,3.0,18041.0,135731.0,221798.0,274035.0,259992.0
2026-04-08 21:45:41.435871,194585,1609503913655365,1513621827,1.009184,-0.138592,-0.081984,-5.775,-21.63875,21.14,-29.024002,-1.104,-9.336,concentric,4,3.0,18041.0,135731.0,221798.0,274035.0,259992.0
2026-04-08 21:45:41.438326,194586,1609503913664368,1513630504,1.009184,-0.138592,-0.081984,-9.7125,-22.365,18.935,-29.024002,-1.104,-9.336,concentric,4,3.0,18041.0,135731.0,221798.0,274035.0,259992.0
2026-04-08 21:45:41.440816,194587,1609503913678872,1513645452,0.950624,-0.10736,-0.05856,-6.97375,-21.67375,16.625,-28.840002,-1.232,-10.792001,concentric,4,3.0,18041.0,135731.0,221798.0,274035.0,259992.0
2026-04-08 21:45:41.448455,194588,1609503913687817,1513654191,0.950624,-0.10736,-0.05856,-2.28375,-20.3525,15.505,-28.840002,-1.232,-10.792001,concentric,4,3.0,18041.0,135731.0,221798.0,274035.0,259992.0
2026-04-08 21:45:41.454653,194589,1609503913696754,1513662865,0.962336,-0.07808,-0.062464,-0.70875,-19.95875,12.1275,-28.480001,-0.776,-12.400001,concentric,4,3.0,18041.0,135731.0,221798.0,274035.0,259992.0
2026-04-08 21:45:41.488351,194600,1609503913711802,1513678003,1.00528,-0.085888,0.128832,-0.7525,-19.3025,7.41125,-28.304,-0.592,-10.448001,concentric,4,3.0,18195.0,136226.0,222249.0,274187.0,259978.0
2026-04-08 21:45:41.490851,194601,1609503913720707,1513686709,1.00528,-0.085888,0.128832,-2.0475,-19.53,3.61375,-28.304,-0.592,-10.448001,concentric,4,3.0,18195.0,136226.0,222249.0,274187.0,259978.0
2026-04-08 21:45:41.494659,194602,1609503913735289,1513701560,0.911584,-0.142496,-0.152256,0.6475,-19.97625,-3.01,-27.680002,-0.608,-10.736,concentric,4,3.0,18195.0,136226.0,222249.0,274187.0,259978.0
2026-04-08 21:45:41.524792,194603,1609503913744239,1513710299,0.911584,-0.142496,-0.152256,4.50625,-19.74875,-8.53125,-27.680002,-0.608,-10.736,concentric,4,3.0,18195.0,136226.0,222249.0,274187.0,259978.0
2026-04-08 21:45:41.528395,194604,1609503913753174,1513718958,0.931104,-0.050752,-0.189344,8.855001,-19.215,-9.6425,-27.928001,-0.568,-12.208,concentric,4,3.0,18195.0,136226.0,222249.0,274187.0,259978.0
2026-04-08 21:45:41.530850,194605,1609503913767662,1513733806,0.931104,-0.050752,-0.189344,8.42625,-18.13,-10.43,-27.928001,-0.568,-12.208,concentric,4,3.0,18195.0,136226.0,222249.0,274187.0,259978.0
2026-04-08 21:45:41.534582,194606,1609503913776583,1513742505,0.954528,-0.00976,0.0488,4.76,-18.095,-13.685,-27.616001,-0.496,-12.224001,concentric,4,3.0,18195.0,136226.0,222249.0,274187.0,259978.0
2026-04-08 21:45:41.598668,194607,1609503913791051,1513757337,0.894016,-0.03904,-0.06832,-1.44375,-19.1275,-16.94875,-27.416,-0.424,-12.864,concentric,4,3.0,18195.0,136226.0,222249.0,274187.0,259978.0
2026-04-08 21:45:41.602211,194608,1609503913799934,1513765997,0.894016,-0.03904,-0.06832,-6.405,-19.71375,-18.0775,-27.416,-0.424,-12.864,concentric,4,3.0,18195.0,136226.0,222249.0,274187.0,259978.0
2026-04-08 21:45:41.634644,194619,1609503913814467,1513781010,0.935008,-0.070272,-0.1464,-5.005,-21.44625,-18.2175,-26.920002,-0.632,-12.824,concentric,4,3.0,18420.0,136857.0,222903.0,274523.0,260098.0
2026-04-08 21:45:41.637297,194620,1609503913823370,1513789662,0.935008,-0.070272,-0.1464,-4.1825,-21.49875,-18.585001,-26.920002,-0.632,-12.824,concentric,4,3.0,18420.0,136857.0,222903.0,274523.0,260098.0
2026-04-08 21:45:41.639628,194621,1609503913832323,1513798304,1.06384,-0.05856,0.01952,-1.12,-20.991251,-19.3025,-26.704,-0.496,-12.896001,concentric,4,3.0,18420.0,136857.0,222903.0,274523.0,260098.0
2026-04-08 21:45:41.642152,194622,1609503913846825,1513813170,1.06384,-0.05856,0.01952,2.40625,-20.055,-20.772501,-26.704,-0.496,-12.896001,concentric,4,3.0,18420.0,136857.0,222903.0,274523.0,260098.0
2026-04-08 21:45:41.644578,194623,1609503913855744,1513821902,0.997472,-0.046848,0.150304,2.75625,-20.335001,-22.81125,-26.368002,-0.44,-13.096001,concentric,4,3.0,18420.0,136857.0,222903.0,274523.0,260098.0
2026-04-08 21:45:41.647334,194624,1609503913870239,1513836879,1.013088,-0.089792,-0.091744,1.9775,-23.6075,-25.22625,-26.368002,-0.44,-13.200001,concentric,4,3.0,18420.0,136857.0,222903.0,274523.0,260098.0
2026-04-08 21:45:41.653371,194625,1609503913879231,1513845559,1.009184,-0.089792,-0.091744,2.135,-27.34375,-25.97,-26.240002,0.016,-13.200001,concentric,4,3.0,18420.0,136857.0,222903.0,274523.0,260098.0
2026-04-08 21:45:41.655914,194626,1609503913893762,1513860466,1.071648,-0.042944,-0.021472,3.87625,-30.0475,-26.5825,-25.688002,-0.568,-13.328001,concentric,4,3.0,18420.0,136857.0,222903.0,274523.0,260098.0
2026-04-08 21:45:41.685855,194637,1609503913902725,1513869152,1.071648,-0.042944,-0.021472,5.7575,-30.42375,-26.53875,-25.688002,-0.568,-13.328001,concentric,4,3.0,18541.0,137175.0,223202.0,274654.0,260115.0
2026-04-08 21:45:41.688418,194638,1609503913911686,1513877911,1.048224,-0.03904,-0.122976,3.85875,-29.11125,-24.36875,-25.824001,-0.48,-13.080001,concentric,4,3.0,18541.0,137175.0,223202.0,274654.0,260115.0
2026-04-08 21:45:41.690832,194639,1609503913926244,1513892846,1.048224,-0.03904,-0.122976,0.25375,-28.411251,-23.0125,-25.824001,-0.48,-13.080001,concentric,4,3.0,18541.0,137175.0,223202.0,274654.0,260115.0
2026-04-08 21:45:41.693713,194640,1609503913935278,1513901519,1.069696,-0.093696,-0.0976,-3.7975,-29.0325,-23.905,-24.872002,-0.496,-14.352,concentric,4,3.0,18541.0,137175.0,223202.0,274654.0,260115.0
2026-04-08 21:45:41.726068,194641,1609503913949778,1513916376,1.069696,-0.093696,-0.0976,-5.2325,-29.04125,-23.79125,-24.872002,-0.496,-14.352,concentric,4,3.0,18541.0,137175.0,223202.0,274654.0,260115.0
2026-04-08 21:45:41.729637,194642,1609503913958666,1513925024,1.116544,-0.124928,-0.01952,-5.03125,-29.54,-23.82625,-24.888,-0.68,-11.656,concentric,4,3.0,18541.0,137175.0,223202.0,274654.0,260115.0
2026-04-08 21:45:41.732448,194643,1609503913973122,1513939873,1.126304,-0.144448,-0.013664,-7.91875,-30.75625,-24.82375,-24.296001,-0.728,-15.072001,concentric,4,3.0,18541.0,137175.0,223202.0,274654.0,260115.0
2026-04-08 21:45:41.762347,194644,1609503913982054,1513948576,1.126304,-0.144448,-0.013664,-12.36375,-31.01,-26.495,-24.296001,-0.728,-15.072001,concentric,4,3.0,18541.0,137175.0,223202.0,274654.0,260115.0
2026-04-08 21:45:41.765944,194645,1609503913991002,1513957264,1.016992,-0.085888,-0.015616,-15.35625,-29.2075,-26.95,-24.296001,-0.728,-16.320002,concentric,4,3.0,18541.0,137175.0,223202.0,274654.0,260115.0
2026-04-08 21:45:41.796827,194656,1609503914005560,1513972169,1.026752,-0.085888,-0.015616,-15.74125,-25.82125,-26.36375,-23.856,-0.408,-16.320002,concentric,4,3.0,18493.0,137042.0,223005.0,274420.0,259901.0
2026-04-08 21:45:41.798424,194657,1609503914014585,1513980919,1.04432,-0.158112,-0.1952,-13.9825,-23.835001,-26.01375,-23.296001,-0.616,-15.576001,concentric,4,3.0,18493.0,137042.0,223005.0,274420.0,259901.0
2026-04-08 21:45:41.802741,194658,1609503914029070,1513995804,1.04432,-0.158112,-0.1952,-13.67625,-22.4,-25.08625,-23.296001,-0.616,-15.576001,concentric,4,3.0,18493.0,137042.0,223005.0,274420.0,259901.0
2026-04-08 21:45:41.804270,194659,1609503914038043,1514004546,0.976,-0.158112,-0.06832,-18.2175,-23.63375,-25.3925,-23.208,-0.952,-15.352001,concentric,4,3.0,18493.0,137042.0,223005.0,274420.0,259901.0
2026-04-08 21:45:41.834566,194660,1609503914052546,1514019447,0.98576,-0.171776,0.035136,-21.945,-24.745,-29.18125,-23.184002,-1.136,-17.344002,concentric,4,3.0,18493.0,137042.0,223005.0,274420.0,259901.0
2026-04-08 21:45:41.836768,194661,1609503914061446,1514028115,0.98576,-0.171776,0.035136,-21.53375,-24.73625,-29.16375,-23.184002,-1.136,-17.344002,concentric,4,3.0,18493.0,137042.0,223005.0,274420.0,259901.0
2026-04-08 21:45:41.841420,194662,1609503914070384,1514036776,0.98576,-0.171776,0.035136,-18.2875,-23.96625,-25.2,-23.184002,-1.136,-17.344002,concentric,4,3.0,18493.0,137042.0,223005.0,274420.0,259901.0
2026-04-08 21:45:41.845503,194663,1609503914084884,1514051656,1.022848,-0.152256,0.001952,-13.265,-21.1225,-24.15,-22.712002,-0.984,-16.104,concentric,4,3.0,18493.0,137042.0,223005.0,274420.0,259901.0
2026-04-08 21:45:41.900040,194664,1609503914093833,1514060380,0.89792,-0.152256,-0.212768,-8.33,-18.54125,-27.44,-21.912,-0.744,-14.872001,concentric,4,3.0,18493.0,137042.0,223005.0,274420.0,259901.0
2026-04-08 21:45:41.927661,194675,1609503914108584,1514075384,0.89792,-0.152256,-0.212768,-10.8675,-16.45,-26.9675,-21.912,-0.744,-14.872001,concentric,4,3.0,18592.0,137248.0,223118.0,274479.0,259966.0
2026-04-08 21:45:41.929377,194676,1609503914117494,1514084028,0.911584,-0.140544,-0.132736,-16.49375,-16.16125,-24.29,-22.096,-1.104,-16.52,concentric,4,3.0,18592.0,137248.0,223118.0,274479.0,259966.0
2026-04-08 21:45:41.931833,194677,1609503914131946,1514098898,0.880352,-0.171776,-0.167872,-22.26875,-15.65375,-24.21125,-22.096,-1.104,-16.456001,concentric,4,3.0,18592.0,137248.0,223118.0,274479.0,259966.0
2026-04-08 21:45:41.933455,194678,1609503914140843,1514107564,0.882304,-0.171776,-0.167872,-23.65125,-15.47,-25.0775,-21.960001,-1.216,-16.456001,concentric,4,3.0,18592.0,137248.0,223118.0,274479.0,259966.0
2026-04-08 21:45:41.937649,194679,1609503914149737,1514116225,0.882304,-0.171776,-0.167872,-22.54,-16.16125,-24.82375,-21.960001,-1.216,-16.456001,concentric,4,3.0,18592.0,137248.0,223118.0,274479.0,259966.0
2026-04-08 21:45:41.939391,194680,1609503914164349,1514131099,0.847168,-0.124928,-0.16592,-18.87375,-15.5225,-24.08,-21.536001,-1.224,-14.704,concentric,4,3.0,18592.0,137248.0,223118.0,274479.0,259966.0
2026-04-08 21:45:41.941224,194681,1609503914173318,1514139733,0.845216,-0.12688,-0.218624,-14.4375,-14.6475,-24.43875,-21.28,-1.184,-17.128,concentric,4,3.0,18592.0,137248.0,223118.0,274479.0,259966.0
2026-04-08 21:45:41.950245,194682,1609503914187816,1514154679,0.845216,-0.12688,-0.218624,-15.68875,-14.385,-24.5525,-21.28,-1.184,-17.128,concentric,4,3.0,18592.0,137248.0,223118.0,274479.0,259966.0
2026-04-08 21:45:41.977399,194683,1609503914196727,1514163351,0.83936,-0.095648,-0.18544,-17.99875,-13.20375,-26.285,-20.968,-1.432,-15.952001,concentric,4,3.0,18592.0,137248.0,223118.0,274479.0,259966.0
2026-04-08 21:45:42.010637,194694,1609503914211310,1514178264,0.83936,-0.095648,-0.18544,-19.897501,-12.5475,-25.76,-20.968,-1.432,-15.952001,concentric,4,3.0,18642.0,137407.0,223323.0,274704.0,260148.0
2026-04-08 21:45:42.013081,194695,1609503914220235,1514186986,0.894016,-0.074176,-0.050752,-17.5175,-11.24375,-23.24875,-20.584002,-1.648,-17.128,concentric,4,3.0,18642.0,137407.0,223323.0,274704.0,260148.0
2026-04-08 21:45:42.014710,194696,1609503914229128,1514195674,0.894016,-0.074176,-0.050752,-15.58375,-11.585,-20.6325,-20.584002,-1.648,-17.128,concentric,4,3.0,18642.0,137407.0,223323.0,274704.0,260148.0
2026-04-08 21:45:42.022688,194697,1609503914243728,1514210601,0.880352,-0.070272,0.040992,-15.75875,-12.60875,-19.5825,-20.696001,-1.824,-16.256,concentric,4,3.0,18642.0,137407.0,223323.0,274704.0,260148.0
2026-04-08 21:45:42.025796,194698,1609503914252773,1514219263,0.798368,-0.0488,-0.076128,-16.31875,-13.86875,-19.59125,-20.696001,-1.824,-18.848001,concentric,4,3.0,18642.0,137407.0,223323.0,274704.0,260148.0
2026-04-08 21:45:42.025987,194699,1609503914267268,1514234148,0.798368,-0.0488,-0.076128,-16.6775,-15.190001,-19.34625,-20.408,-2.0,-18.848001,concentric,4,3.0,18642.0,137407.0,223323.0,274704.0,260148.0
2026-04-08 21:45:42.086503,194700,1609503914276224,1514242838,0.854976,-0.021472,-0.101504,-16.9575,-15.085,-18.83,-19.928001,-1.824,-16.272001,concentric,4,3.0,18642.0,137407.0,223323.0,274704.0,260148.0
2026-04-08 21:45:42.086685,194701,1609503914285179,1514251498,0.854976,-0.021472,-0.101504,-17.45625,-13.65,-17.99875,-19.928001,-1.824,-16.272001,concentric,4,3.0,18642.0,137407.0,223323.0,274704.0,260148.0
2026-04-08 21:45:42.086728,194702,1609503914299635,1514266360,0.767136,-0.011712,-0.218624,-15.96875,-12.0925,-17.73625,-19.856,-2.216,-16.632,concentric,4,3.0,18642.0,137407.0,223323.0,274704.0,260148.0
2026-04-08 21:45:42.092640,194713,1609503914308929,1514275505,0.767136,-0.011712,-0.218624,-14.9625,-13.51,-15.86375,-19.856,-2.216,-16.632,concentric,4,3.0,18610.0,137343.0,223202.0,274637.0,260125.0
2026-04-08 21:45:42.092710,194714,1609503914323544,1514290508,0.86864,-0.05856,-0.1464,-17.272501,-15.11125,-14.56875,-19.968,-2.088,-16.912,concentric,4,3.0,18610.0,137343.0,223202.0,274637.0,260125.0
2026-04-08 21:45:42.096323,194715,1609503914332467,1514299190,0.86864,-0.05856,-0.1464,-16.84375,-14.35875,-14.1925,-19.968,-2.088,-16.912,concentric,4,3.0,18610.0,137343.0,223202.0,274637.0,260125.0
2026-04-08 21:45:42.108810,194716,1609503914347025,1514314064,0.83936,-0.03904,-0.228384,-16.52875,-12.6175,-14.60375,-19.480001,-1.992,-17.400002,concentric,4,3.0,18610.0,137343.0,223202.0,274637.0,260125.0
2026-04-08 21:45:42.137325,194717,1609503914355977,1514322764,0.747616,0.044896,-0.206912,-16.91375,-9.7125,-14.93625,-19.208,-2.312,-17.376001,concentric,4,3.0,18610.0,137343.0,223202.0,274637.0,260125.0
2026-04-08 21:45:42.141777,194718,1609503914364913,1514331469,0.747616,0.044896,-0.206912,-19.0575,-7.07875,-13.90375,-19.208,-2.312,-17.376001,concentric,4,3.0,18610.0,137343.0,223202.0,274637.0,260125.0
2026-04-08 21:45:42.144124,194719,1609503914379401,1514346339,0.798368,-0.001952,-0.236192,-19.01375,-5.04,-12.29375,-19.416,-2.328,-17.744001,concentric,4,3.0,18610.0,137343.0,223202.0,274637.0,260125.0
2026-04-08 21:45:42.147881,194720,1609503914388290,1514354992,0.798368,-0.001952,-0.236192,-21.23625,-3.61375,-9.292501,-19.416,-2.328,-17.744001,concentric,4,3.0,18610.0,137343.0,223202.0,274637.0,260125.0
2026-04-08 21:45:42.198230,194721,1609503914402760,1514369844,0.892064,-0.017568,0.03904,-27.74625,-3.00125,-8.8025,-19.216002,-2.784,-17.464,concentric,4,3.0,18610.0,137343.0,223202.0,274637.0,260125.0
2026-04-08 21:45:42.228393,194733,1609503914411738,1514378598,0.892064,-0.017568,0.03904,-31.465,-1.49625,-12.215,-19.216002,-2.784,-17.464,concentric,4,3.0,18684.0,137420.0,223140.0,274480.0,259975.0
2026-04-08 21:45:42.232605,194734,1609503914426250,1514391408,0.901824,0.017568,-0.099552,-29.5575,1.79375,-13.335,-18.896002,-2.888,-19.536001,concentric,4,3.0,18684.0,137420.0,223140.0,274480.0,259975.0
2026-04-08 21:45:42.234324,194735,1609503914435449,1514402161,0.812032,0.050752,-0.271328,-21.3675,5.39875,-13.2825,-19.320002,-2.496,-17.240002,concentric,4,3.0,18684.0,137420.0,223140.0,274480.0,259975.0
2026-04-08 21:45:42.235914,194736,1609503914444434,1514410841,0.812032,0.050752,-0.271328,-15.95125,6.685,-10.56125,-19.320002,-2.496,-17.240002,concentric,4,3.0,18684.0,137420.0,223140.0,274480.0,259975.0
2026-04-08 21:45:42.240100,194737,1609503914458957,1514425738,0.913536,0.0976,-0.00976,-22.3825,8.7675,-8.198751,-19.096,-2.832,-17.584002,concentric,4,3.0,18684.0,137420.0,223140.0,274480.0,259975.0
2026-04-08 21:45:42.241868,194738,1609503914467916,1514434469,0.913536,0.0976,-0.00976,-27.95625,10.823751,-10.45625,-19.096,-2.832,-17.584002,concentric,4,3.0,18684.0,137420.0,223140.0,274480.0,259975.0
2026-04-08 21:45:42.243404,194739,1609503914482386,1514449382,0.772992,0.105408,-0.031232,-28.55125,12.15375,-10.22875,-18.776001,-3.232,-16.6,concentric,4,3.0,18684.0,137420.0,223140.0,274480.0,259975.0
2026-04-08 21:45:42.251240,194740,1609503914491329,1514458225,0.772992,0.105408,-0.031232,-29.925,11.7075,-6.20375,-18.776001,-3.232,-16.6,concentric,4,3.0,18684.0,137420.0,223140.0,274480.0,259975.0
2026-04-08 21:45:42.280007,194741,1609503914500249,1514466907,0.698816,0.011712,-0.144448,-27.36125,9.91375,-5.845,-19.472,-2.824,-17.008001,concentric,4,3.0,18684.0,137420.0,223140.0,274480.0,259975.0
2026-04-08 21:45:42.316886,194752,1609503914514835,1514481841,0.739808,0.017568,-0.099552,-22.39125,7.7175,-8.32125,-19.096,-3.24,-17.112001,concentric,4,3.0,18667.0,137302.0,222850.0,274219.0,259818.0
2026-04-08 21:45:42.318489,194753,1609503914523769,1514490520,0.739808,0.017568,-0.099552,-19.39875,6.2475,-10.66625,-19.096,-3.24,-17.112001,concentric,4,3.0,18667.0,137302.0,222850.0,274219.0,259818.0
2026-04-08 21:45:42.322628,194754,1609503914538277,1514505418,0.75152,0.0488,-0.177632,-18.54125,4.4975,-12.88875,-19.216002,-3.448,-16.480001,concentric,4,3.0,18667.0,137302.0,222850.0,274219.0,259818.0
2026-04-08 21:45:42.324344,194755,1609503914547182,1514514145,0.75152,0.0488,-0.177632,-19.18,2.8525,-14.315001,-19.216002,-3.448,-16.480001,concentric,4,3.0,18667.0,137302.0,222850.0,274219.0,259818.0
2026-04-08 21:45:42.325888,194756,1609503914561739,1514526995,0.657824,0.10736,-0.011712,-18.8825,3.0975,-15.015,-19.032001,-3.536,-15.496,concentric,4,3.0,18667.0,137302.0,222850.0,274219.0,259818.0
2026-04-08 21:45:42.331193,194757,1609503914570975,1514537724,0.657824,0.10736,-0.011712,-10.5175,2.91375,-13.8425,-19.032001,-3.536,-15.496,concentric,4,3.0,18667.0,137302.0,222850.0,274219.0,259818.0
