pc_time,serial_num,sensor_ts,host_ts,ax,ay,az,gx,gy,gz,mx,my,mz,phase,rpe,weight_kg,ppg_a,ppg_b,ppg_c,ppg_d,ppg_e
2026-04-08 21:45:42.359768,194758,1609503914579882,1514546374,0.698816,0.023424,-0.203008,-2.86125,0.9275,-9.59,-18.944,-3.488,-15.400001,eccentric,4,3.0,18667.0,137302.0,222850.0,274219.0,259818.0
2026-04-08 21:45:42.364418,194759,1609503914594345,1514561247,0.698816,0.023424,-0.109312,-7.41125,-1.9775,-9.3975,-18.944,-3.488,-15.400001,eccentric,4,3.0,18667.0,137302.0,222850.0,274219.0,259818.0
2026-04-08 21:45:42.365902,194760,1609503914603235,1514569908,0.853024,0.00976,-0.0976,-14.23625,-2.345,-13.615,-19.032001,-3.416,-18.032001,eccentric,4,3.0,18667.0,137302.0,222850.0,274219.0,259818.0
2026-04-08 21:45:42.393361,194771,1609503914617824,1514583229,0.837408,0.070272,-0.242048,-14.63875,-0.9625,-14.37625,-19.128,-3.8,-16.256,eccentric,4,3.0,18725.0,137507.0,223075.0,274385.0,259912.0
2026-04-08 21:45:42.397683,194772,1609503914627038,1514593992,0.837408,0.070272,-0.242048,-10.29,1.70625,-10.64,-19.128,-3.8,-16.256,eccentric,4,3.0,18725.0,137507.0,223075.0,274385.0,259912.0
2026-04-08 21:45:42.400036,194773,1609503914635984,1514602738,0.825696,0.042944,-0.031232,-8.35625,2.8,-7.84875,-19.096,-3.704,-14.64,eccentric,4,3.0,18725.0,137507.0,223075.0,274385.0,259912.0
2026-04-08 21:45:42.428934,194774,1609503914650505,1514617636,0.825696,0.042944,-0.031232,-9.948751,3.29875,-6.18625,-19.096,-3.704,-14.64,eccentric,4,3.0,18725.0,137507.0,223075.0,274385.0,259912.0
2026-04-08 21:45:42.433052,194775,1609503914659421,1514626311,0.802272,0.033184,-0.17568,-13.0375,3.15,-4.2525,-18.608002,-4.088,-17.152,eccentric,4,3.0,18725.0,137507.0,223075.0,274385.0,259912.0
2026-04-08 21:45:42.434557,194776,1609503914673881,1514639128,0.802272,0.033184,-0.17568,-15.61875,2.275,-3.4475,-18.608002,-4.088,-17.152,eccentric,4,3.0,18725.0,137507.0,223075.0,274385.0,259912.0
2026-04-08 21:45:42.500327,194777,1609503914683142,1514649861,0.8296,0.054656,-0.244,-15.07625,4.12125,-4.27875,-19.232,-4.04,-17.064001,eccentric,4,3.0,18725.0,137507.0,223075.0,274385.0,259912.0
2026-04-08 21:45:42.501946,194778,1609503914697622,1514664731,0.802272,0.064416,-0.140544,-9.45,5.87125,-3.57875,-19.352001,-3.96,-17.296001,eccentric,4,3.0,18725.0,137507.0,223075.0,274385.0,259912.0
2026-04-08 21:45:42.531844,194789,1609503914706578,1514673510,0.802272,0.064416,-0.140544,-5.0925,5.0925,-0.105,-19.352001,-3.96,-17.296001,eccentric,4,3.0,18663.0,137378.0,223039.0,274414.0,259975.0
2026-04-08 21:45:42.533396,194790,1609503914715533,1514682231,0.802272,0.017568,0.060512,-2.91375,2.93125,2.21375,-19.352001,-3.96,-17.296001,eccentric,4,3.0,18663.0,137378.0,223039.0,274414.0,259975.0
2026-04-08 21:45:42.537617,194791,1609503914730019,1514697136,0.882304,0.017568,0.060512,-3.01875,-0.35875,2.835,-19.144001,-3.648,-16.816,eccentric,4,3.0,18663.0,137378.0,223039.0,274414.0,259975.0
2026-04-08 21:45:42.539347,194792,1609503914738922,1514705792,0.923296,0.003904,-0.046848,-3.66625,-3.1325,1.645,-19.152,-4.344,-17.408,eccentric,4,3.0,18663.0,137378.0,223039.0,274414.0,259975.0
2026-04-08 21:45:42.540891,194793,1609503914753471,1514718624,0.923296,0.003904,-0.046848,-1.8725,-4.36625,-0.4025,-19.152,-4.344,-17.408,eccentric,4,3.0,18663.0,137378.0,223039.0,274414.0,259975.0
2026-04-08 21:45:42.545108,194794,1609503914762781,1514729466,0.845216,0.062464,-0.242048,2.91375,-4.10375,-0.30625,-18.952002,-4.008,-17.088001,eccentric,4,3.0,18663.0,137378.0,223039.0,274414.0,259975.0
2026-04-08 21:45:42.546838,194795,1609503914777294,1514744381,0.831552,0.095648,-0.11712,5.6,-2.7825,2.31875,-18.960001,-3.768,-16.104,eccentric,4,3.0,18663.0,137378.0,223039.0,274414.0,259975.0
2026-04-08 21:45:42.548476,194796,1609503914786227,1514753132,0.831552,0.095648,-0.11712,5.39,-1.51375,4.2175,-18.960001,-3.768,-16.104,eccentric,4,3.0,18663.0,137378.0,223039.0,274414.0,259975.0
2026-04-08 21:45:42.554965,194797,1609503914795247,1514761844,0.831552,0.095648,-0.11712,2.6775,-1.44375,7.27125,-18.960001,-3.768,-16.104,eccentric,4,3.0,18663.0,137378.0,223039.0,274414.0,259975.0
2026-04-08 21:45:42.609774,194808,1609503914809820,1514776786,0.825696,0.074176,-0.031232,-1.32125,-1.68,8.82875,-19.344002,-4.08,-16.08,eccentric,4,3.0,18696.0,137546.0,223252.0,274562.0,260067.0
2026-04-08 21:45:42.613946,194809,1609503914818766,1514785434,0.899872,0.015616,-0.163968,-2.1875,-1.4,8.4,-19.36,-3.984,-17.408,eccentric,4,3.0,18696.0,137546.0,223252.0,274562.0,260067.0
2026-04-08 21:45:42.615934,194810,1609503914833229,1514800357,0.899872,0.015616,-0.163968,-0.13125,-0.3675,9.66875,-19.36,-3.984,-17.408,eccentric,4,3.0,18696.0,137546.0,223252.0,274562.0,260067.0
2026-04-08 21:45:42.617516,194811,1609503914842221,1514809062,0.890112,0.05856,-0.037088,2.02125,0.2275,10.115,-19.480001,-3.424,-16.288,eccentric,4,3.0,18696.0,137546.0,223252.0,274562.0,260067.0
2026-04-08 21:45:42.625180,194812,1609503914851287,1514817752,0.890112,0.05856,-0.037088,2.07375,0.9275,9.86125,-19.480001,-3.424,-16.288,eccentric,4,3.0,18696.0,137546.0,223252.0,274562.0,260067.0
2026-04-08 21:45:42.626679,194813,1609503914865844,1514832684,0.892064,0.027328,-0.0976,0.84875,1.7675,10.8675,-19.408,-3.728,-16.192001,eccentric,4,3.0,18696.0,137546.0,223252.0,274562.0,260067.0
2026-04-08 21:45:42.677026,194814,1609503914874786,1514841469,0.892064,0.027328,-0.0976,0.51625,1.2425,12.41625,-19.408,-3.728,-16.192001,eccentric,4,3.0,18696.0,137546.0,223252.0,274562.0,260067.0
2026-04-08 21:45:42.679250,194815,1609503914889257,1514856331,0.802272,0.056608,-0.080032,2.24875,1.05875,12.74,-19.392,-3.432,-16.912,eccentric,4,3.0,18696.0,137546.0,223252.0,274562.0,260067.0
2026-04-08 21:45:42.684000,194816,1609503914898174,1514864989,0.792512,0.00976,-0.228384,3.49125,0.455,13.08125,-19.728,-3.032,-17.560001,eccentric,4,3.0,18696.0,137546.0,223252.0,274562.0,260067.0
2026-04-08 21:45:42.713947,194827,1609503914912816,1514879935,0.792512,0.00976,-0.228384,3.38625,-0.1225,13.76375,-19.728,-3.032,-17.560001,eccentric,4,3.0,18709.0,137660.0,223436.0,274793.0,260255.0
2026-04-08 21:45:42.715596,194828,1609503914921755,1514888627,0.853024,0.011712,-0.011712,2.59875,-0.1225,13.34375,-19.424002,-3.272,-16.84,eccentric,4,3.0,18709.0,137660.0,223436.0,274793.0,260255.0
2026-04-08 21:45:42.717186,194829,1609503914930719,1514897347,0.853024,0.011712,-0.011712,3.38625,0.98,13.9475,-19.424002,-3.272,-16.84,eccentric,4,3.0,18709.0,137660.0,223436.0,274793.0,260255.0
2026-04-08 21:45:42.721372,194830,1609503914945229,1514912273,0.835456,0.003904,-0.066368,4.1825,2.33625,15.365,-19.696001,-3.296,-16.976002,eccentric,4,3.0,18709.0,137660.0,223436.0,274793.0,260255.0
2026-04-08 21:45:42.723803,194831,1609503914954266,1514920948,0.835456,0.003904,-0.066368,4.6025,4.31375,15.225,-19.696001,-3.296,-16.976002,eccentric,4,3.0,18709.0,137660.0,223436.0,274793.0,260255.0
2026-04-08 21:45:42.729994,194832,1609503914968790,1514935814,0.812032,-0.013664,-0.062464,4.41,5.215,15.88125,-19.768002,-3.152,-16.928001,eccentric,4,3.0,18709.0,137660.0,223436.0,274793.0,260255.0
2026-04-08 21:45:42.758550,194833,1609503914977729,1514944527,0.77104,-0.040992,-0.244,3.49125,5.85375,17.14125,-19.768002,-2.712,-16.064001,eccentric,4,3.0,18709.0,137660.0,223436.0,274793.0,260255.0
2026-04-08 21:45:42.763070,194834,1609503914992164,1514957345,0.77104,-0.040992,-0.244,4.03375,8.12,17.605,-20.064001,-2.712,-16.064001,eccentric,4,3.0,18709.0,137660.0,223436.0,274793.0,260255.0
2026-04-08 21:45:42.764656,194835,1609503915001317,1514968068,0.788608,-0.05856,-0.197152,0.67375,9.05625,18.0425,-20.112001,-2.8,-16.864,eccentric,4,3.0,18709.0,137660.0,223436.0,274793.0,260255.0
2026-04-08 21:45:42.831657,194846,1609503915010616,1514977065,0.788608,-0.05856,-0.197152,-4.19125,9.345,18.095,-20.112001,-2.8,-16.864,eccentric,4,3.0,18745.0,137945.0,223897.0,275227.0,260567.0
2026-04-08 21:45:42.833487,194847,1609503915025089,1514992018,0.81984,-0.037088,-0.015616,-3.85875,9.8,17.6225,-19.888,-2.912,-15.032001,eccentric,4,3.0,18745.0,137945.0,223897.0,275227.0,260567.0
2026-04-08 21:45:42.836403,194848,1609503915033995,1515000660,0.81984,-0.037088,-0.015616,2.2575,11.48875,18.96125,-19.888,-2.912,-15.032001,eccentric,4,3.0,18745.0,137945.0,223897.0,275227.0,260567.0
2026-04-08 21:45:42.839309,194849,1609503915048484,1515015500,0.854976,-0.089792,-0.193248,7.84875,12.04,21.3675,-20.472,-2.672,-16.36,eccentric,4,3.0,18745.0,137945.0,223897.0,275227.0,260567.0
2026-04-08 21:45:42.845193,194850,1609503915057412,1515024161,0.854976,-0.089792,-0.1464,7.07,12.50375,22.14625,-20.472,-2.672,-16.36,eccentric,4,3.0,18745.0,137945.0,223897.0,275227.0,260567.0
2026-04-08 21:45:42.849961,194851,1609503915066536,1515032879,0.89792,-0.085888,-0.1464,2.1175,13.25625,20.6675,-20.392,-2.384,-16.0,eccentric,4,3.0,18745.0,137945.0,223897.0,275227.0,260567.0
2026-04-08 21:45:42.852278,194852,1609503915081121,1515047845,0.765184,-0.021472,-0.0976,-1.33875,15.785,19.53,-20.784,-2.272,-15.688001,eccentric,4,3.0,18745.0,137945.0,223897.0,275227.0,260567.0
2026-04-08 21:45:42.854549,194853,1609503915090041,1515056532,0.765184,-0.021472,-0.0976,0.805,19.241251,20.58875,-20.784,-2.272,-15.688001,eccentric,4,3.0,18745.0,137945.0,223897.0,275227.0,260567.0
2026-04-08 21:45:42.884872,194854,1609503915104490,1515071397,0.841312,-0.060512,-0.062464,3.2025,20.3525,23.28375,-20.968,-2.344,-16.288,eccentric,4,3.0,18745.0,137945.0,223897.0,275227.0,260567.0
2026-04-08 21:45:42.916160,194865,1609503915113804,1515080121,0.841312,-0.060512,-0.062464,1.6625,19.87125,24.01875,-20.968,-2.344,-16.288,eccentric,4,3.0,18813.0,138264.0,224343.0,275576.0,260709.0
2026-04-08 21:45:42.918359,194866,1609503915122707,1515088840,0.853024,-0.080032,-0.181536,-3.36,20.116251,23.23125,-21.160002,-2.512,-15.928,eccentric,4,3.0,18813.0,138264.0,224343.0,275576.0,260709.0
2026-04-08 21:45:42.920895,194867,1609503915137172,1515103724,0.853024,-0.080032,-0.181536,-6.2825,21.34125,21.3325,-21.160002,-2.512,-15.928,eccentric,4,3.0,18813.0,138264.0,224343.0,275576.0,260709.0
2026-04-08 21:45:42.923347,194868,1609503915146239,1515112459,0.833504,-0.050752,-0.138592,-6.8075,24.73625,21.06125,-21.768002,-2.512,-15.960001,eccentric,4,3.0,18813.0,138264.0,224343.0,275576.0,260709.0
2026-04-08 21:45:42.925851,194869,1609503915160798,1515127382,0.796416,-0.064416,0.021472,-6.335,26.39875,23.1525,-21.816002,-2.28,-15.416,eccentric,4,3.0,18813.0,138264.0,224343.0,275576.0,260709.0
2026-04-08 21:45:42.928370,194870,1609503915169718,1515136047,0.796416,-0.064416,0.021472,-4.90875,26.06625,25.165,-21.816002,-2.28,-15.416,eccentric,4,3.0,18813.0,138264.0,224343.0,275576.0,260709.0
2026-04-08 21:45:42.958592,194871,1609503915184183,1515150957,0.905728,-0.13664,0.140544,-4.8125,22.95125,26.99375,-22.136002,-2.432,-15.336,eccentric,4,3.0,18813.0,138264.0,224343.0,275576.0,260709.0
2026-04-08 21:45:42.962172,194872,1609503915193078,1515159613,0.905728,-0.13664,0.140544,-4.20875,19.13625,26.08375,-22.136002,-2.432,-15.336,eccentric,4,3.0,18813.0,138264.0,224343.0,275576.0,260709.0
2026-04-08 21:45:42.964693,194873,1609503915201971,1515168256,0.948672,-0.16592,-0.142496,-0.42875,17.36,25.26125,-22.352001,-2.064,-15.104001,eccentric,4,3.0,18813.0,138264.0,224343.0,275576.0,260709.0
2026-04-08 21:45:42.992162,194884,1609503915216526,1515183193,0.948672,-0.16592,-0.142496,4.62,17.885,24.00125,-22.352001,-2.064,-15.104001,eccentric,4,3.0,18818.0,138379.0,224605.0,275871.0,260922.0
2026-04-08 21:45:42.994809,194885,1609503915225580,1515191905,0.911584,-0.099552,-0.179584,4.69,19.915,23.31875,-22.808,-1.92,-13.952001,eccentric,4,3.0,18818.0,138379.0,224605.0,275871.0,260922.0
2026-04-08 21:45:42.997827,194886,1609503915240083,1515206841,0.856928,-0.074176,0.064416,5.57375,22.6275,23.135,-23.384,-1.656,-14.216001,eccentric,4,3.0,18818.0,138379.0,224605.0,275871.0,260922.0
2026-04-08 21:45:43.029918,194887,1609503915249010,1515215520,0.856928,-0.074176,0.064416,4.0425,23.38,24.5875,-23.384,-1.656,-14.216001,eccentric,4,3.0,18818.0,138379.0,224605.0,275871.0,260922.0
2026-04-08 21:45:43.031369,194888,1609503915263476,1515230381,0.919392,-0.10736,0.121024,-1.88125,19.27625,27.02,-23.264002,-1.432,-14.376,eccentric,4,3.0,18818.0,138379.0,224605.0,275871.0,260922.0
2026-04-08 21:45:43.034644,194889,1609503915272377,1515239041,0.919392,-0.10736,0.121024,-4.8825,16.625,26.99375,-23.264002,-1.432,-14.376,eccentric,4,3.0,18818.0,138379.0,224605.0,275871.0,260922.0
2026-04-08 21:45:43.041294,194890,1609503915281298,1515247702,1.03456,-0.179584,-0.093696,-0.875,17.59625,25.61125,-23.528002,-1.52,-14.112,eccentric,4,3.0,18818.0,138379.0,224605.0,275871.0,260922.0
2026-04-08 21:45:43.103654,194891,1609503915295755,1515262682,1.03456,-0.179584,-0.093696,1.79375,18.305,27.20375,-23.528002,-1.52,-14.112,eccentric,4,3.0,18818.0,138379.0,224605.0,275871.0,260922.0
2026-04-08 21:45:43.107114,194892,1609503915304657,1515271348,0.954528,-0.105408,0.109312,0.455,17.61375,25.34,-23.496,-1.48,-13.848001,eccentric,4,3.0,18818.0,138379.0,224605.0,275871.0,260922.0
2026-04-08 21:45:43.142094,194903,1609503915319152,1515286229,0.954528,-0.105408,-0.074176,1.26,18.33125,22.33875,-23.496,-1.48,-13.848001,eccentric,4,3.0,18695.0,138122.0,224433.0,275839.0,260925.0
2026-04-08 21:45:43.145412,194904,1609503915328164,1515294892,0.942816,-0.167872,-0.074176,3.045,17.63125,26.03125,-24.28,-0.984,-14.016001,eccentric,4,3.0,18695.0,138122.0,224433.0,275839.0,260925.0
2026-04-08 21:45:43.147078,194905,1609503915342632,1515309735,0.948672,-0.169824,0.119072,2.1,14.02625,28.23625,-24.016,-0.84,-13.272,eccentric,4,3.0,18695.0,138122.0,224433.0,275839.0,260925.0
2026-04-08 21:45:43.150666,194906,1609503915351525,1515318370,0.948672,-0.169824,0.119072,0.95375,11.7425,25.7075,-24.016,-0.84,-13.272,eccentric,4,3.0,18695.0,138122.0,224433.0,275839.0,260925.0
2026-04-08 21:45:43.152372,194907,1609503915360564,1515327053,0.86864,-0.173728,-0.0976,6.3175,11.6375,24.64875,-24.52,-0.904,-14.360001,eccentric,4,3.0,18695.0,138122.0,224433.0,275839.0,260925.0
2026-04-08 21:45:43.154803,194908,1609503915375121,1515341974,0.86864,-0.173728,-0.0976,8.8725,10.52625,26.99375,-24.52,-0.904,-14.360001,eccentric,4,3.0,18695.0,138122.0,224433.0,275839.0,260925.0
2026-04-08 21:45:43.157086,194909,1609503915384106,1515350697,0.813984,-0.1464,0.003904,10.3425,9.93125,26.460001,-24.904001,-0.536,-13.632001,eccentric,4,3.0,18695.0,138122.0,224433.0,275839.0,260925.0
2026-04-08 21:45:43.159603,194910,1609503915398619,1515365655,0.813984,-0.1464,0.003904,14.16625,10.2725,26.81,-24.904001,-0.536,-13.632001,eccentric,4,3.0,18695.0,138122.0,224433.0,275839.0,260925.0
2026-04-08 21:45:43.165906,194911,1609503915407552,1515374356,0.935008,-0.22448,-0.154208,11.795,11.042501,29.723751,-24.888,-0.384,-13.280001,eccentric,4,3.0,18695.0,138122.0,224433.0,275839.0,260925.0
2026-04-08 21:45:43.193345,194922,1609503915422161,1515387472,0.929152,-0.220576,-0.148352,5.0225,11.4625,28.76125,-25.12,-0.264,-12.104001,eccentric,4,3.0,18735.0,138149.0,224472.0,275820.0,260885.0
2026-04-08 21:45:43.195851,194923,1609503915431450,1515398213,0.929152,-0.220576,-0.148352,-0.63875,12.8275,23.8175,-25.12,-0.264,-12.104001,eccentric,4,3.0,18735.0,138149.0,224472.0,275820.0,260885.0
2026-04-08 21:45:43.199624,194924,1609503915440418,1515406894,0.960384,-0.222528,-0.003904,0.04375,14.945,21.175,-25.12,-0.264,-11.232,eccentric,4,3.0,18735.0,138149.0,224472.0,275820.0,260885.0
2026-04-08 21:45:43.230561,194925,1609503915454866,1515421754,0.954528,-0.222528,-0.003904,1.74125,16.21375,23.05625,-25.352001,-0.136,-11.232,eccentric,4,3.0,18735.0,138149.0,224472.0,275820.0,260885.0
2026-04-08 21:45:43.233720,194926,1609503915463778,1515430452,0.911584,-0.222528,-0.095648,1.77625,16.52,24.08875,-25.792002,-0.08,-12.000001,eccentric,4,3.0,18735.0,138149.0,224472.0,275820.0,260885.0
2026-04-08 21:45:43.237103,194927,1609503915478288,1515445319,0.911584,-0.222528,-0.095648,3.885,17.10625,23.905,-25.792002,-0.08,-12.000001,eccentric,4,3.0,18735.0,138149.0,224472.0,275820.0,260885.0
2026-04-08 21:45:43.268293,194928,1609503915487292,1515454004,0.970144,-0.251808,-0.134688,5.145,16.975,25.2175,-25.776001,-0.04,-11.904,eccentric,4,3.0,18735.0,138149.0,224472.0,275820.0,260885.0
2026-04-08 21:45:43.272841,194929,1609503915501760,1515468844,0.972096,-0.26352,-0.12688,2.58125,18.33125,25.13875,-26.096,-0.2,-12.248,eccentric,4,3.0,18735.0,138149.0,224472.0,275820.0,260885.0
2026-04-08 21:45:43.302745,194940,1609503915510669,1515477472,0.972096,-0.26352,-0.12688,0.3675,20.7025,22.25125,-26.096,-0.2,-12.248,eccentric,4,3.0,18687.0,137862.0,224060.0,275415.0,260567.0
2026-04-08 21:45:43.305656,194941,1609503915519591,1515486158,0.972096,-0.26352,-0.12688,-1.47875,22.53125,20.4225,-26.096,-0.2,-12.248,eccentric,4,3.0,18687.0,137862.0,224060.0,275415.0,260567.0
2026-04-08 21:45:43.306046,194942,1609503915534095,1515501067,0.974048,-0.25376,-0.046848,-0.77875,23.16125,20.58875,-26.2,-0.12,-11.888001,eccentric,4,3.0,18687.0,137862.0,224060.0,275415.0,260567.0
2026-04-08 21:45:43.311994,194943,1609503915543030,1515509733,0.98576,-0.257664,0.035136,-0.25375,23.40625,21.14,-26.904001,-0.112,-9.616,eccentric,4,3.0,18687.0,137862.0,224060.0,275415.0,260567.0
2026-04-08 21:45:43.339596,194944,1609503915557543,1515524594,0.98576,-0.257664,0.035136,-1.47,22.98625,20.37,-26.904001,-0.112,-9.616,eccentric,4,3.0,18687.0,137862.0,224060.0,275415.0,260567.0
2026-04-08 21:45:43.341792,194945,1609503915566475,1515533270,0.989664,-0.244,0.066368,0.14875,22.68875,19.4775,-27.344002,0.024,-11.072001,eccentric,4,3.0,18687.0,137862.0,224060.0,275415.0,260567.0
2026-04-08 21:45:43.346387,194946,1609503915580957,1515546108,0.989664,-0.244,-0.074176,2.73,22.19,18.54125,-27.344002,0.024,-11.072001,eccentric,4,3.0,18687.0,137862.0,224060.0,275415.0,260567.0
2026-04-08 21:45:43.349606,194947,1609503915590094,1515556851,0.999424,-0.255712,-0.074176,4.06875,22.3125,17.325,-27.272001,0.488,-12.792001,eccentric,4,3.0,18687.0,137862.0,224060.0,275415.0,260567.0
2026-04-08 21:45:43.408014,194948,1609503915599039,1515565604,0.999424,-0.255712,-0.074176,5.99375,22.05875,15.82875,-27.272001,0.488,-12.792001,eccentric,4,3.0,18687.0,137862.0,224060.0,275415.0,260567.0
2026-04-08 21:45:43.438124,194959,1609503915613996,1515580578,1.03456,-0.21472,0.134688,10.43,21.2625,17.3775,-27.456001,-0.312,-10.208,eccentric,4,3.0,18604.0,137557.0,223775.0,275250.0,260496.0
2026-04-08 21:45:43.439653,194960,1609503915622968,1515589250,0.987712,-0.228384,-0.035136,10.40375,19.81,20.32625,-27.760002,0.6,-9.896001,eccentric,4,3.0,18604.0,137557.0,223775.0,275250.0,260496.0
2026-04-08 21:45:43.443859,194961,1609503915637422,1515604114,0.987712,-0.228384,-0.035136,6.76375,17.815,21.0525,-27.760002,0.6,-9.896001,eccentric,4,3.0,18604.0,137557.0,223775.0,275250.0,260496.0
2026-04-08 21:45:43.445676,194962,1609503915646356,1515612788,0.989664,-0.212768,0.132736,2.66875,17.3775,21.735,-28.04,0.688,-9.696,eccentric,4,3.0,18604.0,137557.0,223775.0,275250.0,260496.0
2026-04-08 21:45:43.447156,194963,1609503915655275,1515621455,0.989664,-0.212768,0.132736,0.42875,16.8525,21.93625,-28.04,0.688,-9.696,eccentric,4,3.0,18604.0,137557.0,223775.0,275250.0,260496.0
2026-04-08 21:45:43.451489,194964,1609503915669796,1515636492,1.030656,-0.218624,0.089792,-2.5725,16.66,22.5925,-28.52,0.816,-9.536,eccentric,4,3.0,18604.0,137557.0,223775.0,275250.0,260496.0
2026-04-08 21:45:43.453122,194965,1609503915678789,1515645186,1.030656,-0.218624,0.089792,-5.1975,15.98625,23.40625,-28.52,0.816,-9.536,eccentric,4,3.0,18604.0,137557.0,223775.0,275250.0,260496.0
2026-04-08 21:45:43.454718,194966,1609503915693348,1515660183,0.977952,-0.1952,0.122976,-6.02,15.82875,24.491251,-28.312002,0.8,-9.272,eccentric,4,3.0,18604.0,137557.0,223775.0,275250.0,260496.0
2026-04-08 21:45:43.465616,194967,1609503915702278,1515668880,1.098976,-0.218624,0.128832,-6.79,16.6425,25.68125,-28.312002,1.056,-8.744,eccentric,4,3.0,18604.0,137557.0,223775.0,275250.0,260496.0
2026-04-08 21:45:43.519650,194978,1609503915717086,1515683707,1.098976,-0.218624,0.128832,-5.2325,17.535,25.64625,-28.448002,1.056,-8.744,eccentric,4,3.0,18561.0,137327.0,223452.0,275004.0,260325.0
2026-04-08 21:45:43.523863,194979,1609503915726010,1515692447,1.052128,-0.230336,0.044896,-4.54125,18.97875,25.59375,-29.000002,1.184,-8.496,eccentric,4,3.0,18561.0,137327.0,223452.0,275004.0,260325.0
2026-04-08 21:45:43.525640,194980,1609503915734915,1515701087,1.052128,-0.230336,0.044896,-6.22125,18.33125,25.59375,-29.000002,1.184,-8.496,eccentric,4,3.0,18561.0,137327.0,223452.0,275004.0,260325.0
2026-04-08 21:45:43.527258,194981,1609503915749429,1515716005,0.940864,-0.201056,-0.076128,-9.7125,16.73,24.31625,-29.224,1.304,-8.096001,eccentric,4,3.0,18561.0,137327.0,223452.0,275004.0,260325.0
2026-04-08 21:45:43.531379,194982,1609503915758503,1515724754,0.940864,-0.201056,-0.076128,-15.085,15.627501,23.80875,-29.224,1.304,-8.096001,eccentric,4,3.0,18561.0,137327.0,223452.0,275004.0,260325.0
2026-04-08 21:45:43.533817,194983,1609503915773004,1515739691,1.036512,-0.18544,0.212768,-18.82125,14.90125,23.98375,-29.176,1.384,-8.176001,eccentric,4,3.0,18561.0,137327.0,223452.0,275004.0,260325.0
2026-04-08 21:45:43.562389,194984,1609503915781935,1515748368,1.036512,-0.18544,0.212768,-21.866251,14.4375,21.98875,-29.176,1.384,-8.176001,eccentric,4,3.0,18561.0,137327.0,223452.0,275004.0,260325.0
2026-04-08 21:45:43.566838,194985,1609503915790834,1515757029,1.016992,-0.189344,0.177632,-22.47,14.3675,19.69625,-29.504002,1.312,-8.056001,eccentric,4,3.0,18561.0,137327.0,223452.0,275004.0,260325.0
2026-04-08 21:45:43.568378,194986,1609503915805343,1515771915,1.038464,-0.228384,0.044896,-21.805,13.23875,18.2,-29.664001,1.256,-7.656,eccentric,4,3.0,18561.0,137327.0,223452.0,275004.0,260325.0
2026-04-08 21:45:43.598134,194997,1609503915814302,1515780716,1.038464,-0.228384,0.044896,-22.995,11.375,16.555,-29.664001,1.256,-7.656,eccentric,4,3.0,18582.0,137343.0,223459.0,274979.0,260322.0
2026-04-08 21:45:43.599688,194998,1609503915828899,1515795702,0.960384,-0.173728,-0.035136,-21.39375,10.12375,15.645,-29.608002,1.688,-6.472,eccentric,4,3.0,18582.0,137343.0,223459.0,274979.0,260322.0
2026-04-08 21:45:43.603757,194999,1609503915837847,1515804412,0.960384,-0.173728,-0.035136,-20.30875,8.225,16.16125,-29.608002,1.688,-6.472,eccentric,4,3.0,18582.0,137343.0,223459.0,274979.0,260322.0
2026-04-08 21:45:43.633507,195000,1609503915852394,1515819289,1.016992,-0.150304,0.259616,-20.125,7.2975,15.95125,-30.064001,1.44,-6.584,eccentric,4,3.0,18582.0,137343.0,223459.0,274979.0,260322.0
2026-04-08 21:45:43.635989,195001,1609503915861305,1515827966,1.016992,-0.150304,0.259616,-19.18875,6.02,14.02625,-30.064001,1.44,-6.584,eccentric,4,3.0,18582.0,137343.0,223459.0,274979.0,260322.0
2026-04-08 21:45:43.639974,195002,1609503915870282,1515836635,0.983808,-0.162016,0.21472,-17.2375,4.36625,12.53875,-29.856,1.976,-7.296001,eccentric,4,3.0,18582.0,137343.0,223459.0,274979.0,260322.0
2026-04-08 21:45:43.645024,195003,1609503915884751,1515851516,1.001376,-0.181536,0.1464,-14.1575,2.16125,10.71,-29.800001,1.744,-7.704001,eccentric,4,3.0,18582.0,137343.0,223459.0,274979.0,260322.0
2026-04-08 21:45:43.704799,195004,1609503915893666,1515860262,1.001376,-0.181536,0.1464,-10.4125,0.105,10.4825,-29.800001,1.744,-7.704001,eccentric,4,3.0,18582.0,137343.0,223459.0,274979.0,260322.0
2026-04-08 21:45:43.709152,195005,1609503915908164,1515875151,1.020896,-0.130784,0.210816,-10.92,-0.95375,11.76875,-29.704,2.08,-6.960001,eccentric,4,3.0,18582.0,137343.0,223459.0,274979.0,260322.0
2026-04-08 21:45:43.735527,195016,1609503915917535,1515883885,1.020896,-0.130784,0.210816,-11.85625,-0.58625,12.6525,-29.704,2.08,-6.960001,eccentric,4,3.0,18550.0,137134.0,223199.0,274773.0,260221.0
2026-04-08 21:45:43.737087,195017,1609503915926476,1515892598,1.009184,-0.16592,0.244,-12.32,-0.23625,11.6025,-29.952002,1.952,-7.152,eccentric,4,3.0,18550.0,137134.0,223199.0,274773.0,260221.0
2026-04-08 21:45:43.741379,195018,1609503915940951,1515907495,1.009184,-0.16592,0.244,-15.05,-0.65625,9.98375,-29.952002,1.952,-7.152,eccentric,4,3.0,18550.0,137134.0,223199.0,274773.0,260221.0
2026-04-08 21:45:43.743188,195019,1609503915949862,1515916154,0.923296,-0.187392,-0.005856,-17.1325,-2.485,7.74375,-29.912,2.096,-7.16,eccentric,4,3.0,18550.0,137134.0,223199.0,274773.0,260221.0
2026-04-08 21:45:43.744859,195020,1609503915964455,1515931106,0.892064,-0.162016,-0.046848,-14.7,-2.8525,6.11625,-30.104002,2.184,-6.128,eccentric,4,3.0,18550.0,137134.0,223199.0,274773.0,260221.0
2026-04-08 21:45:43.748847,195021,1609503915973423,1515939803,0.892064,-0.162016,-0.046848,-11.68125,-3.26375,6.72,-30.104002,2.184,-6.128,eccentric,4,3.0,18550.0,137134.0,223199.0,274773.0,260221.0
2026-04-08 21:45:43.751329,195022,1609503915987913,1515954730,0.864736,-0.173728,-0.033184,-13.8075,-3.89375,6.78125,-30.080002,2.44,-6.096,eccentric,4,3.0,18550.0,137134.0,223199.0,274773.0,260221.0
2026-04-08 21:45:43.757467,195023,1609503915996876,1515963403,0.864736,-0.173728,-0.033184,-15.00625,-4.61125,4.57625,-30.080002,2.44,-6.096,eccentric,4,3.0,18550.0,137134.0,223199.0,274773.0,260221.0
2026-04-08 21:45:43.787181,195024,1609503916005780,1515972057,0.981856,-0.208864,0.177632,-15.4,-5.24125,2.03,-29.912,2.04,-5.344,eccentric,4,3.0,18550.0,137134.0,223199.0,274773.0,260221.0
2026-04-08 21:45:43.818852,195035,1609503916020413,1515986994,0.981856,-0.208864,0.177632,-15.8725,-5.145,-0.27125,-29.912,2.04,-5.344,eccentric,4,3.0,18514.0,136980.0,222975.0,274598.0,260109.0
2026-04-08 21:45:43.820559,195036,1609503916029358,1515995685,0.950624,-0.162016,0.179584,-12.52125,-5.39,-1.96,-29.800001,1.912,-7.208,eccentric,4,3.0,18514.0,136980.0,222975.0,274598.0,260109.0
2026-04-08 21:45:43.822265,195037,1609503916043980,1516010664,0.950624,-0.162016,0.02928,-9.205,-6.57125,-2.94,-29.800001,1.912,-7.208,eccentric,4,3.0,18514.0,136980.0,222975.0,274598.0,260109.0
2026-04-08 21:45:43.825522,195038,1609503916052883,1516019368,0.958432,-0.177632,0.02928,-7.63875,-6.895,-2.79125,-30.000002,2.216,-4.792,concentric,4,3.0,18514.0,136980.0,222975.0,274598.0,260109.0
2026-04-08 21:45:43.827121,195039,1609503916067366,1516034264,0.933056,-0.199104,-0.054656,-7.98875,-8.04125,-2.415,-29.744001,1.848,-7.552001,concentric,4,3.0,18514.0,136980.0,222975.0,274598.0,260109.0
2026-04-08 21:45:43.858217,195040,1609503916076339,1516042966,0.933056,-0.199104,-0.054656,-7.62125,-7.98875,-3.22875,-29.744001,1.848,-7.552001,concentric,4,3.0,18514.0,136980.0,222975.0,274598.0,260109.0
2026-04-08 21:45:43.860461,195041,1609503916085273,1516051615,0.968192,-0.244,-0.01952,-8.295,-8.26875,-4.165,-29.688002,2.288,-7.552001,concentric,4,3.0,18514.0,136980.0,222975.0,274598.0,260109.0
2026-04-08 21:45:43.865085,195042,1609503916099740,1516066462,0.968192,-0.244,-0.01952,-9.1875,-9.1525,-6.90375,-29.688002,2.288,-7.552001,concentric,4,3.0,18514.0,136980.0,222975.0,274598.0,260109.0
2026-04-08 21:45:43.869408,195043,1609503916108652,1516075128,1.016992,-0.177632,0.113216,-7.51625,-10.15875,-7.8925,-29.576002,2.144,-7.960001,concentric,4,3.0,18514.0,136980.0,222975.0,274598.0,260109.0
2026-04-08 21:45:43.899318,195054,1609503916123168,1516090137,1.016992,-0.177632,0.113216,-3.1675,-11.2175,-7.84,-29.576002,2.144,-7.960001,concentric,4,3.0,18612.0,137214.0,223157.0,274639.0,260068.0
2026-04-08 21:45:43.901653,195055,1609503916132135,1516098905,1.007232,-0.173728,-0.025376,0.21875,-10.815,-6.475,-29.752,2.344,-4.216,concentric,4,3.0,18612.0,137214.0,223157.0,274639.0,260068.0
2026-04-08 21:45:43.907473,195056,1609503916146653,1516113800,0.942816,-0.22448,-0.037088,1.39125,-11.82125,-5.67,-29.768002,2.456,-7.8,concentric,4,3.0,18612.0,137214.0,223157.0,274639.0,260068.0
2026-04-08 21:45:43.969989,195057,1609503916155641,1516122465,0.942816,-0.22448,-0.037088,2.52875,-12.67875,-7.28875,-29.768002,2.456,-7.8,concentric,4,3.0,18612.0,137214.0,223157.0,274639.0,260068.0
2026-04-08 21:45:44.005741,195058,1609503916164533,1516131140,0.942816,-0.22448,-0.037088,4.76875,-14.245,-10.15,-29.768002,2.456,-7.8,concentric,4,3.0,18612.0,137214.0,223157.0,274639.0,260068.0
2026-04-08 21:45:44.008008,195059,1609503916179037,1516146012,0.974048,-0.21472,0.0976,8.82,-16.02125,-12.55625,-29.336,2.088,-7.048,concentric,4,3.0,18612.0,137214.0,223157.0,274639.0,260068.0
2026-04-08 21:45:44.012670,195060,1609503916187964,1516154663,1.01504,-0.167872,0.0976,14.90125,-17.15,-13.011251,-28.896002,2.272,-9.200001,concentric,4,3.0,18612.0,137214.0,223157.0,274639.0,260068.0
2026-04-08 21:45:44.014210,195061,1609503916202436,1516169509,1.01504,-0.167872,0.0976,15.54,-17.42125,-12.7225,-28.896002,2.272,-9.200001,concentric,4,3.0,18612.0,137214.0,223157.0,274639.0,260068.0
2026-04-08 21:45:44.019928,195062,1609503916211347,1516178167,0.970144,-0.179584,-0.060512,11.6375,-17.5,-13.755,-29.176,2.176,-9.304001,concentric,4,3.0,18612.0,137214.0,223157.0,274639.0,260068.0
2026-04-08 21:45:44.049277,195073,1609503916225843,1516191000,1.040416,-0.222528,0.197152,9.3975,-17.3425,-14.44625,-29.176,1.792,-11.848001,concentric,4,3.0,18607.0,137104.0,222945.0,274391.0,259829.0
2026-04-08 21:45:44.050858,195074,1609503916234983,1516201718,1.040416,-0.222528,0.197152,8.5225,-17.26375,-14.72625,-28.688002,1.792,-11.848001,concentric,4,3.0,18607.0,137104.0,222945.0,274391.0,259829.0
2026-04-08 21:45:44.055122,195075,1609503916243945,1516210365,1.040416,-0.222528,0.197152,8.53125,-18.85625,-16.54625,-28.688002,1.792,-11.848001,concentric,4,3.0,18607.0,137104.0,222945.0,274391.0,259829.0
2026-04-08 21:45:44.056920,195076,1609503916258429,1516225267,1.046272,-0.27328,0.070272,10.167501,-20.81625,-18.76875,-28.552002,1.888,-9.76,concentric,4,3.0,18607.0,137104.0,222945.0,274391.0,259829.0
2026-04-08 21:45:44.058421,195077,1609503916267362,1516233996,0.964288,-0.212768,0.033184,12.215,-21.63,-19.76625,-27.968,1.944,-10.208,concentric,4,3.0,18607.0,137104.0,222945.0,274391.0,259829.0
2026-04-08 21:45:44.062614,195078,1609503916281891,1516248908,0.964288,-0.212768,0.033184,13.27375,-22.295,-20.64125,-27.968,1.944,-10.208,concentric,4,3.0,18607.0,137104.0,222945.0,274391.0,259829.0
2026-04-08 21:45:44.064378,195079,1609503916290950,1516257654,1.032608,-0.230336,0.173728,13.36125,-22.91625,-22.0675,-27.936,1.688,-10.568001,concentric,4,3.0,18607.0,137104.0,222945.0,274391.0,259829.0
2026-04-08 21:45:44.065926,195080,1609503916305492,1516272529,1.032608,-0.230336,-0.02928,12.29375,-24.5175,-23.84375,-27.936,1.688,-10.568001,concentric,4,3.0,18607.0,137104.0,222945.0,274391.0,259829.0
2026-04-08 21:45:44.124480,195091,1609503916314399,1516281609,1.00528,-0.288896,-0.027328,12.64375,-25.61125,-25.62875,-27.472002,1.864,-11.104,concentric,4,3.0,18658.0,137110.0,222838.0,274194.0,259670.0
2026-04-08 21:45:44.126955,195092,1609503916323333,1516290279,1.00528,-0.288896,-0.027328,12.355001,-27.9825,-27.5625,-27.472002,1.864,-11.104,concentric,4,3.0,18658.0,137110.0,222838.0,274194.0,259670.0
2026-04-08 21:45:44.129564,195093,1609503916337807,1516303078,0.970144,-0.244,-0.083936,13.475,-28.3675,-28.95375,-27.488,1.488,-11.288,concentric,4,3.0,18658.0,137110.0,222838.0,274194.0,259670.0
2026-04-08 21:45:44.132213,195094,1609503916347068,1516313810,1.009184,-0.232288,0.140544,15.198751,-28.93625,-30.52,-27.544,1.664,-10.480001,concentric,4,3.0,18658.0,137110.0,222838.0,274194.0,259670.0
2026-04-08 21:45:44.134542,195095,1609503916361603,1516328751,1.009184,-0.232288,0.140544,15.18125,-30.0475,-33.635,-27.544,1.664,-10.480001,concentric,4,3.0,18658.0,137110.0,222838.0,274194.0,259670.0
2026-04-08 21:45:44.137106,195096,1609503916370631,1516337481,1.018944,-0.27328,0.00976,14.665,-30.52875,-37.345,-27.032001,1.672,-11.056001,concentric,4,3.0,18658.0,137110.0,222838.0,274194.0,259670.0
2026-04-08 21:45:44.139577,195097,1609503916379645,1516346191,1.018944,-0.27328,0.00976,17.38625,-31.4125,-39.66375,-27.032001,1.672,-11.056001,concentric,4,3.0,18658.0,137110.0,222838.0,274194.0,259670.0
2026-04-08 21:45:44.170833,195098,1609503916394136,1516361099,1.016992,-0.242048,0.031232,19.8275,-32.4625,-39.8475,-26.528002,1.376,-11.648001,concentric,4,3.0,18658.0,137110.0,222838.0,274194.0,259670.0
2026-04-08 21:45:44.173315,195099,1609503916403042,1516369748,1.016992,-0.242048,0.031232,19.41625,-32.10375,-38.94625,-26.528002,1.376,-11.648001,concentric,4,3.0,18658.0,137110.0,222838.0,274194.0,259670.0
2026-04-08 21:45:44.200865,195110,1609503916417897,1516384690,1.020896,-0.201056,0.08784,14.8225,-31.3075,-39.40125,-26.168001,1.264,-12.744,concentric,4,3.0,18750.0,137361.0,223026.0,274245.0,259623.0
2026-04-08 21:45:44.203367,195111,1609503916426879,1516393352,1.042368,-0.259616,0.05856,9.135,-30.23125,-41.55375,-26.168001,1.264,-11.536,concentric,4,3.0,18750.0,137361.0,223026.0,274245.0,259623.0
2026-04-08 21:45:44.205888,195112,1609503916441440,1516408236,1.042368,-0.259616,0.05856,4.76875,-29.19,-44.0475,-26.144001,0.712,-11.536,concentric,4,3.0,18750.0,137361.0,223026.0,274245.0,259623.0
2026-04-08 21:45:44.209632,195113,1609503916450408,1516416900,0.99552,-0.269376,0.091744,3.91125,-29.95125,-46.03375,-25.712002,1.224,-12.68,concentric,4,3.0,18750.0,137361.0,223026.0,274245.0,259623.0
2026-04-08 21:45:44.222149,195114,1609503916459337,1516425573,0.99552,-0.269376,0.091744,6.545,-30.905,-47.145,-25.712002,1.224,-12.68,concentric,4,3.0,18750.0,137361.0,223026.0,274245.0,259623.0
2026-04-08 21:45:44.252399,195115,1609503916473935,1516440443,0.99552,-0.255712,-0.050752,11.375,-31.491251,-48.0025,-25.152,0.36,-13.984,concentric,4,3.0,18750.0,137361.0,223026.0,274245.0,259623.0
2026-04-08 21:45:44.255909,195116,1609503916482848,1516449106,0.99552,-0.255712,-0.050752,12.53875,-31.28125,-48.88625,-25.152,0.36,-13.984,concentric,4,3.0,18750.0,137361.0,223026.0,274245.0,259623.0
2026-04-08 21:45:44.258404,195117,1609503916497392,1516463961,0.977952,-0.189344,-0.105408,8.00625,-30.96625,-49.44625,-24.896002,0.04,-14.208001,concentric,4,3.0,18750.0,137361.0,223026.0,274245.0,259623.0
2026-04-08 21:45:44.264898,195118,1609503916506336,1516472694,0.977952,-0.189344,-0.105408,-1.70625,-30.58125,-51.1,-24.896002,0.04,-14.208001,concentric,4,3.0,18750.0,137361.0,223026.0,274245.0,259623.0
2026-04-08 21:45:44.303594,195119,1609503916515342,1516481351,0.979904,-0.199104,0.003904,-4.38375,-27.772501,-52.10625,-24.632002,0.168,-14.440001,concentric,4,3.0,18750.0,137361.0,223026.0,274245.0,259623.0
2026-04-08 21:45:44.332232,195130,1609503916529843,1516496280,0.964288,-0.203008,0.01952,-0.84875,-26.565,-49.37625,-24.240002,-0.264,-14.904,concentric,4,3.0,18778.0,137354.0,222864.0,274081.0,259493.0
2026-04-08 21:45:44.334767,195131,1609503916538775,1516504938,0.964288,-0.203008,0.01952,-1.6275,-26.1625,-46.7775,-24.240002,-0.264,-14.904,concentric,4,3.0,18778.0,137354.0,222864.0,274081.0,259493.0
2026-04-08 21:45:44.338065,195132,1609503916553276,1516519833,0.96624,-0.261568,-0.240096,-4.76875,-26.5825,-49.53375,-23.904001,-0.392,-15.024001,concentric,4,3.0,18778.0,137354.0,222864.0,274081.0,259493.0
2026-04-08 21:45:44.340538,195133,1609503916562232,1516528571,0.96624,-0.261568,-0.240096,-5.90625,-25.64625,-51.7125,-23.904001,-0.392,-15.024001,concentric,4,3.0,18778.0,137354.0,222864.0,274081.0,259493.0
2026-04-08 21:45:44.342205,195134,1609503916576731,1516543465,0.976,-0.203008,0.023424,-8.09375,-24.89375,-50.98625,-23.472002,-0.832,-15.208001,concentric,4,3.0,18778.0,137354.0,222864.0,274081.0,259493.0
2026-04-08 21:45:44.346296,195135,1609503916585639,1516552148,0.976,-0.203008,0.023424,-7.9625,-25.94375,-51.38,-23.472002,-0.832,-15.208001,concentric,4,3.0,18778.0,137354.0,222864.0,274081.0,259493.0
2026-04-08 21:45:44.360107,195136,1609503916594649,1516560832,1.009184,-0.206912,-0.013664,-5.80125,-26.10125,-51.2575,-23.04,-1.216,-15.264001,concentric,4,3.0,18778.0,137354.0,222864.0,274081.0,259493.0
2026-04-08 21:45:44.388756,195137,1609503916609137,1516575704,0.999424,-0.21472,-0.023424,-0.7175,-26.53875,-50.21625,-22.976002,-1.192,-13.360001,concentric,4,3.0,18778.0,137354.0,222864.0,274081.0,259493.0
2026-04-08 21:45:44.421408,195148,1609503916618304,1516584417,0.999424,-0.21472,-0.023424,-0.21875,-27.72875,-47.38125,-22.976002,-1.192,-13.360001,concentric,4,3.0,18864.0,137835.0,223516.0,274658.0,259917.0
2026-04-08 21:45:44.423183,195149,1609503916632882,1516599393,0.98576,-0.230336,-0.171776,-3.07125,-28.44625,-47.90625,-22.352001,-1.616,-16.336,concentric,4,3.0,18864.0,137835.0,223516.0,274658.0,259917.0
2026-04-08 21:45:44.425729,195150,1609503916641840,1516608077,0.98576,-0.230336,-0.171776,-5.1625,-27.6675,-49.21875,-22.352001,-1.616,-16.336,concentric,4,3.0,18864.0,137835.0,223516.0,274658.0,259917.0
2026-04-08 21:45:44.428969,195151,1609503916656470,1516623020,0.989664,-0.152256,0.044896,-8.925,-26.775,-47.8975,-22.432001,-1.416,-15.280001,concentric,4,3.0,18864.0,137835.0,223516.0,274658.0,259917.0
2026-04-08 21:45:44.431453,195152,1609503916665389,1516631686,0.989664,-0.152256,0.044896,-11.47125,-26.5825,-47.8975,-22.432001,-1.416,-15.280001,concentric,4,3.0,18864.0,137835.0,223516.0,274658.0,259917.0
2026-04-08 21:45:44.435219,195153,1609503916674297,1516640373,0.866688,-0.148352,-0.083936,-12.0925,-26.60875,-48.46625,-21.36,-1.496,-15.072001,concentric,4,3.0,18864.0,137835.0,223516.0,274658.0,259917.0
2026-04-08 21:45:44.463718,195154,1609503916688767,1516655276,0.942816,-0.122976,0.05856,-10.2725,-26.97625,-47.46,-21.36,-2.248,-19.320002,concentric,4,3.0,18864.0,137835.0,223516.0,274658.0,259917.0
2026-04-08 21:45:44.467207,195155,1609503916697664,1516663949,0.942816,-0.122976,0.05856,-6.76375,-25.8475,-45.395,-21.456001,-2.248,-19.320002,concentric,4,3.0,18864.0,137835.0,223516.0,274658.0,259917.0
2026-04-08 21:45:44.471219,195156,1609503916712117,1516678804,0.958432,-0.13664,-0.10736,-4.94375,-25.26125,-42.74375,-21.392,-2.616,-16.936,concentric,4,3.0,18864.0,137835.0,223516.0,274658.0,259917.0
2026-04-08 21:45:44.504725,195167,1609503916721503,1516687581,0.958432,-0.13664,-0.10736,-9.1175,-24.8325,-42.04375,-21.392,-2.616,-16.936,concentric,4,3.0,18899.0,138093.0,223948.0,275095.0,260239.0
2026-04-08 21:45:44.507122,195168,1609503916730479,1516696254,0.884256,-0.0976,-0.023424,-13.5275,-24.57,-42.201252,-20.536001,-2.968,-17.368,concentric,4,3.0,18899.0,138093.0,223948.0,275095.0,260239.0
2026-04-08 21:45:44.513726,195169,1609503916745002,1516711155,0.884256,-0.0976,-0.023424,-16.8175,-24.15,-40.0925,-20.536001,-2.968,-17.368,concentric,4,3.0,18899.0,138093.0,223948.0,275095.0,260239.0
2026-04-08 21:45:44.515845,195170,1609503916753947,1516719861,0.835456,-0.05856,-0.111264,-18.6025,-23.93125,-38.36875,-20.640001,-2.664,-16.312,concentric,4,3.0,18899.0,138093.0,223948.0,275095.0,260239.0
2026-04-08 21:45:44.546100,195171,1609503916768502,1516734762,0.835456,-0.05856,-0.18544,-14.6825,-22.12875,-37.65125,-20.640001,-2.664,-16.312,concentric,4,3.0,18899.0,138093.0,223948.0,275095.0,260239.0
2026-04-08 21:45:44.549676,195172,1609503916777413,1516743458,0.925248,-0.10736,-0.18544,-9.730001,-19.64375,-35.6825,-20.240002,-2.68,-16.376001,concentric,4,3.0,18899.0,138093.0,223948.0,275095.0,260239.0
2026-04-08 21:45:44.552145,195173,1609503916791886,1516758333,0.88816,-0.044896,-0.013664,-10.6925,-18.8475,-34.02,-19.784,-3.152,-17.704,concentric,4,3.0,18899.0,138093.0,223948.0,275095.0,260239.0
2026-04-08 21:45:44.604873,195174,1609503916800900,1516767002,0.88816,-0.044896,-0.013664,-15.51375,-18.52375,-34.0725,-19.784,-3.152,-17.704,concentric,4,3.0,18899.0,138093.0,223948.0,275095.0,260239.0
2026-04-08 21:45:44.608417,195175,1609503916809765,1516775697,0.835456,-0.027328,-0.056608,-17.24625,-18.55,-33.85375,-19.944,-3.568,-19.584002,concentric,4,3.0,18899.0,138093.0,223948.0,275095.0,260239.0
2026-04-08 21:45:44.635971,195186,1609503916824350,1516790618,0.835456,-0.027328,-0.056608,-15.75,-18.45375,-30.93125,-19.944,-3.568,-19.584002,concentric,4,3.0,18846.0,138050.0,223984.0,275178.0,260327.0
2026-04-08 21:45:44.638398,195187,1609503916833308,1516799302,0.808128,-0.064416,-0.261568,-15.88125,-18.235,-29.435,-19.336,-3.048,-17.84,concentric,4,3.0,18846.0,138050.0,223984.0,275178.0,260327.0
2026-04-08 21:45:44.640865,195188,1609503916847794,1516814149,0.808128,-0.064416,-0.261568,-13.3175,-17.08,-31.036251,-19.336,-3.048,-17.84,concentric,4,3.0,18846.0,138050.0,223984.0,275178.0,260327.0
2026-04-08 21:45:44.643355,195189,1609503916856800,1516822817,0.749568,0.003904,-0.191296,-8.82875,-15.72375,-29.6625,-19.184,-3.512,-17.92,concentric,4,3.0,18846.0,138050.0,223984.0,275178.0,260327.0
2026-04-08 21:45:44.645865,195190,1609503916871371,1516837710,0.786656,0.025376,-0.240096,-4.935,-13.755,-26.1975,-19.12,-3.504,-16.12,concentric,4,3.0,18846.0,138050.0,223984.0,275178.0,260327.0
2026-04-08 21:45:44.648673,195191,1609503916880317,1516846417,0.786656,0.025376,-0.240096,-5.38125,-12.3725,-22.7675,-19.12,-3.504,-16.12,concentric,4,3.0,18846.0,138050.0,223984.0,275178.0,260327.0
2026-04-08 21:45:44.650822,195192,1609503916889312,1516855145,0.786656,0.025376,-0.109312,-12.25,-10.01875,-21.55125,-19.12,-3.504,-16.12,concentric,4,3.0,18846.0,138050.0,223984.0,275178.0,260327.0
2026-04-08 21:45:44.682009,195193,1609503916903835,1516870055,0.81984,0.033184,-0.109312,-16.87875,-6.5625,-21.72625,-19.368,-3.552,-16.232,concentric,4,3.0,18846.0,138050.0,223984.0,275178.0,260327.0
2026-04-08 21:45:44.686545,195194,1609503916912740,1516878720,0.769088,0.021472,-0.290848,-18.7775,-3.3775,-19.241251,-18.944,-3.584,-18.192001,concentric,4,3.0,18846.0,138050.0,223984.0,275178.0,260327.0
2026-04-08 21:45:44.713056,195205,1609503916927261,1516893726,0.769088,0.021472,-0.290848,-19.4075,-0.70875,-16.9925,-18.944,-3.584,-18.192001,concentric,4,3.0,18883.0,138250.0,224228.0,275365.0,260444.0
2026-04-08 21:45:44.714679,195206,1609503916936233,1516902392,0.772992,0.033184,-0.183488,-20.116251,1.715,-15.0325,-18.336,-4.168,-18.352001,concentric,4,3.0,18883.0,138250.0,224228.0,275365.0,260444.0
2026-04-08 21:45:44.718893,195207,1609503916950749,1516917288,0.835456,0.054656,-0.00976,-23.56375,4.375,-13.448751,-18.6,-4.264,-17.912,concentric,4,3.0,18883.0,138250.0,224228.0,275365.0,260444.0
2026-04-08 21:45:44.721314,195208,1609503916959691,1516925974,0.835456,0.054656,-0.00976,-24.50875,7.04375,-13.23875,-18.6,-4.264,-17.912,concentric,4,3.0,18883.0,138250.0,224228.0,275365.0,260444.0
2026-04-08 21:45:44.727485,195209,1609503916968665,1516934701,0.835456,0.054656,-0.00976,-22.75875,8.60125,-11.261251,-18.6,-4.264,-17.912,concentric,4,3.0,18883.0,138250.0,224228.0,275365.0,260444.0
2026-04-08 21:45:44.756026,195210,1609503916983134,1516949574,0.808128,0.054656,-0.16592,-21.13125,9.1,-8.855001,-18.640001,-4.312,-16.992,concentric,4,3.0,18883.0,138250.0,224228.0,275365.0,260444.0
2026-04-08 21:45:44.760490,195211,1609503916992048,1516958253,0.745664,0.027328,-0.236192,-16.4325,10.31625,-8.9425,-18.552,-4.192,-16.128,concentric,4,3.0,18883.0,138250.0,224228.0,275365.0,260444.0
2026-04-08 21:45:44.767558,195212,1609503917006515,1516973096,0.745664,0.027328,-0.236192,-15.35625,9.948751,-6.3875,-18.552,-4.192,-16.128,concentric,4,3.0,18883.0,138250.0,224228.0,275365.0,260444.0
2026-04-08 21:45:44.796155,195213,1609503917015426,1516981811,0.821792,0.050752,-0.054656,-19.67,9.065,-4.96125,-18.872002,-4.12,-17.648,concentric,4,3.0,18883.0,138250.0,224228.0,275365.0,260444.0
2026-04-08 21:45:44.825624,195224,1609503917029939,1516996700,0.821792,0.050752,-0.054656,-21.23625,9.00375,-8.14625,-18.872002,-4.12,-17.648,concentric,4,3.0,18913.0,138319.0,224295.0,275414.0,260511.0
2026-04-08 21:45:44.827296,195225,1609503917038856,1517005342,0.860832,0.066368,-0.095648,-14.8575,9.77375,-9.6075,-18.480001,-4.136,-16.08,concentric,4,3.0,18913.0,138319.0,224295.0,275414.0,260511.0
2026-04-08 21:45:44.832609,195226,1609503917047784,1517014036,0.860832,0.066368,-0.095648,-4.6725,12.20625,-4.9875,-18.480001,-4.136,-16.08,concentric,4,3.0,18913.0,138319.0,224295.0,275414.0,260511.0
2026-04-08 21:45:44.834473,195227,1609503917062335,1517028970,0.847168,0.080032,-0.111264,-0.0875,14.86625,0.4025,-18.76,-4.288,-16.024,concentric,4,3.0,18913.0,138319.0,224295.0,275414.0,260511.0
2026-04-08 21:45:44.835164,195228,1609503917071284,1517037642,0.798368,0.076128,-0.003904,-5.71375,14.3325,2.17,-18.76,-3.936,-16.048,concentric,4,3.0,18913.0,138319.0,224295.0,275414.0,260511.0
2026-04-08 21:45:44.865852,195229,1609503917085805,1517052573,0.798368,0.076128,-0.003904,-20.195,12.2675,-0.28875,-18.528002,-3.936,-16.048,concentric,4,3.0,18913.0,138319.0,224295.0,275414.0,260511.0
2026-04-08 21:45:44.870232,195230,1609503917094707,1517061223,0.753472,0.074176,-0.040992,-25.6375,10.00125,-3.99875,-18.752,-4.296,-17.584002,concentric,4,3.0,18913.0,138319.0,224295.0,275414.0,260511.0
2026-04-08 21:45:44.872962,195231,1609503917109206,1517076102,0.753472,0.074176,-0.040992,-20.43125,9.14375,-2.91375,-18.752,-4.296,-17.584002,concentric,4,3.0,18913.0,138319.0,224295.0,275414.0,260511.0
2026-04-08 21:45:44.907000,195232,1609503917118114,1517084782,0.7808,0.056608,-0.081984,-9.345,9.68625,-0.735,-18.608002,-4.0,-17.736,concentric,4,3.0,18913.0,138319.0,224295.0,275414.0,260511.0
2026-04-08 21:45:44.940137,195243,1609503917127091,1517093504,0.7808,0.056608,-0.081984,-1.7675,9.00375,2.87875,-18.608002,-4.0,-17.736,concentric,4,3.0,18783.0,138128.0,224190.0,275469.0,260659.0
2026-04-08 21:45:44.941861,195244,1609503917141537,1517108431,0.753472,0.05856,0.037088,-2.73,7.00875,1.61875,-18.688002,-4.672,-17.696001,concentric,4,3.0,18783.0,138128.0,224190.0,275469.0,260659.0
2026-04-08 21:45:44.943408,195245,1609503917150447,1517117102,0.753472,0.05856,0.037088,-5.88,3.4825,-1.02375,-18.688002,-4.672,-17.696001,concentric,4,3.0,18783.0,138128.0,224190.0,275469.0,260659.0
2026-04-08 21:45:44.946869,195246,1609503917164966,1517131954,0.720288,0.085888,-0.197152,-10.01,0.70875,-1.8375,-19.096,-4.544,-17.92,concentric,4,3.0,18783.0,138128.0,224190.0,275469.0,260659.0
2026-04-08 21:45:44.948646,195247,1609503917173968,1517140675,0.687104,0.119072,-0.203008,-7.30625,1.54,-3.07125,-19.048,-4.464,-16.776001,concentric,4,3.0,18783.0,138128.0,224190.0,275469.0,260659.0
