pc_time,serial_num,sensor_ts,host_ts,ax,ay,az,gx,gy,gz,mx,my,mz,phase,rpe,weight_kg,ppg_a,ppg_b,ppg_c,ppg_d,ppg_e
2026-04-08 21:45:49.891326,196174,1609503922109807,1522076345,0.81984,0.0,-0.062464,-4.165,3.05375,-1.26,-19.36,-1.728,-17.384,eccentric,4,3.0,19432.0,139653.0,225397.0,276035.0,260601.0
2026-04-08 21:45:49.894678,196175,1609503922124333,1522091256,0.759328,-0.01952,-0.257664,-9.47625,2.6425,0.27125,-19.328001,-1.856,-17.160002,eccentric,4,3.0,19432.0,139653.0,225397.0,276035.0,260601.0
2026-04-08 21:45:49.897158,196176,1609503922133212,1522099912,0.759328,-0.01952,-0.257664,-18.2525,0.70875,-2.89625,-19.328001,-1.856,-17.160002,eccentric,4,3.0,19432.0,139653.0,225397.0,276035.0,260601.0
2026-04-08 21:45:49.900988,196177,1609503922142120,1522108622,0.759328,-0.01952,-0.257664,-21.91875,0.49,-7.1225,-19.328001,-1.856,-17.160002,eccentric,4,3.0,19432.0,139653.0,225397.0,276035.0,260601.0
2026-04-08 21:45:49.929651,196188,1609503922157007,1522123601,0.774944,0.017568,-0.08784,-16.38875,1.23375,-6.9475,-19.776001,-1.808,-17.544,eccentric,4,3.0,19351.0,139304.0,224876.0,275691.0,260464.0
2026-04-08 21:45:49.933152,196189,1609503922165983,1522132360,0.81008,-0.007808,-0.025376,-10.03625,2.54625,-5.85375,-19.416,-1.856,-19.648,eccentric,4,3.0,19351.0,139304.0,224876.0,275691.0,260464.0
2026-04-08 21:45:49.962349,196190,1609503922180491,1522147241,0.81008,-0.007808,-0.025376,-7.11375,2.42375,-4.0425,-19.416,-1.856,-19.648,eccentric,4,3.0,19351.0,139304.0,224876.0,275691.0,260464.0
2026-04-08 21:45:49.965927,196191,1609503922189388,1522155894,0.7808,-0.046848,-0.040992,-6.93875,1.855,-3.885,-19.152,-1.664,-17.456001,eccentric,4,3.0,19351.0,139304.0,224876.0,275691.0,260464.0
2026-04-08 21:45:49.968362,196192,1609503922198331,1522164558,0.7808,-0.046848,-0.040992,-8.0675,0.56,-6.08125,-19.152,-1.664,-17.456001,eccentric,4,3.0,19351.0,139304.0,224876.0,275691.0,260464.0
2026-04-08 21:45:49.970887,196193,1609503922212827,1522179459,0.792512,-0.017568,-0.007808,-10.57875,-2.1875,-7.62125,-19.072,-1.88,-17.488,eccentric,4,3.0,19351.0,139304.0,224876.0,275691.0,260464.0
2026-04-08 21:45:50.006102,196194,1609503922221745,1522188151,0.792512,-0.017568,-0.007808,-8.417501,-4.20875,-10.0275,-19.072,-1.88,-17.488,eccentric,4,3.0,19351.0,139304.0,224876.0,275691.0,260464.0
2026-04-08 21:45:50.009601,196195,1609503922236195,1522203011,0.778848,-0.054656,-0.046848,-2.56375,-5.60875,-9.9575,-19.320002,-2.0,-18.088001,eccentric,4,3.0,19351.0,139304.0,224876.0,275691.0,260464.0
2026-04-08 21:45:50.012251,196196,1609503922245112,1522211687,0.716384,-0.046848,-0.138592,-1.46125,-6.83375,-8.47875,-19.28,-1.92,-17.976002,eccentric,4,3.0,19351.0,139304.0,224876.0,275691.0,260464.0
2026-04-08 21:45:50.048566,196207,1609503922259771,1522226563,0.716384,-0.046848,-0.138592,0.55125,-7.44625,-9.24875,-19.28,-1.92,-17.976002,eccentric,4,3.0,19179.0,138865.0,224514.0,275632.0,260595.0
2026-04-08 21:45:50.050871,196208,1609503922268820,1522235267,0.77104,-0.052704,-0.033184,4.52375,-8.00625,-10.45625,-19.224,-2.392,-17.696001,eccentric,4,3.0,19179.0,138865.0,224514.0,275632.0,260595.0
2026-04-08 21:45:50.053325,196209,1609503922277843,1522244003,0.77104,-0.052704,-0.033184,5.4775,-8.75,-9.135,-19.224,-2.392,-17.696001,eccentric,4,3.0,19179.0,138865.0,224514.0,275632.0,260595.0
2026-04-08 21:45:50.055855,196210,1609503922292428,1522258964,0.74176,-0.062464,-0.162016,4.78625,-10.54375,-7.95375,-19.408,-2.224,-14.6,eccentric,4,3.0,19179.0,138865.0,224514.0,275632.0,260595.0
2026-04-08 21:45:50.060856,196211,1609503922301341,1522267635,0.74176,-0.062464,-0.162016,2.8875,-11.13875,-8.58375,-19.408,-2.224,-14.6,eccentric,4,3.0,19179.0,138865.0,224514.0,275632.0,260595.0
2026-04-08 21:45:50.091041,196212,1609503922315764,1522282485,0.837408,-0.076128,-0.052704,1.33,-10.56125,-8.4,-19.264002,-1.736,-16.888,eccentric,4,3.0,19179.0,138865.0,224514.0,275632.0,260595.0
2026-04-08 21:45:50.094709,196213,1609503922324725,1522291157,0.837408,-0.076128,-0.052704,4.43625,-8.82,-6.93,-19.264002,-1.736,-16.888,eccentric,4,3.0,19179.0,138865.0,224514.0,275632.0,260595.0
2026-04-08 21:45:50.098459,196214,1609503922339201,1522306020,0.813984,-0.093696,-0.240096,7.5075,-7.0175,-4.305,-18.84,-2.08,-16.976002,eccentric,4,3.0,19179.0,138865.0,224514.0,275632.0,260595.0
2026-04-08 21:45:50.154607,196225,1609503922348144,1522314723,0.786656,-0.07808,-0.26352,7.8925,-5.55625,-1.295,-19.368,-1.864,-17.880001,eccentric,4,3.0,19211.0,139069.0,224795.0,275899.0,260739.0
2026-04-08 21:45:50.157129,196226,1609503922357470,1522323459,0.786656,-0.07808,-0.26352,3.92875,-5.215,0.35875,-19.368,-1.864,-17.880001,eccentric,4,3.0,19211.0,139069.0,224795.0,275899.0,260739.0
2026-04-08 21:45:50.159604,196227,1609503922371918,1522338301,0.817888,-0.066368,-0.16592,1.9775,-4.24375,1.53125,-19.384,-1.928,-18.08,eccentric,4,3.0,19211.0,139069.0,224795.0,275899.0,260739.0
2026-04-08 21:45:50.162101,196228,1609503922380826,1522346971,0.817888,-0.066368,-0.16592,4.03375,-2.24,4.15625,-19.384,-1.928,-18.08,eccentric,4,3.0,19211.0,139069.0,224795.0,275899.0,260739.0
2026-04-08 21:45:50.164644,196229,1609503922395438,1522362005,0.860832,-0.083936,-0.119072,5.635,-1.085,8.28625,-18.976002,-1.336,-16.304,eccentric,4,3.0,19211.0,139069.0,224795.0,275899.0,260739.0
2026-04-08 21:45:50.167128,196230,1609503922404366,1522370678,0.860832,-0.083936,-0.119072,5.775,-0.42875,9.415,-18.976002,-1.336,-16.304,eccentric,4,3.0,19211.0,139069.0,224795.0,275899.0,260739.0
2026-04-08 21:45:50.170797,196231,1609503922413296,1522379376,0.86864,-0.093696,-0.128832,4.83875,0.44625,10.00125,-19.240002,-1.608,-15.848001,eccentric,4,3.0,19211.0,139069.0,224795.0,275899.0,260739.0
2026-04-08 21:45:50.201113,196232,1609503922427795,1522394251,0.835456,-0.0976,-0.197152,3.15,1.68,11.6375,-19.184,-1.616,-17.800001,eccentric,4,3.0,19211.0,139069.0,224795.0,275899.0,260739.0
2026-04-08 21:45:50.204652,196233,1609503922436740,1522402917,0.835456,-0.0976,-0.197152,1.5575,3.49125,13.886251,-19.184,-1.616,-17.800001,eccentric,4,3.0,19211.0,139069.0,224795.0,275899.0,260739.0
2026-04-08 21:45:50.234613,196244,1609503922451554,1522417832,0.759328,-0.054656,-0.210816,0.7,5.43375,16.86125,-19.2,-1.312,-17.896,eccentric,4,3.0,19235.0,139237.0,225053.0,276076.0,260873.0
2026-04-08 21:45:50.237168,196245,1609503922460602,1522426546,0.759328,-0.054656,-0.210816,0.69125,6.93875,18.92625,-19.2,-1.312,-17.896,eccentric,4,3.0,19235.0,139237.0,225053.0,276076.0,260873.0
2026-04-08 21:45:50.239599,196246,1609503922475175,1522441445,0.743712,-0.083936,-0.16592,-0.90125,7.14,20.71125,-19.824001,-1.08,-16.896,eccentric,4,3.0,19235.0,139237.0,225053.0,276076.0,260873.0
2026-04-08 21:45:50.242107,196247,1609503922484100,1522450204,0.743712,-0.083936,-0.16592,-4.68125,8.39125,22.86375,-19.824001,-1.08,-16.896,eccentric,4,3.0,19235.0,139237.0,225053.0,276076.0,260873.0
2026-04-08 21:45:50.304850,196248,1609503922493002,1522458924,0.788608,-0.095648,-0.119072,-7.77875,8.91625,24.4475,-19.568,-1.344,-16.096,eccentric,4,3.0,19235.0,139237.0,225053.0,276076.0,260873.0
2026-04-08 21:45:50.308424,196249,1609503922507470,1522473808,0.895968,-0.128832,0.011712,-7.81375,11.2875,25.41875,-19.696001,-0.968,-17.072,eccentric,4,3.0,19235.0,139237.0,225053.0,276076.0,260873.0
2026-04-08 21:45:50.314628,196250,1609503922516375,1522482489,0.895968,-0.128832,0.011712,-4.06,14.39375,26.3725,-19.696001,-0.968,-17.072,eccentric,4,3.0,19235.0,139237.0,225053.0,276076.0,260873.0
2026-04-08 21:45:50.317106,196251,1609503922530855,1522497332,0.784704,-0.150304,-0.046848,2.45875,17.1675,27.50125,-19.800001,-0.544,-17.44,eccentric,4,3.0,19235.0,139237.0,225053.0,276076.0,260873.0
2026-04-08 21:45:50.319589,196252,1609503922539824,1522505988,0.784704,-0.150304,-0.046848,11.1125,17.64,29.26875,-19.800001,-0.544,-17.44,eccentric,4,3.0,19235.0,139237.0,225053.0,276076.0,260873.0
2026-04-08 21:45:50.380843,196263,1609503922554417,1522521411,0.812032,-0.16592,-0.226432,13.4225,16.555,32.515,-19.872002,-0.896,-17.568,eccentric,4,3.0,19337.0,139513.0,225310.0,276162.0,260837.0
2026-04-08 21:45:50.383384,196264,1609503922563321,1522530151,0.812032,-0.16592,-0.226432,12.6,18.06875,34.27375,-19.872002,-0.896,-17.568,eccentric,4,3.0,19337.0,139513.0,225310.0,276162.0,260837.0
2026-04-08 21:45:50.385854,196265,1609503922572242,1522538847,0.876448,-0.15616,-0.148352,10.1325,20.60625,34.1775,-20.328001,-0.304,-17.008001,eccentric,4,3.0,19337.0,139513.0,225310.0,276162.0,260837.0
2026-04-08 21:45:50.388387,196266,1609503922586884,1522553736,0.876448,-0.150304,-0.044896,2.96625,24.38625,34.23,-20.328001,-0.304,-17.008001,eccentric,4,3.0,19337.0,139513.0,225310.0,276162.0,260837.0
2026-04-08 21:45:50.390847,196267,1609503922595790,1522562409,0.796416,-0.150304,-0.044896,-0.32375,26.74,33.78375,-20.832,0.048,-18.464,eccentric,4,3.0,19337.0,139513.0,225310.0,276162.0,260837.0
2026-04-08 21:45:50.393476,196268,1609503922610250,1522577295,0.776896,-0.208864,-0.099552,-1.12875,27.265,36.0675,-20.704,0.24,-16.848001,eccentric,4,3.0,19337.0,139513.0,225310.0,276162.0,260837.0
2026-04-08 21:45:50.395844,196269,1609503922619192,1522585962,0.776896,-0.208864,-0.099552,5.565,27.58875,38.2375,-20.704,0.24,-16.848001,eccentric,4,3.0,19337.0,139513.0,225310.0,276162.0,260837.0
2026-04-08 21:45:50.398397,196270,1609503922633708,1522600839,0.7808,-0.206912,-0.122976,10.42125,26.565,39.76,-21.296001,0.704,-15.6,eccentric,4,3.0,19337.0,139513.0,225310.0,276162.0,260837.0
2026-04-08 21:45:50.400863,196271,1609503922642635,1522609522,0.7808,-0.206912,-0.122976,6.195,24.43,40.8625,-21.296001,0.704,-15.6,eccentric,4,3.0,19337.0,139513.0,225310.0,276162.0,260837.0
2026-04-08 21:45:50.457133,196282,1609503922651743,1522618253,0.845216,-0.257664,-0.169824,-1.28625,23.178751,37.59,-21.632002,0.36,-14.896001,eccentric,4,3.0,19238.0,139233.0,225085.0,276097.0,260892.0
2026-04-08 21:45:50.459596,196283,1609503922666284,1522633160,0.845216,-0.257664,-0.169824,-3.24625,24.9025,33.87125,-21.632002,0.36,-14.896001,eccentric,4,3.0,19238.0,139233.0,225085.0,276097.0,260892.0
2026-04-08 21:45:50.462108,196284,1609503922675232,1522641832,0.730048,-0.179584,-0.095648,-2.6075,25.5325,34.72,-21.368002,0.696,-16.168001,eccentric,4,3.0,19238.0,139233.0,225085.0,276097.0,260892.0
2026-04-08 21:45:50.464583,196285,1609503922689741,1522656720,0.759328,-0.216672,0.064416,3.87625,25.095,36.505,-21.928001,1.472,-14.784,eccentric,4,3.0,19238.0,139233.0,225085.0,276097.0,260892.0
2026-04-08 21:45:50.467081,196286,1609503922698803,1522665408,0.759328,-0.216672,0.064416,9.30125,21.8925,38.263752,-21.928001,1.472,-14.784,eccentric,4,3.0,19238.0,139233.0,225085.0,276097.0,260892.0
2026-04-08 21:45:50.469601,196287,1609503922707819,1522674123,0.759328,-0.244,0.06832,9.10875,18.05125,39.45375,-21.928001,1.472,-12.736001,eccentric,4,3.0,19238.0,139233.0,225085.0,276097.0,260892.0
2026-04-08 21:45:50.499778,196288,1609503922722320,1522689059,0.870592,-0.244,0.06832,6.4575,14.8575,38.31625,-22.44,1.528,-14.080001,eccentric,4,3.0,19238.0,139233.0,225085.0,276097.0,260892.0
2026-04-08 21:45:50.503359,196289,1609503922731207,1522697713,0.952576,-0.2928,-0.0976,3.605,15.4525,34.79,-22.392,1.408,-15.504001,eccentric,4,3.0,19238.0,139233.0,225085.0,276097.0,260892.0
2026-04-08 21:45:50.505885,196290,1609503922745671,1522712581,0.952576,-0.2928,-0.0976,-0.91,15.96875,31.710001,-22.392,1.408,-15.504001,eccentric,4,3.0,19238.0,139233.0,225085.0,276097.0,260892.0
2026-04-08 21:45:50.533436,196301,1609503922754788,1522721279,0.815936,-0.232288,-0.099552,-6.8425,14.84875,30.02125,-22.744001,1.4,-15.112,eccentric,4,3.0,19333.0,139517.0,225395.0,276225.0,260936.0
2026-04-08 21:45:50.535870,196302,1609503922769427,1522736299,0.876448,-0.21472,0.042944,-3.15,16.24,29.54875,-22.896002,2.384,-14.648001,eccentric,4,3.0,19333.0,139517.0,225395.0,276225.0,260936.0
2026-04-08 21:45:50.538393,196303,1609503922778441,1522745009,0.876448,-0.21472,0.042944,5.83625,17.885,33.53875,-22.896002,2.384,-14.648001,eccentric,4,3.0,19333.0,139517.0,225395.0,276225.0,260936.0
2026-04-08 21:45:50.568545,196304,1609503922787387,1522753702,0.876448,-0.21472,0.042944,7.8925,18.7075,34.23875,-22.896002,2.384,-14.648001,eccentric,4,3.0,19333.0,139517.0,225395.0,276225.0,260936.0
2026-04-08 21:45:50.607404,196305,1609503922801930,1522768525,0.862784,-0.31232,-0.033184,4.445,17.01,31.29,-23.168001,2.344,-14.72,eccentric,4,3.0,19333.0,139517.0,225395.0,276225.0,260936.0
2026-04-08 21:45:50.610874,196306,1609503922810887,1522777211,0.837408,-0.327936,0.011712,0.06125,12.90625,29.95125,-23.424002,2.392,-14.896001,eccentric,4,3.0,19333.0,139517.0,225395.0,276225.0,260936.0
2026-04-08 21:45:50.613391,196307,1609503922825367,1522792096,0.837408,-0.327936,0.011712,0.51625,9.77375,26.1625,-23.424002,2.392,-14.896001,eccentric,4,3.0,19333.0,139517.0,225395.0,276225.0,260936.0
2026-04-08 21:45:50.615876,196308,1609503922834281,1522800753,0.915488,-0.318176,0.083936,4.5675,8.54875,21.32375,-23.616001,2.208,-14.752001,eccentric,4,3.0,19333.0,139517.0,225395.0,276225.0,260936.0
2026-04-08 21:45:50.618382,196309,1609503922848744,1522815614,0.837408,-0.284992,0.0488,10.5175,7.56,18.655,-23.616001,2.208,-14.752001,eccentric,4,3.0,19333.0,139517.0,225395.0,276225.0,260936.0
2026-04-08 21:45:50.649755,196320,1609503922857682,1522824345,0.83936,-0.284992,0.0488,17.5525,6.50125,16.9925,-23.832,2.264,-14.744,eccentric,4,3.0,19287.0,139406.0,225363.0,276269.0,260978.0
2026-04-08 21:45:50.652109,196321,1609503922866649,1522833059,0.83936,-0.284992,0.0488,18.87375,5.2325,15.846251,-23.832,2.264,-14.744,eccentric,4,3.0,19287.0,139406.0,225363.0,276269.0,260978.0
2026-04-08 21:45:50.654660,196322,1609503922881339,1522847992,0.833504,-0.308416,-0.121024,14.245,4.40125,13.30875,-24.112001,2.576,-13.424001,eccentric,4,3.0,19287.0,139406.0,225363.0,276269.0,260978.0
2026-04-08 21:45:50.657101,196323,1609503922890342,1522856675,0.894016,-0.335744,-0.230336,11.4975,4.4975,8.855001,-24.336,2.36,-13.128,eccentric,4,3.0,19287.0,139406.0,225363.0,276269.0,260978.0
2026-04-08 21:45:50.663414,196324,1609503922904849,1522871619,0.894016,-0.335744,-0.230336,5.3375,4.31375,4.41875,-24.336,2.36,-13.128,eccentric,4,3.0,19287.0,139406.0,225363.0,276269.0,260978.0
2026-04-08 21:45:50.693607,196325,1609503922913762,1522880279,0.925248,-0.3416,-0.042944,0.77,6.615,-2.89625,-24.464,2.016,-14.184001,eccentric,4,3.0,19287.0,139406.0,225363.0,276269.0,260978.0
2026-04-08 21:45:50.697091,196326,1609503922922675,1522888940,0.925248,-0.3416,-0.042944,3.19375,9.72125,-8.2425,-24.464,2.016,-14.184001,eccentric,4,3.0,19287.0,139406.0,225363.0,276269.0,260978.0
2026-04-08 21:45:50.699622,196327,1609503922937154,1522903800,0.860832,-0.2928,0.003904,5.6525,10.8675,-10.57,-25.032001,1.832,-13.816001,eccentric,4,3.0,19287.0,139406.0,225363.0,276269.0,260978.0
2026-04-08 21:45:50.704638,196328,1609503922946073,1522912502,0.860832,-0.2928,0.003904,5.32,10.36875,-13.79,-25.032001,1.832,-13.816001,eccentric,4,3.0,19287.0,139406.0,225363.0,276269.0,260978.0
2026-04-08 21:45:50.738916,196340,1609503922961007,1522927696,0.98576,-0.240096,0.046848,-0.53375,10.167501,-15.47875,-25.488,1.768,-13.616,eccentric,4,3.0,19311.0,139399.0,225367.0,276204.0,260839.0
2026-04-08 21:45:50.741380,196341,1609503922969964,1522936376,0.976,-0.197152,-0.140544,-3.5525,12.67,-17.272501,-25.496,1.528,-14.952001,eccentric,4,3.0,19311.0,139399.0,225367.0,276204.0,260839.0
2026-04-08 21:45:50.746299,196342,1609503922984598,1522951276,0.976,-0.197152,-0.140544,1.365,18.445,-18.585001,-25.496,1.528,-14.952001,eccentric,4,3.0,19311.0,139399.0,225367.0,276204.0,260839.0
2026-04-08 21:45:50.775202,196343,1609503922993521,1522959954,0.915488,-0.206912,-0.119072,1.67125,19.7225,-17.64,-26.336,0.784,-13.248001,eccentric,4,3.0,19311.0,139399.0,225367.0,276204.0,260839.0
2026-04-08 21:45:50.779401,196344,1609503923002421,1522968663,0.915488,-0.206912,-0.119072,-7.2625,18.34,-17.6575,-26.336,0.784,-13.248001,eccentric,4,3.0,19311.0,139399.0,225367.0,276204.0,260839.0
2026-04-08 21:45:50.780870,196345,1609503923016883,1522983532,1.06384,-0.267424,0.1952,-12.88,17.26375,-19.31125,-26.696001,0.456,-13.128,eccentric,4,3.0,19311.0,139399.0,225367.0,276204.0,260839.0
2026-04-08 21:45:50.785912,196346,1609503923025794,1522992219,1.06384,-0.267424,0.1952,-13.440001,18.50625,-20.06375,-26.696001,0.456,-13.128,eccentric,4,3.0,19311.0,139399.0,225367.0,276204.0,260839.0
2026-04-08 21:45:50.817018,196347,1609503923040364,1523007121,1.153632,-0.333792,-0.005856,-11.13,21.665,-24.47375,-27.152,0.16,-11.616,eccentric,4,3.0,19311.0,139399.0,225367.0,276204.0,260839.0
2026-04-08 21:45:50.819280,196348,1609503923049280,1523015783,1.153632,-0.333792,-0.005856,-8.47875,22.05875,-31.98125,-27.152,0.16,-11.616,eccentric,4,3.0,19311.0,139399.0,225367.0,276204.0,260839.0
2026-04-08 21:45:50.852723,196359,1609503923063795,1523030652,0.96624,-0.232288,-0.220576,-4.94375,21.51625,-38.4125,-27.568,-0.648,-12.248,eccentric,4,3.0,19136.0,138763.0,224744.0,275890.0,260723.0
2026-04-08 21:45:50.854391,196360,1609503923072886,1523040104,1.022848,-0.128832,-0.025376,3.14125,21.16625,-39.1825,-27.896002,-0.864,-11.200001,eccentric,4,3.0,19136.0,138763.0,224744.0,275890.0,260723.0
2026-04-08 21:45:50.855997,196361,1609503923081988,1523048809,1.022848,-0.128832,-0.025376,9.16125,22.0325,-34.93,-27.896002,-0.864,-11.200001,eccentric,4,3.0,19136.0,138763.0,224744.0,275890.0,260723.0
2026-04-08 21:45:50.863729,196362,1609503923096483,1523061648,1.10288,-0.122976,0.033184,8.30375,22.8725,-32.8825,-28.04,-1.12,-10.832001,eccentric,4,3.0,19136.0,138763.0,224744.0,275890.0,260723.0
2026-04-08 21:45:50.867478,196363,1609503923105681,1523072391,1.10288,-0.122976,0.033184,6.2825,23.70375,-34.60625,-28.04,-1.12,-10.832001,eccentric,4,3.0,19136.0,138763.0,224744.0,275890.0,260723.0
2026-04-08 21:45:50.904483,196364,1609503923120203,1523087275,0.894016,-0.132736,-0.173728,4.34875,20.755,-35.201252,-28.28,-2.064,-10.776001,eccentric,4,3.0,19136.0,138763.0,224744.0,275890.0,260723.0
2026-04-08 21:45:50.906717,196365,1609503923129120,1523095960,0.894016,-0.132736,-0.173728,-3.4825,14.56,-32.375,-28.28,-2.064,-10.776001,eccentric,4,3.0,19136.0,138763.0,224744.0,275890.0,260723.0
2026-04-08 21:45:50.911519,196366,1609503923138055,1523104611,1.036512,-0.113216,0.16592,-11.795,12.8975,-28.14875,-28.688002,-2.432,-10.976001,eccentric,4,3.0,19136.0,138763.0,224744.0,275890.0,260723.0
2026-04-08 21:45:50.937120,196377,1609503923152524,1523119405,0.983808,-0.089792,0.046848,-12.88,12.5825,-27.991251,-28.664001,-3.328,-11.368001,eccentric,4,3.0,18881.0,138127.0,224285.0,275840.0,260883.0
2026-04-08 21:45:50.941505,196378,1609503923161960,1523128163,0.983808,-0.089792,0.046848,-11.97875,14.44625,-31.3775,-28.664001,-3.328,-11.368001,eccentric,4,3.0,18881.0,138127.0,224285.0,275840.0,260883.0
2026-04-08 21:45:50.943077,196379,1609503923176518,1523143114,1.065792,-0.095648,0.0976,-10.98125,16.38,-33.9675,-29.240002,-3.168,-8.952001,eccentric,4,3.0,18881.0,138127.0,224285.0,275840.0,260883.0
2026-04-08 21:45:50.944640,196380,1609503923185431,1523152119,1.065792,-0.095648,0.0976,-10.17625,15.54875,-33.08375,-29.240002,-3.168,-8.952001,eccentric,4,3.0,18881.0,138127.0,224285.0,275840.0,260883.0
2026-04-08 21:45:50.975853,196381,1609503923194428,1523160819,1.011136,-0.0488,-0.109312,-13.81625,13.1425,-32.235,-29.760002,-3.512,-9.92,eccentric,4,3.0,18881.0,138127.0,224285.0,275840.0,260883.0
2026-04-08 21:45:50.980195,196382,1609503923208886,1523175695,1.011136,-0.0488,-0.109312,-14.91875,11.27,-32.1825,-29.760002,-3.512,-9.92,eccentric,4,3.0,18881.0,138127.0,224285.0,275840.0,260883.0
2026-04-08 21:45:50.982558,196383,1609503923217832,1523184393,0.993568,-0.00976,-0.066368,-12.53,10.9025,-31.01,-29.536001,-4.424,-10.320001,eccentric,4,3.0,18881.0,138127.0,224285.0,275840.0,260883.0
2026-04-08 21:45:51.014001,196384,1609503923232443,1523199275,1.020896,0.02928,-0.056608,-10.40375,11.22625,-27.92125,-29.784002,-4.584,-8.04,eccentric,4,3.0,18881.0,138127.0,224285.0,275840.0,260883.0
2026-04-08 21:45:51.015765,196385,1609503923241359,1523207928,1.020896,0.02928,-0.056608,-8.30375,11.585,-23.415,-29.784002,-4.584,-8.04,eccentric,4,3.0,18881.0,138127.0,224285.0,275840.0,260883.0
2026-04-08 21:45:51.042147,196396,1609503923255928,1523221136,1.15168,0.011712,0.02928,-8.12875,10.21125,-18.7775,-29.856,-5.12,-9.944,eccentric,4,3.0,18845.0,137961.0,224107.0,275695.0,260821.0
2026-04-08 21:45:51.046467,196397,1609503923265134,1523231913,1.15168,0.011712,0.02928,-9.77375,6.65875,-16.9225,-29.856,-5.12,-9.944,eccentric,4,3.0,18845.0,137961.0,224107.0,275695.0,260821.0
2026-04-08 21:45:51.048112,196398,1609503923274113,1523240635,1.056032,0.052704,0.062464,-11.7775,3.22875,-15.02375,-29.888,-4.904,-9.6,eccentric,4,3.0,18845.0,137961.0,224107.0,275695.0,260821.0
2026-04-08 21:45:51.050436,196399,1609503923288625,1523255585,1.056032,0.052704,0.062464,-13.658751,1.25125,-11.865,-29.888,-4.904,-9.6,eccentric,4,3.0,18845.0,137961.0,224107.0,275695.0,260821.0
2026-04-08 21:45:51.080749,196400,1609503923297553,1523264257,1.126304,0.074176,0.144448,-12.17125,0.04375,-8.60125,-29.920002,-5.032,-10.128,eccentric,4,3.0,18845.0,137961.0,224107.0,275695.0,260821.0
2026-04-08 21:45:51.082994,196401,1609503923312050,1523279100,1.095072,0.121024,0.081984,-9.63375,-0.48125,-3.89375,-29.920002,-5.16,-9.448001,eccentric,4,3.0,18845.0,137961.0,224107.0,275695.0,260821.0
2026-04-08 21:45:51.087597,196402,1609503923320995,1523287792,1.095072,0.121024,0.081984,-9.80875,-1.32125,0.2275,-29.976002,-5.16,-9.448001,eccentric,4,3.0,18845.0,137961.0,224107.0,275695.0,260821.0
2026-04-08 21:45:51.092152,196403,1609503923335480,1523300661,1.091168,0.10736,-0.103456,-10.22875,-2.8,2.625,-30.072,-5.096,-8.144,eccentric,4,3.0,18845.0,137961.0,224107.0,275695.0,260821.0
2026-04-08 21:45:51.125803,196404,1609503923344661,1523311431,1.091168,0.10736,-0.103456,-7.7175,-3.82375,5.565,-30.072,-5.096,-8.144,eccentric,4,3.0,18845.0,137961.0,224107.0,275695.0,260821.0
2026-04-08 21:45:51.164664,196415,1609503923353585,1523320164,1.091168,0.05856,-0.011712,-7.0175,-3.3775,8.5925,-30.160002,-5.032,-10.208,eccentric,4,3.0,18751.0,137675.0,223811.0,275542.0,260767.0
2026-04-08 21:45:51.171466,196416,1609503923368422,1523335068,1.091168,0.05856,-0.011712,-8.86375,-4.48,10.14125,-30.160002,-5.032,-10.208,eccentric,4,3.0,18751.0,137675.0,223811.0,275542.0,260767.0
2026-04-08 21:45:51.204531,196417,1609503923377345,1523343762,1.048224,0.060512,0.089792,-11.31375,-5.24125,10.167501,-29.920002,-5.008,-9.928,eccentric,4,3.0,18751.0,137675.0,223811.0,275542.0,260767.0
2026-04-08 21:45:51.206830,196418,1609503923391825,1523358657,1.048224,0.060512,0.074176,-9.5375,-6.25625,10.57875,-29.920002,-5.008,-9.928,eccentric,4,3.0,18751.0,137675.0,223811.0,275542.0,260767.0
2026-04-08 21:45:51.211525,196419,1609503923400805,1523367346,1.001376,0.056608,0.06832,-9.09125,-7.14,9.52,-30.064001,-5.192,-10.216001,eccentric,4,3.0,18751.0,137675.0,223811.0,275542.0,260767.0
2026-04-08 21:45:51.213200,196420,1609503923409749,1523376050,1.001376,0.056608,0.06832,-10.99875,-8.86375,8.61875,-30.064001,-5.192,-10.216001,eccentric,4,3.0,18751.0,137675.0,223811.0,275542.0,260767.0
2026-04-08 21:45:51.214692,196421,1609503923424313,1523390950,0.98576,0.03904,0.070272,-12.36375,-8.96,7.9275,-29.664001,-5.024,-9.832001,eccentric,4,3.0,18751.0,137675.0,223811.0,275542.0,260767.0
2026-04-08 21:45:51.218899,196422,1609503923433245,1523399616,0.958432,0.027328,-0.01952,-11.06875,-7.9975,7.6475,-30.112001,-5.184,-10.336,eccentric,4,3.0,18751.0,137675.0,223811.0,275542.0,260767.0
2026-04-08 21:45:51.220690,196423,1609503923447711,1523414454,0.958432,0.027328,-0.01952,-10.395,-7.55125,7.41125,-30.112001,-5.184,-10.336,eccentric,4,3.0,18751.0,137675.0,223811.0,275542.0,260767.0
2026-04-08 21:45:51.248892,196434,1609503923457080,1523423161,0.913536,0.083936,0.091744,-9.24,-6.74625,7.665,-29.816002,-4.88,-9.544001,eccentric,4,3.0,18765.0,137777.0,223959.0,275729.0,260876.0
2026-04-08 21:45:51.250608,196435,1609503923466072,1523431892,0.913536,0.083936,0.091744,-10.5875,-6.51,9.7125,-29.816002,-4.88,-9.544001,eccentric,4,3.0,18765.0,137777.0,223959.0,275729.0,260876.0
2026-04-08 21:45:51.252129,196436,1609503923480603,1523446783,0.948672,0.02928,0.052704,-13.34375,-7.455,10.71,-29.744001,-4.48,-9.728001,eccentric,4,3.0,18765.0,137777.0,223959.0,275729.0,260876.0
2026-04-08 21:45:51.256289,196437,1609503923489560,1523455502,0.948672,0.02928,0.052704,-13.8425,-8.72375,11.235,-29.744001,-4.48,-9.728001,eccentric,4,3.0,18765.0,137777.0,223959.0,275729.0,260876.0
2026-04-08 21:45:51.284878,196438,1609503923504108,1523470399,0.931104,-0.035136,-0.033184,-9.35375,-8.8375,13.2825,-29.768002,-4.24,-9.912001,concentric,4,3.0,18765.0,137777.0,223959.0,275729.0,260876.0
2026-04-08 21:45:51.289322,196439,1609503923513023,1523479124,0.931104,-0.01952,0.0488,-3.91125,-9.38875,15.785,-29.768002,-4.24,-9.912001,concentric,4,3.0,18765.0,137777.0,223959.0,275729.0,260876.0
2026-04-08 21:45:51.290899,196440,1609503923527470,1523494020,0.938912,-0.01952,0.0488,1.26,-10.0625,17.28125,-29.336,-3.368,-10.536,concentric,4,3.0,18765.0,137777.0,223959.0,275729.0,260876.0
2026-04-08 21:45:51.296782,196441,1609503923536385,1523502677,0.987712,0.021472,0.027328,4.795,-9.86125,18.87375,-29.232002,-3.864,-11.208,concentric,4,3.0,18765.0,137777.0,223959.0,275729.0,260876.0
2026-04-08 21:45:51.327015,196442,1609503923545302,1523511345,0.987712,0.021472,0.027328,6.475,-8.98625,20.44,-29.232002,-3.864,-11.208,concentric,4,3.0,18765.0,137777.0,223959.0,275729.0,260876.0
2026-04-08 21:45:51.358112,196453,1609503923559940,1523526300,0.981856,-0.044896,-0.113216,5.8975,-9.63375,22.12875,-29.104002,-3.288,-11.496,concentric,4,3.0,18921.0,138324.0,224596.0,276071.0,261008.0
2026-04-08 21:45:51.359655,196454,1609503923568871,1523534985,0.981856,-0.044896,-0.113216,0.0875,-11.3225,21.77,-29.104002,-3.288,-11.496,concentric,4,3.0,18921.0,138324.0,224596.0,276071.0,261008.0
2026-04-08 21:45:51.363927,196455,1609503923583424,1523549936,1.056032,-0.095648,0.001952,-5.18875,-12.53,19.71375,-29.064001,-2.728,-11.648001,concentric,4,3.0,18921.0,138324.0,224596.0,276071.0,261008.0
2026-04-08 21:45:51.365653,196456,1609503923592355,1523558704,1.056032,-0.095648,0.001952,-7.21,-13.48375,19.355,-29.064001,-2.728,-11.648001,concentric,4,3.0,18921.0,138324.0,224596.0,276071.0,261008.0
2026-04-08 21:45:51.367113,196457,1609503923606881,1523573619,1.050176,-0.070272,-0.150304,-5.285,-13.32625,19.6175,-28.720001,-2.264,-14.056001,concentric,4,3.0,18921.0,138324.0,224596.0,276071.0,261008.0
2026-04-08 21:45:51.398277,196458,1609503923615893,1523582301,1.036512,-0.062464,0.111264,-1.14625,-13.37875,19.53,-28.712002,-2.024,-10.952001,concentric,4,3.0,18921.0,138324.0,224596.0,276071.0,261008.0
2026-04-08 21:45:51.400898,196459,1609503923624800,1523590973,1.036512,-0.062464,0.111264,-0.62125,-15.198751,17.7275,-28.712002,-2.024,-10.952001,concentric,4,3.0,18921.0,138324.0,224596.0,276071.0,261008.0
2026-04-08 21:45:51.405036,196460,1609503923639260,1523605853,1.061888,-0.142496,0.070272,2.42375,-16.31,12.27625,-28.464,-1.784,-12.176001,concentric,4,3.0,18921.0,138324.0,224596.0,276071.0,261008.0
2026-04-08 21:45:51.410461,196461,1609503923648156,1523614519,1.061888,-0.142496,0.070272,7.37625,-17.03625,6.405,-28.464,-1.784,-12.176001,concentric,4,3.0,18921.0,138324.0,224596.0,276071.0,261008.0
2026-04-08 21:45:51.440604,196472,1609503923662731,1523629442,1.118496,-0.134688,-0.001952,8.6975,-17.3425,2.5375,-28.128002,-1.464,-12.568001,concentric,4,3.0,18986.0,138224.0,224197.0,275564.0,260573.0
2026-04-08 21:45:51.442175,196473,1609503923671679,1523638172,1.118496,-0.134688,-0.001952,7.76125,-16.87,0.4025,-28.128002,-1.464,-12.568001,concentric,4,3.0,18986.0,138224.0,224197.0,275564.0,260573.0
2026-04-08 21:45:51.447515,196474,1609503923686222,1523653089,1.0736,-0.11712,0.040992,6.5275,-16.3275,-1.3125,-27.52,-1.624,-12.584001,concentric,4,3.0,18986.0,138224.0,224197.0,275564.0,260573.0
2026-04-08 21:45:51.502458,196475,1609503923695127,1523661802,0.954528,-0.140544,-0.13664,4.34875,-16.00375,-3.675,-27.472002,-1.472,-10.968,concentric,4,3.0,18986.0,138224.0,224197.0,275564.0,260573.0
2026-04-08 21:45:51.507661,196476,1609503923704073,1523670460,0.954528,-0.140544,-0.13664,1.75875,-16.8875,-5.285,-27.472002,-1.472,-10.968,concentric,4,3.0,18986.0,138224.0,224197.0,275564.0,260573.0
2026-04-08 21:45:51.509578,196477,1609503923718558,1523685416,1.03456,-0.187392,-0.130784,1.39125,-17.22,-7.69125,-26.824001,-0.984,-13.000001,concentric,4,3.0,18986.0,138224.0,224197.0,275564.0,260573.0
2026-04-08 21:45:51.510940,196478,1609503923727474,1523694079,1.03456,-0.187392,-0.130784,1.8025,-17.01,-8.417501,-26.824001,-0.984,-13.000001,concentric,4,3.0,18986.0,138224.0,224197.0,275564.0,260573.0
2026-04-08 21:45:51.515136,196479,1609503923741957,1523708950,0.950624,-0.154208,0.015616,1.40875,-16.8175,-8.4875,-26.800001,-1.232,-13.160001,concentric,4,3.0,18986.0,138224.0,224197.0,275564.0,260573.0
2026-04-08 21:45:51.516923,196480,1609503923750864,1523717594,0.950624,-0.154208,0.015616,1.46125,-16.1875,-9.625,-26.800001,-1.232,-13.160001,concentric,4,3.0,18986.0,138224.0,224197.0,275564.0,260573.0
2026-04-08 21:45:51.546924,196491,1609503923765615,1523732567,0.93696,-0.201056,-0.027328,2.02125,-16.765,-10.99,-26.784,-0.928,-12.592001,concentric,4,3.0,18909.0,138038.0,223966.0,275400.0,260510.0
2026-04-08 21:45:51.550219,196492,1609503923774821,1523741261,0.93696,-0.216672,-0.0488,2.75625,-16.38875,-13.1425,-26.784,-0.928,-12.592001,concentric,4,3.0,18909.0,138038.0,223966.0,275400.0,260510.0
2026-04-08 21:45:51.551620,196493,1609503923783857,1523749975,0.98576,-0.212768,-0.0488,4.13,-16.1875,-14.315001,-26.272001,-0.736,-12.808001,concentric,4,3.0,18909.0,138038.0,223966.0,275400.0,260510.0
2026-04-08 21:45:51.557185,196494,1609503923798409,1523764920,0.96624,-0.193248,0.0,4.9175,-17.33375,-14.945,-26.192001,-1.104,-13.304001,concentric,4,3.0,18909.0,138038.0,223966.0,275400.0,260510.0
2026-04-08 21:45:51.587396,196495,1609503923807372,1523773575,0.96624,-0.193248,0.0,3.92,-18.78625,-15.82,-26.192001,-1.104,-13.304001,concentric,4,3.0,18909.0,138038.0,223966.0,275400.0,260510.0
2026-04-08 21:45:51.590946,196496,1609503923821850,1523788464,0.94672,-0.181536,0.02928,3.80625,-19.41625,-16.30125,-25.544,-0.832,-14.288001,concentric,4,3.0,18909.0,138038.0,223966.0,275400.0,260510.0
2026-04-08 21:45:51.593416,196497,1609503923830764,1523797146,0.94672,-0.181536,0.02928,5.0925,-18.76875,-16.44125,-25.544,-0.832,-14.288001,concentric,4,3.0,18909.0,138038.0,223966.0,275400.0,260510.0
2026-04-08 21:45:51.598411,196498,1609503923839732,1523805813,1.0248,-0.232288,0.01952,5.13625,-17.1675,-18.92625,-25.272001,-0.664,-14.584001,concentric,4,3.0,18909.0,138038.0,223966.0,275400.0,260510.0
2026-04-08 21:45:51.636062,196499,1609503923854266,1523820681,1.0248,-0.232288,0.01952,4.6725,-16.09125,-21.55125,-25.272001,-0.664,-14.584001,concentric,4,3.0,18909.0,138038.0,223966.0,275400.0,260510.0
2026-04-08 21:45:51.664606,196510,1609503923863213,1523829452,0.940864,-0.203008,0.074176,1.3825,-16.616251,-23.03875,-25.176,-0.904,-15.040001,concentric,4,3.0,18872.0,137786.0,223503.0,274972.0,260225.0
2026-04-08 21:45:51.670858,196511,1609503923877712,1523844348,0.90768,-0.218624,-0.085888,-2.135,-17.50875,-27.475,-24.768002,-1.08,-15.248001,concentric,4,3.0,18872.0,137786.0,223503.0,274972.0,260225.0
2026-04-08 21:45:51.673384,196512,1609503923886674,1523853064,0.90768,-0.218624,-0.085888,-0.805,-17.7625,-29.68,-24.768002,-1.08,-15.248001,concentric,4,3.0,18872.0,137786.0,223503.0,274972.0,260225.0
2026-04-08 21:45:51.675859,196513,1609503923901241,1523867998,0.981856,-0.21472,0.066368,1.6275,-17.1325,-29.4875,-24.12,-0.672,-13.272,concentric,4,3.0,18872.0,137786.0,223503.0,274972.0,260225.0
2026-04-08 21:45:51.678370,196514,1609503923910173,1523876681,0.981856,-0.21472,0.066368,3.4125,-16.19625,-30.40625,-24.12,-0.672,-13.272,concentric,4,3.0,18872.0,137786.0,223503.0,274972.0,260225.0
2026-04-08 21:45:51.680850,196515,1609503923919094,1523885334,0.950624,-0.23424,-0.216672,4.1125,-15.4875,-32.22625,-24.104002,-0.824,-13.736001,concentric,4,3.0,18872.0,137786.0,223503.0,274972.0,260225.0
2026-04-08 21:45:51.713660,196516,1609503923933520,1523900219,0.950624,-0.23424,-0.216672,3.885,-14.84,-33.005,-24.104002,-0.824,-13.736001,concentric,4,3.0,18872.0,137786.0,223503.0,274972.0,260225.0
2026-04-08 21:45:51.717138,196517,1609503923942465,1523908961,1.018944,-0.203008,0.011712,2.905,-13.4225,-32.865,-23.688002,-1.2,-15.296001,concentric,4,3.0,18872.0,137786.0,223503.0,274972.0,260225.0
2026-04-08 21:45:51.747052,196528,1609503923956933,1523923858,0.979904,-0.232288,-0.021472,2.31875,-11.34,-33.15375,-23.536001,-1.312,-14.224001,concentric,4,3.0,18913.0,137801.0,223376.0,274811.0,260102.0
2026-04-08 21:45:51.749667,196529,1609503923966309,1523932645,0.979904,-0.232288,-0.021472,2.1875,-10.45625,-33.6,-23.536001,-1.312,-14.224001,concentric,4,3.0,18913.0,137801.0,223376.0,274811.0,260102.0
2026-04-08 21:45:51.752129,196530,1609503923980777,1523947538,0.981856,-0.245952,-0.11712,0.665,-10.535,-33.5475,-23.536001,-1.272,-14.696001,concentric,4,3.0,18913.0,137801.0,223376.0,274811.0,260102.0
2026-04-08 21:45:51.754631,196531,1609503923989738,1523956285,0.981856,-0.245952,-0.11712,3.14125,-9.38875,-34.99125,-23.536001,-1.272,-14.696001,concentric,4,3.0,18913.0,137801.0,223376.0,274811.0,260102.0
2026-04-08 21:45:51.757128,196532,1609503923998704,1523964951,0.925248,-0.150304,-0.060512,7.0175,-8.19,-34.2125,-23.104002,-1.192,-14.920001,concentric,4,3.0,18913.0,137801.0,223376.0,274811.0,260102.0
2026-04-08 21:45:51.802346,196533,1609503924013180,1523979846,0.925248,-0.150304,-0.060512,8.47,-6.99125,-31.7975,-23.104002,-1.192,-14.920001,concentric,4,3.0,18913.0,137801.0,223376.0,274811.0,260102.0
2026-04-08 21:45:51.805898,196534,1609503924022171,1523988604,0.899872,-0.173728,-0.122976,4.19125,-6.04625,-29.53125,-22.728,-1.32,-15.648001,concentric,4,3.0,18913.0,137801.0,223376.0,274811.0,260102.0
2026-04-08 21:45:51.808374,196535,1609503924036653,1524003489,0.884256,-0.206912,0.00976,-3.80625,-4.6725,-29.4875,-22.728,-1.32,-15.648001,concentric,4,3.0,18913.0,137801.0,223376.0,274811.0,260102.0
2026-04-08 21:45:51.810922,196536,1609503924045563,1524012147,0.876448,-0.206912,0.00976,-6.92125,-3.42125,-30.56375,-22.880001,-1.864,-16.112001,concentric,4,3.0,18913.0,137801.0,223376.0,274811.0,260102.0
2026-04-08 21:45:51.840870,196547,1609503924060191,1524025419,0.979904,-0.228384,-0.080032,-6.0025,-3.0975,-29.33875,-22.568,-1.376,-14.704,concentric,4,3.0,18981.0,138024.0,223585.0,274973.0,260194.0
2026-04-08 21:45:51.843399,196548,1609503924069523,1524036214,0.979904,-0.228384,-0.080032,-5.915,-3.045,-28.192501,-22.568,-1.376,-14.704,concentric,4,3.0,18981.0,138024.0,223585.0,274973.0,260194.0
2026-04-08 21:45:51.845896,196549,1609503924078448,1524044953,0.870592,-0.128832,-0.037088,-5.075,-2.33625,-28.72625,-22.456001,-1.6,-14.296001,concentric,4,3.0,18981.0,138024.0,223585.0,274973.0,260194.0
2026-04-08 21:45:51.876386,196550,1609503924093037,1524059877,0.870592,-0.128832,-0.037088,-3.36,-0.86625,-28.06125,-22.456001,-1.6,-14.296001,concentric,4,3.0,18981.0,138024.0,223585.0,274973.0,260194.0
2026-04-08 21:45:51.879634,196551,1609503924101978,1524068588,0.905728,-0.119072,0.021472,-2.26625,0.63875,-24.85875,-22.232,-1.704,-15.424001,concentric,4,3.0,18981.0,138024.0,223585.0,274973.0,260194.0
2026-04-08 21:45:51.882165,196552,1609503924116469,1524083497,0.905728,-0.119072,0.021472,-3.98125,0.55125,-21.9975,-22.232,-1.704,-15.424001,concentric,4,3.0,18981.0,138024.0,223585.0,274973.0,260194.0
2026-04-08 21:45:51.884621,196553,1609503924125374,1524092167,0.872544,-0.189344,-0.23424,-6.32625,1.09375,-21.28875,-22.2,-1.552,-16.728,concentric,4,3.0,18981.0,138024.0,223585.0,274973.0,260194.0
2026-04-08 21:45:51.914876,196554,1609503924134421,1524100848,0.872544,-0.189344,-0.23424,-10.167501,0.77875,-20.265,-22.2,-1.552,-16.728,concentric,4,3.0,18981.0,138024.0,223585.0,274973.0,260194.0
2026-04-08 21:45:51.918378,196555,1609503924148916,1524115711,0.925248,-0.169824,-0.25376,-15.33,0.14,-19.39875,-21.888,-2.176,-15.928,concentric,4,3.0,18981.0,138024.0,223585.0,274973.0,260194.0
2026-04-08 21:45:51.953843,196566,1609503924157836,1524124462,0.993568,-0.085888,-0.249856,-16.73,0.14875,-19.6,-22.048,-1.872,-16.312,concentric,4,3.0,19111.0,138548.0,224101.0,275263.0,260445.0
2026-04-08 21:45:51.956295,196567,1609503924172706,1524139436,0.993568,-0.085888,-0.249856,-16.63375,1.70625,-17.80625,-22.048,-1.872,-16.312,concentric,4,3.0,19111.0,138548.0,224101.0,275263.0,260445.0
2026-04-08 21:45:51.958294,196568,1609503924181624,1524148190,1.011136,-0.027328,-0.22448,-14.00875,5.81875,-14.7875,-21.6,-2.112,-15.048,concentric,4,3.0,19111.0,138548.0,224101.0,275263.0,260445.0
2026-04-08 21:45:51.960883,196569,1609503924190655,1524156894,1.011136,-0.027328,-0.22448,-7.41125,8.37375,-8.28625,-21.6,-2.112,-15.048,concentric,4,3.0,19111.0,138548.0,224101.0,275263.0,260445.0
2026-04-08 21:45:51.967153,196570,1609503924205138,1524171749,0.874496,-0.095648,-0.081984,-8.645,6.755,-0.60375,-21.400002,-2.232,-15.792001,concentric,4,3.0,19111.0,138548.0,224101.0,275263.0,260445.0
2026-04-08 21:45:51.972118,196571,1609503924214113,1524180468,0.874496,-0.095648,-0.081984,-20.01125,1.61,-0.1575,-21.400002,-2.232,-15.792001,concentric,4,3.0,19111.0,138548.0,224101.0,275263.0,260445.0
2026-04-08 21:45:52.004866,196572,1609503924228597,1524195403,0.911584,-0.232288,-0.035136,-28.42,-5.41625,-6.0725,-21.288,-1.992,-16.272001,concentric,4,3.0,19111.0,138548.0,224101.0,275263.0,260445.0
2026-04-08 21:45:52.008438,196573,1609503924237495,1524204070,0.911584,-0.232288,0.027328,-23.79125,-11.06,-10.4125,-21.288,-1.992,-16.272001,concentric,4,3.0,19111.0,138548.0,224101.0,275263.0,260445.0
2026-04-08 21:45:52.011226,196574,1609503924251943,1524218905,0.958432,-0.173728,0.023424,-12.6175,-13.30875,-11.10375,-21.104,-2.048,-16.720001,concentric,4,3.0,19111.0,138548.0,224101.0,275263.0,260445.0
2026-04-08 21:45:52.042130,196585,1609503924261252,1524227655,0.81984,-0.132736,-0.040992,-5.13625,-15.5925,-11.57625,-20.624,-2.08,-16.768002,concentric,4,3.0,18945.0,138296.0,224047.0,275446.0,260772.0
2026-04-08 21:45:52.044774,196586,1609503924270392,1524236370,0.81984,-0.132736,-0.040992,-3.87625,-18.83,-15.715,-20.624,-2.08,-16.768002,concentric,4,3.0,18945.0,138296.0,224047.0,275446.0,260772.0
2026-04-08 21:45:52.047464,196587,1609503924284911,1524251239,0.706624,-0.111264,-0.111264,-1.33875,-21.735,-18.59375,-20.704,-1.784,-13.112,concentric,4,3.0,18945.0,138296.0,224047.0,275446.0,260772.0
2026-04-08 21:45:52.052194,196588,1609503924293911,1524259985,0.706624,-0.111264,-0.111264,2.87,-24.43,-15.505,-20.704,-1.784,-13.112,concentric,4,3.0,18945.0,138296.0,224047.0,275446.0,260772.0
2026-04-08 21:45:52.107162,196589,1609503924308406,1524274992,0.776896,-0.13664,-0.203008,3.15,-24.8675,-10.98125,-20.376001,-1.84,-16.856,concentric,4,3.0,18945.0,138296.0,224047.0,275446.0,260772.0
2026-04-08 21:45:52.110409,196590,1609503924317327,1524283649,0.776896,-0.13664,-0.203008,-3.00125,-24.82375,-11.1475,-20.376001,-1.84,-16.856,concentric,4,3.0,18945.0,138296.0,224047.0,275446.0,260772.0
2026-04-08 21:45:52.113865,196591,1609503924331784,1524298524,0.788608,-0.11712,-0.10736,-12.18,-23.37125,-13.4575,-20.216002,-2.424,-18.584002,concentric,4,3.0,18945.0,138296.0,224047.0,275446.0,260772.0
2026-04-08 21:45:52.115115,196592,1609503924340698,1524307213,0.747616,-0.083936,-0.158112,-17.605,-20.58875,-13.0725,-20.112001,-2.672,-17.28,concentric,4,3.0,18945.0,138296.0,224047.0,275446.0,260772.0
2026-04-08 21:45:52.117079,196593,1609503924349583,1524315861,0.747616,-0.083936,-0.158112,-15.4875,-16.24875,-9.905,-20.112001,-2.672,-17.28,concentric,4,3.0,18945.0,138296.0,224047.0,275446.0,260772.0
2026-04-08 21:45:52.144613,196604,1609503924364286,1524331133,0.79056,-0.105408,-0.095648,-13.4225,-12.5825,-4.03375,-20.016,-1.84,-16.6,concentric,4,3.0,19048.0,138719.0,224594.0,275861.0,261028.0
2026-04-08 21:45:52.147103,196605,1609503924373250,1524339923,0.79056,-0.105408,-0.095648,-17.26375,-11.655,-0.49,-20.016,-1.84,-16.6,concentric,4,3.0,19048.0,138719.0,224594.0,275861.0,261028.0
2026-04-08 21:45:52.149623,196606,1609503924387780,1524354901,0.753472,-0.101504,0.037088,-24.6575,-11.0075,-1.70625,-20.064001,-2.184,-16.256,concentric,4,3.0,19048.0,138719.0,224594.0,275861.0,261028.0
2026-04-08 21:45:52.155929,196607,1609503924396716,1524363703,0.753472,-0.101504,0.037088,-28.5775,-9.555,-2.54625,-20.064001,-2.184,-16.256,concentric,4,3.0,19048.0,138719.0,224594.0,275861.0,261028.0
2026-04-08 21:45:52.186045,196608,1609503924405708,1524372380,0.69296,-0.031232,-0.113216,-27.50125,-7.86625,0.2975,-19.688002,-2.272,-19.728,concentric,4,3.0,19048.0,138719.0,224594.0,275861.0,261028.0
2026-04-08 21:45:52.190646,196609,1609503924420173,1524387235,0.74176,-0.00976,-0.007808,-23.835001,-4.9175,2.065,-19.744001,-2.52,-15.480001,concentric,4,3.0,19048.0,138719.0,224594.0,275861.0,261028.0
2026-04-08 21:45:52.192283,196610,1609503924429080,1524395899,0.74176,-0.00976,-0.007808,-19.3725,0.2275,2.24,-19.744001,-2.52,-15.480001,concentric,4,3.0,19048.0,138719.0,224594.0,275861.0,261028.0
2026-04-08 21:45:52.222418,196611,1609503924443571,1524408730,0.763232,-0.103456,-0.265472,-16.17,5.97625,3.5525,-20.136002,-2.456,-17.376001,concentric,4,3.0,19048.0,138719.0,224594.0,275861.0,261028.0
2026-04-08 21:45:52.225871,196612,1609503924452740,1524419448,0.763232,-0.103456,-0.265472,-18.1825,9.9925,3.68375,-20.136002,-2.456,-17.376001,concentric,4,3.0,19048.0,138719.0,224594.0,275861.0,261028.0
2026-04-08 21:45:52.257113,196623,1609503924467295,1524434429,0.784704,-0.001952,0.046848,-25.87375,12.31125,3.9025,-20.032001,-2.928,-16.720001,concentric,4,3.0,19067.0,138679.0,224420.0,275686.0,260867.0
2026-04-08 21:45:52.259602,196624,1609503924476223,1524443109,0.784704,-0.001952,0.046848,-30.065,12.3725,1.995,-20.032001,-2.928,-16.720001,concentric,4,3.0,19067.0,138679.0,224420.0,275686.0,260867.0
2026-04-08 21:45:52.262119,196625,1609503924485282,1524451816,0.804224,-0.033184,0.013664,-20.2125,12.60875,-0.805,-20.04,-2.576,-15.184001,concentric,4,3.0,19067.0,138679.0,224420.0,275686.0,260867.0
2026-04-08 21:45:52.264642,196626,1609503924499808,1524466744,0.763232,-0.062464,0.121024,-2.31875,13.04625,3.4125,-20.04,-2.528,-17.128,concentric,4,3.0,19067.0,138679.0,224420.0,275686.0,260867.0
2026-04-08 21:45:52.267004,196627,1609503924508693,1524475414,0.763232,-0.062464,0.121024,7.49875,9.5025,8.21625,-19.688002,-2.528,-17.128,concentric,4,3.0,19067.0,138679.0,224420.0,275686.0,260867.0
2026-04-08 21:45:52.297321,196628,1609503924523160,1524490282,0.835456,-0.07808,-0.122976,10.386251,3.35125,5.17125,-19.808,-2.4,-17.288,concentric,4,3.0,19067.0,138679.0,224420.0,275686.0,260867.0
2026-04-08 21:45:52.300945,196629,1609503924532068,1524498929,0.835456,-0.07808,-0.122976,8.0325,-0.035,-0.49875,-19.808,-2.4,-17.288,concentric,4,3.0,19067.0,138679.0,224420.0,275686.0,260867.0
2026-04-08 21:45:52.303321,196630,1609503924546580,1524511778,0.960384,0.015616,-0.228384,3.0625,-0.63,-1.785,-19.784,-2.2,-17.44,concentric,4,3.0,19067.0,138679.0,224420.0,275686.0,260867.0
2026-04-08 21:45:52.333617,196631,1609503924555884,1524522533,0.960384,0.015616,-0.228384,1.82875,2.3975,-3.59625,-19.784,-2.2,-17.44,concentric,4,3.0,19067.0,138679.0,224420.0,275686.0,260867.0
2026-04-08 21:45:52.361964,196642,1609503924565003,1524531272,0.798368,0.0488,-0.040992,9.6775,5.95875,-3.71,-19.928001,-2.296,-17.088001,concentric,4,3.0,19114.0,138951.0,224777.0,276020.0,261104.0
2026-04-08 21:45:52.364547,196643,1609503924579473,1524546155,0.798368,0.0488,-0.040992,11.025,5.43375,1.435,-19.928001,-2.296,-17.088001,concentric,4,3.0,19114.0,138951.0,224777.0,276020.0,261104.0
2026-04-08 21:45:52.367023,196644,1609503924588529,1524554878,0.815936,-0.046848,-0.226432,5.46,2.19625,2.485,-20.128,-2.336,-17.176,concentric,4,3.0,19114.0,138951.0,224777.0,276020.0,261104.0
2026-04-08 21:45:52.369552,196645,1609503924603175,1524569802,1.001376,-0.013664,-0.044896,-3.08875,-0.65625,0.1575,-20.352001,-2.12,-15.896001,concentric,4,3.0,19114.0,138951.0,224777.0,276020.0,261104.0
2026-04-08 21:45:52.403545,196646,1609503924612131,1524578471,1.001376,-0.013664,-0.044896,-10.6925,-0.76125,-1.5925,-20.352001,-2.12,-15.896001,concentric,4,3.0,19114.0,138951.0,224777.0,276020.0,261104.0
2026-04-08 21:45:52.407226,196647,1609503924621071,1524587155,0.91744,0.007808,-0.01952,-9.77375,0.37625,-0.67375,-20.496,-1.992,-16.024,concentric,4,3.0,19114.0,138951.0,224777.0,276020.0,261104.0
2026-04-08 21:45:52.409671,196648,1609503924635536,1524602063,0.91744,0.007808,-0.01952,-6.13375,0.86625,1.30375,-20.496,-1.992,-16.024,concentric,4,3.0,19114.0,138951.0,224777.0,276020.0,261104.0
2026-04-08 21:45:52.412116,196649,1609503924644476,1524610729,0.794464,-0.080032,-0.138592,-3.49125,-0.8225,2.38,-20.008001,-2.408,-17.224,concentric,4,3.0,19114.0,138951.0,224777.0,276020.0,261104.0
2026-04-08 21:45:52.418396,196650,1609503924658980,1524625599,0.794464,-0.080032,-0.138592,-4.375,-4.62875,1.18125,-20.008001,-2.408,-17.224,concentric,4,3.0,19114.0,138951.0,224777.0,276020.0,261104.0
2026-04-08 21:45:52.445828,196661,1609503924667960,1524634353,0.903776,-0.099552,-0.152256,-5.2675,-7.60375,-1.7675,-20.256,-2.104,-13.528001,concentric,4,3.0,19172.0,139190.0,225058.0,276132.0,261105.0
2026-04-08 21:45:52.448540,196662,1609503924682467,1524649290,0.96624,-0.005856,-0.054656,-5.1625,-9.30125,-4.025,-20.28,-2.48,-16.976002,concentric,4,3.0,19172.0,139190.0,225058.0,276132.0,261105.0
2026-04-08 21:45:52.450890,196663,1609503924691378,1524657975,0.96624,-0.005856,-0.054656,-6.405,-10.19375,-5.7925,-20.28,-2.48,-16.976002,concentric,4,3.0,19172.0,139190.0,225058.0,276132.0,261105.0
2026-04-08 21:45:52.481066,196664,1609503924700329,1524666674,0.96624,-0.005856,-0.054656,-4.22625,-8.1725,-6.4925,-20.28,-2.48,-16.976002,concentric,4,3.0,19172.0,139190.0,225058.0,276132.0,261105.0
2026-04-08 21:45:52.484587,196665,1609503924714800,1524681527,0.880352,0.007808,-0.035136,2.17,-6.51875,-4.12125,-19.872002,-2.24,-16.232,concentric,4,3.0,19172.0,139190.0,225058.0,276132.0,261105.0
2026-04-08 21:45:52.487119,196666,1609503924723725,1524690228,0.792512,-0.013664,0.013664,3.08,-6.4225,0.2275,-20.016,-2.568,-17.016,concentric,4,3.0,19172.0,139190.0,225058.0,276132.0,261105.0
2026-04-08 21:45:52.519781,196667,1609503924738273,1524705094,0.792512,-0.013664,0.013664,-4.20875,-8.9775,0.0875,-20.016,-2.568,-17.016,concentric,4,3.0,19172.0,139190.0,225058.0,276132.0,261105.0
2026-04-08 21:45:52.523331,196668,1609503924747197,1524713749,0.827648,-0.062464,-0.072224,-9.5375,-10.29,-4.27875,-19.688002,-2.232,-17.256,concentric,4,3.0,19172.0,139190.0,225058.0,276132.0,261105.0
2026-04-08 21:45:52.550846,196679,1609503924761923,1524729236,0.79056,-0.074176,-0.22448,-8.40875,-10.85875,-5.32875,-20.064001,-2.456,-17.696001,concentric,4,3.0,19266.0,139519.0,225471.0,276394.0,261231.0
2026-04-08 21:45:52.553348,196680,1609503924770919,1524737919,0.79056,-0.074176,-0.22448,-3.54375,-10.78875,-4.13875,-20.064001,-2.456,-17.696001,concentric,4,3.0,19266.0,139519.0,225471.0,276394.0,261231.0
2026-04-08 21:45:52.555827,196681,1609503924780014,1524746652,0.79056,-0.074176,-0.22448,1.95125,-11.10375,-4.75125,-20.064001,-2.456,-17.696001,concentric,4,3.0,19266.0,139519.0,225471.0,276394.0,261231.0
2026-04-08 21:45:52.558343,196682,1609503924794559,1524761588,0.847168,-0.080032,0.015616,6.3175,-11.27875,-4.9,-20.0,-2.664,-15.856001,concentric,4,3.0,19266.0,139519.0,225471.0,276394.0,261231.0
2026-04-08 21:45:52.562085,196683,1609503924803487,1524770320,0.79056,-0.074176,-0.257664,8.05,-11.06,-3.955,-20.072,-2.304,-16.592001,concentric,4,3.0,19266.0,139519.0,225471.0,276394.0,261231.0
2026-04-08 21:45:52.592327,196684,1609503924818013,1524783174,0.79056,-0.074176,-0.257664,5.53875,-10.885,-3.94625,-20.072,-2.304,-16.592001,concentric,4,3.0,19266.0,139519.0,225471.0,276394.0,261231.0
