pc_time,serial_num,sensor_ts,host_ts,ax,ay,az,gx,gy,gz,mx,my,mz,phase,rpe,weight_kg,ppg_a,ppg_b,ppg_c,ppg_d,ppg_e
2026-04-08 21:52:45.610118,274344,1609504337818148,1937784855,0.977952,0.095648,-0.060512,2.7825,2.2575,-13.265,-25.328001,19.656,7.808001,eccentric,4,3.0,28020.0,161014.0,243447.0,288693.0,268460.0
2026-04-08 21:52:45.614639,274345,1609504337827097,1937793557,0.884256,0.152256,-0.201056,2.28375,1.435,-11.2525,-24.896002,19.384,7.064,eccentric,4,3.0,28020.0,161014.0,243447.0,288693.0,268460.0
2026-04-08 21:52:45.616121,274346,1609504337841560,1937808404,0.884256,0.152256,-0.201056,4.43625,0.63,-10.57875,-24.896002,19.384,7.064,eccentric,4,3.0,28020.0,161014.0,243447.0,288693.0,268460.0
2026-04-08 21:52:45.623958,274347,1609504337850496,1937817058,1.018944,0.15616,0.040992,6.83375,0.27125,-11.9,-25.392002,19.296001,6.544,eccentric,4,3.0,28020.0,161014.0,243447.0,288693.0,268460.0
2026-04-08 21:52:45.653319,274358,1609504337859567,1937825831,1.018944,0.15616,0.040992,6.58,-0.1575,-13.29125,-25.392002,19.296001,6.544,eccentric,4,3.0,28312.0,161586.0,243654.0,288742.0,268490.0
2026-04-08 21:52:45.654892,274359,1609504337874167,1937840751,1.013088,0.177632,0.0488,6.64125,-0.35,-12.46,-25.432001,19.04,6.904,eccentric,4,3.0,28312.0,161586.0,243654.0,288742.0,268490.0
2026-04-08 21:52:45.658986,274360,1609504337883098,1937849419,1.011136,0.140544,-0.111264,10.49125,-0.0175,-11.01625,-25.608002,18.872002,8.464001,eccentric,4,3.0,28312.0,161586.0,243654.0,288742.0,268490.0
2026-04-08 21:52:45.687489,274361,1609504337897630,1937864307,1.011136,0.140544,-0.111264,15.30375,-0.07875,-9.03875,-25.608002,18.872002,8.464001,eccentric,4,3.0,28312.0,161586.0,243654.0,288742.0,268490.0
2026-04-08 21:52:45.692032,274362,1609504337906529,1937872945,1.011136,0.228384,0.013664,16.65125,-1.3125,-6.22125,-25.224,18.592001,6.920001,eccentric,4,3.0,28312.0,161586.0,243654.0,288742.0,268490.0
2026-04-08 21:52:45.694439,274363,1609504337921021,1937887786,1.011136,0.228384,0.013664,14.8225,-3.4475,-2.3975,-25.224,18.592001,6.920001,eccentric,4,3.0,28312.0,161586.0,243654.0,288742.0,268490.0
2026-04-08 21:52:45.724719,274364,1609504337930019,1937896515,1.145824,0.269376,0.062464,11.06,-5.55625,2.09125,-25.304,18.728,4.968,eccentric,4,3.0,28312.0,161586.0,243654.0,288742.0,268490.0
2026-04-08 21:52:45.726984,274365,1609504337938998,1937905180,1.145824,0.269376,0.062464,9.1175,-6.65,4.10375,-25.304,18.728,4.968,eccentric,4,3.0,28312.0,161586.0,243654.0,288742.0,268490.0
2026-04-08 21:52:45.731749,274366,1609504337953513,1937920145,1.100928,0.206912,-0.173728,7.27125,-6.51875,5.18875,-25.656002,19.04,7.376,eccentric,4,3.0,28312.0,161586.0,243654.0,288742.0,268490.0
2026-04-08 21:52:45.758309,274377,1609504337962468,1937928918,1.100928,0.206912,0.122976,1.2425,-6.6675,5.50375,-25.656002,19.04,7.376,eccentric,4,3.0,27847.0,160402.0,243077.0,288548.0,268410.0
2026-04-08 21:52:45.759863,274378,1609504337977046,1937943865,1.106784,0.160064,0.122976,-5.78375,-6.72,6.9475,-25.368002,19.464,6.768,eccentric,4,3.0,27847.0,160402.0,243077.0,288548.0,268410.0
2026-04-08 21:52:45.764116,274379,1609504337986157,1937952549,1.057984,0.163968,0.01952,-11.165,-8.89,8.37375,-25.432001,19.368,8.064,eccentric,4,3.0,27847.0,160402.0,243077.0,288548.0,268410.0
2026-04-08 21:52:45.766574,274380,1609504337995106,1937961256,1.057984,0.163968,0.01952,-13.2475,-10.3075,6.195,-25.432001,19.368,8.064,eccentric,4,3.0,27847.0,160402.0,243077.0,288548.0,268410.0
2026-04-08 21:52:45.795102,274381,1609504338009580,1937976166,1.188768,0.105408,0.040992,-10.6225,-10.2025,1.42625,-25.576002,19.296001,6.464,eccentric,4,3.0,27847.0,160402.0,243077.0,288548.0,268410.0
2026-04-08 21:52:45.799463,274382,1609504338018491,1937984830,1.188768,0.105408,0.040992,-2.9925,-9.975,1.77625,-25.576002,19.296001,6.464,eccentric,4,3.0,27847.0,160402.0,243077.0,288548.0,268410.0
2026-04-08 21:52:45.838533,274383,1609504338033006,1937999683,1.05408,0.163968,-0.089792,0.90125,-8.40875,2.5725,-25.44,18.856,6.688,eccentric,4,3.0,27847.0,160402.0,243077.0,288548.0,268410.0
2026-04-08 21:52:45.840739,274384,1609504338041978,1938008335,1.05408,0.163968,-0.089792,3.80625,-6.62375,0.0875,-25.44,18.856,6.688,eccentric,4,3.0,27847.0,160402.0,243077.0,288548.0,268410.0
2026-04-08 21:52:45.868955,274395,1609504338056614,1938023756,1.100928,0.16592,0.099552,5.4775,-4.52375,-0.7,-25.344002,18.92,6.744,eccentric,4,3.0,27651.0,159885.0,242792.0,288386.0,268292.0
2026-04-08 21:52:45.873291,274396,1609504338065655,1938032424,1.081408,0.20496,0.0,2.03,-4.36625,1.35625,-25.392002,19.016,6.56,eccentric,4,3.0,27651.0,159885.0,242792.0,288386.0,268292.0
2026-04-08 21:52:45.874562,274397,1609504338074557,1938041080,1.081408,0.20496,0.0,-0.77875,-4.69875,3.57,-25.392002,19.016,6.56,eccentric,4,3.0,27651.0,159885.0,242792.0,288386.0,268292.0
2026-04-08 21:52:45.876102,274398,1609504338089025,1938055965,1.16144,0.148352,0.017568,0.65625,-4.10375,4.2175,-25.2,18.936,6.608,eccentric,4,3.0,27651.0,159885.0,242792.0,288386.0,268292.0
2026-04-08 21:52:45.880186,274399,1609504338098016,1938064684,1.16144,0.148352,0.017568,1.575,-3.84125,5.01375,-25.2,18.936,6.608,eccentric,4,3.0,27651.0,159885.0,242792.0,288386.0,268292.0
2026-04-08 21:52:45.885223,274400,1609504338112528,1938079659,1.09312,0.085888,-0.06832,2.2575,-3.3075,4.3225,-24.984001,19.024,6.544,eccentric,4,3.0,27651.0,159885.0,242792.0,288386.0,268292.0
2026-04-08 21:52:45.913784,274401,1609504338121485,1938088337,1.09312,0.085888,-0.06832,4.34,-3.9025,2.80875,-24.984001,19.024,6.544,eccentric,4,3.0,27651.0,159885.0,242792.0,288386.0,268292.0
2026-04-08 21:52:45.917533,274402,1609504338135953,1938101143,1.110688,0.111264,-0.07808,-0.6125,-4.52375,4.06875,-24.736002,18.992,7.68,eccentric,4,3.0,27651.0,159885.0,242792.0,288386.0,268292.0
2026-04-08 21:52:45.920718,274403,1609504338145096,1938111848,1.026752,0.181536,0.056608,-1.04125,-5.11875,7.70875,-24.816002,19.208,6.68,eccentric,4,3.0,27651.0,159885.0,242792.0,288386.0,268292.0
2026-04-08 21:52:45.927764,274404,1609504338154027,1938120518,1.026752,0.181536,0.056608,5.83625,-5.2325,7.09625,-24.816002,19.208,6.68,eccentric,4,3.0,27651.0,159885.0,242792.0,288386.0,268292.0
2026-04-08 21:52:45.954523,274415,1609504338168618,1938135503,1.028704,0.152256,0.08784,7.9275,-4.725,4.515,-24.880001,19.232,7.480001,eccentric,4,3.0,26508.0,156494.0,240354.0,287121.0,267642.0
2026-04-08 21:52:45.956424,274416,1609504338177682,1938144230,1.028704,0.152256,0.08784,2.26625,-4.89125,3.955,-24.880001,19.232,7.480001,eccentric,4,3.0,26508.0,156494.0,240354.0,287121.0,267642.0
2026-04-08 21:52:45.987347,274417,1609504338192177,1938159159,0.962336,0.1464,-0.140544,-2.42375,-4.52375,6.475,-24.856,19.232,7.528,eccentric,4,3.0,26508.0,156494.0,240354.0,287121.0,267642.0
2026-04-08 21:52:45.989541,274418,1609504338201087,1938167826,0.962336,0.1464,-0.140544,-2.1175,-3.71,11.2175,-24.856,19.232,7.528,eccentric,4,3.0,26508.0,156494.0,240354.0,287121.0,267642.0
2026-04-08 21:52:45.994176,274419,1609504338210015,1938176478,0.93696,0.140544,-0.121024,-1.8725,-2.93125,12.55625,-24.064001,19.144001,6.4,eccentric,4,3.0,26508.0,156494.0,240354.0,287121.0,267642.0
2026-04-08 21:52:45.996568,274420,1609504338224510,1938191371,0.93696,0.154208,-0.013664,-1.91625,-3.21125,12.99375,-24.064001,19.144001,6.4,eccentric,4,3.0,26508.0,156494.0,240354.0,287121.0,267642.0
2026-04-08 21:52:46.025070,274421,1609504338233460,1938200100,0.931104,0.154208,-0.013664,-2.5375,-3.0975,13.76375,-23.896002,19.656,6.464,eccentric,4,3.0,26508.0,156494.0,240354.0,287121.0,267642.0
2026-04-08 21:52:46.030090,274422,1609504338247949,1938214964,0.91744,0.128832,-0.046848,-1.09375,-2.3975,12.95875,-23.584002,19.792002,6.480001,eccentric,4,3.0,26508.0,156494.0,240354.0,287121.0,267642.0
2026-04-08 21:52:46.057087,274433,1609504338256875,1938223692,0.91744,0.128832,-0.046848,-1.7325,-1.9425,11.85625,-23.584002,19.792002,6.480001,eccentric,4,3.0,26509.0,156536.0,240202.0,286993.0,267593.0
2026-04-08 21:52:46.058666,274434,1609504338271882,1938238726,0.913536,0.119072,-0.152256,-5.06625,-2.10875,11.8475,-23.68,19.952002,6.16,eccentric,4,3.0,26509.0,156536.0,240202.0,286993.0,267593.0
2026-04-08 21:52:46.066633,274435,1609504338280886,1938247420,0.913536,0.119072,-0.152256,-4.865,-1.505,12.39,-23.68,19.952002,6.16,eccentric,4,3.0,26509.0,156536.0,240202.0,286993.0,267593.0
2026-04-08 21:52:46.069059,274436,1609504338289875,1938256153,0.958432,0.064416,-0.085888,-2.63375,-0.9975,13.76375,-23.592001,20.0,7.416,eccentric,4,3.0,26509.0,156536.0,240202.0,286993.0,267593.0
2026-04-08 21:52:46.097639,274437,1609504338304401,1938271012,0.958432,0.064416,-0.085888,-2.9225,-1.63625,14.5775,-23.592001,20.0,7.416,eccentric,4,3.0,26509.0,156536.0,240202.0,286993.0,267593.0
2026-04-08 21:52:46.102236,274438,1609504338313327,1938279711,0.856928,0.12688,-0.13664,1.46125,-1.3125,15.46125,-22.992,19.776001,6.84,eccentric,4,3.0,26509.0,156536.0,240202.0,286993.0,267593.0
2026-04-08 21:52:46.136376,274439,1609504338327794,1938294567,0.862784,0.10736,-0.17568,7.98,-0.81375,15.47,-22.696001,20.128,6.288,eccentric,4,3.0,26509.0,156536.0,240202.0,286993.0,267593.0
2026-04-08 21:52:46.138552,274440,1609504338336722,1938303236,0.862784,0.10736,-0.17568,8.91625,-0.88375,13.79,-22.696001,20.128,6.288,eccentric,4,3.0,26509.0,156536.0,240202.0,286993.0,267593.0
2026-04-08 21:52:46.141232,274441,1609504338351201,1938318081,0.915488,0.134688,0.033184,1.21625,-1.2075,12.46875,-22.472,20.024,6.544,eccentric,4,3.0,26509.0,156536.0,240202.0,286993.0,267593.0
2026-04-08 21:52:46.168590,274452,1609504338360264,1938326851,0.915488,0.134688,0.033184,-6.44,-1.19,12.15375,-22.472,20.024,6.544,eccentric,4,3.0,26933.0,157871.0,241001.0,287401.0,267833.0
2026-04-08 21:52:46.171116,274453,1609504338369200,1938335517,0.8784,0.076128,-0.08784,-6.69375,-0.37625,11.6025,-22.304,20.648,6.2,eccentric,4,3.0,26933.0,157871.0,241001.0,287401.0,267833.0
2026-04-08 21:52:46.173590,274454,1609504338383678,1938350383,0.8784,0.076128,-0.08784,-5.66125,0.62125,11.06,-22.304,20.648,6.2,eccentric,4,3.0,26933.0,157871.0,241001.0,287401.0,267833.0
2026-04-08 21:52:46.176107,274455,1609504338392796,1938359150,0.81984,0.054656,-0.121024,-5.4075,0.595,9.975,-22.296001,20.288,5.68,eccentric,4,3.0,26933.0,157871.0,241001.0,287401.0,267833.0
2026-04-08 21:52:46.178247,274456,1609504338407283,1938374063,0.899872,0.081984,-0.023424,-4.4975,1.07625,10.5175,-21.920002,20.184,6.288,eccentric,4,3.0,26933.0,157871.0,241001.0,287401.0,267833.0
2026-04-08 21:52:46.208770,274457,1609504338416278,1938382742,0.899872,0.081984,-0.023424,-5.22375,0.70875,11.54125,-21.920002,20.184,6.288,eccentric,4,3.0,26933.0,157871.0,241001.0,287401.0,267833.0
2026-04-08 21:52:46.212377,274458,1609504338425209,1938391415,0.899872,0.081984,-0.023424,-6.71125,-0.41125,11.9525,-21.920002,20.184,6.288,eccentric,4,3.0,26933.0,157871.0,241001.0,287401.0,267833.0
2026-04-08 21:52:46.214830,274459,1609504338439667,1938406299,0.925248,0.08784,-0.130784,-8.74125,-0.25375,11.83,-21.720001,20.52,6.616,eccentric,4,3.0,26933.0,157871.0,241001.0,287401.0,267833.0
2026-04-08 21:52:46.219839,274460,1609504338448657,1938414957,0.866688,0.10736,0.064416,-10.955,0.6125,11.935,-21.648,20.808,7.472,eccentric,4,3.0,26933.0,157871.0,241001.0,287401.0,267833.0
2026-04-08 21:52:46.276043,274471,1609504338463364,1938429983,0.866688,0.10736,0.064416,-13.4925,1.4,12.11875,-21.648,20.808,7.472,eccentric,4,3.0,26863.0,157716.0,240917.0,287511.0,267970.0
2026-04-08 21:52:46.278569,274472,1609504338472305,1938438726,0.796416,0.042944,-0.140544,-15.72375,1.8725,12.6,-21.136002,20.704,6.464,eccentric,4,3.0,26863.0,157716.0,240917.0,287511.0,267970.0
2026-04-08 21:52:46.281120,274473,1609504338486807,1938453570,0.769088,0.054656,-0.0488,-16.8175,1.015,14.2975,-20.944,21.088001,7.856,eccentric,4,3.0,26863.0,157716.0,240917.0,287511.0,267970.0
2026-04-08 21:52:46.283568,274474,1609504338495768,1938462289,0.769088,0.054656,-0.0488,-16.135,0.00875,16.35375,-20.944,21.088001,7.856,eccentric,4,3.0,26863.0,157716.0,240917.0,287511.0,267970.0
2026-04-08 21:52:46.286055,274475,1609504338504685,1938470968,0.769088,0.054656,-0.0488,-14.56,0.39375,17.710001,-20.944,21.088001,7.856,eccentric,4,3.0,26863.0,157716.0,240917.0,287511.0,267970.0
2026-04-08 21:52:46.291049,274476,1609504338519233,1938485835,0.745664,0.050752,-0.050752,-11.3925,1.1725,17.70125,-20.464,20.912,9.0,eccentric,4,3.0,26863.0,157716.0,240917.0,287511.0,267970.0
2026-04-08 21:52:46.321341,274477,1609504338528140,1938494508,0.755424,0.03904,-0.091744,-9.5375,1.785,17.91125,-20.744001,21.168001,8.384001,eccentric,4,3.0,26863.0,157716.0,240917.0,287511.0,267970.0
2026-04-08 21:52:46.324863,274478,1609504338542624,1938509386,0.755424,0.03904,-0.091744,-9.975,1.575,19.2675,-20.744001,21.168001,8.384001,eccentric,4,3.0,26863.0,157716.0,240917.0,287511.0,267970.0
2026-04-08 21:52:46.327376,274479,1609504338551615,1938518079,0.730048,0.072224,-0.062464,-8.6975,1.09375,20.895,-20.248001,21.536001,6.336,eccentric,4,3.0,26863.0,157716.0,240917.0,287511.0,267970.0
2026-04-08 21:52:46.402950,274490,1609504338566193,1938533093,0.730048,0.072224,-0.062464,-7.3325,0.455,21.0175,-20.248001,21.536001,6.336,eccentric,4,3.0,26645.0,157246.0,240774.0,287562.0,268052.0
2026-04-08 21:52:46.435946,274491,1609504338575110,1938541810,0.813984,-0.02928,-0.081984,-7.76125,0.20125,19.46875,-19.960001,21.832,7.608,eccentric,4,3.0,26645.0,157246.0,240774.0,287562.0,268052.0
2026-04-08 21:52:46.440435,274492,1609504338584133,1938550490,0.813984,-0.02928,-0.081984,-14.0525,-0.105,15.58375,-19.960001,21.832,7.608,eccentric,4,3.0,26645.0,157246.0,240774.0,287562.0,268052.0
2026-04-08 21:52:46.442098,274493,1609504338598786,1938565450,0.854976,-0.023424,0.08784,-21.51625,-0.735,12.3725,-19.664001,21.544,5.968,eccentric,4,3.0,26645.0,157246.0,240774.0,287562.0,268052.0
2026-04-08 21:52:46.444584,274494,1609504338608071,1938574217,0.841312,-0.056608,0.005856,-21.41125,-0.5775,10.85875,-19.584002,21.576,6.056,eccentric,4,3.0,26645.0,157246.0,240774.0,287562.0,268052.0
2026-04-08 21:52:46.447026,274495,1609504338622510,1938589135,0.841312,-0.056608,0.005856,-14.18375,0.70875,8.35625,-19.584002,21.576,6.056,eccentric,4,3.0,26645.0,157246.0,240774.0,287562.0,268052.0
2026-04-08 21:52:46.449411,274496,1609504338631453,1938597805,0.767136,0.021472,-0.011712,-8.25125,0.735,7.455,-20.072,21.992,6.984,eccentric,4,3.0,26645.0,157246.0,240774.0,287562.0,268052.0
2026-04-08 21:52:46.451457,274497,1609504338640402,1938606553,0.767136,0.021472,-0.011712,-7.6475,-0.28875,7.77,-20.072,21.992,6.984,eccentric,4,3.0,26645.0,157246.0,240774.0,287562.0,268052.0
2026-04-08 21:52:46.455206,274498,1609504338654863,1938621440,0.835456,-0.013664,-0.138592,-8.636251,-1.23375,5.53875,-19.432001,22.312,5.936,eccentric,4,3.0,26645.0,157246.0,240774.0,287562.0,268052.0
2026-04-08 21:52:46.486630,274509,1609504338663922,1938630260,0.835456,-0.013664,-0.138592,-11.20875,-1.4875,1.645,-19.432001,22.312,5.936,eccentric,4,3.0,26797.0,157777.0,241130.0,287674.0,268099.0
2026-04-08 21:52:46.488356,274510,1609504338678437,1938645193,0.845216,-0.062464,-0.013664,-13.81625,-0.86625,-0.245,-19.424002,22.048,5.424,eccentric,4,3.0,26797.0,157777.0,241130.0,287674.0,268099.0
2026-04-08 21:52:46.489930,274511,1609504338687454,1938653889,0.845216,-0.062464,0.017568,-15.4525,-0.25375,-0.91,-19.424002,22.048,5.424,eccentric,4,3.0,26797.0,157777.0,241130.0,287674.0,268099.0
2026-04-08 21:52:46.494198,274512,1609504338702031,1938668862,0.772992,-0.05856,0.017568,-17.185,-0.4025,-1.84625,-19.456001,22.096,6.696,eccentric,4,3.0,26797.0,157777.0,241130.0,287674.0,268099.0
2026-04-08 21:52:46.495858,274513,1609504338711019,1938677591,0.817888,-0.027328,-0.121024,-18.15625,-0.7,-2.98375,-19.52,21.640001,6.336,eccentric,4,3.0,26797.0,157777.0,241130.0,287674.0,268099.0
2026-04-08 21:52:46.497413,274514,1609504338720399,1938686457,0.817888,-0.027328,-0.121024,-16.9225,-1.60125,-3.94625,-19.52,21.640001,6.336,eccentric,4,3.0,26797.0,157777.0,241130.0,287674.0,268099.0
2026-04-08 21:52:46.528518,274515,1609504338735085,1938701544,0.794464,0.01952,0.027328,-13.16,-1.07625,-4.94375,-19.384,21.656,7.392,eccentric,4,3.0,26797.0,157777.0,241130.0,287674.0,268099.0
2026-04-08 21:52:46.530732,274516,1609504338744062,1938710231,0.794464,0.01952,0.027328,-9.54625,-0.1225,-6.39625,-19.384,21.656,7.392,eccentric,4,3.0,26797.0,157777.0,241130.0,287674.0,268099.0
2026-04-08 21:52:46.558678,274527,1609504338758525,1938725180,0.792512,-0.01952,-0.023424,-9.02125,0.16625,-6.86,-19.240002,21.944,5.064,eccentric,4,3.0,26751.0,157670.0,241023.0,287553.0,268025.0
2026-04-08 21:52:46.562887,274528,1609504338767467,1938734100,0.792512,-0.01952,-0.023424,-11.0775,-0.23625,-6.22125,-19.240002,21.944,5.064,eccentric,4,3.0,26751.0,157670.0,241023.0,287553.0,268025.0
2026-04-08 21:52:46.564738,274529,1609504338776398,1938742808,0.894016,-0.044896,0.05856,-12.43375,-0.39375,-5.67875,-19.008001,21.76,4.128,eccentric,4,3.0,26751.0,157670.0,241023.0,287553.0,268025.0
2026-04-08 21:52:46.566849,274530,1609504338790962,1938757695,0.862784,-0.066368,0.06832,-10.386251,-0.42,-4.76,-19.096,21.720001,5.632,eccentric,4,3.0,26751.0,157670.0,241023.0,287553.0,268025.0
2026-04-08 21:52:46.574049,274531,1609504338799890,1938766537,0.862784,-0.066368,0.06832,-6.86875,-0.6125,-4.31375,-19.096,21.720001,5.632,eccentric,4,3.0,26751.0,157670.0,241023.0,287553.0,268025.0
2026-04-08 21:52:46.602513,274532,1609504338814396,1938781420,0.81984,-0.025376,0.06832,-4.69875,-0.945,-5.10125,-19.704,22.160002,5.848,eccentric,4,3.0,26751.0,157670.0,241023.0,287553.0,268025.0
2026-04-08 21:52:46.606917,274533,1609504338823361,1938790116,0.81984,-0.025376,0.06832,-3.07125,-1.6975,-6.23875,-19.704,22.160002,5.848,eccentric,4,3.0,26751.0,157670.0,241023.0,287553.0,268025.0
2026-04-08 21:52:46.613134,274534,1609504338837837,1938804973,0.872544,-0.03904,-0.025376,-1.07625,-1.4525,-6.92125,-19.176,21.76,5.192,eccentric,4,3.0,26751.0,157670.0,241023.0,287553.0,268025.0
2026-04-08 21:52:46.618969,274535,1609504338846778,1938813671,0.872544,-0.03904,-0.025376,1.96875,-0.67375,-6.99125,-19.176,21.76,5.192,eccentric,4,3.0,26751.0,157670.0,241023.0,287553.0,268025.0
2026-04-08 21:52:46.647577,274536,1609504338855692,1938822351,0.755424,-0.001952,-0.11712,2.9925,-0.70875,-7.20125,-19.224,21.832,5.04,eccentric,4,3.0,26751.0,157670.0,241023.0,287553.0,268025.0
2026-04-08 21:52:46.676267,274547,1609504338870309,1938837285,0.827648,0.003904,0.132736,2.52875,-1.02375,-7.1225,-19.640001,21.528002,5.184,eccentric,4,3.0,26316.0,156318.0,240123.0,287144.0,267837.0
2026-04-08 21:52:46.680349,274548,1609504338879217,1938845922,0.827648,0.003904,0.132736,3.85,-1.23375,-7.4725,-19.640001,21.528002,5.184,eccentric,4,3.0,26316.0,156318.0,240123.0,287144.0,267837.0
2026-04-08 21:52:46.682027,274549,1609504338893694,1938860779,0.827648,0.027328,0.083936,4.2875,-0.98,-7.5775,-19.584002,21.720001,6.24,eccentric,4,3.0,26316.0,156318.0,240123.0,287144.0,267837.0
2026-04-08 21:52:46.683922,274550,1609504338902759,1938869554,0.827648,0.027328,0.083936,1.575,0.21,-7.9275,-19.584002,21.720001,6.24,eccentric,4,3.0,26316.0,156318.0,240123.0,287144.0,267837.0
2026-04-08 21:52:46.688985,274551,1609504338917249,1938882445,0.804224,-0.007808,-0.115168,-1.05,2.5725,-7.27125,-19.744001,21.576,6.288,eccentric,4,3.0,26316.0,156318.0,240123.0,287144.0,267837.0
2026-04-08 21:52:46.732298,274552,1609504338926461,1938893176,0.804224,-0.007808,-0.115168,-2.59875,2.84375,-7.4375,-19.744001,21.576,6.288,eccentric,4,3.0,26316.0,156318.0,240123.0,287144.0,267837.0
2026-04-08 21:52:46.734514,274553,1609504338935382,1938901832,0.870592,-0.037088,-0.044896,-4.50625,2.73875,-6.9475,-19.632002,21.208,5.528,eccentric,4,3.0,26316.0,156318.0,240123.0,287144.0,267837.0
2026-04-08 21:52:46.737422,274554,1609504338949847,1938916691,0.837408,0.031232,0.003904,-5.76625,2.91375,-6.16875,-19.696001,21.336,5.960001,eccentric,4,3.0,26316.0,156318.0,240123.0,287144.0,267837.0
2026-04-08 21:52:46.740869,274555,1609504338958754,1938925426,0.837408,0.031232,0.003904,-6.50125,2.66875,-7.5775,-19.696001,21.336,5.960001,eccentric,4,3.0,26316.0,156318.0,240123.0,287144.0,267837.0
2026-04-08 21:52:46.774148,274566,1609504338973376,1938940391,0.856928,0.035136,-0.027328,-5.2675,2.5375,-9.66,-19.368,21.208,5.68,eccentric,4,3.0,26722.0,157600.0,241002.0,287610.0,268077.0
2026-04-08 21:52:46.775894,274567,1609504338982327,1938949093,0.856928,0.035136,-0.027328,-3.15,3.10625,-10.15875,-19.368,21.208,5.68,eccentric,4,3.0,26722.0,157600.0,241002.0,287610.0,268077.0
2026-04-08 21:52:46.777377,274568,1609504338991274,1938957812,0.847168,0.042944,0.0976,-1.015,4.095,-6.9475,-19.672,21.144001,6.024,eccentric,4,3.0,26722.0,157600.0,241002.0,287610.0,268077.0
2026-04-08 21:52:46.781467,274569,1609504339005771,1938972682,0.847168,0.042944,0.0976,1.14625,4.2525,-2.59,-19.672,21.144001,6.024,eccentric,4,3.0,26722.0,157600.0,241002.0,287610.0,268077.0
2026-04-08 21:52:46.787719,274570,1609504339014713,1938981436,0.915488,0.001952,0.083936,0.09625,3.01875,-4.62875,-19.528002,21.248001,5.744,eccentric,4,3.0,26722.0,157600.0,241002.0,287610.0,268077.0
2026-04-08 21:52:46.816280,274571,1609504339029163,1938994376,0.915488,0.001952,0.083936,-0.245,0.9975,-6.60625,-19.528002,21.248001,5.744,eccentric,4,3.0,26722.0,157600.0,241002.0,287610.0,268077.0
2026-04-08 21:52:46.820764,274572,1609504339038349,1939005094,0.880352,0.040992,0.052704,-0.25375,-0.09625,-4.99625,-19.6,21.368002,5.424,eccentric,4,3.0,26722.0,157600.0,241002.0,287610.0,268077.0
2026-04-08 21:52:46.828351,274573,1609504339052827,1939019946,0.903776,-0.01952,-0.072224,0.70875,-0.665,-3.99,-19.792002,21.480001,5.488,eccentric,4,3.0,26722.0,157600.0,241002.0,287610.0,268077.0
2026-04-08 21:52:46.857096,274584,1609504339061784,1939028897,0.903776,-0.01952,-0.072224,3.955,-0.53375,-4.3925,-19.792002,21.480001,5.488,concentric,4,3.0,26504.0,157029.0,240771.0,287585.0,268083.0
2026-04-08 21:52:46.858640,274585,1609504339070847,1939037640,0.825696,0.035136,-0.007808,6.18625,-0.2975,-5.10125,-19.936,21.328001,6.480001,concentric,4,3.0,26504.0,157029.0,240771.0,287585.0,268083.0
2026-04-08 21:52:46.862776,274586,1609504339085397,1939052528,0.825696,0.035136,-0.007808,7.07875,-0.0875,-5.81875,-19.936,21.328001,6.480001,concentric,4,3.0,26504.0,157029.0,240771.0,287585.0,268083.0
2026-04-08 21:52:46.867690,274587,1609504339094334,1939061224,0.862784,0.074176,-0.15616,2.9575,-1.4875,-9.54625,-20.048,21.216002,5.904,concentric,4,3.0,26504.0,157029.0,240771.0,287585.0,268083.0
2026-04-08 21:52:46.896276,274588,1609504339108812,1939074038,0.862784,0.074176,-0.15616,-0.23625,-0.9625,-11.042501,-20.048,21.216002,5.904,concentric,4,3.0,26504.0,157029.0,240771.0,287585.0,268083.0
2026-04-08 21:52:46.906574,274589,1609504339118028,1939084763,0.872544,0.037088,-0.103456,3.6925,0.2625,-8.47875,-19.880001,21.152,5.488,concentric,4,3.0,26504.0,157029.0,240771.0,287585.0,268083.0
2026-04-08 21:52:46.907458,274590,1609504339126948,1939093414,0.872544,0.037088,-0.103456,6.09875,0.81375,-5.3025,-19.880001,21.152,5.488,concentric,4,3.0,26504.0,157029.0,240771.0,287585.0,268083.0
2026-04-08 21:52:46.937723,274591,1609504339141409,1939108266,0.813984,0.005856,-0.027328,5.50375,-0.55125,-2.135,-19.976002,21.496,5.304,concentric,4,3.0,26504.0,157029.0,240771.0,287585.0,268083.0
2026-04-08 21:52:46.942361,274592,1609504339150334,1939116932,0.813984,0.005856,-0.183488,5.78375,-1.49625,1.61,-19.976002,21.496,5.304,concentric,4,3.0,26504.0,157029.0,240771.0,287585.0,268083.0
2026-04-08 21:52:46.970793,274603,1609504339165451,1939131842,0.853024,0.00976,-0.177632,5.01375,-3.5875,0.00875,-19.872002,21.304,6.624001,concentric,4,3.0,26570.0,157220.0,240836.0,287601.0,268104.0
2026-04-08 21:52:46.972359,274604,1609504339174411,1939140530,0.8784,0.064416,-0.060512,2.555,-4.64625,-5.6525,-19.952002,21.064001,5.944,concentric,4,3.0,26570.0,157220.0,240836.0,287601.0,268104.0
2026-04-08 21:52:46.976593,274605,1609504339188928,1939155514,0.8784,0.064416,-0.060512,6.22125,-3.36875,-6.39625,-19.952002,21.064001,5.944,concentric,4,3.0,26570.0,157220.0,240836.0,287601.0,268104.0
2026-04-08 21:52:46.978293,274606,1609504339197858,1939164250,0.909632,0.027328,0.089792,8.30375,-1.82875,-4.19125,-20.368,21.152,6.12,concentric,4,3.0,26570.0,157220.0,240836.0,287601.0,268104.0
2026-04-08 21:52:46.979813,274607,1609504339206781,1939172942,0.909632,0.027328,0.089792,5.215,-0.46375,-3.115,-20.368,21.152,6.12,concentric,4,3.0,26570.0,157220.0,240836.0,287601.0,268104.0
2026-04-08 21:52:47.032502,274608,1609504339221304,1939187843,0.8784,-0.01952,0.101504,4.515,-0.41125,-2.54625,-20.232,21.128,6.888001,concentric,4,3.0,26570.0,157220.0,240836.0,287601.0,268104.0
2026-04-08 21:52:47.036131,274609,1609504339230198,1939196559,0.8784,-0.01952,0.101504,3.4125,-1.5575,-0.595,-20.232,21.128,6.888001,concentric,4,3.0,26570.0,157220.0,240836.0,287601.0,268104.0
2026-04-08 21:52:47.038562,274610,1609504339244653,1939211421,0.83936,0.007808,-0.181536,-0.455,-3.7275,-1.9775,-19.872002,21.04,5.016,concentric,4,3.0,26570.0,157220.0,240836.0,287601.0,268104.0
2026-04-08 21:52:47.041052,274611,1609504339253576,1939220110,0.821792,0.03904,-0.105408,-2.56375,-5.13625,-6.685,-20.296001,20.984001,6.128,concentric,4,3.0,26570.0,157220.0,240836.0,287601.0,268104.0
2026-04-08 21:52:47.068757,274622,1609504339268172,1939235055,0.821792,0.03904,-0.105408,3.5875,-4.05125,-8.68,-20.296001,20.984001,6.128,concentric,4,3.0,26121.0,155953.0,240063.0,287281.0,267954.0
2026-04-08 21:52:47.071054,274623,1609504339277138,1939243754,0.845216,-0.00976,-0.070272,10.21125,-3.29875,-3.29,-20.432001,21.256,6.72,concentric,4,3.0,26121.0,155953.0,240063.0,287281.0,267954.0
2026-04-08 21:52:47.073524,274624,1609504339286194,1939252409,0.845216,-0.00976,-0.070272,9.065,-3.255,1.40875,-20.432001,21.256,6.72,concentric,4,3.0,26121.0,155953.0,240063.0,287281.0,267954.0
2026-04-08 21:52:47.076399,274625,1609504339300686,1939267362,0.79056,-0.02928,-0.128832,5.53875,-3.15875,1.12875,-20.256,20.856,6.752,concentric,4,3.0,26121.0,155953.0,240063.0,287281.0,267954.0
2026-04-08 21:52:47.082310,274626,1609504339309637,1939276043,0.79056,-0.02928,-0.128832,2.40625,-4.13,0.0175,-20.256,20.856,6.752,concentric,4,3.0,26121.0,155953.0,240063.0,287281.0,267954.0
2026-04-08 21:52:47.112522,274627,1609504339324098,1939290967,0.8296,0.037088,-0.1464,-2.31875,-5.9325,-1.8375,-20.28,21.176,7.872,concentric,4,3.0,26121.0,155953.0,240063.0,287281.0,267954.0
2026-04-08 21:52:47.124825,274628,1609504339333023,1939299670,0.935008,-0.01952,-0.023424,0.32375,-6.4575,-5.03125,-20.44,21.008001,8.68,concentric,4,3.0,26121.0,155953.0,240063.0,287281.0,267954.0
2026-04-08 21:52:47.127339,274629,1609504339347511,1939314522,0.935008,-0.01952,-0.023424,6.99125,-5.20625,-5.04875,-20.44,21.008001,8.68,concentric,4,3.0,26121.0,155953.0,240063.0,287281.0,267954.0
2026-04-08 21:52:47.129842,274630,1609504339356450,1939323185,0.79056,0.015616,-0.02928,7.51625,-4.41875,-3.99,-20.456001,20.928001,7.656,concentric,4,3.0,26121.0,155953.0,240063.0,287281.0,267954.0
2026-04-08 21:52:47.159842,274641,1609504339366159,1939331947,0.79056,0.015616,-0.02928,6.55375,-4.10375,-3.5525,-20.456001,20.928001,7.656,concentric,4,3.0,25433.0,153915.0,238711.0,286531.0,267541.0
2026-04-08 21:52:47.166136,274642,1609504339380783,1939346923,0.851072,0.052704,-0.015616,4.97875,-5.10125,-3.6925,-20.44,20.848001,5.832,concentric,4,3.0,25433.0,153915.0,238711.0,286531.0,267541.0
2026-04-08 21:52:47.168548,274643,1609504339389692,1939355624,0.851072,0.052704,-0.015616,1.68,-5.53,-3.59625,-20.44,20.848001,5.832,concentric,4,3.0,25433.0,153915.0,238711.0,286531.0,267541.0
2026-04-08 21:52:47.176107,274644,1609504339404157,1939370545,0.86864,0.0488,-0.091744,0.97125,-5.005,-3.8325,-20.224,21.096,5.912,concentric,4,3.0,25433.0,153915.0,238711.0,286531.0,267541.0
2026-04-08 21:52:47.206281,274645,1609504339413083,1939379219,0.931104,0.02928,0.080032,2.835,-3.40375,-4.87375,-20.768002,20.944,6.656,concentric,4,3.0,25433.0,153915.0,238711.0,286531.0,267541.0
2026-04-08 21:52:47.209908,274646,1609504339421979,1939387897,0.931104,0.02928,0.080032,4.38375,-2.00375,-5.7925,-20.768002,20.944,6.656,concentric,4,3.0,25433.0,153915.0,238711.0,286531.0,267541.0
2026-04-08 21:52:47.212335,274647,1609504339436431,1939402793,0.903776,0.01952,0.021472,6.2475,-1.33875,-5.39875,-20.824001,21.024,5.944,concentric,4,3.0,25433.0,153915.0,238711.0,286531.0,267541.0
2026-04-08 21:52:47.217425,274648,1609504339445436,1939411464,0.903776,0.01952,0.021472,5.22375,-1.085,-3.9725,-20.824001,21.024,5.944,concentric,4,3.0,25433.0,153915.0,238711.0,286531.0,267541.0
2026-04-08 21:52:47.247492,274649,1609504339459912,1939426397,0.81984,0.050752,-0.062464,1.26,-1.42625,-2.8,-20.864,20.696001,8.568001,concentric,4,3.0,25433.0,153915.0,238711.0,286531.0,267541.0
2026-04-08 21:52:47.276130,274660,1609504339468895,1939435216,0.81984,0.050752,-0.062464,0.3675,-1.12875,-2.52875,-20.864,20.696001,8.568001,concentric,4,3.0,25410.0,153899.0,238742.0,286590.0,267552.0
2026-04-08 21:52:47.278557,274661,1609504339483403,1939450100,0.944768,0.003904,0.062464,2.28375,-1.6625,-3.255,-20.856,21.056002,6.064,concentric,4,3.0,25410.0,153899.0,238742.0,286590.0,267552.0
2026-04-08 21:52:47.281032,274662,1609504339492416,1939458825,0.944768,0.003904,0.062464,4.90875,-2.835,-5.705,-20.856,21.056002,6.064,concentric,4,3.0,25410.0,153899.0,238742.0,286590.0,267552.0
2026-04-08 21:52:47.283544,274663,1609504339501337,1939467594,0.958432,0.001952,-0.044896,8.89875,-2.5725,-9.4675,-20.952002,20.864,6.24,concentric,4,3.0,25410.0,153899.0,238742.0,286590.0,267552.0
2026-04-08 21:52:47.287292,274664,1609504339515963,1939482515,0.886208,0.083936,0.08784,10.45625,-2.54625,-12.005,-21.456001,20.536001,6.16,concentric,4,3.0,25410.0,153899.0,238742.0,286590.0,267552.0
2026-04-08 21:52:47.333842,274665,1609504339524891,1939491220,0.886208,0.083936,0.08784,9.73875,-2.2575,-12.285,-21.456001,20.536001,6.16,concentric,4,3.0,25410.0,153899.0,238742.0,286590.0,267552.0
2026-04-08 21:52:47.337322,274666,1609504339539436,1939506058,0.853024,0.01952,-0.07808,9.135,-2.2225,-12.705,-21.728,20.568,5.752,concentric,4,3.0,25410.0,153899.0,238742.0,286590.0,267552.0
2026-04-08 21:52:47.339840,274667,1609504339548350,1939514704,0.853024,0.01952,-0.07808,9.0825,-3.99,-14.14875,-21.728,20.568,5.752,concentric,4,3.0,25410.0,153899.0,238742.0,286590.0,267552.0
2026-04-08 21:52:47.342325,274668,1609504339557285,1939523421,0.862784,0.00976,0.025376,11.2525,-5.5125,-15.855001,-21.448002,20.608002,6.520001,concentric,4,3.0,25410.0,153899.0,238742.0,286590.0,267552.0
2026-04-08 21:52:47.369759,274679,1609504339571769,1939538350,0.862784,0.00976,0.025376,13.69375,-6.16875,-18.655,-21.448002,20.608002,6.520001,concentric,4,3.0,25689.0,154845.0,239461.0,286859.0,267670.0
2026-04-08 21:52:47.372334,274680,1609504339580793,1939547093,0.964288,0.011712,-0.060512,14.27125,-5.62625,-20.7025,-21.944,20.456001,8.328,concentric,4,3.0,25689.0,154845.0,239461.0,286859.0,267670.0
2026-04-08 21:52:47.374871,274681,1609504339595464,1939561989,0.909632,0.081984,-0.056608,16.07375,-3.535,-21.28,-22.224,20.088001,8.400001,concentric,4,3.0,25689.0,154845.0,239461.0,286859.0,267670.0
2026-04-08 21:52:47.377356,274682,1609504339604404,1939570678,0.909632,0.081984,-0.056608,19.005,-1.3825,-21.74375,-22.224,20.088001,8.400001,concentric,4,3.0,25689.0,154845.0,239461.0,286859.0,267670.0
2026-04-08 21:52:47.408532,274683,1609504339618895,1939585573,0.876448,0.081984,-0.0488,20.0725,-0.105,-22.95125,-22.568,19.952002,7.536,concentric,4,3.0,25689.0,154845.0,239461.0,286859.0,267670.0
2026-04-08 21:52:47.410784,274684,1609504339627806,1939594235,0.876448,0.081984,-0.0488,17.053751,0.95375,-23.68625,-22.568,19.952002,7.536,concentric,4,3.0,25689.0,154845.0,239461.0,286859.0,267670.0
2026-04-08 21:52:47.415328,274685,1609504339636726,1939602885,1.009184,0.111264,0.007808,10.26375,0.51625,-23.19625,-22.296001,19.592001,6.68,concentric,4,3.0,25689.0,154845.0,239461.0,286859.0,267670.0
2026-04-08 21:52:47.443745,274686,1609504339651233,1939617789,1.009184,0.111264,0.007808,7.07,0.16625,-21.56,-22.296001,19.592001,6.68,concentric,4,3.0,25689.0,154845.0,239461.0,286859.0,267670.0
2026-04-08 21:52:47.452160,274687,1609504339660149,1939626484,0.974048,0.109312,-0.003904,13.76375,2.54625,-19.59125,-23.008001,19.824001,7.712,concentric,4,3.0,25689.0,154845.0,239461.0,286859.0,267670.0
2026-04-08 21:52:47.479635,274698,1609504339674674,1939641376,0.905728,0.103456,0.052704,17.9025,4.94375,-17.325,-22.752,19.696001,8.608001,concentric,4,3.0,26247.0,156153.0,240119.0,287157.0,267804.0
2026-04-08 21:52:47.481064,274699,1609504339683704,1939650162,0.905728,0.103456,0.052704,13.20375,5.0575,-14.58625,-22.752,19.696001,8.608001,concentric,4,3.0,26247.0,156153.0,240119.0,287157.0,267804.0
2026-04-08 21:52:47.485346,274700,1609504339698347,1939665076,0.98576,0.076128,0.015616,6.3,3.71,-11.261251,-23.216002,19.656,7.488,concentric,4,3.0,26247.0,156153.0,240119.0,287157.0,267804.0
2026-04-08 21:52:47.487048,274701,1609504339707424,1939673827,0.98576,0.076128,0.015616,0.07875,2.2575,-9.59,-23.216002,19.656,7.488,concentric,4,3.0,26247.0,156153.0,240119.0,287157.0,267804.0
2026-04-08 21:52:47.488580,274702,1609504339716364,1939682536,0.976,0.054656,0.03904,-2.87875,2.30125,-9.38,-23.032001,19.456001,8.096001,concentric,4,3.0,26247.0,156153.0,240119.0,287157.0,267804.0
2026-04-08 21:52:47.519627,274703,1609504339730864,1939697525,0.976,0.054656,0.03904,-0.7875,3.31625,-10.465,-23.032001,19.456001,8.096001,concentric,4,3.0,26247.0,156153.0,240119.0,287157.0,267804.0
2026-04-08 21:52:47.521909,274704,1609504339739797,1939706189,0.843264,0.060512,-0.154208,1.0675,4.4275,-12.06625,-23.312,19.592001,6.992,concentric,4,3.0,26247.0,156153.0,240119.0,287157.0,267804.0
2026-04-08 21:52:47.528930,274705,1609504339754265,1939721022,0.843264,0.060512,-0.148352,2.24875,5.06625,-13.195,-23.312,19.592001,6.992,concentric,4,3.0,26247.0,156153.0,240119.0,287157.0,267804.0
2026-04-08 21:52:47.557541,274706,1609504339763186,1939729751,0.874496,0.111264,-0.148352,2.61625,3.89375,-13.97375,-23.560001,19.416,6.712,concentric,4,3.0,26247.0,156153.0,240119.0,287157.0,267804.0
2026-04-08 21:52:47.587098,274717,1609504339777690,1939744657,0.979904,0.115168,0.0488,0.79625,3.42125,-13.55375,-23.184002,19.456001,6.928001,concentric,4,3.0,26257.0,156330.0,240492.0,287391.0,267939.0
2026-04-08 21:52:47.588650,274718,1609504339786639,1939753318,0.979904,0.115168,0.0488,-1.86375,2.94,-13.545,-23.184002,19.456001,6.928001,concentric,4,3.0,26257.0,156330.0,240492.0,287391.0,267939.0
2026-04-08 21:52:47.592874,274719,1609504339795590,1939762049,0.866688,0.111264,-0.023424,-4.34875,2.9225,-12.81875,-23.456001,19.192001,7.152,concentric,4,3.0,26257.0,156330.0,240492.0,287391.0,267939.0
2026-04-08 21:52:47.594573,274720,1609504339810143,1939777007,0.866688,0.111264,-0.023424,-6.72,3.26375,-11.7075,-23.456001,19.192001,7.152,concentric,4,3.0,26257.0,156330.0,240492.0,287391.0,267939.0
2026-04-08 21:52:47.596173,274721,1609504339819095,1939785740,0.845216,0.105408,-0.181536,-8.26875,3.535,-10.6225,-23.464,18.880001,8.216001,concentric,4,3.0,26257.0,156330.0,240492.0,287391.0,267939.0
2026-04-08 21:52:47.656049,274722,1609504339833591,1939800615,0.845216,0.105408,-0.181536,-6.7025,3.115,-9.24875,-23.464,18.880001,8.216001,concentric,4,3.0,26257.0,156330.0,240492.0,287391.0,267939.0
2026-04-08 21:52:47.657456,274723,1609504339842503,1939809284,0.866688,0.148352,-0.203008,-1.12,1.9425,-6.71125,-23.808,18.896002,8.568001,concentric,4,3.0,26257.0,156330.0,240492.0,287391.0,267939.0
2026-04-08 21:52:47.662179,274724,1609504339851415,1939817924,0.866688,0.148352,-0.203008,3.08875,1.40875,-5.45125,-23.808,18.896002,8.568001,concentric,4,3.0,26257.0,156330.0,240492.0,287391.0,267939.0
2026-04-08 21:52:47.695484,274735,1609504339866109,1939833285,0.948672,0.124928,0.0488,3.73625,2.52875,-6.79,-24.096,18.952002,6.968,concentric,4,3.0,26151.0,156100.0,240587.0,287502.0,268001.0
2026-04-08 21:52:47.697111,274736,1609504339875076,1939841947,0.948672,0.124928,-0.181536,-1.995,2.59875,-7.41125,-24.096,18.952002,6.968,concentric,4,3.0,26151.0,156100.0,240587.0,287502.0,268001.0
2026-04-08 21:52:47.698659,274737,1609504339889578,1939854764,0.901824,0.064416,-0.181536,-11.1125,2.5725,-6.69375,-23.672,18.968,8.360001,concentric,4,3.0,26151.0,156100.0,240587.0,287502.0,268001.0
2026-04-08 21:52:47.703039,274738,1609504339898759,1939865525,0.874496,0.10736,-0.128832,-16.37125,1.98625,-5.90625,-23.840002,19.096,7.072001,concentric,4,3.0,26151.0,156100.0,240587.0,287502.0,268001.0
2026-04-08 21:52:47.704568,274739,1609504339913318,1939880438,0.874496,0.10736,-0.128832,-14.175,2.40625,-6.09,-23.840002,19.096,7.072001,concentric,4,3.0,26151.0,156100.0,240587.0,287502.0,268001.0
2026-04-08 21:52:47.706130,274740,1609504339922386,1939889116,0.866688,0.101504,-0.03904,-6.7375,3.89375,-7.4025,-23.704,19.136002,7.408001,concentric,4,3.0,26151.0,156100.0,240587.0,287502.0,268001.0
2026-04-08 21:52:47.714023,274741,1609504339931293,1939897773,0.866688,0.101504,-0.03904,-1.39125,3.4125,-9.1175,-23.704,19.136002,7.408001,concentric,4,3.0,26151.0,156100.0,240587.0,287502.0,268001.0
2026-04-08 21:52:47.718099,274742,1609504339945779,1939912667,0.964288,0.072224,-0.05856,-0.455,2.3275,-9.905,-23.864,19.208,7.272,concentric,4,3.0,26151.0,156100.0,240587.0,287502.0,268001.0
2026-04-08 21:52:47.727785,274743,1609504339954727,1939921340,0.964288,0.072224,-0.05856,-1.77625,1.30375,-10.5,-23.864,19.208,7.272,concentric,4,3.0,26151.0,156100.0,240587.0,287502.0,268001.0
2026-04-08 21:52:47.783406,274754,1609504339969845,1939936247,0.96624,0.169824,0.03904,-2.31875,0.525,-10.63125,-24.488,18.952002,6.568,concentric,4,3.0,26426.0,156917.0,241165.0,287737.0,268049.0
2026-04-08 21:52:47.785009,274755,1609504339978801,1939944931,1.0248,0.152256,0.052704,-1.33,1.1725,-10.22875,-24.624,18.896002,7.304,concentric,4,3.0,26426.0,156917.0,241165.0,287737.0,268049.0
2026-04-08 21:52:47.789435,274756,1609504339987734,1939953628,1.0248,0.152256,0.052704,-0.27125,2.625,-10.57875,-24.624,18.896002,7.304,concentric,4,3.0,26426.0,156917.0,241165.0,287737.0,268049.0
2026-04-08 21:52:47.793124,274757,1609504340002310,1939968527,1.042368,0.115168,0.00976,-0.60375,3.14125,-10.0275,-24.912,19.016,7.792,concentric,4,3.0,26426.0,156917.0,241165.0,287737.0,268049.0
2026-04-08 21:52:47.793204,274758,1609504340011282,1939977196,1.042368,0.115168,0.00976,-3.89375,2.975,-9.8525,-24.912,19.016,7.792,concentric,4,3.0,26426.0,156917.0,241165.0,287737.0,268049.0
2026-04-08 21:52:47.797707,274759,1609504340025730,1939992131,0.964288,0.134688,-0.0488,-3.7975,3.38625,-10.15875,-24.776001,18.888,7.968,concentric,4,3.0,26426.0,156917.0,241165.0,287737.0,268049.0
2026-04-08 21:52:47.826341,274760,1609504340034663,1940000818,0.964288,0.134688,-0.0488,-2.52875,3.64875,-8.7675,-24.776001,18.888,7.968,concentric,4,3.0,26426.0,156917.0,241165.0,287737.0,268049.0
2026-04-08 21:52:47.830792,274761,1609504340049140,1940015695,1.003328,0.171776,-0.12688,-5.64375,3.8325,-6.755,-24.632002,18.832,8.160001,concentric,4,3.0,26426.0,156917.0,241165.0,287737.0,268049.0
2026-04-08 21:52:47.832359,274762,1609504340058054,1940024362,0.954528,0.242048,-0.056608,-10.01875,3.01875,-7.00875,-24.968,19.0,6.136,concentric,4,3.0,26426.0,156917.0,241165.0,287737.0,268049.0
2026-04-08 21:52:47.864864,274773,1609504340067181,1940033037,0.954528,0.242048,-0.056608,-13.72,1.91625,-7.8225,-24.968,19.0,6.136,concentric,4,3.0,26942.0,158512.0,242477.0,288542.0,268504.0
2026-04-08 21:52:47.871205,274774,1609504340081760,1940048078,1.013088,0.183488,0.132736,-19.678751,1.5925,-6.57125,-24.68,18.832,6.832,concentric,4,3.0,26942.0,158512.0,242477.0,288542.0,268504.0
2026-04-08 21:52:47.873196,274775,1609504340090757,1940056755,1.013088,0.183488,0.132736,-24.29875,1.1375,-3.82375,-24.68,18.832,6.832,concentric,4,3.0,26942.0,158512.0,242477.0,288542.0,268504.0
2026-04-08 21:52:47.937343,274776,1609504340105243,1940071683,1.052128,0.089792,0.113216,-29.085001,-0.00875,-2.1875,-24.776001,19.336,6.848001,concentric,4,3.0,26942.0,158512.0,242477.0,288542.0,268504.0
2026-04-08 21:52:47.939535,274777,1609504340114177,1940080368,1.052128,0.089792,0.113216,-28.8925,-1.30375,-3.99,-24.776001,19.336,6.848001,concentric,4,3.0,26942.0,158512.0,242477.0,288542.0,268504.0
2026-04-08 21:52:47.944142,274778,1609504340128664,1940095250,0.989664,0.03904,-0.113216,-19.34625,-1.3825,-5.27625,-24.992,19.144001,6.992,concentric,4,3.0,26942.0,158512.0,242477.0,288542.0,268504.0
2026-04-08 21:52:47.947316,274779,1609504340137589,1940103914,0.925248,0.132736,-0.056608,-7.7525,-1.21625,-7.8925,-25.648,18.624,7.776001,concentric,4,3.0,26942.0,158512.0,242477.0,288542.0,268504.0
2026-04-08 21:52:47.950557,274780,1609504340146528,1940112573,0.925248,0.132736,-0.056608,-1.6625,-1.51375,-10.99,-25.648,18.624,7.776001,concentric,4,3.0,26942.0,158512.0,242477.0,288542.0,268504.0
2026-04-08 21:52:47.951829,274781,1609504340161010,1940127419,0.960384,0.203008,-0.169824,3.12375,-1.5575,-11.85625,-25.52,18.36,6.728,concentric,4,3.0,26942.0,158512.0,242477.0,288542.0,268504.0
2026-04-08 21:52:47.979182,274792,1609504340170368,1940136088,0.960384,0.203008,-0.169824,7.5775,-1.30375,-11.41,-25.52,18.36,6.728,concentric,4,3.0,26830.0,157823.0,241594.0,287834.0,268039.0
2026-04-08 21:52:47.980844,274793,1609504340184889,1940151077,1.030656,0.230336,0.103456,7.805,-1.09375,-11.50625,-25.464,18.168001,8.52,concentric,4,3.0,26830.0,157823.0,241594.0,287834.0,268039.0
2026-04-08 21:52:47.982426,274794,1609504340193892,1940159812,1.030656,0.230336,0.103456,9.0125,0.00875,-11.17375,-25.464,18.168001,8.52,concentric,4,3.0,26830.0,157823.0,241594.0,287834.0,268039.0
2026-04-08 21:52:47.986605,274795,1609504340202831,1940168528,1.022848,0.150304,-0.033184,7.91,0.13125,-9.87,-25.432001,18.296001,7.016,concentric,4,3.0,26830.0,157823.0,241594.0,287834.0,268039.0
2026-04-08 21:52:47.989512,274796,1609504340217319,1940183387,1.022848,0.150304,0.062464,4.095,-0.0875,-9.31,-25.432001,18.296001,7.016,concentric,4,3.0,26830.0,157823.0,241594.0,287834.0,268039.0
2026-04-08 21:52:48.021026,274797,1609504340226328,1940192067,1.089216,0.15616,0.062464,-2.0825,-0.98875,-7.945,-25.448002,18.584002,7.024,concentric,4,3.0,26830.0,157823.0,241594.0,287834.0,268039.0
2026-04-08 21:52:48.026843,274798,1609504340240774,1940206899,0.999424,0.218624,-0.13664,-3.7625,-1.4875,-6.65,-25.448002,18.688002,7.056,concentric,4,3.0,26830.0,157823.0,241594.0,287834.0,268039.0
2026-04-08 21:52:48.029349,274799,1609504340249668,1940215612,0.999424,0.218624,-0.13664,0.04375,-0.18375,-7.00875,-25.448002,18.688002,7.056,concentric,4,3.0,26830.0,157823.0,241594.0,287834.0,268039.0
2026-04-08 21:52:48.057424,274800,1609504340264213,1940230458,1.009184,0.22448,0.007808,2.12625,1.42625,-7.595,-25.808,18.36,7.136,concentric,4,3.0,26830.0,157823.0,241594.0,287834.0,268039.0
