pc_time,serial_num,sensor_ts,host_ts,ax,ay,az,gx,gy,gz,mx,my,mz,phase,rpe,weight_kg,ppg_a,ppg_b,ppg_c,ppg_d,ppg_e
2026-04-08 21:52:53.350375,275795,1609504345502470,1945468977,0.964288,0.064416,-0.152256,7.98,-3.5525,-7.84875,-27.296001,20.152,7.408001,eccentric,4,3.0,23596.0,150475.0,237502.0,286220.0,267480.0
2026-04-08 21:52:53.352092,275796,1609504345516945,1945483819,0.892064,0.181536,-0.054656,14.65625,-3.40375,-9.70375,-27.52,19.560001,5.24,eccentric,4,3.0,23596.0,150475.0,237502.0,286220.0,267480.0
2026-04-08 21:52:53.354493,275797,1609504345525846,1945492542,0.892064,0.181536,-0.054656,15.3475,-4.41,-12.9675,-27.52,19.560001,5.24,eccentric,4,3.0,23596.0,150475.0,237502.0,286220.0,267480.0
2026-04-08 21:52:53.356115,275798,1609504345534840,1945501255,1.040416,0.080032,-0.220576,11.480001,-5.32,-15.91625,-27.624,19.560001,5.528,eccentric,4,3.0,23596.0,150475.0,237502.0,286220.0,267480.0
2026-04-08 21:52:53.360409,275799,1609504345549342,1945516149,1.040416,0.080032,-0.220576,17.01,-5.10125,-8.19,-27.624,19.560001,5.528,eccentric,4,3.0,23596.0,150475.0,237502.0,286220.0,267480.0
2026-04-08 21:52:53.362063,275800,1609504345558295,1945524813,1.087264,0.109312,0.054656,22.575,-3.6925,-4.85625,-27.816002,19.624,5.832,eccentric,4,3.0,23596.0,150475.0,237502.0,286220.0,267480.0
2026-04-08 21:52:53.363657,275801,1609504345572760,1945539706,0.919392,0.22448,0.02928,24.94625,-1.49625,-8.86375,-27.920002,19.752,7.336,eccentric,4,3.0,23596.0,150475.0,237502.0,286220.0,267480.0
2026-04-08 21:52:53.367698,275802,1609504345581690,1945548416,0.919392,0.22448,0.02928,25.38375,0.0175,-8.75875,-27.920002,19.752,7.336,eccentric,4,3.0,23596.0,150475.0,237502.0,286220.0,267480.0
2026-04-08 21:52:53.397350,275813,1609504345596229,1945563380,0.90768,0.251808,-0.187392,19.62625,-1.4525,-3.61375,-28.28,19.872002,7.04,eccentric,4,3.0,23565.0,150244.0,237324.0,286197.0,267461.0
2026-04-08 21:52:53.401610,275814,1609504345605694,1945572214,0.90768,0.251808,-0.187392,11.17375,-2.73875,0.315,-28.28,19.872002,7.04,eccentric,4,3.0,23565.0,150244.0,237324.0,286197.0,267461.0
2026-04-08 21:52:53.403271,275815,1609504345614682,1945580949,0.950624,0.111264,-0.179584,2.135,-3.92875,1.7675,-28.176,19.512001,6.696,eccentric,4,3.0,23565.0,150244.0,237324.0,286197.0,267461.0
2026-04-08 21:52:53.404938,275816,1609504345629202,1945595842,0.950624,0.111264,-0.179584,-5.8625,-5.39,0.81375,-28.176,19.512001,6.696,eccentric,4,3.0,23565.0,150244.0,237324.0,286197.0,267461.0
2026-04-08 21:52:53.411485,275817,1609504345638145,1945604518,1.104832,-0.02928,-0.01952,-7.65625,-7.04375,-2.7475,-28.536001,19.720001,6.576,eccentric,4,3.0,23565.0,150244.0,237324.0,286197.0,267461.0
2026-04-08 21:52:53.440072,275818,1609504345652629,1945619437,1.011136,0.027328,-0.152256,-2.8,-7.2275,-8.88125,-28.536001,19.720001,6.848001,eccentric,4,3.0,23565.0,150244.0,237324.0,286197.0,267461.0
2026-04-08 21:52:53.444589,275819,1609504345661535,1945628099,1.009184,0.027328,-0.152256,3.85,-5.11875,-9.66875,-28.664001,18.936,6.848001,eccentric,4,3.0,23565.0,150244.0,237324.0,286197.0,267461.0
2026-04-08 21:52:53.446157,275820,1609504345670454,1945636811,1.009184,0.027328,-0.152256,11.52375,-3.75375,-4.76875,-28.664001,18.936,6.848001,eccentric,4,3.0,23565.0,150244.0,237324.0,286197.0,267461.0
2026-04-08 21:52:53.477227,275821,1609504345684943,1945651677,0.93696,0.228384,-0.017568,18.5325,-4.2,-3.395,-28.656002,19.616001,6.616,eccentric,4,3.0,23565.0,150244.0,237324.0,286197.0,267461.0
2026-04-08 21:52:53.481724,275822,1609504345693911,1945660352,1.059936,0.16592,-0.033184,20.2825,-5.04875,-6.16,-28.488,19.512001,5.272,eccentric,4,3.0,23565.0,150244.0,237324.0,286197.0,267461.0
2026-04-08 21:52:53.507414,275833,1609504345708422,1945675200,1.059936,0.16592,-0.033184,15.8025,-6.20375,-8.3125,-28.488,19.512001,5.272,eccentric,4,3.0,23759.0,150842.0,237740.0,286311.0,267458.0
2026-04-08 21:52:53.514121,275834,1609504345717323,1945683876,1.057984,0.074176,-0.103456,7.35,-6.79,-9.03,-28.872002,19.016,6.776001,eccentric,4,3.0,23759.0,150842.0,237740.0,286311.0,267458.0
2026-04-08 21:52:53.515862,275835,1609504345731902,1945698780,1.057984,0.074176,-0.103456,2.6075,-4.55875,-9.345,-28.872002,19.016,6.776001,eccentric,4,3.0,23759.0,150842.0,237740.0,286311.0,267458.0
2026-04-08 21:52:53.517388,275836,1609504345740838,1945707463,1.0248,0.13664,-0.142496,1.4,-2.63375,-6.9125,-29.240002,19.192001,8.032001,eccentric,4,3.0,23759.0,150842.0,237740.0,286311.0,267458.0
2026-04-08 21:52:53.525229,275837,1609504345749752,1945716176,1.0248,0.13664,-0.142496,4.85625,-2.28375,-3.71875,-29.240002,19.192001,8.032001,eccentric,4,3.0,23759.0,150842.0,237740.0,286311.0,267458.0
2026-04-08 21:52:53.556737,275838,1609504345764219,1945731036,1.089216,0.199104,0.015616,8.75875,-2.4325,-2.1525,-29.36,19.024,8.024,eccentric,4,3.0,23759.0,150842.0,237740.0,286311.0,267458.0
2026-04-08 21:52:53.558283,275839,1609504345773137,1945739723,1.089216,0.13664,-0.173728,7.32375,-3.12375,-2.24875,-29.36,19.024,8.024,eccentric,4,3.0,23759.0,150842.0,237740.0,286311.0,267458.0
2026-04-08 21:52:53.559896,275840,1609504345787621,1945754587,1.040416,0.134688,-0.173728,3.0275,-3.05375,-3.71,-29.112001,19.232,5.520001,eccentric,4,3.0,23759.0,150842.0,237740.0,286311.0,267458.0
2026-04-08 21:52:53.648594,275851,1609504345796610,1945763377,1.139968,0.08784,0.081984,3.0975,-3.40375,-5.60875,-29.28,19.184,7.296001,eccentric,4,3.0,24068.0,151644.0,238184.0,286363.0,267411.0
2026-04-08 21:52:53.651025,275852,1609504345811109,1945776252,1.139968,0.08784,0.081984,6.20375,-3.29875,-6.20375,-29.28,19.184,7.296001,eccentric,4,3.0,24068.0,151644.0,238184.0,286363.0,267411.0
2026-04-08 21:52:53.653605,275853,1609504345820229,1945787004,1.059936,0.17568,0.00976,10.185,-2.17875,-5.10125,-29.184002,18.864,5.816001,eccentric,4,3.0,24068.0,151644.0,238184.0,286363.0,267411.0
2026-04-08 21:52:53.656062,275854,1609504345829147,1945795660,1.059936,0.17568,0.00976,17.38625,-1.61875,-2.45,-29.184002,18.864,5.816001,eccentric,4,3.0,24068.0,151644.0,238184.0,286363.0,267411.0
2026-04-08 21:52:53.658569,275855,1609504345843658,1945810530,1.038464,0.236192,-0.040992,18.0775,-1.42625,-0.945,-29.064001,19.064001,7.344,eccentric,4,3.0,24068.0,151644.0,238184.0,286363.0,267411.0
2026-04-08 21:52:53.661076,275856,1609504345852585,1945819208,1.038464,0.236192,-0.040992,11.4975,-1.74125,-1.96875,-29.064001,19.064001,7.344,eccentric,4,3.0,24068.0,151644.0,238184.0,286363.0,267411.0
2026-04-08 21:52:53.663590,275857,1609504345867064,1945834060,1.124352,0.1464,-0.144448,4.89125,-1.39125,-3.395,-29.104002,18.744001,5.304,eccentric,4,3.0,24068.0,151644.0,238184.0,286363.0,267411.0
2026-04-08 21:52:53.666090,275858,1609504345875993,1945842732,1.167296,0.113216,-0.105408,1.89,-0.09625,-4.06875,-29.224,18.624,8.064,eccentric,4,3.0,24068.0,151644.0,238184.0,286363.0,267411.0
2026-04-08 21:52:53.668548,275859,1609504345890541,1945857614,1.167296,0.113216,-0.105408,1.39125,1.61,-3.22875,-29.224,18.624,8.064,eccentric,4,3.0,24068.0,151644.0,238184.0,286363.0,267411.0
2026-04-08 21:52:53.696174,275870,1609504345899532,1945866392,1.048224,0.25376,-0.122976,2.52,3.07125,-1.07625,-28.888,19.008001,7.24,eccentric,4,3.0,24596.0,153034.0,239241.0,287058.0,267788.0
2026-04-08 21:52:53.702331,275871,1609504345908545,1945875068,1.048224,0.25376,-0.122976,5.73125,3.14125,1.435,-28.888,19.008001,7.24,eccentric,4,3.0,24596.0,153034.0,239241.0,287058.0,267788.0
2026-04-08 21:52:53.706971,275872,1609504345923042,1945889982,1.149728,0.232288,0.042944,6.8425,3.4125,2.2925,-29.304,19.072,7.904,eccentric,4,3.0,24596.0,153034.0,239241.0,287058.0,267788.0
2026-04-08 21:52:53.710195,275873,1609504345931988,1945898714,1.149728,0.232288,0.042944,2.51125,2.94,2.98375,-29.304,19.072,7.904,eccentric,4,3.0,24596.0,153034.0,239241.0,287058.0,267788.0
2026-04-08 21:52:53.737611,275874,1609504345946471,1945913595,1.065792,0.162016,-0.142496,-3.21125,3.0975,3.255,-28.816002,18.848001,8.384001,eccentric,4,3.0,24596.0,153034.0,239241.0,287058.0,267788.0
2026-04-08 21:52:53.741107,275875,1609504345955399,1945922291,1.036512,0.115168,-0.18544,-4.2175,4.585,2.9575,-28.888,19.048,5.904,eccentric,4,3.0,24596.0,153034.0,239241.0,287058.0,267788.0
2026-04-08 21:52:53.743637,275876,1609504345969869,1945935104,1.036512,0.115168,-0.18544,-1.2075,5.01375,3.82375,-28.888,19.048,5.904,eccentric,4,3.0,24596.0,153034.0,239241.0,287058.0,267788.0
2026-04-08 21:52:53.773776,275877,1609504345979091,1945945827,1.08336,0.1464,-0.193248,2.28375,4.92625,3.955,-28.672,19.128,7.776001,eccentric,4,3.0,24596.0,153034.0,239241.0,287058.0,267788.0
2026-04-08 21:52:53.777373,275878,1609504345988023,1945954489,1.08336,0.1464,-0.193248,4.515,4.69,3.12375,-28.672,19.128,7.776001,eccentric,4,3.0,24596.0,153034.0,239241.0,287058.0,267788.0
2026-04-08 21:52:53.812353,275889,1609504346002623,1945969397,1.128256,0.179584,0.027328,7.8925,4.585,1.785,-28.416002,18.904001,6.624001,eccentric,4,3.0,24463.0,152596.0,238914.0,286808.0,267690.0
2026-04-08 21:52:53.814832,275890,1609504346011585,1945978182,1.128256,0.179584,0.027328,7.8225,4.59375,0.2625,-28.416002,18.904001,6.624001,eccentric,4,3.0,24463.0,152596.0,238914.0,286808.0,267690.0
2026-04-08 21:52:53.817320,275891,1609504346026216,1945993111,1.104832,0.13664,-0.158112,4.8125,4.99625,-0.77,-28.256,19.328001,7.272,eccentric,4,3.0,24463.0,152596.0,238914.0,286808.0,267690.0
2026-04-08 21:52:53.819815,275892,1609504346035180,1946001823,1.011136,0.179584,-0.181536,4.865,6.02875,0.62125,-28.256,19.328001,5.968,eccentric,4,3.0,24463.0,152596.0,238914.0,286808.0,267690.0
2026-04-08 21:52:53.822307,275893,1609504346044130,1946010537,0.999424,0.179584,-0.181536,3.7625,6.25625,2.73875,-27.848001,18.960001,5.968,eccentric,4,3.0,24463.0,152596.0,238914.0,286808.0,267690.0
2026-04-08 21:52:53.852607,275894,1609504346058660,1946025411,1.098976,0.13664,-0.167872,2.10875,6.04625,3.9025,-28.104002,18.864,7.896,eccentric,4,3.0,24463.0,152596.0,238914.0,286808.0,267690.0
2026-04-08 21:52:53.856082,275895,1609504346067593,1946034149,1.098976,0.13664,-0.167872,2.91375,4.82125,4.05125,-28.104002,18.864,7.896,eccentric,4,3.0,24463.0,152596.0,238914.0,286808.0,267690.0
2026-04-08 21:52:53.858596,275896,1609504346082073,1946049013,1.134112,0.130784,0.064416,1.89,4.43625,3.78875,-27.576002,19.216002,6.984,eccentric,4,3.0,24463.0,152596.0,238914.0,286808.0,267690.0
2026-04-08 21:52:53.863087,275897,1609504346090961,1946057655,1.134112,0.130784,0.064416,0.315,3.42125,2.72125,-27.576002,19.216002,6.984,eccentric,4,3.0,24463.0,152596.0,238914.0,286808.0,267690.0
2026-04-08 21:52:53.952009,275908,1609504346105580,1946070866,1.139968,0.081984,0.02928,4.9,3.47375,1.575,-26.928001,19.416,7.12,eccentric,4,3.0,24259.0,151975.0,238440.0,286516.0,267519.0
2026-04-08 21:52:53.953838,275909,1609504346114990,1946081623,1.139968,0.081984,0.02928,10.29875,4.22625,1.98625,-26.928001,19.416,7.12,eccentric,4,3.0,24259.0,151975.0,238440.0,286516.0,267519.0
2026-04-08 21:52:53.956053,275910,1609504346124008,1946090285,1.016992,0.140544,-0.183488,13.011251,4.19125,2.82625,-27.248001,19.064001,6.16,eccentric,4,3.0,24259.0,151975.0,238440.0,286516.0,267519.0
2026-04-08 21:52:53.958485,275911,1609504346138500,1946105162,1.079456,0.163968,-0.203008,12.18,3.395,4.08625,-26.696001,18.648,7.456,eccentric,4,3.0,24259.0,151975.0,238440.0,286516.0,267519.0
2026-04-08 21:52:53.961087,275912,1609504346147423,1946113829,1.079456,0.163968,-0.203008,11.3225,3.0275,4.97875,-26.696001,18.648,7.456,eccentric,4,3.0,24259.0,151975.0,238440.0,286516.0,267519.0
2026-04-08 21:52:53.963619,275913,1609504346161917,1946128708,1.05408,0.167872,0.03904,10.815,3.36875,5.34625,-26.768002,18.968,7.672,eccentric,4,3.0,24259.0,151975.0,238440.0,286516.0,267519.0
2026-04-08 21:52:53.966073,275914,1609504346170811,1946137348,1.05408,0.167872,0.03904,8.7325,3.5175,5.20625,-26.768002,18.968,7.672,eccentric,4,3.0,24259.0,151975.0,238440.0,286516.0,267519.0
2026-04-08 21:52:53.968564,275915,1609504346179739,1946146022,1.061888,0.109312,-0.003904,6.06375,3.6925,6.0025,-26.216002,18.952002,7.616,eccentric,4,3.0,24259.0,151975.0,238440.0,286516.0,267519.0
2026-04-08 21:52:53.971055,275916,1609504346194253,1946160951,1.061888,0.109312,-0.003904,1.16375,3.59625,7.13125,-26.216002,18.952002,7.616,eccentric,4,3.0,24259.0,151975.0,238440.0,286516.0,267519.0
2026-04-08 21:52:53.998550,275927,1609504346203438,1946169705,0.976,0.105408,-0.21472,-2.7125,4.025,8.82,-26.032001,19.328001,6.68,eccentric,4,3.0,24335.0,152259.0,238686.0,286819.0,267767.0
2026-04-08 21:52:54.001042,275928,1609504346218145,1946184682,0.96624,0.121024,-0.144448,-3.675,4.15625,9.38875,-25.704,19.464,7.984,eccentric,4,3.0,24335.0,152259.0,238686.0,286819.0,267767.0
2026-04-08 21:52:54.003571,275929,1609504346227152,1946193423,0.96624,0.121024,-0.144448,-4.20875,3.395,9.8875,-25.704,19.464,7.984,eccentric,4,3.0,24335.0,152259.0,238686.0,286819.0,267767.0
2026-04-08 21:52:54.036315,275930,1609504346241651,1946208323,0.99552,0.080032,-0.105408,-2.8175,3.08,10.01875,-25.632002,19.560001,8.544001,eccentric,4,3.0,24335.0,152259.0,238686.0,286819.0,267767.0
2026-04-08 21:52:54.039832,275931,1609504346250548,1946216964,0.99552,0.080032,-0.105408,1.8025,3.49125,10.045,-25.632002,19.560001,8.544001,eccentric,4,3.0,24335.0,152259.0,238686.0,286819.0,267767.0
2026-04-08 21:52:54.042356,275932,1609504346259471,1946225630,0.976,0.10736,0.05856,5.08375,4.1475,11.41875,-25.36,19.328001,7.904,eccentric,4,3.0,24335.0,152259.0,238686.0,286819.0,267767.0
2026-04-08 21:52:54.044802,275933,1609504346273933,1946240511,0.976,0.10736,0.05856,2.8,4.0425,12.95875,-25.36,19.328001,7.904,eccentric,4,3.0,24335.0,152259.0,238686.0,286819.0,267767.0
2026-04-08 21:52:54.078794,275934,1609504346282858,1946249202,0.977952,0.070272,-0.15616,-3.15,3.465,14.20125,-24.696001,19.976002,7.792,eccentric,4,3.0,24335.0,152259.0,238686.0,286819.0,267767.0
2026-04-08 21:52:54.082435,275935,1609504346297341,1946264055,0.98576,0.06832,-0.216672,-11.34875,2.1875,16.2575,-24.624,19.792002,7.256001,eccentric,4,3.0,24335.0,152259.0,238686.0,286819.0,267767.0
2026-04-08 21:52:54.110651,275946,1609504346306276,1946272754,0.98576,0.06832,-0.216672,-13.37875,0.62125,16.89625,-24.624,19.792002,7.256001,eccentric,4,3.0,24653.0,153445.0,239617.0,287467.0,268152.0
2026-04-08 21:52:54.112650,275947,1609504346320941,1946287661,0.974048,0.044896,0.025376,-5.48625,-0.7175,16.40625,-24.28,19.84,7.576,eccentric,4,3.0,24653.0,153445.0,239617.0,287467.0,268152.0
2026-04-08 21:52:54.114816,275948,1609504346329893,1946296323,0.974048,0.044896,0.025376,5.8625,-1.35625,15.21625,-24.28,19.84,7.576,eccentric,4,3.0,24653.0,153445.0,239617.0,287467.0,268152.0
2026-04-08 21:52:54.117339,275949,1609504346338976,1946305111,0.882304,0.017568,-0.103456,11.19125,-0.8575,15.225,-23.704,20.032001,7.552001,eccentric,4,3.0,24653.0,153445.0,239617.0,287467.0,268152.0
2026-04-08 21:52:54.147497,275950,1609504346353460,1946320060,0.882304,0.017568,-0.103456,6.23875,-1.5575,16.9925,-23.704,20.032001,7.552001,eccentric,4,3.0,24653.0,153445.0,239617.0,287467.0,268152.0
2026-04-08 21:52:54.151048,275951,1609504346362358,1946328730,0.886208,0.080032,-0.001952,1.07625,-3.45625,19.2325,-23.904001,20.0,7.56,eccentric,4,3.0,24653.0,153445.0,239617.0,287467.0,268152.0
2026-04-08 21:52:54.153587,275952,1609504346376889,1946343571,0.886208,0.080032,0.040992,-0.62125,-6.2475,20.04625,-23.904001,20.0,7.56,eccentric,4,3.0,24653.0,153445.0,239617.0,287467.0,268152.0
2026-04-08 21:52:54.158588,275953,1609504346385837,1946352233,0.88816,0.060512,0.040992,2.21375,-7.525,18.76,-23.608002,20.312,9.272,eccentric,4,3.0,24653.0,153445.0,239617.0,287467.0,268152.0
2026-04-08 21:52:54.190058,275954,1609504346394835,1946361043,0.88816,0.060512,0.040992,4.90875,-8.155,15.89,-23.608002,20.312,9.272,eccentric,4,3.0,24653.0,153445.0,239617.0,287467.0,268152.0
2026-04-08 21:52:54.249845,275965,1609504346409649,1946376401,0.845216,0.003904,-0.10736,7.0525,-8.09375,13.9475,-23.496,20.456001,7.784,eccentric,4,3.0,24117.0,152280.0,239401.0,287736.0,268455.0
2026-04-08 21:52:54.252441,275966,1609504346418555,1946385060,0.825696,0.017568,-0.099552,10.885,-7.385,14.62125,-22.888,20.272001,9.208,eccentric,4,3.0,24117.0,152280.0,239401.0,287736.0,268455.0
2026-04-08 21:52:54.254868,275967,1609504346433060,1946399941,0.825696,0.017568,-0.099552,12.04875,-6.62375,15.47,-22.888,20.272001,9.208,eccentric,4,3.0,24117.0,152280.0,239401.0,287736.0,268455.0
2026-04-08 21:52:54.257314,275968,1609504346441973,1946408673,0.874496,0.035136,-0.07808,6.7725,-7.34125,15.93375,-22.912,20.408,8.752001,eccentric,4,3.0,24117.0,152280.0,239401.0,287736.0,268455.0
2026-04-08 21:52:54.259817,275969,1609504346456438,1946423533,0.874496,0.035136,-0.07808,0.11375,-7.60375,16.695,-22.912,20.408,8.752001,eccentric,4,3.0,24117.0,152280.0,239401.0,287736.0,268455.0
2026-04-08 21:52:54.263183,275970,1609504346465381,1946432182,0.876448,0.025376,-0.218624,-3.36,-6.39625,18.0775,-22.320002,20.696001,8.360001,eccentric,4,3.0,24117.0,152280.0,239401.0,287736.0,268455.0
2026-04-08 21:52:54.269296,275971,1609504346474438,1946440899,0.876448,0.025376,-0.218624,-6.50125,-4.865,16.03875,-22.320002,20.696001,8.360001,eccentric,4,3.0,24117.0,152280.0,239401.0,287736.0,268455.0
2026-04-08 21:52:54.272357,275972,1609504346488945,1946455807,0.837408,-0.003904,-0.17568,-8.39125,-3.3775,13.13375,-22.184002,20.496,7.976,eccentric,4,3.0,24117.0,152280.0,239401.0,287736.0,268455.0
2026-04-08 21:52:54.273017,275973,1609504346497878,1946464487,0.837408,-0.015616,-0.130784,-7.9275,-1.6625,10.5525,-22.184002,20.496,7.976,eccentric,4,3.0,24117.0,152280.0,239401.0,287736.0,268455.0
2026-04-08 21:52:54.299866,275984,1609504346512406,1946479419,0.804224,-0.015616,-0.130784,-9.63375,-0.02625,12.3375,-21.84,21.064001,9.568001,eccentric,4,3.0,24048.0,152151.0,239278.0,287750.0,268501.0
2026-04-08 21:52:54.302352,275985,1609504346521430,1946488120,0.83936,0.044896,-0.023424,-12.10125,0.74375,17.535,-21.640001,20.800001,9.536,eccentric,4,3.0,24048.0,152151.0,239278.0,287750.0,268501.0
2026-04-08 21:52:54.307296,275986,1609504346535927,1946503040,0.83936,0.044896,-0.023424,-14.035,0.74375,17.045,-21.640001,20.800001,9.536,eccentric,4,3.0,24048.0,152151.0,239278.0,287750.0,268501.0
2026-04-08 21:52:54.337738,275987,1609504346544858,1946511720,0.806176,0.040992,-0.017568,-15.6625,0.67375,11.3575,-21.496,20.824001,8.232,eccentric,4,3.0,24048.0,152151.0,239278.0,287750.0,268501.0
2026-04-08 21:52:54.341478,275988,1609504346553780,1946520389,0.806176,0.040992,-0.017568,-10.84125,1.19875,10.03625,-21.496,20.824001,8.232,eccentric,4,3.0,24048.0,152151.0,239278.0,287750.0,268501.0
2026-04-08 21:52:54.343629,275989,1609504346568312,1946535222,0.911584,0.015616,0.074176,-7.42875,0.7,13.79,-21.192001,20.92,7.448,eccentric,4,3.0,24048.0,152151.0,239278.0,287750.0,268501.0
2026-04-08 21:52:54.350007,275990,1609504346577260,1946543975,0.911584,0.015616,0.074176,-7.88375,-0.525,16.8175,-21.192001,20.92,7.448,eccentric,4,3.0,24048.0,152151.0,239278.0,287750.0,268501.0
2026-04-08 21:52:54.382571,275991,1609504346591738,1946558849,0.91744,0.011712,0.076128,-10.59625,-1.18125,15.82875,-20.928001,21.152,5.328,eccentric,4,3.0,24048.0,152151.0,239278.0,287750.0,268501.0
2026-04-08 21:52:54.411009,276002,1609504346600657,1946567502,0.802272,0.011712,0.01952,-12.50375,-0.735,13.83375,-20.560001,21.384,8.04,eccentric,4,3.0,23604.0,150969.0,238373.0,287362.0,268364.0
2026-04-08 21:52:54.413545,276003,1609504346615220,1946580377,0.802272,0.011712,0.01952,-12.075,0.41125,15.365,-20.560001,21.384,8.04,eccentric,4,3.0,23604.0,150969.0,238373.0,287362.0,268364.0
2026-04-08 21:52:54.416048,276004,1609504346624390,1946591140,0.827648,0.017568,0.066368,-9.4675,0.79625,18.40125,-20.432001,21.6,8.200001,eccentric,4,3.0,23604.0,150969.0,238373.0,287362.0,268364.0
2026-04-08 21:52:54.418557,276005,1609504346633365,1946599862,0.827648,0.017568,0.066368,-8.2075,-0.44625,20.3175,-20.432001,21.6,8.200001,eccentric,4,3.0,23604.0,150969.0,238373.0,287362.0,268364.0
2026-04-08 21:52:54.421809,276006,1609504346647919,1946614786,0.84912,-0.037088,-0.10736,-10.64,-2.05625,20.335001,-20.064001,21.224,8.360001,eccentric,4,3.0,23604.0,150969.0,238373.0,287362.0,268364.0
2026-04-08 21:52:54.427513,276007,1609504346656877,1946623482,0.84912,-0.037088,-0.10736,-13.69375,-3.8675,17.605,-20.064001,21.224,8.360001,eccentric,4,3.0,23604.0,150969.0,238373.0,287362.0,268364.0
2026-04-08 21:52:54.457522,276008,1609504346671357,1946638347,0.778848,-0.093696,-0.132736,-13.4925,-4.69,13.43125,-19.872002,21.592001,4.768,eccentric,4,3.0,23604.0,150969.0,238373.0,287362.0,268364.0
2026-04-08 21:52:54.461056,276009,1609504346680274,1946646995,0.774944,-0.081984,-0.162016,-10.14125,-4.40125,11.68125,-19.672,22.416,8.544001,eccentric,4,3.0,23604.0,150969.0,238373.0,287362.0,268364.0
2026-04-08 21:52:54.463577,276010,1609504346689185,1946655646,0.774944,-0.081984,-0.162016,-9.93125,-3.21125,12.4775,-19.672,22.416,8.544001,eccentric,4,3.0,23604.0,150969.0,238373.0,287362.0,268364.0
2026-04-08 21:52:54.553584,276021,1609504346703761,1946670568,0.75152,-0.001952,-0.179584,-15.07625,-1.6275,12.48625,-19.6,21.848001,8.624001,eccentric,4,3.0,23385.0,150477.0,237973.0,287139.0,268255.0
2026-04-08 21:52:54.556047,276022,1609504346712759,1946679256,0.75152,-0.001952,-0.179584,-18.24375,-0.67375,11.2875,-19.6,21.848001,8.624001,eccentric,4,3.0,23385.0,150477.0,237973.0,287139.0,268255.0
2026-04-08 21:52:54.558525,276023,1609504346727228,1946694094,0.76128,-0.076128,-0.128832,-15.1375,-0.41125,11.0775,-19.504002,22.208,7.168,eccentric,4,3.0,23385.0,150477.0,237973.0,287139.0,268255.0
2026-04-08 21:52:54.561039,276024,1609504346736213,1946702793,0.76128,-0.076128,-0.128832,-11.73375,-1.61,11.43625,-19.504002,22.208,7.168,eccentric,4,3.0,23385.0,150477.0,237973.0,287139.0,268255.0
2026-04-08 21:52:54.563559,276025,1609504346750687,1946717646,0.7808,-0.109312,-0.158112,-14.0875,-1.9775,10.98125,-19.168001,21.76,6.592001,eccentric,4,3.0,23385.0,150477.0,237973.0,287139.0,268255.0
2026-04-08 21:52:54.566012,276026,1609504346759580,1946726296,0.7808,-0.089792,0.03904,-18.147501,-1.4525,6.62375,-19.168001,21.76,6.592001,eccentric,4,3.0,23385.0,150477.0,237973.0,287139.0,268255.0
2026-04-08 21:52:54.568502,276027,1609504346768527,1946734961,0.856928,-0.089792,0.03904,-18.38375,0.2975,2.0825,-18.976002,22.36,4.488,eccentric,4,3.0,23385.0,150477.0,237973.0,287139.0,268255.0
2026-04-08 21:52:54.570992,276028,1609504346783117,1946749890,0.743712,-0.0488,-0.162016,-15.1025,1.65375,4.31375,-19.056002,22.192001,7.216001,eccentric,4,3.0,23385.0,150477.0,237973.0,287139.0,268255.0
2026-04-08 21:52:54.573575,276029,1609504346792074,1946758623,0.743712,-0.0488,-0.162016,-13.76375,3.2725,8.98625,-19.056002,22.192001,7.216001,eccentric,4,3.0,23385.0,150477.0,237973.0,287139.0,268255.0
2026-04-08 21:52:54.601132,276040,1609504346806852,1946773649,0.710528,-0.00976,-0.13664,-15.82,3.42125,8.575,-18.944,22.232,7.688,eccentric,4,3.0,23161.0,149800.0,237483.0,286942.0,268186.0
2026-04-08 21:52:54.605335,276041,1609504346815927,1946782394,0.710528,-0.00976,-0.13664,-16.10875,3.31625,5.22375,-18.944,22.232,7.688,eccentric,4,3.0,23161.0,149800.0,237483.0,286942.0,268186.0
2026-04-08 21:52:54.607762,276042,1609504346824953,1946791102,0.710528,-0.046848,-0.060512,-18.06875,3.77125,4.19125,-18.776001,22.264002,7.28,eccentric,4,3.0,23161.0,149800.0,237483.0,286942.0,268186.0
2026-04-08 21:52:54.614321,276043,1609504346839514,1946806049,0.710528,-0.046848,-0.060512,-22.54,3.3425,4.96125,-18.776001,22.264002,7.28,eccentric,4,3.0,23161.0,149800.0,237483.0,286942.0,268186.0
2026-04-08 21:52:54.620602,276044,1609504346848449,1946814752,0.772992,-0.08784,-0.167872,-24.43875,4.3225,5.24125,-18.800001,22.640001,6.416,eccentric,4,3.0,23161.0,149800.0,237483.0,286942.0,268186.0
2026-04-08 21:52:54.652480,276045,1609504346862919,1946829618,0.813984,-0.121024,-0.050752,-22.4525,6.48375,5.565,-18.464,22.696001,5.832,eccentric,4,3.0,23161.0,149800.0,237483.0,286942.0,268186.0
2026-04-08 21:52:54.655995,276046,1609504346871816,1946838275,0.813984,-0.121024,-0.050752,-18.47125,6.7725,6.51,-18.464,22.696001,5.832,eccentric,4,3.0,23161.0,149800.0,237483.0,286942.0,268186.0
2026-04-08 21:52:54.658602,276047,1609504346886287,1946853128,0.716384,-0.06832,-0.070272,-12.67875,5.5825,6.5975,-18.144001,22.864,6.016,eccentric,4,3.0,23161.0,149800.0,237483.0,286942.0,268186.0
2026-04-08 21:52:54.688795,276048,1609504346895269,1946861789,0.716384,-0.06832,-0.070272,-9.09125,3.85,4.73375,-18.144001,22.864,6.016,eccentric,4,3.0,23161.0,149800.0,237483.0,286942.0,268186.0
2026-04-08 21:52:54.717317,276059,1609504346904587,1946870797,0.74176,-0.037088,-0.111264,-10.45625,2.61625,3.71875,-18.248001,22.888,7.272,eccentric,4,3.0,23073.0,149676.0,237398.0,286858.0,268149.0
2026-04-08 21:52:54.719716,276060,1609504346919131,1946885693,0.74176,-0.037088,-0.111264,-11.375,2.10875,2.86125,-18.248001,22.888,7.272,eccentric,4,3.0,23073.0,149676.0,237398.0,286858.0,268149.0
2026-04-08 21:52:54.722302,276061,1609504346928058,1946894358,0.808128,-0.054656,0.037088,-11.03375,2.12625,2.40625,-18.256,22.84,7.584001,eccentric,4,3.0,23073.0,149676.0,237398.0,286858.0,268149.0
2026-04-08 21:52:54.727336,276062,1609504346942566,1946909237,0.854976,-0.072224,0.089792,-11.8825,2.16125,2.30125,-18.240002,23.272001,7.472,eccentric,4,3.0,23073.0,149676.0,237398.0,286858.0,268149.0
2026-04-08 21:52:54.729787,276063,1609504346951512,1946917936,0.854976,-0.072224,0.089792,-11.64625,1.75875,1.435,-18.240002,23.272001,7.472,eccentric,4,3.0,23073.0,149676.0,237398.0,286858.0,268149.0
2026-04-08 21:52:54.759941,276064,1609504346965976,1946932830,0.77104,-0.089792,-0.093696,-8.89875,1.49625,0.0175,-18.384,23.128,5.968,eccentric,4,3.0,23073.0,149676.0,237398.0,286858.0,268149.0
2026-04-08 21:52:54.763601,276065,1609504346974912,1946941504,0.77104,-0.089792,-0.093696,-7.23625,1.3825,-1.95125,-18.384,23.128,5.968,eccentric,4,3.0,23073.0,149676.0,237398.0,286858.0,268149.0
2026-04-08 21:52:54.766013,276066,1609504346983818,1946950180,0.853024,-0.066368,-0.074176,-4.71625,1.18125,-2.56375,-18.304,22.744001,5.808,eccentric,4,3.0,23073.0,149676.0,237398.0,286858.0,268149.0
2026-04-08 21:52:54.771004,276067,1609504346998303,1946965031,0.853024,-0.066368,-0.074176,0.1225,0.455,-2.23125,-18.304,22.744001,5.808,eccentric,4,3.0,23073.0,149676.0,237398.0,286858.0,268149.0
2026-04-08 21:52:54.798541,276078,1609504347007600,1946973774,0.921344,-0.060512,-0.03904,2.0475,0.86625,-2.80875,-17.952002,22.832,6.952,eccentric,4,3.0,22984.0,149421.0,237081.0,286627.0,268016.0
2026-04-08 21:52:54.837550,276079,1609504347022166,1946988744,0.782752,-0.062464,-0.02928,2.51125,2.8875,-3.64,-18.056002,22.832,5.232,concentric,4,3.0,22984.0,149421.0,237081.0,286627.0,268016.0
2026-04-08 21:52:54.841021,276080,1609504347031087,1946997416,0.782752,-0.062464,-0.02928,2.93125,4.20875,-3.185,-18.056002,22.832,5.232,concentric,4,3.0,22984.0,149421.0,237081.0,286627.0,268016.0
2026-04-08 21:52:54.843525,276081,1609504347040028,1947006071,0.782752,-0.062464,-0.02928,3.85,4.33125,-1.6275,-18.056002,22.832,5.232,concentric,4,3.0,22984.0,149421.0,237081.0,286627.0,268016.0
2026-04-08 21:52:54.846101,276082,1609504347054479,1947020964,0.884256,-0.070272,0.066368,4.585,3.85875,-1.645,-17.816,23.144001,5.192,concentric,4,3.0,22984.0,149421.0,237081.0,286627.0,268016.0
2026-04-08 21:52:54.848517,276083,1609504347063367,1947029609,0.88816,-0.081984,0.083936,4.0075,2.80875,-4.03375,-18.064001,22.808,4.408,concentric,4,3.0,22984.0,149421.0,237081.0,286627.0,268016.0
2026-04-08 21:52:54.850972,276084,1609504347077851,1947044475,0.88816,-0.081984,0.083936,2.96625,2.8875,-6.79875,-18.064001,22.808,4.408,concentric,4,3.0,22984.0,149421.0,237081.0,286627.0,268016.0
2026-04-08 21:52:54.884147,276085,1609504347086868,1947053165,0.854976,-0.091744,-0.064416,2.5025,2.98375,-7.88375,-18.336,22.544,8.056001,concentric,4,3.0,22984.0,149421.0,237081.0,286627.0,268016.0
2026-04-08 21:52:54.885883,276086,1609504347101351,1947068054,0.854976,-0.091744,-0.064416,1.7325,2.70375,-7.875,-18.336,22.544,8.056001,concentric,4,3.0,22984.0,149421.0,237081.0,286627.0,268016.0
2026-04-08 21:52:54.918813,276097,1609504347110451,1947076765,0.925248,-0.072224,-0.025376,3.66625,1.68,-8.51375,-18.224,22.664001,5.576,concentric,4,3.0,22728.0,148680.0,236484.0,286291.0,267872.0
2026-04-08 21:52:54.922878,276098,1609504347119382,1947085468,0.925248,-0.072224,-0.025376,4.5325,1.5925,-10.29875,-18.224,22.664001,5.576,concentric,4,3.0,22728.0,148680.0,236484.0,286291.0,267872.0
2026-04-08 21:52:54.924545,276099,1609504347133885,1947100345,0.79056,-0.025376,-0.11712,3.115,2.2225,-11.5675,-18.232,22.072,6.768,concentric,4,3.0,22728.0,148680.0,236484.0,286291.0,267872.0
2026-04-08 21:52:54.926229,276100,1609504347142822,1947109012,0.854976,-0.037088,0.119072,1.95125,1.785,-10.22,-18.368,22.872002,6.264,concentric,4,3.0,22728.0,148680.0,236484.0,286291.0,267872.0
2026-04-08 21:52:54.928637,276101,1609504347157464,1947124025,0.854976,-0.037088,0.119072,1.5925,0.9975,-8.5225,-18.368,22.872002,6.264,concentric,4,3.0,22728.0,148680.0,236484.0,286291.0,267872.0
2026-04-08 21:52:54.959668,276102,1609504347166410,1947132732,0.870592,-0.070272,-0.160064,0.46375,-0.0175,-8.54875,-18.52,22.472,7.664001,concentric,4,3.0,22728.0,148680.0,236484.0,286291.0,267872.0
2026-04-08 21:52:54.964123,276103,1609504347180876,1947147592,0.870592,-0.070272,-0.160064,0.1575,-1.32125,-10.45625,-18.52,22.472,7.664001,concentric,4,3.0,22728.0,148680.0,236484.0,286291.0,267872.0
2026-04-08 21:52:54.966633,276104,1609504347189784,1947156249,0.870592,-0.050752,-0.10736,-0.595,-2.63375,-13.32625,-18.576,22.192001,5.984,concentric,4,3.0,22728.0,148680.0,236484.0,286291.0,267872.0
2026-04-08 21:52:54.970684,276105,1609504347198734,1947165002,0.870592,-0.050752,-0.10736,-1.6625,-3.87625,-14.35,-18.576,22.192001,5.984,concentric,4,3.0,22728.0,148680.0,236484.0,286291.0,267872.0
2026-04-08 21:52:55.000805,276116,1609504347213575,1947179984,0.845216,-0.033184,-0.060512,-0.51625,-3.78,-13.53625,-18.568,21.880001,7.024,concentric,4,3.0,22680.0,148639.0,236443.0,286303.0,267885.0
2026-04-08 21:52:55.002400,276117,1609504347222531,1947188701,0.845216,-0.017568,0.027328,1.23375,-3.5,-11.99625,-18.568,21.880001,7.024,concentric,4,3.0,22680.0,148639.0,236443.0,286303.0,267885.0
2026-04-08 21:52:55.010347,276118,1609504347237104,1947203556,0.866688,-0.021472,0.027328,3.36,-3.54375,-10.70125,-19.088001,22.240002,7.248,concentric,4,3.0,22680.0,148639.0,236443.0,286303.0,267885.0
2026-04-08 21:52:55.018962,276119,1609504347246095,1947212230,0.899872,-0.035136,-0.201056,4.9525,-3.92,-10.43,-18.84,22.144001,6.16,concentric,4,3.0,22680.0,148639.0,236443.0,286303.0,267885.0
2026-04-08 21:52:55.047486,276120,1609504347260548,1947227103,0.899872,-0.035136,-0.201056,1.79375,-4.62,-11.87375,-18.84,22.144001,6.16,concentric,4,3.0,22680.0,148639.0,236443.0,286303.0,267885.0
2026-04-08 21:52:55.056610,276121,1609504347269576,1947235769,0.972096,-0.027328,-0.01952,-4.26125,-5.11,-13.51,-18.976002,22.016,6.352,concentric,4,3.0,22680.0,148639.0,236443.0,286303.0,267885.0
2026-04-08 21:52:55.059048,276122,1609504347278518,1947244460,0.972096,-0.027328,-0.01952,-8.35625,-4.62875,-13.86875,-18.976002,22.016,6.352,concentric,4,3.0,22680.0,148639.0,236443.0,286303.0,267885.0
2026-04-08 21:52:55.087460,276123,1609504347293035,1947259413,0.882304,-0.007808,0.081984,-11.375,-3.14125,-12.46875,-18.968,22.216002,6.480001,concentric,4,3.0,22680.0,148639.0,236443.0,286303.0,267885.0
2026-04-08 21:52:55.091068,276124,1609504347301938,1947268085,0.882304,-0.007808,0.081984,-13.69375,-2.75625,-10.68375,-18.968,22.216002,6.480001,concentric,4,3.0,22680.0,148639.0,236443.0,286303.0,267885.0
2026-04-08 21:52:55.151368,276135,1609504347316589,1947283240,0.81984,-0.031232,-0.105408,-12.9325,-3.33375,-9.345,-19.368,21.944,5.28,concentric,4,3.0,22668.0,148613.0,236483.0,286391.0,267934.0
2026-04-08 21:52:55.153522,276136,1609504347325531,1947291940,0.847168,-0.011712,-0.054656,-9.555,-3.7275,-8.3125,-19.688002,22.152,5.976,concentric,4,3.0,22668.0,148613.0,236483.0,286391.0,267934.0
2026-04-08 21:52:55.156077,276137,1609504347334670,1947300681,0.847168,-0.011712,-0.054656,-10.12375,-4.445,-9.415,-19.688002,22.152,5.976,concentric,4,3.0,22668.0,148613.0,236483.0,286391.0,267934.0
2026-04-08 21:52:55.158579,276138,1609504347349148,1947315545,0.853024,-0.02928,-0.16592,-13.5275,-4.59375,-12.92375,-19.408,22.264002,5.872,concentric,4,3.0,22668.0,148613.0,236483.0,286391.0,267934.0
2026-04-08 21:52:55.161095,276139,1609504347358091,1947324216,0.853024,-0.02928,-0.16592,-15.00625,-3.1325,-14.525,-19.408,22.264002,5.872,concentric,4,3.0,22668.0,148613.0,236483.0,286391.0,267934.0
2026-04-08 21:52:55.163623,276140,1609504347372578,1947339163,0.88816,-0.044896,0.05856,-15.505,-1.26875,-11.83,-19.776001,21.816002,5.624,concentric,4,3.0,22668.0,148613.0,236483.0,286391.0,267934.0
2026-04-08 21:52:55.166125,276141,1609504347381576,1947347866,0.88816,-0.044896,0.05856,-17.255,-0.95375,-9.17,-19.776001,21.816002,5.624,concentric,4,3.0,22668.0,148613.0,236483.0,286391.0,267934.0
2026-04-08 21:52:55.168543,276142,1609504347396053,1947362760,0.853024,-0.00976,-0.021472,-17.928751,-1.81125,-9.86125,-19.704,22.128,7.136,concentric,4,3.0,22668.0,148613.0,236483.0,286391.0,267934.0
2026-04-08 21:52:55.206118,276153,1609504347404972,1947371401,0.977952,-0.03904,-0.03904,-18.54125,-3.22875,-12.6875,-20.400002,22.056002,6.624001,concentric,4,3.0,22871.0,149318.0,236994.0,286604.0,267990.0
2026-04-08 21:52:55.208614,276154,1609504347413946,1947380126,0.977952,-0.03904,-0.03904,-18.803751,-4.795,-15.61875,-20.400002,22.056002,6.624001,concentric,4,3.0,22871.0,149318.0,236994.0,286604.0,267990.0
2026-04-08 21:52:55.211094,276155,1609504347428460,1947395042,0.899872,-0.042944,0.119072,-13.37,-3.57875,-15.35625,-20.2,21.864,6.256001,concentric,4,3.0,22871.0,149318.0,236994.0,286604.0,267990.0
2026-04-08 21:52:55.213622,276156,1609504347437423,1947403728,0.899872,-0.042944,0.119072,-6.04625,-1.89,-11.62,-20.2,21.864,6.256001,concentric,4,3.0,22871.0,149318.0,236994.0,286604.0,267990.0
2026-04-08 21:52:55.243791,276157,1609504347452012,1947418640,0.823744,0.007808,-0.076128,-2.73875,-2.03,-7.65625,-20.552,21.968,6.792,concentric,4,3.0,22871.0,149318.0,236994.0,286604.0,267990.0
2026-04-08 21:52:55.247433,276158,1609504347460922,1947427340,0.823744,0.007808,-0.076128,-7.0175,-4.13875,-6.195,-20.552,21.968,6.792,concentric,4,3.0,22871.0,149318.0,236994.0,286604.0,267990.0
2026-04-08 21:52:55.249896,276159,1609504347475418,1947442217,0.931104,-0.015616,-0.035136,-6.4225,-4.9175,-5.3375,-20.160002,22.264002,5.432,concentric,4,3.0,22871.0,149318.0,236994.0,286604.0,267990.0
2026-04-08 21:52:55.256118,276160,1609504347484328,1947450877,0.931104,-0.031232,-0.173728,-6.76375,-4.89125,-5.6,-20.160002,22.264002,5.432,concentric,4,3.0,22871.0,149318.0,236994.0,286604.0,267990.0
2026-04-08 21:52:55.286327,276161,1609504347493273,1947459537,0.866688,-0.027328,-0.173728,-9.70375,-3.2025,-6.99125,-20.376001,22.088001,5.176,concentric,4,3.0,22871.0,149318.0,236994.0,286604.0,267990.0
2026-04-08 21:52:55.348575,276172,1609504347507886,1947474457,0.899872,-0.015616,0.042944,-8.855001,-0.65625,-6.23,-20.384,22.240002,5.128,concentric,4,3.0,23013.0,149853.0,237423.0,286732.0,268024.0
2026-04-08 21:52:55.351079,276173,1609504347516869,1947483164,0.899872,-0.015616,0.042944,-5.39875,0.72625,-4.73375,-20.384,22.240002,5.128,concentric,4,3.0,23013.0,149853.0,237423.0,286732.0,268024.0
2026-04-08 21:52:55.353607,276174,1609504347531423,1947498042,0.880352,-0.040992,-0.158112,-4.55,1.2075,-4.13875,-20.28,22.008001,5.4,concentric,4,3.0,23013.0,149853.0,237423.0,286732.0,268024.0
2026-04-08 21:52:55.356144,276175,1609504347540380,1947506760,0.880352,-0.040992,-0.158112,-8.23375,1.26875,-4.5325,-20.28,22.008001,5.4,concentric,4,3.0,23013.0,149853.0,237423.0,286732.0,268024.0
2026-04-08 21:52:55.358611,276176,1609504347554869,1947521629,1.018944,-0.007808,0.0,-13.43125,0.14,-5.775,-20.320002,22.576,4.968,concentric,4,3.0,23013.0,149853.0,237423.0,286732.0,268024.0
2026-04-08 21:52:55.361119,276177,1609504347563785,1947530258,1.018944,-0.007808,0.0,-15.015,0.00875,-7.16625,-20.320002,22.576,4.968,concentric,4,3.0,23013.0,149853.0,237423.0,286732.0,268024.0
2026-04-08 21:52:55.363604,276178,1609504347572754,1947538949,0.958432,-0.033184,-0.076128,-11.27875,1.82,-7.2975,-20.664001,22.6,5.112001,concentric,4,3.0,23013.0,149853.0,237423.0,286732.0,268024.0
2026-04-08 21:52:55.366123,276179,1609504347587269,1947553836,0.892064,0.021472,0.0,-7.35875,3.56125,-5.27625,-20.688002,22.312,4.888,concentric,4,3.0,23013.0,149853.0,237423.0,286732.0,268024.0
2026-04-08 21:52:55.368621,276180,1609504347596210,1947562572,0.892064,0.021472,0.0,-3.50875,3.325,-1.75875,-20.688002,22.312,4.888,concentric,4,3.0,23013.0,149853.0,237423.0,286732.0,268024.0
2026-04-08 21:52:55.463557,276191,1609504347610951,1947577529,0.972096,-0.001952,0.062464,-1.82,1.54,1.72375,-20.392,22.448002,5.032,concentric,4,3.0,23193.0,150372.0,237849.0,286894.0,268054.0
2026-04-08 21:52:55.467676,276192,1609504347619895,1947586202,0.972096,-0.001952,0.062464,-1.1025,0.035,2.93125,-20.392,22.448002,5.032,concentric,4,3.0,23193.0,150372.0,237849.0,286894.0,268054.0
2026-04-08 21:52:55.469371,276193,1609504347628832,1947594883,0.894016,-0.015616,-0.11712,-1.1725,-0.32375,2.05625,-20.568,22.584002,4.84,concentric,4,3.0,23193.0,150372.0,237849.0,286894.0,268054.0
2026-04-08 21:52:55.471404,276194,1609504347643304,1947609748,0.894016,-0.015616,-0.11712,-1.44375,0.65625,0.4725,-20.568,22.584002,4.84,concentric,4,3.0,23193.0,150372.0,237849.0,286894.0,268054.0
2026-04-08 21:52:55.473524,276195,1609504347652217,1947618415,0.874496,-0.05856,-0.121024,2.26625,2.1175,0.23625,-20.6,22.504002,4.0,concentric,4,3.0,23193.0,150372.0,237849.0,286894.0,268054.0
2026-04-08 21:52:55.476059,276196,1609504347666691,1947633251,0.823744,0.011712,-0.046848,4.55875,2.9575,0.70875,-21.192001,22.224,4.568,concentric,4,3.0,23193.0,150372.0,237849.0,286894.0,268054.0
2026-04-08 21:52:55.478758,276197,1609504347675623,1947641953,0.823744,0.011712,-0.046848,4.27,2.89625,0.63,-21.192001,22.224,4.568,concentric,4,3.0,23193.0,150372.0,237849.0,286894.0,268054.0
2026-04-08 21:52:55.481035,276198,1609504347690138,1947656907,0.954528,0.01952,0.027328,3.68375,1.81125,-0.9975,-20.848001,22.312,6.008,concentric,4,3.0,23193.0,150372.0,237849.0,286894.0,268054.0
2026-04-08 21:52:55.483567,276199,1609504347699120,1947665718,0.954528,0.01952,0.027328,0.77875,0.62125,-3.07125,-20.848001,22.312,6.008,concentric,4,3.0,23193.0,150372.0,237849.0,286894.0,268054.0
2026-04-08 21:52:55.511056,276210,1609504347708601,1947675044,0.95648,-0.02928,-0.148352,-2.3275,0.8225,-5.075,-20.752,22.416,5.096,concentric,4,3.0,23351.0,150865.0,238261.0,287092.0,268125.0
2026-04-08 21:52:55.513577,276211,1609504347723215,1947689991,0.95648,-0.02928,-0.148352,-2.42375,2.24,-5.9675,-20.752,22.416,5.096,concentric,4,3.0,23351.0,150865.0,238261.0,287092.0,268125.0
2026-04-08 21:52:55.516085,276212,1609504347732172,1947698811,0.827648,0.01952,-0.066368,-1.3125,3.465,-4.585,-21.008001,22.704,5.008,concentric,4,3.0,23351.0,150865.0,238261.0,287092.0,268125.0
2026-04-08 21:52:55.518581,276213,1609504347746745,1947713717,0.870592,-0.017568,-0.109312,0.28,3.08875,-1.88125,-21.008001,22.472,6.048,concentric,4,3.0,23351.0,150865.0,238261.0,287092.0,268125.0
2026-04-08 21:52:55.549919,276214,1609504347755643,1947722387,0.870592,-0.017568,-0.109312,2.6075,2.415,-0.8925,-21.008001,22.472,6.048,concentric,4,3.0,23351.0,150865.0,238261.0,287092.0,268125.0
2026-04-08 21:52:55.552420,276215,1609504347764550,1947731030,0.870592,-0.017568,-0.109312,5.25,0.98,0.48125,-21.008001,22.472,6.048,concentric,4,3.0,23351.0,150865.0,238261.0,287092.0,268125.0
2026-04-08 21:52:55.554907,276216,1609504347779024,1947745909,0.933056,-0.03904,-0.122976,8.09375,0.84875,2.00375,-20.792002,22.752,4.608,concentric,4,3.0,23351.0,150865.0,238261.0,287092.0,268125.0
2026-04-08 21:52:55.559870,276217,1609504347788000,1947754591,0.9272,-0.015616,-0.163968,11.19125,0.6475,1.7675,-21.112001,22.68,6.368001,concentric,4,3.0,23351.0,150865.0,238261.0,287092.0,268125.0
2026-04-08 21:52:55.590099,276218,1609504347802493,1947769453,0.9272,-0.015616,-0.163968,14.34125,2.03,0.86625,-21.112001,22.68,6.368001,concentric,4,3.0,23351.0,150865.0,238261.0,287092.0,268125.0
2026-04-08 21:52:55.618520,276229,1609504347811847,1947778235,0.837408,0.023424,-0.109312,15.28625,4.12125,1.4525,-20.968,22.864,5.752,concentric,4,3.0,23528.0,151307.0,238588.0,287259.0,268222.0
2026-04-08 21:52:55.621038,276230,1609504347826335,1947793130,0.837408,0.023424,0.095648,11.82125,5.4075,2.26625,-20.968,22.864,5.752,concentric,4,3.0,23528.0,151307.0,238588.0,287259.0,268222.0
2026-04-08 21:52:55.623555,276231,1609504347835243,1947801808,0.886208,0.00976,0.095648,7.385,5.705,2.2575,-21.096,22.784,7.16,concentric,4,3.0,23528.0,151307.0,238588.0,287259.0,268222.0
2026-04-08 21:52:55.627144,276232,1609504347844190,1947810522,0.886208,0.00976,0.095648,4.9175,5.17125,1.56625,-21.096,22.784,7.16,concentric,4,3.0,23528.0,151307.0,238588.0,287259.0,268222.0
2026-04-08 21:52:55.631280,276233,1609504347858684,1947825400,0.782752,-0.02928,-0.119072,4.06,4.47125,0.70875,-21.208,22.6,7.456,concentric,4,3.0,23528.0,151307.0,238588.0,287259.0,268222.0
2026-04-08 21:52:55.661274,276234,1609504347867619,1947834116,0.835456,-0.037088,-0.00976,4.19125,3.63125,-1.40875,-21.52,22.432001,6.248,concentric,4,3.0,23528.0,151307.0,238588.0,287259.0,268222.0
2026-04-08 21:52:55.664900,276235,1609504347882195,1947848976,0.835456,-0.037088,-0.00976,5.285,3.08,-4.76875,-21.52,22.432001,6.248,concentric,4,3.0,23528.0,151307.0,238588.0,287259.0,268222.0
2026-04-08 21:52:55.667290,276236,1609504347891113,1947857623,0.864736,-0.062464,-0.02928,7.88375,3.3075,-7.49,-21.312,22.6,5.712,concentric,4,3.0,23528.0,151307.0,238588.0,287259.0,268222.0
2026-04-08 21:52:55.697620,276237,1609504347905637,1947872500,0.864736,-0.062464,-0.02928,9.89625,3.31625,-10.17625,-21.312,22.6,5.712,concentric,4,3.0,23528.0,151307.0,238588.0,287259.0,268222.0
2026-04-08 21:52:55.767373,276248,1609504347914661,1947881237,0.866688,-0.056608,-0.07808,10.84125,2.52875,-12.69625,-21.36,22.736002,6.496,concentric,4,3.0,23199.0,150371.0,238166.0,287134.0,268177.0
2026-04-08 21:52:55.769855,276249,1609504347923579,1947889878,0.866688,-0.056608,-0.07808,10.823751,1.46125,-15.1025,-21.36,22.736002,6.496,concentric,4,3.0,23199.0,150371.0,238166.0,287134.0,268177.0
2026-04-08 21:52:55.772342,276250,1609504347938129,1947904770,0.841312,-0.013664,-0.10736,9.948751,0.7525,-16.345,-21.816002,22.536001,6.176,concentric,4,3.0,23199.0,150371.0,238166.0,287134.0,268177.0
2026-04-08 21:52:55.774835,276251,1609504347947071,1947913449,0.841312,-0.013664,-0.18544,9.4675,0.8225,-17.465,-21.816002,22.536001,6.176,concentric,4,3.0,23199.0,150371.0,238166.0,287134.0,268177.0
2026-04-08 21:52:55.777361,276252,1609504347961602,1947928314,0.823744,-0.023424,-0.18544,10.3775,0.28,-18.10375,-21.976002,22.2,5.8,concentric,4,3.0,23199.0,150371.0,238166.0,287134.0,268177.0
2026-04-08 21:52:55.779811,276253,1609504347970541,1947936972,0.913536,-0.042944,-0.083936,11.042501,-0.525,-19.11,-21.792002,22.032001,6.04,concentric,4,3.0,23199.0,150371.0,238166.0,287134.0,268177.0
2026-04-08 21:52:55.782878,276254,1609504347985037,1947951917,0.913536,-0.042944,-0.083936,10.1325,-1.6975,-20.8775,-21.792002,22.032001,6.04,concentric,4,3.0,23199.0,150371.0,238166.0,287134.0,268177.0
2026-04-08 21:52:55.784816,276255,1609504347994018,1947960589,0.901824,0.003904,-0.089792,7.32375,-2.0825,-22.86375,-22.656,21.432001,7.232,concentric,4,3.0,23199.0,150371.0,238166.0,287134.0,268177.0
2026-04-08 21:52:55.788173,276256,1609504348003098,1947969359,0.901824,0.003904,-0.089792,5.20625,-2.09125,-24.325,-22.656,21.432001,7.232,concentric,4,3.0,23199.0,150371.0,238166.0,287134.0,268177.0
2026-04-08 21:52:55.819800,276267,1609504348018053,1947984818,0.905728,0.015616,0.06832,9.37125,-1.25125,-24.78,-22.688002,21.912,7.192,concentric,4,3.0,23166.0,150357.0,238094.0,287062.0,268123.0
2026-04-08 21:52:55.822328,276268,1609504348027104,1947993565,0.905728,0.015616,0.06832,15.785,-0.945,-23.23125,-22.688002,21.912,7.192,concentric,4,3.0,23166.0,150357.0,238094.0,287062.0,268123.0
2026-04-08 21:52:55.824814,276269,1609504348041667,1948008429,0.88816,0.033184,-0.142496,17.14125,-3.01875,-21.5425,-23.032001,21.784,7.232,concentric,4,3.0,23166.0,150357.0,238094.0,287062.0,268123.0
2026-04-08 21:52:55.827335,276270,1609504348050646,1948017153,0.862784,0.0488,-0.08784,20.58,-4.9,-20.3175,-23.376001,21.312,8.552,concentric,4,3.0,23166.0,150357.0,238094.0,287062.0,268123.0
2026-04-08 21:52:55.829828,276271,1609504348059593,1948025961,0.862784,0.0488,-0.08784,27.44875,-6.44875,-17.2375,-23.376001,21.312,8.552,concentric,4,3.0,23166.0,150357.0,238094.0,287062.0,268123.0
2026-04-08 21:52:55.860078,276272,1609504348074107,1948040838,0.866688,0.003904,0.023424,32.4975,-8.28625,-15.28625,-23.36,21.36,6.896,concentric,4,3.0,23166.0,150357.0,238094.0,287062.0,268123.0
2026-04-08 21:52:55.863606,276273,1609504348082991,1948049490,0.866688,0.003904,0.023424,34.0025,-10.7975,-14.91,-23.36,21.36,6.896,concentric,4,3.0,23166.0,150357.0,238094.0,287062.0,268123.0
2026-04-08 21:52:55.870352,276274,1609504348097511,1948064369,0.9272,0.001952,-0.101504,34.51875,-13.22125,-14.9625,-23.712002,20.256,7.048,concentric,4,3.0,23166.0,150357.0,238094.0,287062.0,268123.0
2026-04-08 21:52:55.900089,276275,1609504348106405,1948073028,0.9272,0.001952,-0.101504,37.14375,-13.37,-15.56625,-23.712002,20.256,7.048,concentric,4,3.0,23166.0,150357.0,238094.0,287062.0,268123.0
2026-04-08 21:52:55.928635,276286,1609504348120966,1948087961,1.001376,0.074176,-0.005856,37.8525,-13.02875,-17.85875,-24.032001,20.392,7.712,concentric,4,3.0,23976.0,152517.0,239481.0,287665.0,268382.0
2026-04-08 21:52:55.931136,276287,1609504348129940,1948096643,0.870592,0.109312,0.00976,34.545002,-11.24375,-19.73125,-24.12,20.192001,7.488,concentric,4,3.0,23976.0,152517.0,239481.0,287665.0,268382.0
2026-04-08 21:52:55.933645,276288,1609504348139061,1948105315,0.870592,0.109312,0.00976,29.6975,-10.1325,-19.2675,-24.12,20.192001,7.488,concentric,4,3.0,23976.0,152517.0,239481.0,287665.0,268382.0
2026-04-08 21:52:55.936135,276289,1609504348153615,1948120234,0.81008,0.052704,-0.035136,23.205,-10.2375,-18.22625,-24.800001,20.024,8.264,concentric,4,3.0,23976.0,152517.0,239481.0,287665.0,268382.0
2026-04-08 21:52:55.938642,276290,1609504348162614,1948128918,0.81008,0.052704,-0.035136,17.24625,-10.6225,-17.52625,-24.800001,20.024,8.264,concentric,4,3.0,23976.0,152517.0,239481.0,287665.0,268382.0
2026-04-08 21:52:55.968889,276291,1609504348177168,1948143828,0.876448,-0.017568,-0.267424,14.63875,-11.655,-17.5175,-24.592001,19.864,8.152,concentric,4,3.0,23976.0,152517.0,239481.0,287665.0,268382.0
2026-04-08 21:52:55.972461,276292,1609504348186097,1948152523,0.876448,-0.017568,-0.267424,14.4025,-12.4075,-18.73375,-24.592001,19.864,8.152,concentric,4,3.0,23976.0,152517.0,239481.0,287665.0,268382.0
2026-04-08 21:52:55.975198,276293,1609504348194981,1948161173,0.940864,0.044896,-0.062464,16.96625,-11.41,-21.81375,-24.576,19.160002,7.328001,concentric,4,3.0,23976.0,152517.0,239481.0,287665.0,268382.0
2026-04-08 21:52:56.044811,276304,1609504348209559,1948176031,0.866688,0.121024,-0.011712,20.9475,-8.67125,-24.053751,-26.624,18.976002,6.144,concentric,4,3.0,23796.0,151914.0,239151.0,287535.0,268335.0
2026-04-08 21:52:56.047404,276305,1609504348218870,1948184738,0.866688,0.121024,-0.011712,21.8225,-5.73125,-23.79125,-25.624,18.976002,6.144,concentric,4,3.0,23796.0,151914.0,239151.0,287535.0,268335.0
2026-04-08 21:52:56.049833,276306,1609504348233382,1948199648,0.964288,0.08784,-0.040992,20.92125,-5.215,-22.35625,-25.064001,19.176,7.76,concentric,4,3.0,23796.0,151914.0,239151.0,287535.0,268335.0
2026-04-08 21:52:56.052351,276307,1609504348242385,1948208309,0.964288,0.08784,-0.040992,17.57875,-5.5475,-21.37625,-25.064001,19.176,7.76,concentric,4,3.0,23796.0,151914.0,239151.0,287535.0,268335.0
2026-04-08 21:52:56.054830,276308,1609504348256857,1948223132,0.9272,0.037088,-0.189344,12.83625,-6.16,-19.87125,-25.576002,18.624,8.904,concentric,4,3.0,23796.0,151914.0,239151.0,287535.0,268335.0
2026-04-08 21:52:56.057379,276309,1609504348265751,1948231804,0.9272,0.037088,-0.189344,12.075,-6.51,-17.71875,-25.576002,18.624,8.904,concentric,4,3.0,23796.0,151914.0,239151.0,287535.0,268335.0
2026-04-08 21:52:56.059829,276310,1609504348274653,1948240476,1.001376,0.007808,-0.06832,13.7025,-6.8425,-17.28125,-25.664001,18.480001,7.752,concentric,4,3.0,23796.0,151914.0,239151.0,287535.0,268335.0
2026-04-08 21:52:56.062321,276311,1609504348289188,1948255375,1.001376,0.007808,-0.06832,16.94,-6.44875,-17.85875,-25.664001,18.480001,7.752,concentric,4,3.0,23796.0,151914.0,239151.0,287535.0,268335.0
2026-04-08 21:52:56.092566,276312,1609504348298139,1948264072,0.911584,0.083936,-0.191296,19.83625,-5.41625,-17.36875,-26.296001,18.416,7.904,concentric,4,3.0,23796.0,151914.0,239151.0,287535.0,268335.0
2026-04-08 21:52:56.121107,276323,1609504348312950,1948279017,0.929152,0.130784,-0.21472,20.88625,-4.69,-17.185,-26.128002,18.424002,7.944,concentric,4,3.0,23861.0,152081.0,239312.0,287564.0,268304.0
2026-04-08 21:52:56.123628,276324,1609504348321942,1948287714,0.929152,0.130784,-0.21472,21.30625,-3.3775,-16.59875,-26.128002,18.424002,7.944,concentric,4,3.0,23861.0,152081.0,239312.0,287564.0,268304.0
2026-04-08 21:52:56.126085,276325,1609504348330871,1948296437,0.962336,0.109312,-0.22448,18.1125,-2.345,-15.21625,-26.584002,18.048,7.736001,concentric,4,3.0,23861.0,152081.0,239312.0,287564.0,268304.0
2026-04-08 21:52:56.128575,276326,1609504348345902,1948311381,0.962336,0.109312,-0.22448,11.73375,-1.365,-12.95,-26.584002,18.048,7.736001,concentric,4,3.0,23861.0,152081.0,239312.0,287564.0,268304.0
2026-04-08 21:52:56.131148,276327,1609504348355253,1948322125,0.88816,0.105408,-0.113216,11.025,-0.60375,-10.3075,-26.696001,17.880001,8.224,concentric,4,3.0,23861.0,152081.0,239312.0,287564.0,268304.0
