pc_time,serial_num,sensor_ts,host_ts,ax,ay,az,gx,gy,gz,mx,my,mz,phase,rpe,weight_kg,ppg_a,ppg_b,ppg_c,ppg_d,ppg_e
2026-04-08 21:49:22.083447,236075,1609504134272657,1734239470,0.91744,0.013664,0.12688,-4.54125,-0.105,-2.5375,-16.384,21.44,5.072,inter_set_rest,3,3.0,17373.0,133928.0,221858.0,274577.0,260017.0
2026-04-08 21:49:22.085894,236076,1609504134281596,1734248163,0.91744,0.013664,0.12688,-4.9525,0.035,-2.9925,-16.384,21.44,5.072,inter_set_rest,3,3.0,17373.0,133928.0,221858.0,274577.0,260017.0
2026-04-08 21:49:22.088429,236077,1609504134296121,1734263054,0.905728,0.0,0.119072,-5.25,0.06125,-2.80875,-17.016,21.256,6.048,inter_set_rest,3,3.0,17373.0,133928.0,221858.0,274577.0,260017.0
2026-04-08 21:49:22.090955,236078,1609504134305042,1734271730,0.905728,0.0,0.119072,-5.55625,0.35,-2.35375,-17.016,21.256,6.048,inter_set_rest,3,3.0,17373.0,133928.0,221858.0,274577.0,260017.0
2026-04-08 21:49:22.093497,236079,1609504134314037,1734280471,0.9272,-0.00976,0.128832,-5.495,-0.035,-1.9075,-16.712,21.720001,4.424,inter_set_rest,3,3.0,17373.0,133928.0,221858.0,274577.0,260017.0
2026-04-08 21:49:22.096031,236080,1609504134328569,1734295377,0.9272,-0.00976,0.128832,-5.9675,-0.105,-1.715,-16.712,21.720001,4.424,inter_set_rest,3,3.0,17373.0,133928.0,221858.0,274577.0,260017.0
2026-04-08 21:49:22.102829,236081,1609504134337525,1734304183,0.931104,-0.007808,0.089792,-5.53,-0.14875,-1.89,-16.656,21.28,4.248,inter_set_rest,3,3.0,17373.0,133928.0,221858.0,274577.0,260017.0
2026-04-08 21:49:22.132472,236082,1609504134352041,1734319056,0.931104,-0.007808,0.044896,-3.29,-0.48125,-2.44125,-16.656,21.28,4.248,inter_set_rest,3,3.0,17373.0,133928.0,221858.0,274577.0,260017.0
2026-04-08 21:49:22.135998,236083,1609504134360953,1734327717,0.899872,0.007808,0.044896,-2.56375,-0.49875,-2.9575,-16.816,21.288,4.712,inter_set_rest,3,3.0,17373.0,133928.0,221858.0,274577.0,260017.0
2026-04-08 21:49:22.138525,236084,1609504134369862,1734336372,0.899872,0.007808,0.044896,-2.1875,-0.25375,-2.58125,-16.816,21.288,4.712,inter_set_rest,3,3.0,17373.0,133928.0,221858.0,274577.0,260017.0
2026-04-08 21:49:22.173428,236096,1609504134384478,1734351360,0.894016,0.003904,0.070272,-2.94,0.0175,-2.56375,-16.784,21.384,3.728,inter_set_rest,3,3.0,17344.0,133836.0,221745.0,274504.0,259970.0
2026-04-08 21:49:22.175948,236097,1609504134393419,1734360085,0.9272,-0.007808,0.111264,-3.92,0.14,-1.79375,-17.240002,21.184002,3.696,inter_set_rest,3,3.0,17344.0,133836.0,221745.0,274504.0,259970.0
2026-04-08 21:49:22.178479,236098,1609504134407913,1734374984,0.9272,-0.007808,0.111264,-3.73625,0.20125,-1.61,-17.240002,21.184002,3.696,inter_set_rest,3,3.0,17344.0,133836.0,221745.0,274504.0,259970.0
2026-04-08 21:49:22.182225,236099,1609504134416859,1734383691,0.89792,0.00976,0.056608,-3.36875,-0.20125,-1.0325,-16.960001,21.432001,5.24,inter_set_rest,3,3.0,17344.0,133836.0,221745.0,274504.0,259970.0
2026-04-08 21:49:22.212480,236100,1609504134431361,1734396517,0.89792,0.00976,0.056608,-2.45875,0.18375,-1.30375,-16.960001,21.432001,5.24,inter_set_rest,3,3.0,17344.0,133836.0,221745.0,274504.0,259970.0
2026-04-08 21:49:22.216039,236101,1609504134440486,1734407294,0.90768,0.007808,0.121024,-1.75,0.35,-1.12875,-16.824001,21.448002,4.312,inter_set_rest,3,3.0,17344.0,133836.0,221745.0,274504.0,259970.0
2026-04-08 21:49:22.218479,236102,1609504134449392,1734415963,0.90768,0.007808,0.121024,-2.79125,0.385,-0.9975,-16.824001,21.448002,4.312,inter_set_rest,3,3.0,17344.0,133836.0,221745.0,274504.0,259970.0
2026-04-08 21:49:22.248637,236103,1609504134463878,1734430861,0.903776,-0.001952,0.08784,-3.43,-0.00875,-0.95375,-16.768002,21.456001,4.216,inter_set_rest,3,3.0,17344.0,133836.0,221745.0,274504.0,259970.0
2026-04-08 21:49:22.252197,236104,1609504134472798,1734439516,0.903776,-0.001952,0.095648,-4.27,-0.42875,-0.945,-16.768002,21.456001,4.216,inter_set_rest,3,3.0,17344.0,133836.0,221745.0,274504.0,259970.0
2026-04-08 21:49:22.279710,236115,1609504134487291,1734454396,0.929152,-0.00976,0.095648,-4.12125,-0.67375,-1.295,-16.960001,21.36,5.328,inter_set_rest,3,3.0,17375.0,133921.0,221876.0,274625.0,260060.0
2026-04-08 21:49:22.282197,236116,1609504134496246,1734463064,0.894016,-0.001952,0.105408,-3.3775,-0.58625,-1.9425,-16.704,21.768002,3.88,inter_set_rest,3,3.0,17375.0,133921.0,221876.0,274625.0,260060.0
2026-04-08 21:49:22.284744,236117,1609504134510878,1734477962,0.894016,-0.001952,0.105408,-2.56375,-0.63875,-2.42375,-16.704,21.768002,3.88,inter_set_rest,3,3.0,17375.0,133921.0,221876.0,274625.0,260060.0
2026-04-08 21:49:22.287245,236118,1609504134519884,1734486652,0.921344,-0.001952,0.11712,-1.40875,-0.35875,-2.05625,-16.832,21.44,3.96,inter_set_rest,3,3.0,17375.0,133921.0,221876.0,274625.0,260060.0
2026-04-08 21:49:22.293421,236119,1609504134528799,1734495353,0.921344,-0.001952,0.11712,-1.35625,-0.74375,-1.75,-16.832,21.44,3.96,inter_set_rest,3,3.0,17375.0,133921.0,221876.0,274625.0,260060.0
2026-04-08 21:49:22.351370,236120,1609504134543284,1734510248,0.925248,0.003904,0.113216,-1.42625,-1.2425,-2.485,-16.864,21.696001,4.168,inter_set_rest,3,3.0,17375.0,133921.0,221876.0,274625.0,260060.0
2026-04-08 21:49:22.354776,236121,1609504134552236,1734518906,0.925248,0.003904,0.113216,0.06125,-0.84875,-2.975,-16.864,21.696001,4.168,inter_set_rest,3,3.0,17375.0,133921.0,221876.0,274625.0,260060.0
2026-04-08 21:49:22.357262,236122,1609504134566707,1734533748,0.894016,0.005856,0.085888,-0.09625,-1.04125,-2.975,-16.832,21.232,4.728,inter_set_rest,3,3.0,17375.0,133921.0,221876.0,274625.0,260060.0
2026-04-08 21:49:22.384725,236133,1609504134575832,1734542471,0.903776,0.011712,0.06832,-1.40875,-1.6975,-2.72125,-16.632,21.496,3.864,inter_set_rest,3,3.0,17354.0,133898.0,221863.0,274591.0,260053.0
2026-04-08 21:49:22.387229,236134,1609504134590355,1734557375,0.903776,0.011712,0.06832,-1.93375,-2.28375,-2.93125,-16.632,21.496,3.864,inter_set_rest,3,3.0,17354.0,133898.0,221863.0,274591.0,260053.0
2026-04-08 21:49:22.389715,236135,1609504134599306,1734566063,0.91744,0.005856,0.095648,-1.5225,-2.40625,-2.86125,-16.792002,21.568,4.984,inter_set_rest,3,3.0,17354.0,133898.0,221863.0,274591.0,260053.0
2026-04-08 21:49:22.392207,236136,1609504134608267,1734574770,0.91744,0.005856,0.095648,-1.6625,-2.93125,-3.0975,-16.792002,21.568,4.984,inter_set_rest,3,3.0,17354.0,133898.0,221863.0,274591.0,260053.0
2026-04-08 21:49:22.394869,236137,1609504134622743,1734589731,0.89792,-0.003904,0.074176,-2.66,-2.84375,-3.71875,-16.968,21.448002,4.912,inter_set_rest,3,3.0,17354.0,133898.0,221863.0,274591.0,260053.0
2026-04-08 21:49:22.397238,236138,1609504134631683,1734598406,0.89792,-0.003904,0.074176,-1.93375,-2.6775,-3.2725,-16.968,21.448002,4.912,inter_set_rest,3,3.0,17354.0,133898.0,221863.0,274591.0,260053.0
2026-04-08 21:49:22.428652,236139,1609504134646164,1734613256,0.89792,0.00976,0.15616,-1.05875,-2.66,-3.05375,-16.800001,21.28,5.888001,inter_set_rest,3,3.0,17354.0,133898.0,221863.0,274591.0,260053.0
2026-04-08 21:49:22.431335,236140,1609504134655057,1734621916,0.919392,0.015616,0.128832,-0.65625,-2.9925,-3.36,-16.936,21.712002,4.112,inter_set_rest,3,3.0,17354.0,133898.0,221863.0,274591.0,260053.0
2026-04-08 21:49:22.434007,236141,1609504134669529,1734634764,0.919392,0.015616,0.128832,0.42875,-3.85,-3.59625,-16.936,21.712002,4.112,inter_set_rest,3,3.0,17354.0,133898.0,221863.0,274591.0,260053.0
2026-04-08 21:49:22.464771,236152,1609504134679363,1734645629,0.870592,0.011712,-0.011712,0.23625,-4.4275,-4.5325,-16.992,21.392,4.144,inter_set_rest,3,3.0,17328.0,133826.0,221866.0,274605.0,260078.0
2026-04-08 21:49:22.467259,236153,1609504134688322,1734654357,0.870592,0.011712,-0.011712,-0.35875,-4.585,-4.48,-16.992,21.392,4.144,inter_set_rest,3,3.0,17328.0,133826.0,221866.0,274605.0,260078.0
2026-04-08 21:49:22.469778,236154,1609504134702815,1734669266,0.899872,0.00976,0.173728,-0.83125,-4.38375,-4.80375,-17.136002,21.480001,5.04,inter_set_rest,3,3.0,17328.0,133826.0,221866.0,274605.0,260078.0
2026-04-08 21:49:22.476040,236155,1609504134711762,1734677961,0.899872,0.00976,0.173728,-2.24875,-4.82125,-4.6375,-17.136002,21.480001,5.04,inter_set_rest,3,3.0,17328.0,133826.0,221866.0,274605.0,260078.0
2026-04-08 21:49:22.508189,236156,1609504134726249,1734692814,0.895968,0.011712,0.101504,-2.98375,-5.6,-4.71625,-16.944,21.424002,4.904,inter_set_rest,3,3.0,17328.0,133826.0,221866.0,274605.0,260078.0
2026-04-08 21:49:22.510911,236157,1609504134735175,1734701480,0.895968,0.040992,0.083936,-2.415,-6.32625,-5.075,-16.944,21.424002,2.856,inter_set_rest,3,3.0,17328.0,133826.0,221866.0,274605.0,260078.0
2026-04-08 21:49:22.512547,236158,1609504134744133,1734710169,0.884256,0.040992,0.083936,-0.8225,-7.25375,-5.7225,-16.960001,21.544,2.16,inter_set_rest,3,3.0,17328.0,133826.0,221866.0,274605.0,260078.0
2026-04-08 21:49:22.542463,236159,1609504134758615,1734724984,0.83936,0.013664,0.007808,0.13125,-6.93,-5.45125,-17.216002,21.296001,3.904,concentric,3,3.0,17328.0,133826.0,221866.0,274605.0,260078.0
2026-04-08 21:49:22.546037,236160,1609504134767523,1734733653,0.83936,0.013664,0.007808,-1.2075,-6.67625,-4.36625,-17.216002,21.296001,3.904,concentric,3,3.0,17328.0,133826.0,221866.0,274605.0,260078.0
2026-04-08 21:49:22.573487,236171,1609504134782104,1734748590,0.843264,0.003904,0.013664,-4.48,-7.175,-3.36,-17.08,21.640001,3.68,concentric,3,3.0,17271.0,133847.0,222044.0,274786.0,260197.0
2026-04-08 21:49:22.576004,236172,1609504134791066,1734757262,0.843264,0.003904,0.013664,-5.36375,-7.77,-3.10625,-17.08,21.640001,3.68,concentric,3,3.0,17271.0,133847.0,222044.0,274786.0,260197.0
2026-04-08 21:49:22.578495,236173,1609504134799976,1734765944,0.866688,0.003904,0.105408,-0.14875,-7.9275,-3.87625,-17.056002,21.304,5.472,concentric,3,3.0,17271.0,133847.0,222044.0,274786.0,260197.0
2026-04-08 21:49:22.581040,236174,1609504134814618,1734780863,0.866688,0.003904,0.105408,5.6525,-7.945,-6.16,-17.056002,21.304,5.472,concentric,3,3.0,17271.0,133847.0,222044.0,274786.0,260197.0
2026-04-08 21:49:22.612510,236175,1609504134823609,1734789576,0.886208,0.0,0.105408,9.03875,-8.715,-7.55125,-17.432001,21.064001,6.728,concentric,3,3.0,17271.0,133847.0,222044.0,274786.0,260197.0
2026-04-08 21:49:22.616102,236176,1609504134838119,1734804439,0.89792,0.027328,0.023424,9.31875,-9.91375,-7.4375,-17.144001,21.12,4.04,concentric,3,3.0,17271.0,133847.0,222044.0,274786.0,260197.0
2026-04-08 21:49:22.649989,236177,1609504134847065,1734813167,0.89792,0.027328,0.023424,9.38,-10.43875,-6.4225,-17.144001,21.12,4.04,concentric,3,3.0,17271.0,133847.0,222044.0,274786.0,260197.0
2026-04-08 21:49:22.653540,236178,1609504134861494,1734828052,0.870592,0.011712,0.01952,11.0775,-10.29,-4.87375,-17.560001,20.632002,4.688,concentric,3,3.0,17271.0,133847.0,222044.0,274786.0,260197.0
2026-04-08 21:49:22.655991,236179,1609504134870414,1734836736,0.870592,0.011712,0.01952,11.22625,-10.36875,-3.92875,-17.560001,20.632002,4.688,concentric,3,3.0,17271.0,133847.0,222044.0,274786.0,260197.0
2026-04-08 21:49:22.683476,236190,1609504134879421,1734845424,0.833504,0.01952,-0.054656,11.4625,-11.7775,-3.2025,-17.832,20.904001,3.936,concentric,3,3.0,17343.0,134105.0,222425.0,275092.0,260360.0
2026-04-08 21:49:22.686012,236191,1609504134893957,1734860310,0.833504,0.01952,-0.054656,15.86375,-13.4925,-3.465,-17.832,20.904001,3.936,concentric,3,3.0,17343.0,134105.0,222425.0,275092.0,260360.0
2026-04-08 21:49:22.688454,236192,1609504134902971,1734869068,0.884256,0.042944,0.103456,20.755,-15.18125,-4.26125,-17.664001,21.056002,4.928001,concentric,3,3.0,17343.0,134105.0,222425.0,275092.0,260360.0
2026-04-08 21:49:22.691002,236193,1609504134917493,1734883981,0.905728,0.040992,0.130784,23.38,-17.15875,-7.1575,-18.072,20.576,4.768,concentric,3,3.0,17343.0,134105.0,222425.0,275092.0,260360.0
2026-04-08 21:49:22.694303,236194,1609504134926472,1734892686,0.905728,0.040992,0.130784,24.7625,-17.605,-9.835,-18.072,20.576,4.768,concentric,3,3.0,17343.0,134105.0,222425.0,275092.0,260360.0
2026-04-08 21:49:22.726273,236195,1609504134941034,1734907593,0.870592,0.072224,0.05856,23.5375,-16.94,-9.292501,-17.720001,20.560001,4.184,concentric,3,3.0,17343.0,134105.0,222425.0,275092.0,260360.0
2026-04-08 21:49:22.731630,236196,1609504134949932,1734916265,0.870592,0.072224,0.05856,20.37875,-17.21125,-7.91875,-17.720001,20.560001,4.184,concentric,3,3.0,17343.0,134105.0,222425.0,275092.0,260360.0
2026-04-08 21:49:22.733148,236197,1609504134958834,1734924916,0.817888,0.08784,-0.046848,17.8675,-17.78875,-7.07,-17.984001,20.448002,3.72,concentric,3,3.0,17343.0,134105.0,222425.0,275092.0,260360.0
2026-04-08 21:49:22.740130,236198,1609504134973300,1734939777,0.817888,0.08784,-0.046848,17.36875,-18.83875,-7.0175,-17.984001,20.448002,3.72,concentric,3,3.0,17343.0,134105.0,222425.0,275092.0,260360.0
2026-04-08 21:49:22.767824,236209,1609504134982388,1734948594,0.913536,-0.011712,-0.015616,16.24875,-20.83375,-9.70375,-18.264,20.184,4.896,concentric,3,3.0,17267.0,133831.0,222120.0,274875.0,260268.0
2026-04-08 21:49:22.769524,236210,1609504134996965,1734963594,0.913536,0.005856,-0.015616,19.03125,-21.77875,-8.30375,-18.264,20.184,4.896,concentric,3,3.0,17267.0,133831.0,222120.0,274875.0,260268.0
2026-04-08 21:49:22.771064,236211,1609504135005969,1734972287,0.938912,0.005856,-0.015616,23.03875,-22.741251,-5.9325,-18.096,20.208,4.24,concentric,3,3.0,17267.0,133831.0,222120.0,274875.0,260268.0
2026-04-08 21:49:22.802148,236212,1609504135020448,1734987159,0.847168,0.056608,-0.080032,24.675,-23.66875,-10.115,-18.408,20.0,3.792,concentric,3,3.0,17267.0,133831.0,222120.0,274875.0,260268.0
2026-04-08 21:49:22.804408,236213,1609504135029314,1734995811,0.847168,0.056608,-0.080032,24.955,-23.38,-13.53625,-18.408,20.0,3.792,concentric,3,3.0,17267.0,133831.0,222120.0,274875.0,260268.0
2026-04-08 21:49:22.809029,236214,1609504135038238,1735004480,0.870592,0.072224,0.080032,23.52875,-23.178751,-12.81875,-18.84,19.784,5.44,concentric,3,3.0,17267.0,133831.0,222120.0,274875.0,260268.0
2026-04-08 21:49:22.837487,236215,1609504135052725,1735019337,0.870592,0.072224,0.080032,18.62875,-23.80875,-12.6525,-18.84,19.784,5.44,concentric,3,3.0,17267.0,133831.0,222120.0,274875.0,260268.0
2026-04-08 21:49:22.841961,236216,1609504135061630,1735028009,0.83936,0.056608,-0.091744,15.4525,-24.10625,-12.29375,-18.84,19.6,3.848,concentric,3,3.0,17267.0,133831.0,222120.0,274875.0,260268.0
2026-04-08 21:49:22.843503,236217,1609504135076136,1735042875,0.83936,0.056608,-0.091744,14.98875,-23.91375,-11.48875,-18.84,19.6,3.848,concentric,3,3.0,17267.0,133831.0,222120.0,274875.0,260268.0
2026-04-08 21:49:22.871999,236228,1609504135085206,1735051576,0.845216,0.089792,-0.025376,15.26,-23.415,-9.44125,-19.128,19.504002,2.536,concentric,3,3.0,17185.0,133640.0,221902.0,274807.0,260258.0
2026-04-08 21:49:22.873513,236229,1609504135099718,1735066510,0.81984,0.099552,0.013664,13.15125,-21.76125,-10.2725,-19.408,19.76,4.264,concentric,3,3.0,17185.0,133640.0,221902.0,274807.0,260258.0
2026-04-08 21:49:22.877588,236230,1609504135108758,1735075228,0.81984,0.099552,0.013664,10.14125,-21.525,-9.765,-19.408,19.76,4.264,concentric,3,3.0,17185.0,133640.0,221902.0,274807.0,260258.0
2026-04-08 21:49:22.884214,236231,1609504135117702,1735083979,0.81984,0.072224,0.035136,7.21875,-22.225,-7.35875,-19.408,19.76,4.264,concentric,3,3.0,17185.0,133640.0,221902.0,274807.0,260258.0
2026-04-08 21:49:22.947377,236232,1609504135132156,1735098839,0.845216,0.072224,0.035136,4.94375,-22.93375,-6.83375,-19.472,19.432001,3.264,concentric,3,3.0,17185.0,133640.0,221902.0,274807.0,260258.0
2026-04-08 21:49:22.952795,236233,1609504135141064,1735107523,0.860832,0.007808,0.08784,4.08625,-22.785,-8.86375,-19.088001,19.2,3.584,concentric,3,3.0,17185.0,133640.0,221902.0,274807.0,260258.0
2026-04-08 21:49:22.954459,236234,1609504135155564,1735122379,0.860832,0.007808,0.08784,1.79375,-22.18125,-10.61375,-19.088001,19.2,3.584,concentric,3,3.0,17185.0,133640.0,221902.0,274807.0,260258.0
2026-04-08 21:49:22.956060,236235,1609504135164500,1735131100,0.864736,0.031232,-0.064416,1.7675,-21.30625,-10.56125,-19.616001,18.984001,3.264,concentric,3,3.0,17185.0,133640.0,221902.0,274807.0,260258.0
2026-04-08 21:49:22.988756,236246,1609504135179157,1735146328,0.860832,0.091744,0.093696,5.39,-19.7925,-10.99,-19.688002,19.008001,3.376,concentric,3,3.0,17228.0,133848.0,222251.0,275102.0,260455.0
2026-04-08 21:49:22.991097,236247,1609504135188112,1735154980,0.860832,0.091744,0.093696,8.54875,-18.0425,-11.5675,-19.688002,19.008001,3.376,concentric,3,3.0,17228.0,133848.0,222251.0,275102.0,260455.0
2026-04-08 21:49:22.992474,236248,1609504135197040,1735163678,0.860832,0.091744,0.093696,6.76375,-17.255,-11.61125,-19.688002,19.008001,3.376,concentric,3,3.0,17228.0,133848.0,222251.0,275102.0,260455.0
2026-04-08 21:49:22.995720,236249,1609504135211585,1735178539,0.813984,0.050752,-0.06832,2.40625,-16.9575,-11.515,-20.240002,19.088001,5.856,concentric,3,3.0,17228.0,133848.0,222251.0,275102.0,260455.0
2026-04-08 21:49:22.997257,236250,1609504135220489,1735187246,0.847168,-0.017568,0.052704,-0.07875,-17.2375,-11.1475,-20.072,18.800001,3.92,concentric,3,3.0,17228.0,133848.0,222251.0,275102.0,260455.0
2026-04-08 21:49:22.999710,236251,1609504135234996,1735200196,0.847168,-0.017568,0.052704,-1.7675,-17.54375,-11.585,-20.072,18.800001,3.92,concentric,3,3.0,17228.0,133848.0,222251.0,275102.0,260455.0
2026-04-08 21:49:23.030007,236252,1609504135244244,1735210935,0.854976,0.003904,0.005856,-1.26,-17.710001,-13.11625,-20.224,18.432001,3.344,concentric,3,3.0,17228.0,133848.0,222251.0,275102.0,260455.0
2026-04-08 21:49:23.033519,236253,1609504135253158,1735219576,0.854976,0.003904,0.005856,4.6025,-17.38625,-14.761251,-20.224,18.432001,3.344,concentric,3,3.0,17228.0,133848.0,222251.0,275102.0,260455.0
2026-04-08 21:49:23.035967,236254,1609504135267661,1735234502,0.86864,0.025376,-0.003904,14.2975,-17.50875,-15.636251,-20.240002,18.576,3.024,concentric,3,3.0,17228.0,133848.0,222251.0,275102.0,260455.0
2026-04-08 21:49:23.042278,236255,1609504135276596,1735243185,0.86864,0.025376,-0.003904,25.4975,-17.98125,-15.54875,-20.240002,18.576,3.024,concentric,3,3.0,17228.0,133848.0,222251.0,275102.0,260455.0
2026-04-08 21:49:23.070078,236266,1609504135291170,1735258170,0.895968,0.023424,0.037088,30.37125,-17.80625,-15.33,-20.752,18.28,2.848,concentric,3,3.0,17320.0,134199.0,222712.0,275440.0,260675.0
2026-04-08 21:49:23.072530,236267,1609504135300135,1735266830,0.847168,0.056608,0.062464,28.875,-18.62875,-14.14875,-20.928001,18.352001,3.624,concentric,3,3.0,17320.0,134199.0,222712.0,275440.0,260675.0
2026-04-08 21:49:23.079850,236268,1609504135314704,1735281759,0.847168,0.056608,0.062464,25.75125,-19.17125,-11.59375,-20.928001,18.352001,3.624,concentric,3,3.0,17320.0,134199.0,222712.0,275440.0,260675.0
2026-04-08 21:49:23.110058,236269,1609504135323644,1735290467,0.894016,0.013664,-0.017568,24.605,-19.25,-12.11,-20.848001,18.016,2.872,concentric,3,3.0,17320.0,134199.0,222712.0,275440.0,260675.0
2026-04-08 21:49:23.113530,236270,1609504135332553,1735299122,0.894016,0.013664,-0.017568,24.78,-18.50625,-14.9275,-20.848001,18.016,2.872,concentric,3,3.0,17320.0,134199.0,222712.0,275440.0,260675.0
2026-04-08 21:49:23.115992,236271,1609504135347382,1735314402,0.83936,0.074176,-0.113216,23.1875,-18.26125,-12.2325,-21.272001,17.720001,1.68,concentric,3,3.0,17320.0,134199.0,222712.0,275440.0,260675.0
2026-04-08 21:49:23.122205,236272,1609504135356453,1735323105,0.83936,0.074176,-0.113216,22.54875,-17.17625,-5.3725,-21.272001,17.720001,1.68,concentric,3,3.0,17320.0,134199.0,222712.0,275440.0,260675.0
2026-04-08 21:49:23.152436,236273,1609504135370931,1735338074,0.81984,0.095648,-0.130784,26.2675,-16.03,-6.37,-21.52,18.032001,2.848,concentric,3,3.0,17320.0,134199.0,222712.0,275440.0,260675.0
2026-04-08 21:49:23.184732,236284,1609504135380148,1735346790,0.817888,0.0976,-0.091744,29.33,-14.6125,-9.68625,-21.52,18.032001,5.168,concentric,3,3.0,17308.0,134207.0,222751.0,275550.0,260768.0
2026-04-08 21:49:23.187279,236285,1609504135389109,1735355516,0.817888,0.0976,-0.091744,25.6725,-13.50125,-10.57875,-21.616001,17.6,5.168,concentric,3,3.0,17308.0,134207.0,222751.0,275550.0,260768.0
2026-04-08 21:49:23.189707,236286,1609504135403599,1735370495,0.923296,0.132736,0.00976,20.825,-11.7425,-7.95375,-21.624,17.640001,2.832,concentric,3,3.0,17308.0,134207.0,222751.0,275550.0,260768.0
2026-04-08 21:49:23.192171,236287,1609504135412525,1735379227,0.923296,0.132736,0.00976,20.5975,-10.59625,2.44125,-21.624,17.640001,2.832,concentric,3,3.0,17308.0,134207.0,222751.0,275550.0,260768.0
2026-04-08 21:49:23.194675,236288,1609504135427085,1735394102,0.935008,0.095648,-0.080032,15.7675,-9.96625,5.25875,-21.688002,17.784,3.76,concentric,3,3.0,17308.0,134207.0,222751.0,275550.0,260768.0
2026-04-08 21:49:23.248330,236289,1609504135436006,1735402838,0.935008,0.095648,-0.080032,6.30875,-8.35625,-3.92,-21.688002,17.784,3.76,concentric,3,3.0,17308.0,134207.0,222751.0,275550.0,260768.0
2026-04-08 21:49:23.252772,236290,1609504135450481,1735415649,0.872544,0.037088,-0.054656,3.35125,-6.51875,-4.935,-21.504002,17.568,3.512,concentric,3,3.0,17308.0,134207.0,222751.0,275550.0,260768.0
2026-04-08 21:49:23.255279,236291,1609504135459647,1735426735,0.872544,0.037088,-0.054656,4.0775,-5.34625,0.81375,-21.504002,17.568,3.512,concentric,3,3.0,17308.0,134207.0,222751.0,275550.0,260768.0
2026-04-08 21:49:23.263840,236292,1609504135469063,1735435555,0.884256,0.0488,-0.033184,0.88375,-3.85,-0.5075,-21.984001,17.632,2.176,concentric,3,3.0,17308.0,134207.0,222751.0,275550.0,260768.0
2026-04-08 21:49:23.291494,236303,1609504135484449,1735450494,0.931104,0.08784,-0.017568,0.8575,-2.4325,-3.4475,-21.872002,17.896,2.816,concentric,3,3.0,17389.0,134575.0,223180.0,275902.0,260984.0
2026-04-08 21:49:23.293223,236304,1609504135493400,1735459169,0.931104,0.08784,-0.017568,4.15625,-1.19,0.72625,-21.872002,17.896,2.816,concentric,3,3.0,17389.0,134575.0,223180.0,275902.0,260984.0
2026-04-08 21:49:23.295636,236305,1609504135502360,1735467871,0.94672,0.05856,-0.001952,3.21125,-0.42,1.58375,-21.76,17.584002,2.68,concentric,3,3.0,17389.0,134575.0,223180.0,275902.0,260984.0
2026-04-08 21:49:23.297264,236306,1609504135517287,1735482829,0.94672,0.05856,-0.001952,3.5875,0.86625,-1.19,-21.76,17.584002,2.68,concentric,3,3.0,17389.0,134575.0,223180.0,275902.0,260984.0
2026-04-08 21:49:23.301331,236307,1609504135526664,1735493610,0.935008,0.072224,-0.052704,8.26,1.28625,2.87,-22.024,17.896,2.832,concentric,3,3.0,17389.0,134575.0,223180.0,275902.0,260984.0
2026-04-08 21:49:23.308459,236308,1609504135541172,1735506454,0.919392,0.070272,-0.089792,7.455,2.0475,0.55125,-22.024,18.096,2.592,concentric,3,3.0,17389.0,134575.0,223180.0,275902.0,260984.0
2026-04-08 21:49:23.336220,236309,1609504135550488,1735517250,0.919392,0.070272,-0.089792,8.2075,3.52625,-4.50625,-22.160002,18.096,2.592,concentric,3,3.0,17389.0,134575.0,223180.0,275902.0,260984.0
2026-04-08 21:49:23.339298,236310,1609504135559400,1735525925,0.919392,0.070272,-0.089792,9.30125,4.165,-1.93375,-22.160002,18.096,2.592,concentric,3,3.0,17389.0,134575.0,223180.0,275902.0,260984.0
2026-04-08 21:49:23.343033,236311,1609504135573869,1735540793,0.903776,0.122976,-0.16592,7.41125,3.6925,-0.14,-22.12,17.936,5.064,concentric,3,3.0,17389.0,134575.0,223180.0,275902.0,260984.0
2026-04-08 21:49:23.383221,236322,1609504135583245,1735549488,0.968192,0.081984,-0.144448,9.31,3.98125,-3.19375,-22.232,17.880001,3.208,concentric,3,3.0,17538.0,135132.0,223840.0,276401.0,261285.0
2026-04-08 21:49:23.386198,236323,1609504135597794,1735564432,0.968192,0.081984,-0.144448,14.1225,4.725,-5.99375,-22.232,17.880001,3.208,concentric,3,3.0,17538.0,135132.0,223840.0,276401.0,261285.0
2026-04-08 21:49:23.387318,236324,1609504135606748,1735573097,1.00528,0.105408,-0.05856,15.67125,5.45125,-8.925,-22.696001,17.584002,4.136,concentric,3,3.0,17538.0,135132.0,223840.0,276401.0,261285.0
2026-04-08 21:49:23.394490,236325,1609504135615846,1735581809,1.00528,0.105408,-0.05856,13.41375,6.6675,-12.39875,-22.696001,17.584002,4.136,concentric,3,3.0,17538.0,135132.0,223840.0,276401.0,261285.0
2026-04-08 21:49:23.396045,236326,1609504135630367,1735596808,0.972096,0.154208,-0.08784,14.81375,8.28625,-8.47,-22.512001,17.496,4.176,concentric,3,3.0,17538.0,135132.0,223840.0,276401.0,261285.0
2026-04-08 21:49:23.426144,236327,1609504135639301,1735605499,0.972096,0.154208,-0.08784,14.35875,9.511251,-3.80625,-22.512001,17.496,4.176,concentric,3,3.0,17538.0,135132.0,223840.0,276401.0,261285.0
2026-04-08 21:49:23.429717,236328,1609504135653767,1735620357,0.903776,0.122976,-0.066368,9.835,9.6775,-4.69,-22.824001,17.512001,4.08,concentric,3,3.0,17538.0,135132.0,223840.0,276401.0,261285.0
2026-04-08 21:49:23.432236,236329,1609504135662639,1735629040,0.954528,0.083936,0.007808,6.36125,8.645,-4.03375,-22.808,17.624,3.44,concentric,3,3.0,17538.0,135132.0,223840.0,276401.0,261285.0
2026-04-08 21:49:23.443546,236330,1609504135677180,1735643902,0.954528,0.083936,0.007808,6.79875,7.72625,-2.26625,-22.808,17.624,3.44,concentric,3,3.0,17538.0,135132.0,223840.0,276401.0,261285.0
2026-04-08 21:49:23.470971,236341,1609504135686280,1735653083,0.989664,0.081984,0.062464,8.9075,7.1575,-2.205,-22.816002,17.728,3.496,concentric,3,3.0,17546.0,135192.0,223926.0,276527.0,261384.0
2026-04-08 21:49:23.473461,236342,1609504135695312,1735661768,0.989664,0.081984,0.062464,14.00875,7.25375,-5.6875,-22.816002,17.728,3.496,concentric,3,3.0,17546.0,135192.0,223926.0,276527.0,261384.0
2026-04-08 21:49:23.475957,236343,1609504135709803,1735676638,0.991616,0.070272,0.037088,14.69125,7.51625,-6.30875,-22.752,17.432001,3.936,concentric,3,3.0,17546.0,135192.0,223926.0,276527.0,261384.0
2026-04-08 21:49:23.507266,236344,1609504135718727,1735685299,0.991616,0.070272,0.037088,10.01875,8.2425,-4.025,-22.752,17.432001,3.936,concentric,3,3.0,17546.0,135192.0,223926.0,276527.0,261384.0
2026-04-08 21:49:23.509716,236345,1609504135733287,1735700217,0.942816,0.056608,-0.085888,4.92625,8.7325,-2.94875,-22.736002,17.192001,3.728,concentric,3,3.0,17546.0,135192.0,223926.0,276527.0,261384.0
2026-04-08 21:49:23.512224,236346,1609504135742179,1735708877,0.958432,0.072224,-0.064416,1.2425,9.45,-3.59625,-22.736002,17.192001,5.776001,concentric,3,3.0,17546.0,135192.0,223926.0,276527.0,261384.0
2026-04-08 21:49:23.516036,236347,1609504135751093,1735717526,0.962336,0.072224,-0.064416,3.08875,9.58125,-5.495,-23.04,17.232,5.480001,concentric,3,3.0,17546.0,135192.0,223926.0,276527.0,261384.0
2026-04-08 21:49:23.551485,236348,1609504135765569,1735732388,1.001376,0.074176,-0.062464,8.365,9.17875,-6.93,-23.056002,17.184,3.64,concentric,3,3.0,17546.0,135192.0,223926.0,276527.0,261384.0
2026-04-08 21:49:23.554798,236349,1609504135774543,1735741097,1.001376,0.074176,-0.062464,8.51375,9.24875,-9.17,-23.056002,17.184,3.64,concentric,3,3.0,17546.0,135192.0,223926.0,276527.0,261384.0
2026-04-08 21:49:23.582274,236360,1609504135789066,1735755982,0.95648,0.109312,-0.046848,8.88125,9.37125,-5.78375,-23.640001,17.384,4.056,concentric,3,3.0,17581.0,135396.0,224231.0,276751.0,261507.0
2026-04-08 21:49:23.584741,236361,1609504135797991,1735764690,0.95648,0.109312,-0.046848,6.04625,8.74125,-7.175,-23.640001,17.384,4.056,concentric,3,3.0,17581.0,135396.0,224231.0,276751.0,261507.0
2026-04-08 21:49:23.587266,236362,1609504135812495,1735779625,0.931104,0.074176,-0.056608,-0.1575,9.1,-9.09125,-23.240002,17.176,4.992,concentric,3,3.0,17581.0,135396.0,224231.0,276751.0,261507.0
2026-04-08 21:49:23.589699,236363,1609504135821434,1735788310,0.931104,0.074176,-0.056608,-0.5075,9.94,-3.49125,-23.240002,17.176,4.992,concentric,3,3.0,17581.0,135396.0,224231.0,276751.0,261507.0
2026-04-08 21:49:23.595998,236364,1609504135830371,1735796994,0.950624,0.083936,-0.103456,-2.1175,10.85,-6.95625,-23.568,17.320002,3.104,concentric,3,3.0,17581.0,135396.0,224231.0,276751.0,261507.0
2026-04-08 21:49:23.627632,236365,1609504135844847,1735811878,0.962336,0.167872,-0.138592,3.14125,12.95,-6.29125,-23.424002,17.144001,4.128,concentric,3,3.0,17581.0,135396.0,224231.0,276751.0,261507.0
2026-04-08 21:49:23.630521,236366,1609504135853757,1735820529,0.962336,0.167872,-0.138592,7.53375,14.533751,0.21875,-23.424002,17.144001,4.128,concentric,3,3.0,17581.0,135396.0,224231.0,276751.0,261507.0
2026-04-08 21:49:23.632479,236367,1609504135868244,1735833390,0.915488,0.134688,-0.119072,2.275,15.3125,-1.82875,-23.240002,17.320002,4.088,concentric,3,3.0,17581.0,135396.0,224231.0,276751.0,261507.0
2026-04-08 21:49:23.662570,236368,1609504135877410,1735844123,0.915488,0.134688,-0.119072,-2.6775,16.79125,0.04375,-23.240002,17.320002,4.088,concentric,3,3.0,17581.0,135396.0,224231.0,276751.0,261507.0
2026-04-08 21:49:23.690980,236379,1609504135891926,1735858994,0.905728,0.113216,-0.064416,-9.7125,16.5375,4.795,-23.168001,17.656,4.688,concentric,3,3.0,17492.0,135126.0,223907.0,276549.0,261414.0
2026-04-08 21:49:23.693497,236380,1609504135900869,1735867647,0.905728,0.113216,-0.064416,-14.77875,16.86125,6.81625,-23.168001,17.656,4.688,concentric,3,3.0,17492.0,135126.0,223907.0,276549.0,261414.0
2026-04-08 21:49:23.695929,236381,1609504135909790,1735876336,0.981856,0.035136,-0.040992,-13.545,16.80875,7.00875,-23.176,17.528002,4.64,concentric,3,3.0,17492.0,135126.0,223907.0,276549.0,261414.0
2026-04-08 21:49:23.698573,236382,1609504135924312,1735891241,0.940864,0.15616,-0.060512,-10.1325,16.616251,10.5875,-23.592001,17.776001,4.584,concentric,3,3.0,17492.0,135126.0,223907.0,276549.0,261414.0
2026-04-08 21:49:23.700991,236383,1609504135933228,1735899926,0.940864,0.15616,-0.060512,-10.3075,16.77375,5.17125,-23.592001,17.776001,4.584,concentric,3,3.0,17492.0,135126.0,223907.0,276549.0,261414.0
2026-04-08 21:49:23.731389,236384,1609504135947720,1735914861,0.976,0.191296,-0.021472,-5.55625,17.01,-6.3175,-23.536001,17.52,5.448,concentric,3,3.0,17492.0,135126.0,223907.0,276549.0,261414.0
2026-04-08 21:49:23.734776,236385,1609504135956714,1735923519,0.976,0.191296,-0.021472,5.78375,18.147501,-6.53625,-23.536001,17.52,5.448,concentric,3,3.0,17492.0,135126.0,223907.0,276549.0,261414.0
2026-04-08 21:49:23.737315,236386,1609504135971194,1735936385,0.903776,0.105408,0.005856,16.31875,18.76875,-0.3325,-23.672,17.304,7.384,concentric,3,3.0,17492.0,135126.0,223907.0,276549.0,261414.0
2026-04-08 21:49:23.767414,236387,1609504135980400,1735947146,0.903776,0.105408,0.005856,16.05625,19.39875,-1.93375,-23.672,17.304,7.384,concentric,3,3.0,17492.0,135126.0,223907.0,276549.0,261414.0
2026-04-08 21:49:23.795966,236398,1609504135989354,1735955841,0.892064,0.054656,-0.08784,6.51,18.7775,-4.375,-23.392,17.320002,6.024,concentric,3,3.0,17536.0,135254.0,224022.0,276594.0,261436.0
2026-04-08 21:49:23.798426,236399,1609504136003826,1735970711,0.892064,0.05856,-0.160064,2.975,16.87875,-1.05875,-23.392,17.320002,6.024,concentric,3,3.0,17536.0,135254.0,224022.0,276594.0,261436.0
2026-04-08 21:49:23.800997,236400,1609504136012820,1735979371,0.968192,0.05856,-0.160064,7.0,14.18375,0.74375,-23.432001,17.12,5.176,concentric,3,3.0,17536.0,135254.0,224022.0,276594.0,261436.0
2026-04-08 21:49:23.803555,236401,1609504136027308,1735994205,0.954528,0.040992,-0.093696,8.75875,12.9325,-3.49125,-23.752,17.376001,5.44,concentric,3,3.0,17536.0,135254.0,224022.0,276594.0,261436.0
2026-04-08 21:49:23.812349,236402,1609504136036290,1736002908,0.954528,0.040992,-0.093696,7.23625,11.585,-7.77,-23.752,17.376001,5.44,concentric,3,3.0,17536.0,135254.0,224022.0,276594.0,261436.0
2026-04-08 21:49:23.850001,236403,1609504136050811,1736017775,0.974048,0.07808,-0.05856,5.03125,11.19125,-8.30375,-23.608002,17.224,5.480001,concentric,3,3.0,17536.0,135254.0,224022.0,276594.0,261436.0
2026-04-08 21:49:23.853553,236404,1609504136059717,1736026459,0.974048,0.07808,-0.05856,5.81875,11.1825,-8.75,-23.608002,17.224,5.480001,concentric,3,3.0,17536.0,135254.0,224022.0,276594.0,261436.0
2026-04-08 21:49:23.856040,236405,1609504136068762,1736035119,0.954528,0.12688,-0.031232,4.26125,11.47125,-9.275,-23.536001,17.352001,5.960001,concentric,3,3.0,17536.0,135254.0,224022.0,276594.0,261436.0
2026-04-08 21:49:23.883408,236416,1609504136083646,1736050131,0.954528,0.12688,-0.031232,-1.4525,10.3775,-9.49375,-23.536001,17.352001,5.960001,concentric,3,3.0,17620.0,135371.0,224101.0,276586.0,261372.0
2026-04-08 21:49:23.885937,236417,1609504136092665,1736058823,0.960384,0.113216,-0.12688,-3.605,8.1025,-9.45875,-23.76,17.0,4.552,concentric,3,3.0,17620.0,135371.0,224101.0,276586.0,261372.0
2026-04-08 21:49:23.888456,236418,1609504136107179,1736073788,1.0248,0.08784,-0.023424,-8.3825,5.8275,-10.01,-23.952002,17.248001,5.616,concentric,3,3.0,17620.0,135371.0,224101.0,276586.0,261372.0
2026-04-08 21:49:23.891010,236419,1609504136116320,1736082492,1.0248,0.08784,-0.023424,-11.45375,4.795,-10.1325,-23.952002,17.248001,5.616,concentric,3,3.0,17620.0,135371.0,224101.0,276586.0,261372.0
2026-04-08 21:49:23.893464,236420,1609504136125251,1736091197,0.993568,0.080032,-0.037088,-11.10375,6.25625,-9.26625,-23.912,17.08,5.888001,concentric,3,3.0,17620.0,135371.0,224101.0,276586.0,261372.0
2026-04-08 21:49:23.923798,236421,1609504136139757,1736106079,0.993568,0.080032,-0.037088,-8.8725,7.35,-8.32125,-23.912,17.08,5.888001,concentric,3,3.0,17620.0,135371.0,224101.0,276586.0,261372.0
2026-04-08 21:49:23.927275,236422,1609504136148714,1736114852,1.00528,0.11712,-0.066368,-7.81375,6.08125,-6.86875,-23.888,17.368,5.568,concentric,3,3.0,17620.0,135371.0,224101.0,276586.0,261372.0
2026-04-08 21:49:23.929724,236423,1609504136163193,1736129783,1.00528,0.11712,-0.066368,-8.47875,5.1625,-6.16875,-23.888,17.368,5.568,concentric,3,3.0,17620.0,135371.0,224101.0,276586.0,261372.0
2026-04-08 21:49:23.959972,236424,1609504136172111,1736138446,1.104832,0.080032,-0.031232,-7.77,3.92,-7.39375,-24.104002,17.352001,7.712,concentric,3,3.0,17620.0,135371.0,224101.0,276586.0,261372.0
2026-04-08 21:49:23.988513,236435,1609504136187200,1736153465,1.069696,0.066368,-0.062464,-9.1175,3.6925,-9.33625,-24.184002,17.376001,6.2,concentric,3,3.0,17758.0,135862.0,224643.0,276821.0,261418.0
2026-04-08 21:49:23.997576,236436,1609504136196133,1736162175,1.069696,0.066368,-0.062464,-11.96125,4.19125,-10.71,-24.184002,17.376001,6.2,concentric,3,3.0,17758.0,135862.0,224643.0,276821.0,261418.0
2026-04-08 21:49:23.997664,236437,1609504136205042,1736170927,1.069696,0.081984,-0.089792,-12.145,4.76875,-10.6575,-24.184002,17.376001,6.2,concentric,3,3.0,17758.0,135862.0,224643.0,276821.0,261418.0
2026-04-08 21:49:24.002190,236438,1609504136219577,1736185873,1.028704,0.085888,-0.089792,-11.52375,5.5125,-9.17875,-24.6,17.104,6.144,concentric,3,3.0,17758.0,135862.0,224643.0,276821.0,261418.0
2026-04-08 21:49:24.004727,236439,1609504136228574,1736194587,1.057984,0.13664,-0.11712,-10.54375,5.83625,-8.3125,-24.536001,17.064001,6.536,concentric,3,3.0,17758.0,135862.0,224643.0,276821.0,261418.0
2026-04-08 21:49:24.008427,236440,1609504136243122,1736209449,1.057984,0.13664,-0.11712,-10.6575,5.4075,-8.02375,-24.536001,17.064001,6.536,concentric,3,3.0,17758.0,135862.0,224643.0,276821.0,261418.0
2026-04-08 21:49:24.028238,236441,1609504136252028,1736218074,1.147776,0.16592,0.085888,-12.62625,3.08875,-8.44375,-24.464,17.112001,5.480001,concentric,3,3.0,17758.0,135862.0,224643.0,276821.0,261418.0
2026-04-08 21:49:24.029756,236442,1609504136260914,1736226738,1.147776,0.16592,0.085888,-12.845,1.435,-8.95125,-24.464,17.112001,5.480001,concentric,3,3.0,17758.0,135862.0,224643.0,276821.0,261418.0
2026-04-08 21:49:24.059899,236443,1609504136275398,1736241617,1.130208,0.15616,0.017568,-7.245,1.6625,-8.82,-24.552002,16.936,5.632,concentric,3,3.0,17758.0,135862.0,224643.0,276821.0,261418.0
2026-04-08 21:49:24.092199,236454,1609504136284709,1736250267,1.130208,0.15616,0.017568,-2.35375,2.3625,-7.90125,-24.552002,16.936,5.632,concentric,3,3.0,18033.0,136768.0,225633.0,277421.0,261663.0
2026-04-08 21:49:24.094670,236455,1609504136299581,1736265161,1.077504,0.17568,-0.081984,1.21625,2.975,-6.02875,-24.176,16.880001,4.52,concentric,3,3.0,18033.0,136768.0,225633.0,277421.0,261663.0
2026-04-08 21:49:24.132427,236456,1609504136308945,1736275930,1.100928,0.20496,0.06832,0.18375,2.835,-2.905,-24.448002,17.552,6.512,concentric,3,3.0,18033.0,136768.0,225633.0,277421.0,261663.0
2026-04-08 21:49:24.166109,236457,1609504136317917,1736284629,1.100928,0.20496,0.06832,-2.65125,2.345,-0.62125,-24.448002,17.552,6.512,concentric,3,3.0,18033.0,136768.0,225633.0,277421.0,261663.0
2026-04-08 21:49:24.168471,236458,1609504136332437,1736299500,1.11264,0.15616,-0.044896,0.09625,1.82875,0.91875,-23.920002,16.728,5.408001,concentric,3,3.0,18033.0,136768.0,225633.0,277421.0,261663.0
2026-04-08 21:49:24.170953,236459,1609504136341365,1736308226,1.11264,0.15616,-0.044896,4.31375,1.44375,-0.49,-23.920002,16.728,5.408001,concentric,3,3.0,18033.0,136768.0,225633.0,277421.0,261663.0
2026-04-08 21:49:24.173441,236460,1609504136355807,1736321048,1.120448,0.109312,0.001952,7.3675,0.9975,-2.9575,-24.296001,16.784,5.792,concentric,3,3.0,18033.0,136768.0,225633.0,277421.0,261663.0
2026-04-08 21:49:24.175940,236461,1609504136365062,1736331782,1.120448,0.109312,0.001952,6.78125,0.84,-2.75625,-24.296001,16.784,5.792,concentric,3,3.0,18033.0,136768.0,225633.0,277421.0,261663.0
2026-04-08 21:49:24.178464,236462,1609504136373948,1736340430,1.091168,0.119072,0.062464,4.97,0.58625,-1.295,-24.104002,16.672,5.928001,concentric,3,3.0,18033.0,136768.0,225633.0,277421.0,261663.0
