pc_time,serial_num,sensor_ts,host_ts,ax,ay,az,gx,gy,gz,mx,my,mz,phase,rpe,weight_kg,ppg_a,ppg_b,ppg_c,ppg_d,ppg_e
2026-04-08 21:49:49.002649,241131,1609504161200138,1761166565,1.175104,0.1464,-0.031232,5.2325,1.93375,1.8725,-24.808,16.432001,6.464,eccentric,3,3.0,20117.0,142373.0,230335.0,280766.0,263977.0
2026-04-08 21:49:49.031023,241142,1609504161214630,1761181445,1.188768,0.12688,-0.040992,4.2525,1.1725,2.2575,-24.488,16.744001,5.528,eccentric,3,3.0,20076.0,142110.0,229923.0,280386.0,263751.0
2026-04-08 21:49:49.033570,241143,1609504161223556,1761190189,1.188768,0.12688,-0.040992,3.045,0.63875,3.42125,-24.488,16.744001,5.528,eccentric,3,3.0,20076.0,142110.0,229923.0,280386.0,263751.0
2026-04-08 21:49:49.036090,241144,1609504161238035,1761205062,1.167296,0.109312,-0.093696,2.0125,1.295,3.745,-24.488,16.736,4.872,eccentric,3,3.0,20076.0,142110.0,229923.0,280386.0,263751.0
2026-04-08 21:49:49.038625,241145,1609504161247056,1761213722,1.167296,0.109312,-0.093696,1.3825,1.63625,3.9375,-24.488,16.736,4.872,eccentric,3,3.0,20076.0,142110.0,229923.0,280386.0,263751.0
2026-04-08 21:49:49.041120,241146,1609504161261637,1761228664,1.159488,0.121024,-0.011712,2.8,2.12625,4.48,-24.2,16.744001,6.008,eccentric,3,3.0,20076.0,142110.0,229923.0,280386.0,263751.0
2026-04-08 21:49:49.043590,241147,1609504161270605,1761237351,1.159488,0.121024,-0.011712,2.6425,2.9225,5.67875,-24.2,16.744001,6.008,eccentric,3,3.0,20076.0,142110.0,229923.0,280386.0,263751.0
2026-04-08 21:49:49.046031,241148,1609504161279592,1761246069,1.145824,0.163968,0.064416,-0.46375,2.84375,6.055,-23.952002,16.872002,4.904,eccentric,3,3.0,20076.0,142110.0,229923.0,280386.0,263751.0
2026-04-08 21:49:49.076272,241149,1609504161294072,1761260939,1.09312,0.074176,-0.142496,-4.08625,2.87875,4.27,-23.800001,16.992,5.496,eccentric,3,3.0,20076.0,142110.0,229923.0,280386.0,263751.0
2026-04-08 21:49:49.079961,241150,1609504161302982,1761269604,1.09312,0.074176,-0.142496,-7.2625,3.0975,2.415,-23.800001,16.992,5.496,eccentric,3,3.0,20076.0,142110.0,229923.0,280386.0,263751.0
2026-04-08 21:49:49.107265,241161,1609504161317532,1761284536,1.057984,0.121024,-0.040992,-7.63875,3.92875,6.29125,-23.608002,16.808,5.464,eccentric,3,3.0,20128.0,142148.0,229753.0,280190.0,263563.0
2026-04-08 21:49:49.109766,241162,1609504161326522,1761293317,1.057984,0.121024,-0.040992,-7.93625,4.0075,7.21,-23.608002,16.808,5.464,eccentric,3,3.0,20128.0,142148.0,229753.0,280190.0,263563.0
2026-04-08 21:49:49.112292,241163,1609504161341155,1761308270,1.095072,0.08784,-0.070272,-6.79875,4.78625,4.3225,-23.536001,16.880001,6.768,eccentric,3,3.0,20128.0,142148.0,229753.0,280190.0,263563.0
2026-04-08 21:49:49.117274,241164,1609504161350109,1761316947,1.095072,0.08784,-0.070272,-6.34375,4.69,4.10375,-23.536001,16.880001,6.768,eccentric,3,3.0,20128.0,142148.0,229753.0,280190.0,263563.0
2026-04-08 21:49:49.127381,241165,1609504161359030,1761325628,1.050176,0.181536,-0.015616,-7.65625,3.465,5.32875,-23.496,17.240002,5.744,eccentric,3,3.0,20128.0,142148.0,229753.0,280190.0,263563.0
2026-04-08 21:49:49.157560,241166,1609504161373617,1761340522,1.120448,0.119072,0.05856,-8.5575,2.9925,5.34625,-23.512001,17.36,5.272,eccentric,3,3.0,20128.0,142148.0,229753.0,280190.0,263563.0
2026-04-08 21:49:49.161044,241167,1609504161382537,1761349201,1.120448,0.119072,0.05856,-8.26875,3.92,6.01125,-23.512001,17.36,5.272,eccentric,3,3.0,20128.0,142148.0,229753.0,280190.0,263563.0
2026-04-08 21:49:49.163501,241168,1609504161397022,1761364048,1.071648,0.11712,0.0488,-9.135,4.34,8.1375,-23.12,17.288,5.6,eccentric,3,3.0,20128.0,142148.0,229753.0,280190.0,263563.0
2026-04-08 21:49:49.193804,241169,1609504161405958,1761372706,1.071648,0.11712,0.0488,-11.55875,4.05125,10.40375,-23.12,17.288,5.6,eccentric,3,3.0,20128.0,142148.0,229753.0,280190.0,263563.0
2026-04-08 21:49:49.226044,241180,1609504161420620,1761387624,1.03456,0.064416,-0.144448,-11.80375,3.5875,11.2875,-22.736002,17.400002,5.84,eccentric,3,3.0,20211.0,142404.0,229936.0,280331.0,263685.0
2026-04-08 21:49:49.230124,241181,1609504161429566,1761396335,1.03456,0.064416,-0.144448,-10.675,3.255,10.96375,-22.736002,17.400002,5.84,eccentric,3,3.0,20211.0,142404.0,229936.0,280331.0,263685.0
2026-04-08 21:49:49.231867,241182,1609504161438526,1761405006,1.052128,0.06832,0.050752,-13.51,3.1325,10.64875,-22.448002,17.912,5.768,eccentric,3,3.0,20211.0,142404.0,229936.0,280331.0,263685.0
2026-04-08 21:49:49.233731,241183,1609504161453092,1761419876,0.976,0.095648,0.011712,-13.62375,3.43,10.17625,-22.384,17.864,6.672,eccentric,3,3.0,20211.0,142404.0,229936.0,280331.0,263685.0
2026-04-08 21:49:49.235961,241184,1609504161462261,1761428676,0.976,0.095648,0.011712,-11.025,3.31625,9.79125,-22.384,17.864,6.672,eccentric,3,3.0,20211.0,142404.0,229936.0,280331.0,263685.0
2026-04-08 21:49:49.267227,241185,1609504161476752,1761443573,0.942816,0.08784,0.042944,-5.88,3.05375,8.155,-22.376001,17.800001,7.04,eccentric,3,3.0,20211.0,142404.0,229936.0,280331.0,263685.0
2026-04-08 21:49:49.271914,241186,1609504161485681,1761452228,0.942816,0.08784,0.042944,-2.0125,2.9925,7.8225,-22.376001,17.800001,7.04,eccentric,3,3.0,20211.0,142404.0,229936.0,280331.0,263685.0
2026-04-08 21:49:49.304691,241187,1609504161494872,1761461216,0.931104,0.093696,0.023424,-3.14125,2.98375,7.2975,-21.768002,17.624,6.336,eccentric,3,3.0,20211.0,142404.0,229936.0,280331.0,263685.0
2026-04-08 21:49:49.308123,241188,1609504161509346,1761476070,0.931104,0.093696,0.023424,-4.095,3.42125,7.0,-21.768002,17.624,6.336,eccentric,3,3.0,20211.0,142404.0,229936.0,280331.0,263685.0
2026-04-08 21:49:49.339385,241199,1609504161518537,1761484828,0.884256,0.148352,0.023424,-6.755,3.33375,7.6475,-21.424002,17.584002,5.928001,eccentric,3,3.0,20241.0,142555.0,230185.0,280609.0,263872.0
2026-04-08 21:49:49.341195,241200,1609504161533060,1761499711,0.884256,0.081984,-0.052704,-9.75625,3.12375,8.96,-21.424002,17.584002,5.624,eccentric,3,3.0,20241.0,142555.0,230185.0,280609.0,263872.0
2026-04-08 21:49:49.343254,241201,1609504161542020,1761508396,0.884256,0.081984,-0.052704,-9.87875,3.22,9.9225,-21.168001,17.936,5.624,eccentric,3,3.0,20241.0,142555.0,230185.0,280609.0,263872.0
2026-04-08 21:49:49.344942,241202,1609504161550991,1761517088,0.884256,0.081984,-0.052704,-10.15875,2.21375,10.47375,-21.168001,17.936,5.624,eccentric,3,3.0,20241.0,142555.0,230185.0,280609.0,263872.0
2026-04-08 21:49:49.349108,241203,1609504161565427,1761532028,0.79056,0.089792,0.0,-12.41625,1.61,10.36875,-20.936,18.272001,7.000001,eccentric,3,3.0,20241.0,142555.0,230185.0,280609.0,263872.0
2026-04-08 21:49:49.351523,241204,1609504161574455,1761540735,0.812032,0.044896,-0.099552,-15.295,0.72625,9.5725,-20.856,18.416,8.808001,eccentric,3,3.0,20241.0,142555.0,230185.0,280609.0,263872.0
2026-04-08 21:49:49.357746,241205,1609504161588941,1761555651,0.812032,0.044896,-0.099552,-15.785,0.5075,7.9275,-20.856,18.416,8.808001,eccentric,3,3.0,20241.0,142555.0,230185.0,280609.0,263872.0
2026-04-08 21:49:49.389169,241206,1609504161597850,1761564319,0.876448,0.050752,0.109312,-15.015,-0.44625,5.74,-20.656,18.672,5.952,eccentric,3,3.0,20241.0,142555.0,230185.0,280609.0,263872.0
2026-04-08 21:49:49.392052,241207,1609504161612336,1761579295,0.876448,0.050752,0.109312,-13.29125,-1.2425,3.3075,-20.656,18.672,5.952,eccentric,3,3.0,20241.0,142555.0,230185.0,280609.0,263872.0
2026-04-08 21:49:49.421111,241218,1609504161621492,1761588041,0.837408,0.056608,0.144448,-9.94,-1.46125,2.10875,-20.536001,18.008001,5.704001,eccentric,3,3.0,20269.0,142679.0,230355.0,280749.0,263971.0
2026-04-08 21:49:49.425316,241219,1609504161630469,1761596754,0.837408,0.056608,0.144448,-7.9975,-1.4175,1.3825,-20.536001,18.008001,5.704001,eccentric,3,3.0,20269.0,142679.0,230355.0,280749.0,263971.0
2026-04-08 21:49:49.427082,241220,1609504161645027,1761611697,0.833504,0.042944,0.152256,-5.80125,-1.46125,0.95375,-20.480001,18.608002,7.664001,eccentric,3,3.0,20269.0,142679.0,230355.0,280749.0,263971.0
2026-04-08 21:49:49.428635,241221,1609504161653971,1761620431,0.808128,0.083936,-0.02928,-7.23625,-2.54625,-0.3675,-20.480001,18.512001,5.936,eccentric,3,3.0,20269.0,142679.0,230355.0,280749.0,263971.0
2026-04-08 21:49:49.436494,241222,1609504161668531,1761635335,0.808128,0.083936,-0.02928,-11.2175,-4.43625,-1.1725,-20.352001,18.512001,5.936,eccentric,3,3.0,20269.0,142679.0,230355.0,280749.0,263971.0
2026-04-08 21:49:49.465206,241223,1609504161677442,1761644002,0.792512,0.044896,-0.003904,-10.6225,-5.13625,-2.23125,-20.28,18.272001,5.456,eccentric,3,3.0,20269.0,142679.0,230355.0,280749.0,263971.0
2026-04-08 21:49:49.469881,241224,1609504161691938,1761658875,0.792512,0.044896,-0.003904,-7.455,-4.85625,-3.885,-20.28,18.272001,5.456,eccentric,3,3.0,20269.0,142679.0,230355.0,280749.0,263971.0
2026-04-08 21:49:49.472500,241225,1609504161700872,1761667547,0.866688,0.011712,0.05856,-5.48625,-4.13875,-5.775,-20.152,18.848001,5.392,eccentric,3,3.0,20269.0,142679.0,230355.0,280749.0,263971.0
2026-04-08 21:49:49.480916,241226,1609504161709779,1761676211,0.866688,0.011712,0.05856,-2.65125,-3.185,-6.55375,-20.152,18.848001,5.392,eccentric,3,3.0,20269.0,142679.0,230355.0,280749.0,263971.0
2026-04-08 21:49:49.509142,241237,1609504161724421,1761691140,0.825696,0.042944,-0.074176,-1.2425,-1.5925,-7.18375,-20.072,18.264,5.76,eccentric,3,3.0,20374.0,143013.0,230538.0,280758.0,263909.0
2026-04-08 21:49:49.512536,241238,1609504161733412,1761699916,0.825696,0.042944,-0.074176,-1.995,-0.41125,-6.8075,-20.072,18.264,5.76,eccentric,3,3.0,20374.0,143013.0,230538.0,280758.0,263909.0
2026-04-08 21:49:49.516467,241239,1609504161747904,1761714831,0.796416,0.083936,-0.13664,-5.36375,-0.48125,-5.59125,-19.912,18.640001,8.672001,eccentric,3,3.0,20374.0,143013.0,230538.0,280758.0,263909.0
2026-04-08 21:49:49.545023,241240,1609504161756894,1761723496,0.827648,0.046848,0.130784,-6.29125,0.1575,-2.63375,-19.832,18.472,5.416,eccentric,3,3.0,20374.0,143013.0,230538.0,280758.0,263909.0
2026-04-08 21:49:49.551440,241241,1609504161771361,1761738332,0.827648,0.046848,0.130784,-4.2525,0.42,0.21875,-19.832,18.472,5.416,eccentric,3,3.0,20374.0,143013.0,230538.0,280758.0,263909.0
2026-04-08 21:49:49.552727,241242,1609504161780264,1761747009,0.696864,0.031232,-0.07808,-1.56625,0.39375,-1.19,-19.992,18.344002,5.736,eccentric,3,3.0,20374.0,143013.0,230538.0,280758.0,263909.0
2026-04-08 21:49:49.556455,241243,1609504161789192,1761755681,0.696864,0.031232,-0.07808,5.18,1.47,-1.295,-19.992,18.344002,5.736,eccentric,3,3.0,20374.0,143013.0,230538.0,280758.0,263909.0
2026-04-08 21:49:49.601260,241244,1609504161803687,1761770546,0.718336,0.054656,-0.109312,7.84875,1.435,0.30625,-19.672,18.128,6.12,eccentric,3,3.0,20374.0,143013.0,230538.0,280758.0,263909.0
2026-04-08 21:49:49.604883,241245,1609504161812644,1761779208,0.718336,0.054656,-0.109312,1.225,0.5425,0.98875,-19.672,18.128,6.12,eccentric,3,3.0,20374.0,143013.0,230538.0,280758.0,263909.0
2026-04-08 21:49:49.632822,241256,1609504161827569,1761794557,0.776896,0.076128,-0.121024,-5.80125,-0.6825,-1.81125,-19.672,18.400002,7.472,eccentric,3,3.0,20524.0,143378.0,230621.0,280717.0,263807.0
2026-04-08 21:49:49.634929,241257,1609504161836493,1761803197,0.81984,-0.025376,-0.001952,-5.83625,-1.12,-4.48,-19.624,18.608002,6.224001,eccentric,3,3.0,20524.0,143378.0,230621.0,280717.0,263807.0
2026-04-08 21:49:49.637345,241258,1609504161845447,1761811892,0.81984,-0.025376,-0.001952,-3.31625,-0.035,-7.4375,-19.624,18.608002,6.224001,eccentric,3,3.0,20524.0,143378.0,230621.0,280717.0,263807.0
2026-04-08 21:49:49.639769,241259,1609504161859997,1761826782,0.767136,-0.013664,0.040992,-2.135,1.33875,-6.93875,-19.632002,18.272001,6.232,eccentric,3,3.0,20524.0,143378.0,230621.0,280717.0,263807.0
2026-04-08 21:49:49.642339,241260,1609504161868947,1761835462,0.767136,-0.013664,0.040992,-1.54,1.225,-2.835,-19.632002,18.272001,6.232,eccentric,3,3.0,20524.0,143378.0,230621.0,280717.0,263807.0
2026-04-08 21:49:49.672496,241261,1609504161883450,1761850404,0.825696,0.066368,0.011712,-0.88375,0.83125,-0.7875,-19.320002,18.28,5.92,eccentric,3,3.0,20524.0,143378.0,230621.0,280717.0,263807.0
2026-04-08 21:49:49.676093,241262,1609504161892379,1761859077,0.825696,0.066368,0.011712,-1.75,0.0175,-4.69,-19.320002,18.28,5.92,eccentric,3,3.0,20524.0,143378.0,230621.0,280717.0,263807.0
2026-04-08 21:49:49.678590,241263,1609504161906873,1761873990,0.860832,0.064416,0.03904,-5.215,-0.20125,-8.9775,-19.6,18.304,6.216,eccentric,3,3.0,20524.0,143378.0,230621.0,280717.0,263807.0
2026-04-08 21:49:49.681050,241264,1609504161915769,1761882659,0.86864,0.005856,0.10736,-5.9675,-0.21,-7.88375,-19.6,18.072,7.632,eccentric,3,3.0,20524.0,143378.0,230621.0,280717.0,263807.0
2026-04-08 21:49:49.733475,241275,1609504161924862,1761891370,0.86864,0.005856,0.10736,-5.25875,0.21,-4.9,-19.504002,18.072,7.632,eccentric,3,3.0,20475.0,143086.0,230192.0,280384.0,263634.0
2026-04-08 21:49:49.736080,241276,1609504161939448,1761906267,0.833504,-0.01952,0.060512,-3.395,0.23625,-3.395,-19.320002,18.408,7.432,eccentric,3,3.0,20475.0,143086.0,230192.0,280384.0,263634.0
2026-04-08 21:49:49.738493,241277,1609504161948360,1761914932,0.833504,-0.01952,0.060512,-2.03,0.805,-5.7575,-19.320002,18.408,7.432,eccentric,3,3.0,20475.0,143086.0,230192.0,280384.0,263634.0
2026-04-08 21:49:49.741068,241278,1609504161962820,1761929810,0.860832,0.031232,0.099552,-0.06125,1.1025,-5.83625,-19.576,18.472,6.232,eccentric,3,3.0,20475.0,143086.0,230192.0,280384.0,263634.0
2026-04-08 21:49:49.743607,241279,1609504161971825,1761938535,0.860832,0.031232,0.099552,-1.085,0.07,-3.85,-19.576,18.472,6.232,eccentric,3,3.0,20475.0,143086.0,230192.0,280384.0,263634.0
2026-04-08 21:49:49.773758,241280,1609504161986361,1761953376,0.8296,0.046848,-0.128832,-1.63625,-1.0675,-3.78,-19.376001,18.088001,6.12,eccentric,3,3.0,20475.0,143086.0,230192.0,280384.0,263634.0
2026-04-08 21:49:49.777332,241281,1609504161995283,1761962066,0.8296,0.046848,-0.128832,0.8925,-1.365,-5.6175,-19.376001,18.088001,6.12,eccentric,3,3.0,20475.0,143086.0,230192.0,280384.0,263634.0
2026-04-08 21:49:49.779827,241282,1609504162004294,1761970729,0.870592,0.021472,0.134688,1.11125,-0.97125,-7.1575,-19.448002,17.936,4.32,eccentric,3,3.0,20475.0,143086.0,230192.0,280384.0,263634.0
2026-04-08 21:49:49.819522,241293,1609504162018741,1761985590,0.80032,0.01952,0.044896,-1.33875,-0.98,-7.1225,-19.36,17.800001,7.768001,eccentric,3,3.0,20326.0,142612.0,229740.0,280153.0,263527.0
2026-04-08 21:49:49.821114,241294,1609504162027692,1761994341,0.80032,0.01952,0.044896,-2.5725,-0.97125,-5.67875,-19.36,17.800001,7.768001,eccentric,3,3.0,20326.0,142612.0,229740.0,280153.0,263527.0
2026-04-08 21:49:49.825344,241295,1609504162042263,1762009224,0.837408,0.044896,-0.00976,-1.53125,-1.3825,-4.165,-19.376001,17.824001,6.144,eccentric,3,3.0,20326.0,142612.0,229740.0,280153.0,263527.0
2026-04-08 21:49:49.826997,241296,1609504162051182,1762017928,0.837408,0.044896,-0.00976,0.42,-1.70625,-2.33625,-19.376001,17.824001,6.144,eccentric,3,3.0,20326.0,142612.0,229740.0,280153.0,263527.0
2026-04-08 21:49:49.833985,241297,1609504162065745,1762032853,0.884256,0.033184,-0.033184,0.83125,-2.73,-1.12875,-19.248001,17.992,6.112001,eccentric,3,3.0,20326.0,142612.0,229740.0,280153.0,263527.0
2026-04-08 21:49:49.863539,241298,1609504162074669,1762041523,0.884256,0.033184,-0.033184,-0.34125,-3.47375,-1.05875,-19.248001,17.992,6.112001,eccentric,3,3.0,20326.0,142612.0,229740.0,280153.0,263527.0
2026-04-08 21:49:49.867525,241299,1609504162083648,1762050210,0.8784,0.021472,0.080032,-2.00375,-2.79125,-1.00625,-19.160002,17.824001,6.440001,eccentric,3,3.0,20326.0,142612.0,229740.0,280153.0,263527.0
2026-04-08 21:49:49.869774,241300,1609504162098096,1762065049,0.884256,0.005856,-0.023424,-2.07375,-2.485,-0.4725,-19.352001,18.384,6.816001,eccentric,3,3.0,20326.0,142612.0,229740.0,280153.0,263527.0
2026-04-08 21:49:49.904645,241301,1609504162107016,1762073726,0.884256,0.005856,-0.023424,-0.7175,-2.415,0.2975,-19.352001,18.384,6.816001,eccentric,3,3.0,20326.0,142612.0,229740.0,280153.0,263527.0
2026-04-08 21:49:49.935722,241312,1609504162121709,1762088622,0.835456,0.089792,0.060512,0.35,-2.19625,1.39125,-19.344002,17.952002,6.296001,eccentric,3,3.0,20208.0,142197.0,229401.0,279991.0,263498.0
2026-04-08 21:49:49.937227,241313,1609504162130675,1762097309,0.835456,0.089792,0.060512,1.25125,-2.3625,2.0825,-19.344002,17.952002,6.296001,eccentric,3,3.0,20208.0,142197.0,229401.0,279991.0,263498.0
2026-04-08 21:49:49.941722,241314,1609504162139583,1762105959,0.905728,0.023424,0.060512,0.81375,-2.73875,2.8,-19.544,18.128,6.2,eccentric,3,3.0,20208.0,142197.0,229401.0,279991.0,263498.0
2026-04-08 21:49:49.943283,241315,1609504162154195,1762120937,0.905728,0.023424,0.060512,-0.805,-3.70125,2.84375,-19.544,18.128,6.2,eccentric,3,3.0,20208.0,142197.0,229401.0,279991.0,263498.0
2026-04-08 21:49:49.944833,241316,1609504162163160,1762129618,0.851072,-0.007808,-0.066368,-3.59625,-3.5875,2.82625,-19.320002,18.392,6.408001,eccentric,3,3.0,20208.0,142197.0,229401.0,279991.0,263498.0
2026-04-08 21:49:49.950060,241317,1609504162177714,1762144503,0.856928,0.001952,-0.101504,-3.78875,-3.43875,3.71875,-19.296001,18.008001,7.28,eccentric,3,3.0,20208.0,142197.0,229401.0,279991.0,263498.0
2026-04-08 21:49:49.955216,241318,1609504162186662,1762153191,0.856928,0.001952,-0.101504,-2.87,-3.395,3.885,-19.296001,18.008001,7.28,eccentric,3,3.0,20208.0,142197.0,229401.0,279991.0,263498.0
2026-04-08 21:49:49.983791,241319,1609504162201127,1762168087,0.886208,0.050752,0.05856,-1.02375,-3.68375,3.63125,-19.248001,18.168001,7.472,eccentric,3,3.0,20208.0,142197.0,229401.0,279991.0,263498.0
2026-04-08 21:49:49.988258,241320,1609504162210028,1762176744,0.886208,0.050752,0.05856,1.89875,-3.75375,3.6225,-19.248001,18.168001,7.472,eccentric,3,3.0,20208.0,142197.0,229401.0,279991.0,263498.0
2026-04-08 21:49:49.990617,241321,1609504162218907,1762185400,0.81008,0.05856,-0.074176,2.59,-3.78,3.61375,-19.056002,18.240002,5.024,eccentric,3,3.0,20208.0,142197.0,229401.0,279991.0,263498.0
2026-04-08 21:49:50.016141,241332,1609504162233422,1762200375,0.81008,0.05856,-0.074176,0.88375,-3.955,3.96375,-19.056002,18.240002,5.024,eccentric,3,3.0,20100.0,141856.0,229078.0,279843.0,263438.0
2026-04-08 21:49:50.019859,241333,1609504162242390,1762209109,0.91744,0.0,-0.074176,-2.12625,-4.1475,4.08625,-19.160002,18.0,6.216,eccentric,3,3.0,20100.0,141856.0,229078.0,279843.0,263438.0
2026-04-08 21:49:50.026502,241334,1609504162256915,1762223978,0.91744,0.0,-0.074176,-4.96125,-3.8675,4.4625,-19.160002,18.0,6.216,eccentric,3,3.0,20100.0,141856.0,229078.0,279843.0,263438.0
2026-04-08 21:49:50.036499,241335,1609504162265855,1762232691,0.915488,0.046848,-0.015616,-6.8425,-3.63125,3.6575,-19.288,18.208,6.28,eccentric,3,3.0,20100.0,141856.0,229078.0,279843.0,263438.0
2026-04-08 21:49:50.065084,241336,1609504162280421,1762247575,0.942816,0.027328,0.03904,-6.37875,-2.65125,2.7825,-18.76,18.488,6.664001,eccentric,3,3.0,20100.0,141856.0,229078.0,279843.0,263438.0
2026-04-08 21:49:50.069573,241337,1609504162289310,1762256219,0.942816,0.027328,0.03904,-3.955,-2.10875,2.19625,-18.76,18.488,6.664001,eccentric,3,3.0,20100.0,141856.0,229078.0,279843.0,263438.0
2026-04-08 21:49:50.071867,241338,1609504162298282,1762264862,0.894016,0.035136,-0.08784,-4.31375,-2.205,2.1875,-18.76,18.808,3.56,eccentric,3,3.0,20100.0,141856.0,229078.0,279843.0,263438.0
2026-04-08 21:49:50.103985,241339,1609504162312825,1762279791,0.894016,0.035136,-0.08784,-2.72125,-3.36875,2.5025,-19.224,18.808,3.56,eccentric,3,3.0,20100.0,141856.0,229078.0,279843.0,263438.0
2026-04-08 21:49:50.129876,241350,1609504162321765,1762288873,0.944768,0.042944,-0.044896,-0.1575,-4.235,2.275,-19.408,18.512001,5.72,eccentric,3,3.0,20151.0,141997.0,229053.0,279696.0,263283.0
2026-04-08 21:49:50.134138,241351,1609504162336269,1762301737,0.944768,0.042944,-0.044896,0.5075,-3.535,0.5075,-19.408,18.512001,5.72,eccentric,3,3.0,20151.0,141997.0,229053.0,279696.0,263283.0
2026-04-08 21:49:50.135739,241352,1609504162345483,1762312458,0.882304,0.085888,-0.042944,1.9775,-3.29,-0.245,-19.272001,18.384,5.872,eccentric,3,3.0,20151.0,141997.0,229053.0,279696.0,263283.0
2026-04-08 21:49:50.137483,241353,1609504162360128,1762325337,0.872544,0.060512,-0.11712,3.17625,-3.24625,-0.81375,-19.448002,18.488,8.6,eccentric,3,3.0,20151.0,141997.0,229053.0,279696.0,263283.0
2026-04-08 21:49:50.141835,241354,1609504162369465,1762336121,0.872544,0.060512,-0.11712,2.28375,-3.5,-1.1725,-19.448002,18.488,8.6,eccentric,3,3.0,20151.0,141997.0,229053.0,279696.0,263283.0
2026-04-08 21:49:50.145601,241355,1609504162378368,1762344788,0.872544,0.060512,0.11712,1.1375,-3.80625,-1.085,-19.448002,18.488,8.6,eccentric,3,3.0,20151.0,141997.0,229053.0,279696.0,263283.0
2026-04-08 21:49:50.208772,241356,1609504162392849,1762359624,0.952576,0.052704,0.11712,0.6125,-4.68125,-1.07625,-19.288,18.176,8.264,eccentric,3,3.0,20151.0,141997.0,229053.0,279696.0,263283.0
2026-04-08 21:49:50.212467,241357,1609504162401744,1762368281,0.93696,0.003904,-0.105408,0.735,-4.9525,-1.61875,-19.288,18.096,5.664,eccentric,3,3.0,20151.0,141997.0,229053.0,279696.0,263283.0
2026-04-08 21:49:50.214799,241358,1609504162416217,1762383136,0.93696,0.003904,-0.105408,2.6075,-4.8125,-2.135,-19.288,18.096,5.664,eccentric,3,3.0,20151.0,141997.0,229053.0,279696.0,263283.0
2026-04-08 21:49:50.246079,241369,1609504162425723,1762391855,0.938912,0.031232,-0.099552,5.74875,-5.13625,-2.96625,-19.152,18.592001,6.112001,concentric,3,3.0,20100.0,141832.0,228915.0,279641.0,263306.0
2026-04-08 21:49:50.248611,241370,1609504162434652,1762400538,0.938912,0.031232,-0.099552,8.46125,-5.71375,-4.66375,-19.152,18.592001,6.112001,concentric,3,3.0,20100.0,141832.0,228915.0,279641.0,263306.0
2026-04-08 21:49:50.251108,241371,1609504162449160,1762415407,0.935008,0.074176,0.081984,8.77625,-5.7575,-5.6,-19.504002,18.096,5.912,concentric,3,3.0,20100.0,141832.0,228915.0,279641.0,263306.0
2026-04-08 21:49:50.253589,241372,1609504162458068,1762424091,0.935008,0.074176,0.081984,6.4575,-5.71375,-5.7225,-19.504002,18.096,5.912,concentric,3,3.0,20100.0,141832.0,228915.0,279641.0,263306.0
2026-04-08 21:49:50.258559,241373,1609504162472594,1762438967,0.952576,0.060512,0.076128,2.8,-5.92375,-5.55625,-19.272001,18.336,6.472,concentric,3,3.0,20100.0,141832.0,228915.0,279641.0,263306.0
2026-04-08 21:49:50.261039,241374,1609504162481545,1762447670,0.886208,0.064416,0.021472,1.58375,-6.335,-4.8125,-19.416,18.312,6.816001,concentric,3,3.0,20100.0,141832.0,228915.0,279641.0,263306.0
2026-04-08 21:49:50.263489,241375,1609504162490468,1762456467,0.886208,0.064416,0.021472,2.38875,-6.895,-4.55,-19.416,18.312,6.816001,concentric,3,3.0,20100.0,141832.0,228915.0,279641.0,263306.0
2026-04-08 21:49:50.293751,241376,1609504162504977,1762471355,0.921344,0.013664,-0.142496,3.885,-6.93,-4.82125,-19.672,18.104,6.896,concentric,3,3.0,20100.0,141832.0,228915.0,279641.0,263306.0
2026-04-08 21:49:50.297335,241377,1609504162513908,1762480039,0.921344,0.013664,-0.142496,5.48625,-6.67625,-5.0225,-19.672,18.104,6.896,concentric,3,3.0,20100.0,141832.0,228915.0,279641.0,263306.0
2026-04-08 21:49:50.328558,241388,1609504162528547,1762494979,0.960384,0.033184,0.052704,6.13375,-7.07875,-5.80125,-19.52,18.256,6.096,concentric,3,3.0,20034.0,141747.0,228997.0,279837.0,263489.0
2026-04-08 21:49:50.331005,241389,1609504162537493,1762503644,0.960384,0.033184,0.052704,6.7375,-7.805,-6.86875,-19.52,18.256,6.096,concentric,3,3.0,20034.0,141747.0,228997.0,279837.0,263489.0
2026-04-08 21:49:50.333527,241390,1609504162552029,1762518668,0.872544,0.060512,-0.076128,5.9675,-7.86625,-7.74375,-19.568,18.2,6.608,concentric,3,3.0,20034.0,141747.0,228997.0,279837.0,263489.0
2026-04-08 21:49:50.336033,241391,1609504162560991,1762527347,0.843264,0.072224,-0.15616,3.26375,-7.735,-8.02375,-20.032001,18.048,7.136,concentric,3,3.0,20034.0,141747.0,228997.0,279837.0,263489.0
2026-04-08 21:49:50.338519,241392,1609504162569941,1762536053,0.843264,0.072224,-0.15616,2.7475,-7.41125,-7.70875,-20.032001,18.048,7.136,concentric,3,3.0,20034.0,141747.0,228997.0,279837.0,263489.0
2026-04-08 21:49:50.368795,241393,1609504162584404,1762550968,0.948672,0.052704,0.066368,3.82375,-7.84875,-7.95375,-20.024,17.944,8.152,concentric,3,3.0,20034.0,141747.0,228997.0,279837.0,263489.0
2026-04-08 21:49:50.372291,241394,1609504162593320,1762559622,0.948672,0.052704,0.066368,4.2525,-8.0675,-7.07875,-20.024,17.944,8.152,concentric,3,3.0,20034.0,141747.0,228997.0,279837.0,263489.0
2026-04-08 21:49:50.374782,241395,1609504162607796,1762574530,0.853024,0.064416,-0.134688,2.8175,-7.42875,-6.55375,-19.952002,18.072,5.944,concentric,3,3.0,20034.0,141747.0,228997.0,279837.0,263489.0
2026-04-08 21:49:50.405005,241396,1609504162616699,1762583209,0.853024,0.064416,-0.134688,-0.7525,-6.7375,-6.1075,-19.952002,18.072,5.944,concentric,3,3.0,20034.0,141747.0,228997.0,279837.0,263489.0
2026-04-08 21:49:50.433471,241407,1609504162631639,1762598678,0.901824,0.052704,-0.099552,-0.65625,-6.2825,-5.18,-20.048,17.848001,5.984,concentric,3,3.0,19978.0,141624.0,228971.0,279890.0,263558.0
2026-04-08 21:49:50.436034,241408,1609504162640531,1762607312,0.903776,0.035136,-0.1464,-0.105,-5.53,-4.3575,-20.048,18.176,7.192,concentric,3,3.0,19978.0,141624.0,228971.0,279890.0,263558.0
2026-04-08 21:49:50.438481,241409,1609504162649520,1762615972,0.903776,0.035136,-0.1464,-2.2575,-4.8825,-4.13875,-20.0,18.176,7.192,concentric,3,3.0,19978.0,141624.0,228971.0,279890.0,263558.0
2026-04-08 21:49:50.441099,241410,1609504162664100,1762630889,0.880352,0.03904,0.062464,-3.15875,-4.90875,-3.85875,-20.224,17.864,6.960001,concentric,3,3.0,19978.0,141624.0,228971.0,279890.0,263558.0
2026-04-08 21:49:50.446057,241411,1609504162673067,1762639589,0.880352,0.03904,0.062464,-2.1,-4.48,-3.7625,-20.224,17.864,6.960001,concentric,3,3.0,19978.0,141624.0,228971.0,279890.0,263558.0
2026-04-08 21:49:50.505012,241412,1609504162687572,1762654529,0.84912,0.037088,0.033184,-2.625,-4.4275,-4.0425,-20.0,17.984001,7.328001,concentric,3,3.0,19978.0,141624.0,228971.0,279890.0,263558.0
2026-04-08 21:49:50.509132,241413,1609504162696520,1762663194,0.84912,0.037088,0.033184,-2.0475,-4.48,-4.48,-20.0,17.984001,7.328001,concentric,3,3.0,19978.0,141624.0,228971.0,279890.0,263558.0
2026-04-08 21:49:50.512041,241414,1609504162710952,1762678039,0.925248,0.046848,-0.089792,-0.46375,-4.68125,-5.52125,-19.976002,17.720001,5.664,concentric,3,3.0,19978.0,141624.0,228971.0,279890.0,263558.0
2026-04-08 21:49:50.513694,241415,1609504162719856,1762686707,0.925248,0.046848,-0.089792,2.345,-3.91125,-6.3,-19.976002,17.720001,5.664,concentric,3,3.0,19978.0,141624.0,228971.0,279890.0,263558.0
2026-04-08 21:49:50.541068,241426,1609504162728853,1762695411,0.880352,0.10736,0.033184,6.1075,-2.79125,-6.06375,-20.176,18.016,3.04,concentric,3,3.0,19971.0,141681.0,229071.0,279963.0,263615.0
2026-04-08 21:49:50.543716,241427,1609504162743373,1762710278,0.81984,0.089792,-0.00976,6.08125,-2.10875,-5.85375,-20.472,17.832,5.84,concentric,3,3.0,19971.0,141681.0,229071.0,279963.0,263615.0
2026-04-08 21:49:50.546102,241428,1609504162752349,1762718985,0.81984,0.089792,-0.00976,0.0875,-2.23125,-5.4425,-20.472,17.832,5.84,concentric,3,3.0,19971.0,141681.0,229071.0,279963.0,263615.0
2026-04-08 21:49:50.548522,241429,1609504162766888,1762733869,0.862784,0.054656,0.00976,-6.09,-2.0475,-3.4475,-20.328001,18.176,6.152,concentric,3,3.0,19971.0,141681.0,229071.0,279963.0,263615.0
2026-04-08 21:49:50.551072,241430,1609504162775875,1762742574,0.862784,0.054656,0.00976,-8.00625,-1.61,-2.16125,-20.328001,18.176,6.152,concentric,3,3.0,19971.0,141681.0,229071.0,279963.0,263615.0
2026-04-08 21:49:50.553565,241431,1609504162784867,1762751323,0.890112,0.027328,-0.005856,-7.53375,-1.61,-2.44125,-20.12,17.992,5.864,concentric,3,3.0,19971.0,141681.0,229071.0,279963.0,263615.0
2026-04-08 21:49:50.583764,241432,1609504162799393,1762766195,0.890112,0.027328,-0.005856,-4.0075,-1.96,-2.94,-20.12,17.992,5.864,concentric,3,3.0,19971.0,141681.0,229071.0,279963.0,263615.0
2026-04-08 21:49:50.589101,241433,1609504162808302,1762774885,0.851072,0.023424,-0.095648,-0.74375,-1.75,-3.84125,-20.296001,18.08,5.264,concentric,3,3.0,19971.0,141681.0,229071.0,279963.0,263615.0
2026-04-08 21:49:50.620405,241444,1609504162822748,1762789752,0.798368,0.056608,-0.13664,-0.0875,-1.35625,-4.76,-20.304,17.776001,5.176,concentric,3,3.0,20035.0,141920.0,229382.0,280184.0,263725.0
2026-04-08 21:49:50.622032,241445,1609504162831723,1762798477,0.798368,0.056608,-0.13664,-1.72375,-1.35625,-4.68125,-20.304,17.776001,5.176,concentric,3,3.0,20035.0,141920.0,229382.0,280184.0,263725.0
2026-04-08 21:49:50.623598,241446,1609504162846370,1762813391,0.901824,0.02928,-0.040992,-1.65375,-1.19,-4.41,-20.752,17.504002,5.68,concentric,3,3.0,20035.0,141920.0,229382.0,280184.0,263725.0
2026-04-08 21:49:50.630374,241447,1609504162855419,1762822096,0.901824,0.02928,-0.040992,-1.07625,-1.96875,-4.55875,-20.752,17.504002,5.68,concentric,3,3.0,20035.0,141920.0,229382.0,280184.0,263725.0
2026-04-08 21:49:50.631943,241448,1609504162864446,1762830782,0.825696,0.060512,-0.122976,-2.0825,-1.8725,-5.06625,-20.36,17.576,6.304,concentric,3,3.0,20035.0,141920.0,229382.0,280184.0,263725.0
2026-04-08 21:49:50.663250,241449,1609504162878942,1762845702,0.825696,0.060512,-0.122976,-0.98,-1.96875,-4.4275,-20.36,17.576,6.304,concentric,3,3.0,20035.0,141920.0,229382.0,280184.0,263725.0
2026-04-08 21:49:50.664472,241450,1609504162887860,1762854354,0.872544,0.070272,0.007808,-0.735,-1.6275,-5.27625,-20.696001,17.904001,5.520001,concentric,3,3.0,20035.0,141920.0,229382.0,280184.0,263725.0
2026-04-08 21:49:50.670977,241451,1609504162902326,1762869287,0.847168,0.089792,-0.03904,-1.785,-1.23375,-6.58,-20.696001,18.104,5.448,concentric,3,3.0,20035.0,141920.0,229382.0,280184.0,263725.0
2026-04-08 21:49:50.698728,241452,1609504162911231,1762877955,0.847168,0.089792,-0.03904,-4.27,-0.67375,-6.97375,-20.880001,18.104,5.448,concentric,3,3.0,20035.0,141920.0,229382.0,280184.0,263725.0
2026-04-08 21:49:50.728272,241463,1609504162925777,1762892903,0.831552,0.083936,-0.103456,-5.6875,-0.315,-6.755,-20.672,17.976002,5.512,concentric,3,3.0,20150.0,142268.0,229627.0,280257.0,263694.0
2026-04-08 21:49:50.729930,241464,1609504162934798,1762901594,0.831552,0.083936,-0.103456,-4.83,-0.175,-6.51,-20.672,17.976002,5.512,concentric,3,3.0,20150.0,142268.0,229627.0,280257.0,263694.0
2026-04-08 21:49:50.734063,241465,1609504162943720,1762910288,0.866688,0.070272,0.023424,0.32375,0.09625,-6.99125,-20.928001,17.976002,6.128,concentric,3,3.0,20150.0,142268.0,229627.0,280257.0,263694.0
2026-04-08 21:49:50.735721,241466,1609504162958341,1762925182,0.866688,0.070272,0.023424,4.87375,0.455,-7.76125,-20.928001,17.976002,6.128,concentric,3,3.0,20150.0,142268.0,229627.0,280257.0,263694.0
2026-04-08 21:49:50.737596,241467,1609504162967332,1762933864,0.90768,0.08784,-0.081984,4.9525,0.63875,-7.1575,-21.088001,17.552,5.56,concentric,3,3.0,20150.0,142268.0,229627.0,280257.0,263694.0
2026-04-08 21:49:50.768704,241468,1609504162981834,1762948776,0.90768,0.08784,-0.081984,2.8,0.4025,-6.58875,-21.088001,17.552,5.56,concentric,3,3.0,20150.0,142268.0,229627.0,280257.0,263694.0
2026-04-08 21:49:50.806088,241469,1609504162990742,1762957465,0.977952,0.115168,-0.046848,1.015,1.11125,-5.43375,-21.056002,17.576,7.432,concentric,3,3.0,20150.0,142268.0,229627.0,280257.0,263694.0
2026-04-08 21:49:50.810358,241470,1609504163005208,1762972348,0.8784,0.115168,-0.033184,-0.34125,2.73875,-4.33125,-21.072,18.04,5.448,concentric,3,3.0,20150.0,142268.0,229627.0,280257.0,263694.0
2026-04-08 21:49:50.812008,241471,1609504163014199,1762981012,0.8784,0.115168,-0.033184,-2.02125,4.2875,-3.10625,-21.072,18.04,5.448,concentric,3,3.0,20150.0,142268.0,229627.0,280257.0,263694.0
2026-04-08 21:49:50.813551,241472,1609504163023124,1762989679,0.915488,0.066368,0.027328,-5.04875,4.235,-1.33,-21.072,17.776001,5.272,concentric,3,3.0,20150.0,142268.0,229627.0,280257.0,263694.0
2026-04-08 21:49:50.845467,241483,1609504163037614,1763004570,0.915488,0.066368,0.027328,-8.11125,3.29,-0.35875,-21.192001,17.776001,5.272,concentric,3,3.0,20205.0,142427.0,229780.0,280345.0,263747.0
2026-04-08 21:49:50.847167,241484,1609504163046555,1763013229,0.894016,0.02928,0.027328,-8.1375,3.43875,0.1225,-21.160002,17.952002,5.76,concentric,3,3.0,20205.0,142427.0,229780.0,280345.0,263747.0
2026-04-08 21:49:50.848733,241485,1609504163061034,1763028105,0.894016,0.02928,0.027328,-6.72875,3.0625,-0.07,-21.160002,17.952002,5.76,concentric,3,3.0,20205.0,142427.0,229780.0,280345.0,263747.0
2026-04-08 21:49:50.852839,241486,1609504163070174,1763036875,0.853024,0.02928,-0.10736,-5.52125,3.05375,-1.02375,-21.28,18.088001,7.088,concentric,3,3.0,20205.0,142427.0,229780.0,280345.0,263747.0
2026-04-08 21:49:50.855245,241487,1609504163079126,1763045556,0.853024,0.02928,-0.10736,-2.1875,2.66,-2.66,-21.28,18.088001,7.088,concentric,3,3.0,20205.0,142427.0,229780.0,280345.0,263747.0
2026-04-08 21:49:50.861784,241488,1609504163093710,1763060438,0.870592,0.083936,-0.035136,1.51375,3.03625,-4.3925,-21.312,17.968,5.624,concentric,3,3.0,20205.0,142427.0,229780.0,280345.0,263747.0
2026-04-08 21:49:50.871466,241489,1609504163102622,1763069103,0.870592,0.083936,-0.035136,3.63125,2.625,-5.13625,-21.312,17.968,5.624,concentric,3,3.0,20205.0,142427.0,229780.0,280345.0,263747.0
2026-04-08 21:49:50.900087,241490,1609504163117110,1763084010,0.876448,0.091744,-0.062464,1.88125,2.9225,-5.48625,-21.28,17.768002,6.864,concentric,3,3.0,20205.0,142427.0,229780.0,280345.0,263747.0
2026-04-08 21:49:50.929496,241501,1609504163126039,1763093170,0.851072,0.091744,0.046848,-1.25125,2.58125,-5.6,-21.472,17.552,5.520001,concentric,3,3.0,20222.0,142591.0,230103.0,280637.0,263930.0
2026-04-08 21:49:50.931100,241502,1609504163140554,1763105990,0.851072,0.091744,0.046848,-2.7125,2.38875,-6.0725,-21.472,17.552,5.520001,concentric,3,3.0,20222.0,142591.0,230103.0,280637.0,263930.0
2026-04-08 21:49:50.935318,241503,1609504163149839,1763116757,0.862784,0.074176,0.025376,-3.4825,2.19625,-6.30875,-21.496,17.576,5.632,concentric,3,3.0,20222.0,142591.0,230103.0,280637.0,263930.0
2026-04-08 21:49:50.937053,241504,1609504163158909,1763125439,0.862784,0.074176,0.025376,-2.73,2.72125,-6.46625,-21.496,17.576,5.632,concentric,3,3.0,20222.0,142591.0,230103.0,280637.0,263930.0
2026-04-08 21:49:50.938892,241505,1609504163173590,1763140355,0.913536,0.054656,-0.00976,0.0,3.75375,-5.94125,-21.792002,17.792002,5.736,concentric,3,3.0,20222.0,142591.0,230103.0,280637.0,263930.0
2026-04-08 21:49:50.969683,241506,1609504163182487,1763149013,0.913536,0.054656,-0.00976,0.34125,4.5325,-5.95,-21.792002,17.792002,5.736,concentric,3,3.0,20222.0,142591.0,230103.0,280637.0,263930.0
2026-04-08 21:49:50.972114,241507,1609504163196988,1763163881,0.835456,0.091744,-0.105408,0.385,4.13875,-6.09,-21.608002,17.888,4.488,concentric,3,3.0,20222.0,142591.0,230103.0,280637.0,263930.0
2026-04-08 21:49:50.977215,241508,1609504163205983,1763172551,0.851072,0.044896,-0.169824,1.07625,3.85875,-6.5975,-21.992,17.800001,5.76,concentric,3,3.0,20222.0,142591.0,230103.0,280637.0,263930.0
2026-04-08 21:49:51.012819,241509,1609504163220472,1763187460,0.851072,0.044896,-0.169824,1.5225,3.57875,-8.04125,-21.992,17.800001,5.76,concentric,3,3.0,20222.0,142591.0,230103.0,280637.0,263930.0
2026-04-08 21:49:51.039537,241520,1609504163229974,1763196176,0.876448,0.062464,-0.083936,1.16375,3.24625,-7.1225,-21.752,17.448,5.592001,concentric,3,3.0,20203.0,142596.0,230233.0,280750.0,264010.0
2026-04-08 21:49:51.041216,241521,1609504163238892,1763204862,0.876448,0.062464,-0.083936,2.2225,3.52625,-5.39,-21.752,17.448,5.592001,concentric,3,3.0,20203.0,142596.0,230233.0,280750.0,264010.0
2026-04-08 21:49:51.045351,241522,1609504163253373,1763219770,0.841312,0.093696,-0.167872,-0.245,4.0425,-6.0375,-21.976002,17.896,5.44,concentric,3,3.0,20203.0,142596.0,230233.0,280750.0,264010.0
2026-04-08 21:49:51.047011,241523,1609504163262317,1763228447,0.841312,0.093696,-0.167872,-1.63625,4.78625,-6.7725,-21.976002,17.896,5.44,concentric,3,3.0,20203.0,142596.0,230233.0,280750.0,264010.0
2026-04-08 21:49:51.048744,241524,1609504163276858,1763243365,0.899872,0.066368,-0.040992,-0.58625,4.89125,-6.1425,-22.328001,17.976002,6.824,concentric,3,3.0,20203.0,142596.0,230233.0,280750.0,264010.0
2026-04-08 21:49:51.052986,241525,1609504163285786,1763252040,0.817888,0.070272,-0.109312,-1.25125,3.71,-6.15125,-22.424002,17.584002,7.824,concentric,3,3.0,20203.0,142596.0,230233.0,280750.0,264010.0
2026-04-08 21:49:51.063871,241526,1609504163294750,1763260747,0.817888,0.070272,-0.109312,-1.8725,3.01,-7.16625,-22.424002,17.584002,7.824,concentric,3,3.0,20203.0,142596.0,230233.0,280750.0,264010.0
2026-04-08 21:49:51.103571,241527,1609504163309247,1763275652,0.921344,0.066368,-0.021472,-2.58125,2.52,-7.77875,-22.400002,17.800001,5.448,concentric,3,3.0,20203.0,142596.0,230233.0,280750.0,264010.0
2026-04-08 21:49:51.107951,241528,1609504163318183,1763284344,0.921344,0.066368,-0.021472,-4.22625,3.0975,-9.3975,-22.400002,17.800001,5.448,concentric,3,3.0,20203.0,142596.0,230233.0,280750.0,264010.0
2026-04-08 21:49:51.134512,241539,1609504163332713,1763299245,0.931104,0.07808,-0.062464,-3.6225,3.82375,-10.35125,-22.2,17.784,5.624,concentric,3,3.0,20349.0,143020.0,230580.0,280883.0,264021.0
2026-04-08 21:49:51.136097,241540,1609504163341620,1763307893,0.931104,0.07808,-0.062464,-3.24625,4.41875,-11.83,-22.2,17.784,5.624,concentric,3,3.0,20349.0,143020.0,230580.0,280883.0,264021.0
2026-04-08 21:49:51.140322,241541,1609504163356147,1763322825,0.9272,0.099552,0.033184,-0.58625,4.83875,-12.495,-22.68,17.52,7.312,concentric,3,3.0,20349.0,143020.0,230580.0,280883.0,264021.0
2026-04-08 21:49:51.142031,241542,1609504163365252,1763331555,0.895968,0.10736,-0.11712,2.00375,4.38375,-12.565,-22.68,17.52,6.8,concentric,3,3.0,20349.0,143020.0,230580.0,280883.0,264021.0
2026-04-08 21:49:51.143666,241543,1609504163374188,1763340289,0.89792,0.10736,-0.11712,1.5925,3.85,-12.145,-23.032001,17.544,6.8,concentric,3,3.0,20349.0,143020.0,230580.0,280883.0,264021.0
2026-04-08 21:49:51.177225,241544,1609504163388647,1763355189,1.018944,0.062464,-0.089792,-1.5225,3.4475,-11.71625,-22.976002,17.336,6.440001,concentric,3,3.0,20349.0,143020.0,230580.0,280883.0,264021.0
2026-04-08 21:49:51.181576,241545,1609504163397581,1763363856,1.018944,0.062464,-0.089792,-4.095,3.08,-10.7975,-22.976002,17.336,6.440001,concentric,3,3.0,20349.0,143020.0,230580.0,280883.0,264021.0
2026-04-08 21:49:51.183191,241546,1609504163412080,1763378747,0.952576,0.093696,-0.169824,-3.7625,3.17625,-10.5,-22.888,17.2,5.728,concentric,3,3.0,20349.0,143020.0,230580.0,280883.0,264021.0
2026-04-08 21:49:51.188858,241547,1609504163420995,1763387409,0.952576,0.093696,-0.169824,-1.82875,3.42125,-11.935,-22.888,17.2,5.728,concentric,3,3.0,20349.0,143020.0,230580.0,280883.0,264021.0
2026-04-08 21:49:51.219788,241558,1609504163435972,1763402345,0.970144,0.111264,0.07808,-0.315,3.75375,-13.0375,-23.2,17.352001,6.488,concentric,3,3.0,20399.0,143195.0,230658.0,280813.0,263934.0
2026-04-08 21:49:51.222423,241559,1609504163444899,1763411043,0.970144,0.111264,0.07808,0.42,2.94875,-13.16875,-23.2,17.352001,6.488,concentric,3,3.0,20399.0,143195.0,230658.0,280813.0,263934.0
2026-04-08 21:49:51.225620,241560,1609504163453885,1763419779,0.964288,0.10736,-0.119072,-0.0525,1.91625,-12.18875,-23.416,17.128,5.376,concentric,3,3.0,20399.0,143195.0,230658.0,280813.0,263934.0
2026-04-08 21:49:51.257233,241561,1609504163468389,1763434696,1.036512,0.089792,0.025376,2.03875,1.3125,-10.59625,-23.808,16.728,6.64,concentric,3,3.0,20399.0,143195.0,230658.0,280813.0,263934.0
2026-04-08 21:49:51.259409,241562,1609504163477427,1763443367,1.036512,0.089792,0.025376,4.8125,0.6125,-9.80875,-23.808,16.728,6.64,concentric,3,3.0,20399.0,143195.0,230658.0,280813.0,263934.0
2026-04-08 21:49:51.263982,241563,1609504163491894,1763458201,0.940864,0.103456,-0.13664,4.62,0.07,-9.52,-23.616001,17.240002,6.008,concentric,3,3.0,20399.0,143195.0,230658.0,280813.0,263934.0
2026-04-08 21:49:51.267633,241564,1609504163500823,1763466992,0.940864,0.103456,-0.13664,5.18,0.06125,-9.7825,-23.616001,17.240002,6.008,concentric,3,3.0,20399.0,143195.0,230658.0,280813.0,263934.0
2026-04-08 21:49:51.296206,241565,1609504163509731,1763475674,0.94672,0.095648,-0.15616,6.475,0.53375,-10.03625,-23.696001,17.144001,6.216,concentric,3,3.0,20399.0,143195.0,230658.0,280813.0,263934.0
2026-04-08 21:49:51.299985,241566,1609504163524280,1763490550,0.94672,0.095648,-0.15616,8.3825,1.63625,-9.45,-23.696001,17.144001,6.216,concentric,3,3.0,20399.0,143195.0,230658.0,280813.0,263934.0
2026-04-08 21:49:51.328237,241577,1609504163533379,1763499444,0.960384,0.113216,-0.119072,11.20875,1.46125,-9.31,-23.816002,16.896,5.728,concentric,3,3.0,20408.0,143173.0,230676.0,280808.0,263890.0
2026-04-08 21:49:51.329750,241578,1609504163547916,1763514309,0.981856,0.144448,0.025376,12.3375,1.365,-8.295,-24.064001,16.664001,6.480001,concentric,3,3.0,20408.0,143173.0,230676.0,280808.0,263890.0
2026-04-08 21:49:51.334310,241579,1609504163556947,1763523114,0.981856,0.144448,0.025376,12.10125,1.2075,-6.83375,-24.064001,16.664001,6.480001,concentric,3,3.0,20408.0,143173.0,230676.0,280808.0,263890.0
2026-04-08 21:49:51.340138,241580,1609504163565901,1763531794,0.981856,0.144448,-0.193248,9.6075,1.18125,-7.315,-24.064001,16.664001,6.480001,concentric,3,3.0,20408.0,143173.0,230676.0,280808.0,263890.0
2026-04-08 21:49:51.405476,241581,1609504163580376,1763546662,0.938912,0.111264,-0.1952,6.34375,1.5925,-7.23625,-24.272001,17.192001,7.384,concentric,3,3.0,20408.0,143173.0,230676.0,280808.0,263890.0
2026-04-08 21:49:51.406996,241582,1609504163589301,1763555319,0.899872,0.162016,-0.046848,2.61625,2.07375,-6.0375,-23.960001,16.544,6.000001,concentric,3,3.0,20408.0,143173.0,230676.0,280808.0,263890.0
2026-04-08 21:49:51.408688,241583,1609504163603786,1763570231,0.899872,0.162016,-0.046848,3.92875,3.43875,-3.99875,-23.960001,16.544,6.000001,concentric,3,3.0,20408.0,143173.0,230676.0,280808.0,263890.0
2026-04-08 21:49:51.412676,241584,1609504163612674,1763578901,0.86864,0.158112,-0.089792,6.0725,3.91125,-2.59875,-24.032001,16.640001,6.408001,concentric,3,3.0,20408.0,143173.0,230676.0,280808.0,263890.0
2026-04-08 21:49:51.442333,241595,1609504163627156,1763593867,0.9272,0.140544,-0.00976,5.06625,3.5175,-2.40625,-24.192001,16.784,7.336,concentric,3,3.0,20463.0,143300.0,230706.0,280820.0,263855.0
2026-04-08 21:49:51.446590,241596,1609504163636087,1763602599,0.9272,0.140544,-0.00976,3.59625,2.1175,-1.39125,-24.192001,16.784,7.336,concentric,3,3.0,20463.0,143300.0,230706.0,280820.0,263855.0
2026-04-08 21:49:51.448248,241597,1609504163650581,1763617503,1.013088,0.06832,0.003904,2.17,1.58375,-1.46125,-24.504002,16.704,7.008,concentric,3,3.0,20463.0,143300.0,230706.0,280820.0,263855.0
2026-04-08 21:49:51.449800,241598,1609504163659582,1763626208,1.013088,0.06832,0.003904,2.30125,2.05625,-2.56375,-24.504002,16.704,7.008,concentric,3,3.0,20463.0,143300.0,230706.0,280820.0,263855.0
2026-04-08 21:49:51.454051,241599,1609504163668539,1763634870,0.89792,0.122976,-0.134688,3.80625,2.84375,-3.54375,-24.192001,16.752,6.088,concentric,3,3.0,20463.0,143300.0,230706.0,280820.0,263855.0
2026-04-08 21:49:51.455790,241600,1609504163683031,1763649730,0.89792,0.122976,-0.134688,7.91,3.22,-3.29,-24.192001,16.752,6.088,concentric,3,3.0,20463.0,143300.0,230706.0,280820.0,263855.0
2026-04-08 21:49:51.457309,241601,1609504163691959,1763658452,0.940864,0.171776,0.033184,13.79,3.15875,-2.59875,-24.008001,16.392,6.488,concentric,3,3.0,20463.0,143300.0,230706.0,280820.0,263855.0
2026-04-08 21:49:51.488434,241602,1609504163706428,1763673342,0.940864,0.171776,0.033184,16.66875,2.72125,-2.73875,-24.008001,16.392,6.488,concentric,3,3.0,20463.0,143300.0,230706.0,280820.0,263855.0
2026-04-08 21:49:51.490712,241603,1609504163715356,1763682017,0.948672,0.154208,0.081984,15.2775,2.2575,-3.15875,-24.688002,16.696001,6.544,concentric,3,3.0,20463.0,143300.0,230706.0,280820.0,263855.0
2026-04-08 21:49:51.519559,241614,1609504163730115,1763696948,0.977952,0.122976,0.062464,11.27,2.1175,-2.0825,-24.456001,16.416,6.2,concentric,3,3.0,20395.0,143105.0,230583.0,280725.0,263831.0
2026-04-08 21:49:51.521979,241615,1609504163739169,1763705728,0.977952,0.122976,0.062464,7.79625,1.8025,-0.0525,-24.456001,16.416,6.2,concentric,3,3.0,20395.0,143105.0,230583.0,280725.0,263831.0
2026-04-08 21:49:51.523533,241616,1609504163748161,1763714446,0.909632,0.138592,-0.052704,8.2075,1.7675,0.8225,-24.744001,16.560001,8.384001,concentric,3,3.0,20395.0,143105.0,230583.0,280725.0,263831.0
2026-04-08 21:49:51.529396,241617,1609504163762679,1763729381,0.909632,0.138592,-0.052704,12.46875,1.995,0.86625,-24.744001,16.560001,8.384001,concentric,3,3.0,20395.0,143105.0,230583.0,280725.0,263831.0
2026-04-08 21:49:51.559597,241618,1609504163771625,1763738054,0.944768,0.119072,-0.11712,16.3625,2.58125,1.28625,-24.552002,16.08,7.296001,concentric,3,3.0,20395.0,143105.0,230583.0,280725.0,263831.0
2026-04-08 21:49:51.564035,241619,1609504163786055,1763752896,0.944768,0.119072,-0.11712,16.19625,2.33625,1.33,-24.552002,16.08,7.296001,concentric,3,3.0,20395.0,143105.0,230583.0,280725.0,263831.0
2026-04-08 21:49:51.565613,241620,1609504163794970,1763761613,1.01504,0.121024,0.005856,15.085,1.79375,1.11125,-24.896002,16.168001,8.904,concentric,3,3.0,20395.0,143105.0,230583.0,280725.0,263831.0
2026-04-08 21:49:51.573920,241621,1609504163803896,1763770327,1.01504,0.121024,0.005856,15.627501,1.28625,-0.2975,-24.896002,16.168001,8.904,concentric,3,3.0,20395.0,143105.0,230583.0,280725.0,263831.0
2026-04-08 21:49:51.602429,241622,1609504163818417,1763785211,0.95648,0.144448,0.03904,14.2275,1.68,-1.015,-24.632002,16.112001,8.264,concentric,3,3.0,20395.0,143105.0,230583.0,280725.0,263831.0
2026-04-08 21:49:51.607078,241623,1609504163827354,1763793873,0.95648,0.144448,0.03904,13.16875,1.61,-0.48125,-24.632002,16.112001,8.264,concentric,3,3.0,20395.0,143105.0,230583.0,280725.0,263831.0
2026-04-08 21:49:51.638207,241634,1609504163841842,1763808796,0.952576,0.150304,-0.173728,13.32625,2.51125,1.12875,-24.52,16.288,7.688,concentric,3,3.0,20319.0,142842.0,230258.0,280498.0,263707.0
2026-04-08 21:49:51.639728,241635,1609504163850778,1763817492,0.999424,0.150304,-0.140544,13.22125,2.26625,1.72375,-24.336,16.432001,7.184001,concentric,3,3.0,20319.0,142842.0,230258.0,280498.0,263707.0
2026-04-08 21:49:51.644054,241636,1609504163865319,1763832408,0.999424,0.150304,-0.140544,13.08125,1.54,0.88375,-24.336,16.432001,7.184001,concentric,3,3.0,20319.0,142842.0,230258.0,280498.0,263707.0
2026-04-08 21:49:51.646492,241637,1609504163874361,1763841078,1.087264,0.115168,0.085888,13.125,1.4525,0.39375,-24.712002,16.472,8.496,concentric,3,3.0,20319.0,142842.0,230258.0,280498.0,263707.0
2026-04-08 21:49:51.650613,241638,1609504163883278,1763849747,1.087264,0.115168,0.085888,12.01375,2.205,0.21875,-24.712002,16.472,8.496,concentric,3,3.0,20319.0,142842.0,230258.0,280498.0,263707.0
