pc_time,serial_num,sensor_ts,host_ts,ax,ay,az,gx,gy,gz,mx,my,mz,phase,rpe,weight_kg,ppg_a,ppg_b,ppg_c,ppg_d,ppg_e
2026-04-08 21:49:26.959930,236990,1609504139174877,1739141592,1.018944,0.101504,0.035136,-3.87625,-0.63,3.21125,-24.000002,16.632,7.576,eccentric,3,3.0,18790.0,137759.0,225675.0,277443.0,261666.0
2026-04-08 21:49:26.963444,236991,1609504139183817,1739150274,1.018944,0.101504,0.035136,-2.0475,-0.56875,3.045,-24.000002,16.632,7.576,eccentric,3,3.0,18790.0,137759.0,225675.0,277443.0,261666.0
2026-04-08 21:49:26.967535,236992,1609504139192711,1739158922,1.01504,0.115168,-0.021472,-2.94,-0.20125,3.325,-24.192001,16.608002,7.488,eccentric,3,3.0,18790.0,137759.0,225675.0,277443.0,261666.0
2026-04-08 21:49:26.995879,237003,1609504139207234,1739173932,1.013088,0.093696,-0.00976,0.00875,-0.11375,3.01,-24.232,16.808,7.768001,eccentric,3,3.0,18720.0,137548.0,225399.0,277251.0,261578.0
2026-04-08 21:49:26.998462,237004,1609504139216217,1739182636,1.013088,0.093696,-0.00976,2.625,0.2975,2.7475,-24.232,16.808,7.768001,eccentric,3,3.0,18720.0,137548.0,225399.0,277251.0,261578.0
2026-04-08 21:49:27.000880,237005,1609504139230721,1739197559,0.970144,0.130784,-0.017568,-1.9775,0.97125,2.695,-24.208002,16.736,8.232,eccentric,3,3.0,18720.0,137548.0,225399.0,277251.0,261578.0
2026-04-08 21:49:27.005990,237006,1609504139239647,1739206222,0.970144,0.130784,-0.017568,-4.17375,1.67125,3.0975,-24.208002,16.736,8.232,eccentric,3,3.0,18720.0,137548.0,225399.0,277251.0,261578.0
2026-04-08 21:49:27.036218,237007,1609504139254117,1739221072,1.03456,0.121024,0.095648,-1.75,1.575,2.5725,-23.920002,16.776001,7.880001,eccentric,3,3.0,18720.0,137548.0,225399.0,277251.0,261578.0
2026-04-08 21:49:27.039747,237008,1609504139263060,1739229762,1.03456,0.121024,0.095648,-1.1025,1.65375,1.3475,-23.920002,16.776001,7.880001,eccentric,3,3.0,18720.0,137548.0,225399.0,277251.0,261578.0
2026-04-08 21:49:27.042220,237009,1609504139271955,1739238429,1.042368,0.119072,-0.005856,-1.5925,1.33875,1.9425,-24.088001,16.752,7.936,eccentric,3,3.0,18720.0,137548.0,225399.0,277251.0,261578.0
2026-04-08 21:49:27.072364,237010,1609504139286481,1739253304,1.081408,0.113216,0.080032,-2.72125,1.23375,2.2925,-24.088001,16.752,6.216,eccentric,3,3.0,18720.0,137548.0,225399.0,277251.0,261578.0
2026-04-08 21:49:27.076012,237011,1609504139295474,1739261970,1.081408,0.113216,0.080032,-2.835,0.84875,1.4,-23.752,16.728,6.216,eccentric,3,3.0,18720.0,137548.0,225399.0,277251.0,261578.0
2026-04-08 21:49:27.103535,237022,1609504139310006,1739276894,1.042368,0.072224,0.054656,-3.42125,0.70875,1.12875,-23.52,16.768002,7.632,eccentric,3,3.0,18787.0,137655.0,225365.0,277155.0,261482.0
2026-04-08 21:49:27.106043,237023,1609504139318933,1739285631,1.042368,0.072224,0.054656,-5.39875,1.155,1.5575,-23.52,16.768002,7.632,eccentric,3,3.0,18787.0,137655.0,225365.0,277155.0,261482.0
2026-04-08 21:49:27.108495,237024,1609504139333644,1739300553,1.06384,0.091744,-0.031232,-6.055,1.19875,2.14375,-23.728,16.792002,7.960001,eccentric,3,3.0,18787.0,137655.0,225365.0,277155.0,261482.0
2026-04-08 21:49:27.110981,237025,1609504139342551,1739309250,1.06384,0.091744,-0.031232,-5.1275,0.39375,1.88125,-23.728,16.792002,7.960001,eccentric,3,3.0,18787.0,137655.0,225365.0,277155.0,261482.0
2026-04-08 21:49:27.148861,237026,1609504139351501,1739317909,1.079456,0.113216,0.001952,-2.28375,-0.28875,1.46125,-23.352001,16.960001,7.848001,eccentric,3,3.0,18787.0,137655.0,225365.0,277155.0,261482.0
2026-04-08 21:49:27.152209,237027,1609504139365986,1739332718,1.079456,0.113216,0.001952,-1.47,0.175,0.315,-23.352001,16.960001,7.848001,eccentric,3,3.0,18787.0,137655.0,225365.0,277155.0,261482.0
2026-04-08 21:49:27.154698,237028,1609504139374917,1739341376,1.013088,0.109312,-0.003904,-2.40625,1.295,0.21,-23.160002,16.560001,11.336,eccentric,3,3.0,18787.0,137655.0,225365.0,277155.0,261482.0
2026-04-08 21:49:27.157194,237029,1609504139389406,1739356230,1.03456,0.099552,-0.054656,-3.38625,1.96875,1.30375,-23.2,16.816,7.752,eccentric,3,3.0,18787.0,137655.0,225365.0,277155.0,261482.0
2026-04-08 21:49:27.187438,237030,1609504139398443,1739364897,1.03456,0.099552,-0.054656,-2.4325,1.96875,2.3275,-23.2,16.816,7.752,eccentric,3,3.0,18787.0,137655.0,225365.0,277155.0,261482.0
2026-04-08 21:49:27.215991,237041,1609504139412956,1739379788,1.04432,0.05856,-0.07808,-3.29,1.12,1.3825,-23.024,16.592001,7.848001,eccentric,3,3.0,18923.0,137990.0,225545.0,277174.0,261455.0
2026-04-08 21:49:27.218490,237042,1609504139421851,1739388461,1.04432,0.05856,-0.07808,-6.72,0.9625,0.49,-23.024,16.592001,7.848001,eccentric,3,3.0,18923.0,137990.0,225545.0,277174.0,261455.0
2026-04-08 21:49:27.220964,237043,1609504139430783,1739397122,0.997472,0.072224,-0.005856,-10.745,1.11125,0.70875,-23.072,16.936,8.096001,eccentric,3,3.0,18923.0,137990.0,225545.0,277174.0,261455.0
2026-04-08 21:49:27.224177,237044,1609504139445259,1739411999,0.997472,0.072224,-0.005856,-9.6775,1.8025,1.40875,-23.072,16.936,8.096001,eccentric,3,3.0,18923.0,137990.0,225545.0,277174.0,261455.0
2026-04-08 21:49:27.225979,237045,1609504139454230,1739420693,1.003328,0.064416,-0.040992,-5.17125,2.2925,1.925,-23.056002,17.016,8.232,eccentric,3,3.0,18923.0,137990.0,225545.0,277174.0,261455.0
2026-04-08 21:49:27.256268,237046,1609504139468814,1739435556,1.007232,0.091744,-0.134688,-3.45625,1.88125,2.2575,-22.880001,16.984001,8.200001,eccentric,3,3.0,18923.0,137990.0,225545.0,277174.0,261455.0
2026-04-08 21:49:27.259794,237047,1609504139477758,1739444262,1.007232,0.091744,-0.134688,-3.77125,1.49625,3.43875,-22.880001,16.984001,8.200001,eccentric,3,3.0,18923.0,137990.0,225545.0,277174.0,261455.0
2026-04-08 21:49:27.262236,237048,1609504139492219,1739459124,0.989664,0.099552,-0.060512,-5.4775,1.35625,3.98125,-22.68,17.272001,7.904,eccentric,3,3.0,18923.0,137990.0,225545.0,277174.0,261455.0
2026-04-08 21:49:27.289790,237059,1609504139501599,1739467840,0.989664,0.099552,-0.060512,-7.65625,0.8925,4.34875,-22.68,17.272001,7.904,eccentric,3,3.0,19046.0,138431.0,225941.0,277520.0,261653.0
2026-04-08 21:49:27.292202,237060,1609504139510567,1739476635,1.011136,0.037088,-0.070272,-8.636251,1.0675,5.29375,-22.192001,17.352001,7.584001,eccentric,3,3.0,19046.0,138431.0,225941.0,277520.0,261653.0
2026-04-08 21:49:27.294770,237061,1609504139525077,1739491540,1.011136,0.037088,-0.070272,-9.59,1.82,5.8975,-22.192001,17.352001,7.584001,eccentric,3,3.0,19046.0,138431.0,225941.0,277520.0,261653.0
2026-04-08 21:49:27.299751,237062,1609504139534028,1739500246,1.00528,0.054656,0.025376,-11.05125,1.7675,7.00875,-22.28,17.240002,7.808001,eccentric,3,3.0,19046.0,138431.0,225941.0,277520.0,261653.0
2026-04-08 21:49:27.329979,237063,1609504139548576,1739515130,1.011136,0.040992,0.0,-10.8325,1.4175,8.4875,-22.184002,17.664001,8.240001,eccentric,3,3.0,19046.0,138431.0,225941.0,277520.0,261653.0
2026-04-08 21:49:27.333503,237064,1609504139557528,1739523805,1.011136,0.040992,0.0,-8.40875,0.8925,7.93625,-22.184002,17.664001,8.240001,eccentric,3,3.0,19046.0,138431.0,225941.0,277520.0,261653.0
2026-04-08 21:49:27.335994,237065,1609504139566517,1739532486,1.011136,0.040992,0.0,-9.8525,-0.0525,6.97375,-22.184002,17.664001,8.240001,eccentric,3,3.0,19046.0,138431.0,225941.0,277520.0,261653.0
2026-04-08 21:49:27.366206,237066,1609504139580996,1739547364,0.954528,0.054656,-0.0488,-10.05375,-0.8575,7.4025,-22.2,17.52,8.464001,eccentric,3,3.0,19046.0,138431.0,225941.0,277520.0,261653.0
2026-04-08 21:49:27.381111,237067,1609504139589916,1739556026,0.915488,0.040992,-0.081984,-6.4925,-0.7525,7.7525,-21.752,17.6,7.552001,eccentric,3,3.0,19046.0,138431.0,225941.0,277520.0,261653.0
2026-04-08 21:49:27.412277,237078,1609504139604755,1739571303,0.915488,0.040992,-0.081984,-3.54375,-0.7875,8.47,-21.752,17.6,7.552001,eccentric,3,3.0,19076.0,138619.0,226172.0,277745.0,261828.0
2026-04-08 21:49:27.414807,237079,1609504139613744,1739580054,0.954528,0.083936,-0.046848,-1.61,-1.54875,9.56375,-21.096,17.864,8.688001,eccentric,3,3.0,19076.0,138619.0,226172.0,277745.0,261828.0
2026-04-08 21:49:27.452297,237080,1609504139622648,1739588719,0.954528,0.083936,-0.046848,-1.2075,-2.16125,10.5525,-21.096,17.864,8.688001,eccentric,3,3.0,19076.0,138619.0,226172.0,277745.0,261828.0
2026-04-08 21:49:27.454723,237081,1609504139637177,1739603604,0.940864,0.064416,-0.042944,-2.0825,-2.56375,10.3775,-21.208,17.6,8.952001,eccentric,3,3.0,19076.0,138619.0,226172.0,277745.0,261828.0
2026-04-08 21:49:27.457203,237082,1609504139646152,1739612358,0.940864,0.064416,-0.042944,-6.16,-2.45875,10.15875,-21.208,17.6,8.952001,eccentric,3,3.0,19076.0,138619.0,226172.0,277745.0,261828.0
2026-04-08 21:49:27.459801,237083,1609504139660666,1739627263,0.909632,0.005856,-0.056608,-12.04875,-2.59875,10.08,-21.632002,17.720001,8.584001,eccentric,3,3.0,19076.0,138619.0,226172.0,277745.0,261828.0
2026-04-08 21:49:27.462268,237084,1609504139669593,1739635925,0.895968,-0.003904,-0.03904,-15.28625,-3.35125,10.96375,-20.792002,17.896,7.472,eccentric,3,3.0,19076.0,138619.0,226172.0,277745.0,261828.0
2026-04-08 21:49:27.464768,237085,1609504139684060,1739650785,0.895968,-0.003904,-0.03904,-11.97,-3.96375,11.55875,-20.792002,17.896,7.472,eccentric,3,3.0,19076.0,138619.0,226172.0,277745.0,261828.0
2026-04-08 21:49:27.469528,237086,1609504139692949,1739659426,0.903776,0.025376,0.060512,-6.25625,-4.59375,10.3425,-20.512001,18.168001,7.544,eccentric,3,3.0,19076.0,138619.0,226172.0,277745.0,261828.0
2026-04-08 21:49:27.494739,237097,1609504139701943,1739668083,0.903776,0.025376,0.060512,-3.29875,-4.89125,9.4675,-20.512001,18.168001,7.544,eccentric,3,3.0,19070.0,138755.0,226505.0,278058.0,262110.0
2026-04-08 21:49:27.497256,237098,1609504139716927,1739682991,0.884256,0.025376,-0.124928,-2.51125,-4.8825,9.44125,-20.744001,18.224,9.768001,eccentric,3,3.0,19070.0,138755.0,226505.0,278058.0,262110.0
2026-04-08 21:49:27.499701,237099,1609504139725844,1739691697,0.884256,0.025376,-0.124928,-2.7825,-5.81875,9.555,-20.744001,18.224,9.768001,eccentric,3,3.0,19070.0,138755.0,226505.0,278058.0,262110.0
2026-04-08 21:49:27.506073,237100,1609504139740416,1739706615,0.950624,0.023424,0.023424,-5.62625,-6.16875,8.9075,-20.384,18.240002,9.864,eccentric,3,3.0,19070.0,138755.0,226505.0,278058.0,262110.0
2026-04-08 21:49:27.536285,237101,1609504139749337,1739715338,0.950624,0.023424,-0.033184,-10.84125,-6.755,8.9075,-20.384,18.240002,9.864,eccentric,3,3.0,19070.0,138755.0,226505.0,278058.0,262110.0
2026-04-08 21:49:27.539769,237102,1609504139763826,1739730194,0.890112,0.021472,-0.033184,-16.30125,-7.175,9.68625,-20.416,18.408,7.392,eccentric,3,3.0,19070.0,138755.0,226505.0,278058.0,262110.0
2026-04-08 21:49:27.543160,237103,1609504139772746,1739738883,0.892064,-0.031232,-0.056608,-17.78875,-7.525,10.14125,-20.264002,18.168001,7.144001,eccentric,3,3.0,19070.0,138755.0,226505.0,278058.0,262110.0
2026-04-08 21:49:27.546051,237104,1609504139781644,1739747566,0.892064,-0.031232,-0.056608,-16.4675,-7.27125,9.5025,-20.264002,18.168001,7.144001,eccentric,3,3.0,19070.0,138755.0,226505.0,278058.0,262110.0
2026-04-08 21:49:27.580015,237105,1609504139796088,1739762424,0.864736,-0.00976,0.023424,-16.4325,-6.41375,9.52875,-19.976002,18.816,7.952,eccentric,3,3.0,19070.0,138755.0,226505.0,278058.0,262110.0
2026-04-08 21:49:27.608530,237116,1609504139805099,1739771145,0.864736,-0.00976,0.023424,-18.025,-6.23,9.8175,-19.976002,18.816,7.952,eccentric,3,3.0,19011.0,138608.0,226596.0,278235.0,262286.0
2026-04-08 21:49:27.611040,237117,1609504139819651,1739786006,0.853024,0.025376,0.0,-17.73625,-7.30625,9.45875,-19.752,18.768002,6.792,eccentric,3,3.0,19011.0,138608.0,226596.0,278235.0,262286.0
2026-04-08 21:49:27.613517,237118,1609504139828645,1739794748,0.853024,0.025376,0.0,-14.72625,-8.2075,8.39125,-19.752,18.768002,6.792,eccentric,3,3.0,19011.0,138608.0,226596.0,278235.0,262286.0
2026-04-08 21:49:27.616021,237119,1609504139843103,1739809692,0.89792,0.015616,0.103456,-11.9525,-8.04125,7.46375,-19.656,18.880001,8.176001,eccentric,3,3.0,19011.0,138608.0,226596.0,278235.0,262286.0
2026-04-08 21:49:27.618560,237120,1609504139852020,1739818349,0.895968,-0.033184,-0.08784,-11.655,-6.965,7.0,-19.592001,18.800001,7.816001,eccentric,3,3.0,19011.0,138608.0,226596.0,278235.0,262286.0
2026-04-08 21:49:27.624783,237121,1609504139860963,1739827041,0.895968,-0.033184,-0.08784,-16.0825,-5.80125,8.636251,-19.592001,18.800001,7.816001,eccentric,3,3.0,19011.0,138608.0,226596.0,278235.0,262286.0
2026-04-08 21:49:27.655073,237122,1609504139875439,1739841948,0.903776,-0.017568,0.115168,-18.725,-4.45375,11.375,-19.152,19.160002,7.000001,eccentric,3,3.0,19011.0,138608.0,226596.0,278235.0,262286.0
2026-04-08 21:49:27.658933,237123,1609504139884344,1739850612,0.903776,-0.017568,0.115168,-17.70125,-3.82375,15.39125,-19.152,19.160002,7.000001,eccentric,3,3.0,19011.0,138608.0,226596.0,278235.0,262286.0
2026-04-08 21:49:27.667282,237124,1609504139898805,1739865473,0.886208,-0.025376,0.121024,-18.96125,-3.43,14.6475,-18.976002,18.720001,6.536,eccentric,3,3.0,19011.0,138608.0,226596.0,278235.0,262286.0
2026-04-08 21:49:27.694716,237135,1609504139907875,1739874253,0.886208,-0.025376,0.121024,-19.38125,-2.0825,10.0275,-18.976002,18.720001,6.536,eccentric,3,3.0,19095.0,138971.0,226941.0,278398.0,262328.0
2026-04-08 21:49:27.697273,237136,1609504139922439,1739889190,0.835456,-0.00976,-0.040992,-15.995,-1.72375,9.905,-18.68,19.104,6.496,eccentric,3,3.0,19095.0,138971.0,226941.0,278398.0,262328.0
2026-04-08 21:49:27.699763,237137,1609504139931367,1739897894,0.81984,0.003904,-0.074176,-18.43625,-1.96,10.49125,-18.44,19.408,3.504,eccentric,3,3.0,19095.0,138971.0,226941.0,278398.0,262328.0
2026-04-08 21:49:27.706000,237138,1609504139940299,1739906573,0.81984,0.003904,-0.074176,-17.33375,-1.54875,12.71375,-18.44,19.408,3.504,eccentric,3,3.0,19095.0,138971.0,226941.0,278398.0,262328.0
2026-04-08 21:49:27.747553,237139,1609504139954798,1739921423,0.876448,-0.074176,-0.031232,-14.37625,-0.35875,14.86625,-18.304,19.288,6.504,eccentric,3,3.0,19095.0,138971.0,226941.0,278398.0,262328.0
2026-04-08 21:49:27.751073,237140,1609504139963708,1739930183,0.876448,-0.074176,-0.031232,-15.6975,0.79625,16.65125,-18.304,19.288,6.504,eccentric,3,3.0,19095.0,138971.0,226941.0,278398.0,262328.0
2026-04-08 21:49:27.756006,237141,1609504139978182,1739945044,0.866688,-0.056608,0.064416,-17.78875,1.4175,17.3075,-18.296001,19.592001,6.192,eccentric,3,3.0,19095.0,138971.0,226941.0,278398.0,262328.0
2026-04-08 21:49:27.758507,237142,1609504139987106,1739953687,0.866688,-0.056608,0.064416,-19.241251,0.665,14.14875,-18.296001,19.592001,6.192,eccentric,3,3.0,19095.0,138971.0,226941.0,278398.0,262328.0
2026-04-08 21:49:27.790518,237143,1609504140001584,1739968561,0.802272,-0.074176,-0.081984,-17.84125,0.2625,12.59125,-18.024,19.952002,7.2,eccentric,3,3.0,19095.0,138971.0,226941.0,278398.0,262328.0
2026-04-08 21:49:27.817249,237154,1609504140010561,1739977321,0.802272,-0.074176,-0.081984,-15.3125,1.1025,14.65625,-18.024,19.952002,7.2,eccentric,3,3.0,19175.0,139286.0,227330.0,278733.0,262573.0
2026-04-08 21:49:27.819772,237155,1609504140019511,1739986088,0.81008,-0.040992,-0.015616,-14.945,1.2075,14.79625,-17.44,19.84,8.024,eccentric,3,3.0,19175.0,139286.0,227330.0,278733.0,262573.0
2026-04-08 21:49:27.822246,237156,1609504140033979,1740001097,0.856928,-0.044896,0.080032,-18.1125,0.62125,9.765,-17.608002,20.016,6.896,eccentric,3,3.0,19175.0,139286.0,227330.0,278733.0,262573.0
2026-04-08 21:49:27.824700,237157,1609504140043053,1740009833,0.856928,-0.044896,0.080032,-17.59625,0.74375,9.5025,-17.608002,20.016,6.896,eccentric,3,3.0,19175.0,139286.0,227330.0,278733.0,262573.0
2026-04-08 21:49:27.827227,237158,1609504140057587,1740024738,0.728096,-0.044896,-0.044896,-20.965,0.95375,9.16125,-17.416,19.992,6.992,eccentric,3,3.0,19175.0,139286.0,227330.0,278733.0,262573.0
2026-04-08 21:49:27.833481,237159,1609504140066540,1740033400,0.728096,-0.044896,-0.044896,-25.82125,2.23125,8.68,-17.416,19.992,6.992,eccentric,3,3.0,19175.0,139286.0,227330.0,278733.0,262573.0
2026-04-08 21:49:27.863753,237160,1609504140075465,1740042113,0.833504,-0.081984,0.173728,-25.095,1.67125,7.4025,-17.04,20.136002,6.520001,eccentric,3,3.0,19175.0,139286.0,227330.0,278733.0,262573.0
2026-04-08 21:49:27.868100,237161,1609504140089939,1740056992,0.833504,-0.081984,0.173728,-19.285,0.98875,6.20375,-17.04,20.136002,6.520001,eccentric,3,3.0,19175.0,139286.0,227330.0,278733.0,262573.0
2026-04-08 21:49:27.869994,237162,1609504140098878,1740065650,0.772992,-0.033184,0.06832,-11.34875,0.81375,5.62625,-17.264,20.320002,4.032,eccentric,3,3.0,19175.0,139286.0,227330.0,278733.0,262573.0
2026-04-08 21:49:27.897281,237173,1609504140113766,1740080637,0.81984,-0.052704,-0.052704,-6.85125,1.58375,5.5825,-17.432001,20.504002,6.856,eccentric,3,3.0,19183.0,139299.0,227233.0,278701.0,262524.0
2026-04-08 21:49:27.899765,237174,1609504140122728,1740089362,0.81984,-0.052704,-0.052704,-4.4975,2.51125,6.4225,-17.432001,20.504002,6.856,eccentric,3,3.0,19183.0,139299.0,227233.0,278701.0,262524.0
2026-04-08 21:49:27.902237,237175,1609504140137335,1740104261,0.876448,-0.070272,-0.050752,-1.8725,3.1675,8.365,-17.320002,20.432001,7.136,eccentric,3,3.0,19183.0,139299.0,227233.0,278701.0,262524.0
2026-04-08 21:49:27.932454,237176,1609504140146259,1740112929,0.876448,-0.070272,-0.050752,-3.99,3.31625,7.9625,-17.320002,20.432001,7.136,eccentric,3,3.0,19183.0,139299.0,227233.0,278701.0,262524.0
2026-04-08 21:49:27.969962,237177,1609504140155195,1740121587,0.853024,-0.080032,0.121024,-6.1775,3.61375,5.73125,-16.776001,20.496,6.016,eccentric,3,3.0,19183.0,139299.0,227233.0,278701.0,262524.0
2026-04-08 21:49:27.983587,237178,1609504140169671,1740136452,0.853024,-0.080032,0.121024,-4.26125,4.9525,4.45375,-16.776001,20.496,6.016,eccentric,3,3.0,19183.0,139299.0,227233.0,278701.0,262524.0
2026-04-08 21:49:27.986148,237179,1609504140178600,1740145165,0.833504,-0.076128,0.050752,1.82875,6.3,6.44,-17.04,20.800001,6.024,eccentric,3,3.0,19183.0,139299.0,227233.0,278701.0,262524.0
2026-04-08 21:49:27.988437,237180,1609504140193060,1740160043,0.864736,-0.03904,0.0,6.79875,7.14875,8.70625,-16.424002,20.76,8.92,eccentric,3,3.0,19183.0,139299.0,227233.0,278701.0,262524.0
2026-04-08 21:49:27.991006,237181,1609504140202209,1740168732,0.864736,-0.03904,0.0,8.79375,7.60375,7.97125,-16.424002,20.76,8.92,eccentric,3,3.0,19183.0,139299.0,227233.0,278701.0,262524.0
2026-04-08 21:49:28.050093,237192,1609504140216852,1740183648,0.843264,-0.056608,-0.01952,9.905,8.86375,7.46375,-16.624,20.928001,7.2,eccentric,3,3.0,19207.0,139198.0,226797.0,278290.0,262196.0
2026-04-08 21:49:28.053544,237193,1609504140225840,1740192338,0.843264,-0.056608,-0.01952,6.335,10.6925,5.985,-16.624,20.928001,7.2,eccentric,3,3.0,19207.0,139198.0,226797.0,278290.0,262196.0
2026-04-08 21:49:28.056008,237194,1609504140234772,1740201081,0.86864,-0.056608,0.080032,0.93625,13.055,7.74375,-16.560001,20.808,8.896001,eccentric,3,3.0,19207.0,139198.0,226797.0,278290.0,262196.0
2026-04-08 21:49:28.058474,237195,1609504140249301,1740216004,0.86864,-0.056608,0.080032,-3.605,14.035,9.66875,-16.560001,20.808,8.896001,eccentric,3,3.0,19207.0,139198.0,226797.0,278290.0,262196.0
2026-04-08 21:49:28.060981,237196,1609504140258345,1740224731,0.827648,-0.044896,0.0488,-2.4675,14.385,12.285,-16.208,20.880001,7.624001,eccentric,3,3.0,19207.0,139198.0,226797.0,278290.0,262196.0
2026-04-08 21:49:28.063491,237197,1609504140272827,1740239596,0.827648,-0.10736,-0.052704,-0.84,13.877501,15.05,-16.208,20.880001,7.624001,eccentric,3,3.0,19207.0,139198.0,226797.0,278290.0,262196.0
2026-04-08 21:49:28.066015,237198,1609504140281746,1740248259,0.913536,-0.095648,-0.052704,-1.82875,13.51875,15.42625,-16.016,21.088001,7.2,eccentric,3,3.0,19207.0,139198.0,226797.0,278290.0,262196.0
2026-04-08 21:49:28.068489,237199,1609504140290766,1740256907,0.913536,-0.095648,-0.052704,-0.56875,13.58,14.455,-16.016,21.088001,7.2,eccentric,3,3.0,19207.0,139198.0,226797.0,278290.0,262196.0
2026-04-08 21:49:28.095935,237210,1609504140305278,1740271804,0.948672,-0.128832,0.080032,-1.84625,14.3325,13.95625,-15.64,21.336,8.208,eccentric,3,3.0,19151.0,139000.0,226617.0,278170.0,262183.0
2026-04-08 21:49:28.098511,237211,1609504140314553,1740280538,0.851072,-0.093696,-0.064416,-7.53375,15.8025,14.77875,-15.864,21.480001,7.576,eccentric,3,3.0,19151.0,139000.0,226617.0,278170.0,262183.0
2026-04-08 21:49:28.101002,237212,1609504140329193,1740295491,0.851072,-0.093696,-0.064416,-12.88875,16.9575,15.60125,-15.864,21.480001,7.576,eccentric,3,3.0,19151.0,139000.0,226617.0,278170.0,262183.0
2026-04-08 21:49:28.103508,237213,1609504140338188,1740304159,0.915488,-0.101504,0.130784,-14.98875,16.765,14.91875,-15.264001,21.552002,7.296001,eccentric,3,3.0,19151.0,139000.0,226617.0,278170.0,262183.0
2026-04-08 21:49:28.135088,237214,1609504140352659,1740319020,0.915488,-0.101504,0.130784,-16.66875,15.505,13.06375,-15.264001,21.552002,7.296001,eccentric,3,3.0,19151.0,139000.0,226617.0,278170.0,262183.0
2026-04-08 21:49:28.138500,237215,1609504140361616,1740327726,0.94672,-0.162016,0.121024,-17.33375,12.81,10.745,-14.992001,21.208,6.432,eccentric,3,3.0,19151.0,139000.0,226617.0,278170.0,262183.0
2026-04-08 21:49:28.143464,237216,1609504140370537,1740336454,0.94672,-0.162016,0.121024,-14.4025,11.22625,8.12875,-14.992001,21.208,6.432,eccentric,3,3.0,19151.0,139000.0,226617.0,278170.0,262183.0
2026-04-08 21:49:28.149685,237217,1609504140385022,1740351426,0.944768,-0.150304,0.10736,-10.15875,10.68375,6.78125,-15.032001,21.544,6.56,eccentric,3,3.0,19151.0,139000.0,226617.0,278170.0,262183.0
2026-04-08 21:49:28.180815,237218,1609504140393938,1740360138,0.847168,-0.062464,-0.040992,-5.4425,10.4825,4.69,-15.032001,21.544,6.984,eccentric,3,3.0,19151.0,139000.0,226617.0,278170.0,262183.0
2026-04-08 21:49:28.209415,237229,1609504140408516,1740375134,0.847168,-0.062464,-0.040992,0.2625,10.7275,2.93125,-14.68,21.792002,6.984,eccentric,3,3.0,18993.0,138419.0,226015.0,277817.0,262026.0
2026-04-08 21:49:28.211014,237230,1609504140417497,1740383792,0.88816,-0.06832,-0.033184,4.4975,11.71625,2.42375,-14.872001,21.816002,7.064,eccentric,3,3.0,18993.0,138419.0,226015.0,277817.0,262026.0
2026-04-08 21:49:28.217743,237231,1609504140426454,1740392490,0.88816,-0.06832,-0.033184,9.82625,11.90875,5.20625,-14.872001,21.816002,7.064,eccentric,3,3.0,18993.0,138419.0,226015.0,277817.0,262026.0
2026-04-08 21:49:28.220667,237232,1609504140441087,1740407374,0.79056,-0.064416,-0.011712,13.335,10.6575,6.62375,-14.776001,21.768002,7.872,eccentric,3,3.0,18993.0,138419.0,226015.0,277817.0,262026.0
2026-04-08 21:49:28.226337,237233,1609504140450041,1740416077,0.79056,-0.064416,-0.011712,13.50125,10.08875,3.6925,-14.776001,21.768002,7.872,eccentric,3,3.0,18993.0,138419.0,226015.0,277817.0,262026.0
2026-04-08 21:49:28.231332,237234,1609504140464555,1740431002,0.825696,-0.121024,0.056608,10.07125,8.9075,0.88375,-14.904,21.744001,7.296001,eccentric,3,3.0,18993.0,138419.0,226015.0,277817.0,262026.0
2026-04-08 21:49:28.259868,237235,1609504140473477,1740439667,0.825696,-0.121024,0.056608,6.43125,7.07,0.1575,-14.904,21.744001,7.296001,eccentric,3,3.0,18993.0,138419.0,226015.0,277817.0,262026.0
2026-04-08 21:49:28.263840,237236,1609504140487935,1740454519,0.835456,-0.193248,-0.03904,6.7375,6.11625,-1.6275,-14.696001,21.712002,6.696,eccentric,3,3.0,18993.0,138419.0,226015.0,277817.0,262026.0
2026-04-08 21:49:28.267829,237237,1609504140496869,1740463178,0.813984,-0.121024,0.01952,11.41875,5.38125,-4.27,-14.488001,21.608002,7.008,eccentric,3,3.0,18993.0,138419.0,226015.0,277817.0,262026.0
2026-04-08 21:49:28.294666,237248,1609504140505820,1740471961,0.813984,-0.121024,0.01952,13.08125,4.57625,-6.6675,-14.488001,21.608002,7.008,eccentric,3,3.0,18946.0,138258.0,225923.0,277782.0,262033.0
2026-04-08 21:49:28.297232,237249,1609504140520346,1740486884,0.84912,-0.167872,-0.025376,11.89125,3.03625,-10.01,-15.288001,21.424002,8.504001,eccentric,3,3.0,18946.0,138258.0,225923.0,277782.0,262033.0
2026-04-08 21:49:28.299737,237250,1609504140529300,1740495584,0.84912,-0.167872,-0.025376,9.0125,1.61875,-10.36875,-15.288001,21.424002,8.504001,eccentric,3,3.0,18946.0,138258.0,225923.0,277782.0,262033.0
2026-04-08 21:49:28.350234,237251,1609504140543799,1740510473,0.817888,-0.189344,-0.12688,4.03375,-0.2275,-10.22,-15.088,21.208,8.704,eccentric,3,3.0,18946.0,138258.0,225923.0,277782.0,262033.0
2026-04-08 21:49:28.353520,237252,1609504140552718,1740519156,0.817888,-0.189344,-0.12688,2.96625,-3.26375,-13.65,-15.088,21.208,8.704,eccentric,3,3.0,18946.0,138258.0,225923.0,277782.0,262033.0
2026-04-08 21:49:28.356029,237253,1609504140567177,1740534085,0.99552,-0.23424,-0.037088,5.45125,-5.18,-17.24625,-14.920001,21.384,7.776001,eccentric,3,3.0,18946.0,138258.0,225923.0,277782.0,262033.0
2026-04-08 21:49:28.358477,237254,1609504140576070,1740542744,0.833504,-0.167872,-0.089792,9.03875,-5.5475,-19.635,-15.416,21.080002,7.368001,eccentric,3,3.0,18946.0,138258.0,225923.0,277782.0,262033.0
2026-04-08 21:49:28.361005,237255,1609504140585023,1740551389,0.833504,-0.167872,-0.089792,11.83875,-3.57875,-19.95,-15.416,21.080002,7.368001,eccentric,3,3.0,18946.0,138258.0,225923.0,277782.0,262033.0
2026-04-08 21:49:28.366033,237256,1609504140599522,1740566260,0.80032,-0.076128,-0.109312,5.18,-3.29875,-16.35375,-15.704,21.512001,8.688001,eccentric,3,3.0,18946.0,138258.0,225923.0,277782.0,262033.0
2026-04-08 21:49:28.396405,237267,1609504140608649,1740575009,0.80032,-0.076128,-0.109312,-2.03,-5.29375,-13.3175,-15.704,21.512001,8.688001,eccentric,3,3.0,18982.0,138466.0,226161.0,277906.0,262063.0
2026-04-08 21:49:28.402230,237268,1609504140623344,1740589950,0.98576,-0.212768,-0.015616,-4.54125,-7.9975,-11.31375,-15.200001,21.152,8.232,eccentric,3,3.0,18982.0,138466.0,226161.0,277906.0,262063.0
2026-04-08 21:49:28.404725,237269,1609504140632317,1740598684,0.98576,-0.212768,-0.015616,-9.511251,-8.6625,-11.34,-15.200001,21.152,8.232,eccentric,3,3.0,18982.0,138466.0,226161.0,277906.0,262063.0
2026-04-08 21:49:28.434929,237270,1609504140646830,1740613533,0.870592,-0.187392,-0.025376,-10.2375,-8.89875,-13.99125,-15.872001,21.256,8.672001,concentric,3,3.0,18982.0,138466.0,226161.0,277906.0,262063.0
2026-04-08 21:49:28.439984,237271,1609504140655727,1740622182,0.86864,-0.144448,0.105408,-1.0675,-7.81375,-16.05625,-15.872001,20.976002,6.8,concentric,3,3.0,18982.0,138466.0,226161.0,277906.0,262063.0
2026-04-08 21:49:28.441001,237272,1609504140664647,1740630839,0.86864,-0.144448,0.105408,9.2225,-6.20375,-14.13125,-15.624001,20.976002,6.8,concentric,3,3.0,18982.0,138466.0,226161.0,277906.0,262063.0
2026-04-08 21:49:28.446518,237273,1609504140679128,1740645700,0.86864,-0.060512,0.052704,9.9925,-5.85375,-12.635,-16.088001,20.912,7.368001,concentric,3,3.0,18982.0,138466.0,226161.0,277906.0,262063.0
2026-04-08 21:49:28.453063,237274,1609504140688051,1740654463,0.86864,-0.060512,0.052704,6.30875,-6.615,-11.917501,-16.088001,20.912,7.368001,concentric,3,3.0,18982.0,138466.0,226161.0,277906.0,262063.0
2026-04-08 21:49:28.483327,237275,1609504140702502,1740669335,0.921344,-0.091744,0.072224,1.4525,-7.56875,-10.5175,-16.224,20.824001,8.224,concentric,3,3.0,18982.0,138466.0,226161.0,277906.0,262063.0
2026-04-08 21:49:28.516627,237286,1609504140711558,1740678096,0.921344,-0.091744,0.072224,-3.29,-8.70625,-9.96625,-16.224,20.824001,8.224,concentric,3,3.0,19251.0,139366.0,227069.0,278480.0,262335.0
2026-04-08 21:49:28.520677,237287,1609504140726083,1740692986,0.901824,-0.130784,0.070272,-6.53625,-8.5575,-9.52875,-16.208,20.792002,7.208,concentric,3,3.0,19251.0,139366.0,227069.0,278480.0,262335.0
2026-04-08 21:49:28.522161,237288,1609504140734995,1740701725,0.901824,-0.130784,0.070272,-5.7925,-8.25125,-9.6075,-16.208,20.792002,7.208,concentric,3,3.0,19251.0,139366.0,227069.0,278480.0,262335.0
2026-04-08 21:49:28.526563,237289,1609504140743934,1740710405,0.798368,-0.080032,-0.042944,-0.97125,-7.2275,-11.87375,-16.392,20.584002,7.68,concentric,3,3.0,19251.0,139366.0,227069.0,278480.0,262335.0
2026-04-08 21:49:28.528964,237290,1609504140758436,1740725279,0.81984,-0.050752,-0.105408,3.78,-6.13375,-14.4025,-16.560001,20.704,8.048,concentric,3,3.0,19251.0,139366.0,227069.0,278480.0,262335.0
2026-04-08 21:49:28.535145,237291,1609504140767439,1740733963,0.81984,-0.050752,-0.105408,0.8575,-6.18625,-16.38875,-16.560001,20.704,8.048,concentric,3,3.0,19251.0,139366.0,227069.0,278480.0,262335.0
2026-04-08 21:49:28.563676,237292,1609504140781924,1740748862,0.876448,-0.066368,-0.066368,-6.71125,-7.6825,-15.198751,-16.768002,20.76,6.912,concentric,3,3.0,19251.0,139366.0,227069.0,278480.0,262335.0
2026-04-08 21:49:28.568069,237293,1609504140790855,1740757531,0.876448,-0.066368,-0.066368,-13.23875,-10.54375,-12.39875,-16.768002,20.76,6.912,concentric,3,3.0,19251.0,139366.0,227069.0,278480.0,262335.0
2026-04-08 21:49:28.571962,237294,1609504140805332,1740772374,0.831552,-0.074176,0.142496,-15.93375,-11.7425,-13.29125,-16.952002,20.768002,6.864,concentric,3,3.0,19251.0,139366.0,227069.0,278480.0,262335.0
2026-04-08 21:49:28.600261,237305,1609504140814302,1740781143,0.831552,-0.074176,0.142496,-15.74125,-12.18,-15.89,-16.952002,20.768002,6.864,concentric,3,3.0,19124.0,139141.0,227159.0,278752.0,262602.0
2026-04-08 21:49:28.602767,237306,1609504140823383,1740789821,0.86864,-0.089792,0.130784,-15.9075,-12.3025,-16.66,-16.640001,20.376001,6.304,concentric,3,3.0,19124.0,139141.0,227159.0,278752.0,262602.0
2026-04-08 21:49:28.605169,237307,1609504140837911,1740804759,0.901824,-0.066368,0.070272,-11.87375,-11.66375,-14.74375,-17.2,20.112001,6.424,concentric,3,3.0,19124.0,139141.0,227159.0,278752.0,262602.0
2026-04-08 21:49:28.650832,237308,1609504140846861,1740813457,0.901824,-0.066368,0.070272,-4.41,-11.3575,-9.975,-17.2,20.112001,6.424,concentric,3,3.0,19124.0,139141.0,227159.0,278752.0,262602.0
2026-04-08 21:49:28.653128,237309,1609504140861366,1740828305,0.835456,-0.031232,0.10736,0.0,-12.5825,-9.45875,-17.168001,20.2,6.544,concentric,3,3.0,19124.0,139141.0,227159.0,278752.0,262602.0
2026-04-08 21:49:28.657799,237310,1609504140870297,1740836967,0.835456,-0.031232,0.10736,1.96875,-13.7725,-12.29375,-17.168001,20.2,6.544,concentric,3,3.0,19124.0,139141.0,227159.0,278752.0,262602.0
2026-04-08 21:49:28.660215,237311,1609504140879235,1740845668,0.833504,-0.046848,0.093696,-0.86625,-14.4375,-13.78125,-17.136002,20.448002,6.416,concentric,3,3.0,19124.0,139141.0,227159.0,278752.0,262602.0
2026-04-08 21:49:28.664329,237312,1609504140893705,1740860525,0.833504,-0.046848,0.093696,-7.595,-14.14,-13.1425,-17.136002,20.448002,6.416,concentric,3,3.0,19124.0,139141.0,227159.0,278752.0,262602.0
2026-04-08 21:49:28.670345,237313,1609504140902696,1740869205,0.915488,-0.093696,0.05856,-10.535,-13.39625,-12.85375,-17.328001,19.864,6.248,concentric,3,3.0,19124.0,139141.0,227159.0,278752.0,262602.0
2026-04-08 21:49:28.704755,237324,1609504140917648,1740884411,0.919392,-0.091744,-0.023424,-10.71875,-12.32,-13.50125,-17.784,19.824001,5.296001,concentric,3,3.0,19096.0,139209.0,227326.0,278934.0,262748.0
2026-04-08 21:49:28.707239,237325,1609504140926613,1740893080,0.919392,-0.091744,-0.023424,-8.7325,-11.8475,-11.9525,-17.784,19.824001,5.296001,concentric,3,3.0,19096.0,139209.0,227326.0,278934.0,262748.0
2026-04-08 21:49:28.709755,237326,1609504140941180,1740907947,0.964288,-0.02928,0.17568,-8.0325,-12.46875,-10.185,-17.76,19.912,7.400001,concentric,3,3.0,19096.0,139209.0,227326.0,278934.0,262748.0
2026-04-08 21:49:28.714778,237327,1609504140950114,1740916629,0.964288,-0.02928,0.17568,-5.1275,-12.08375,-10.10625,-17.76,19.912,7.400001,concentric,3,3.0,19096.0,139209.0,227326.0,278934.0,262748.0
2026-04-08 21:49:28.744905,237328,1609504140959038,1740925320,0.976,-0.001952,0.160064,-1.00625,-11.61125,-11.06875,-18.112001,20.152,6.072001,concentric,3,3.0,19096.0,139209.0,227326.0,278934.0,262748.0
2026-04-08 21:49:28.749483,237329,1609504140973559,1740940206,0.976,-0.001952,0.160064,-1.65375,-9.1,-10.0625,-18.112001,20.152,6.072001,concentric,3,3.0,19096.0,139209.0,227326.0,278934.0,262748.0
2026-04-08 21:49:28.751675,237330,1609504140982491,1740948911,0.977952,0.01952,0.119072,-3.50875,-5.83625,-9.24,-18.176,20.016,5.952,concentric,3,3.0,19096.0,139209.0,227326.0,278934.0,262748.0
2026-04-08 21:49:28.781272,237331,1609504140997054,1740963785,0.977952,0.01952,0.119072,-4.29625,-3.185,-7.3325,-18.176,20.016,5.952,concentric,3,3.0,19096.0,139209.0,227326.0,278934.0,262748.0
2026-04-08 21:49:28.784802,237332,1609504141005998,1740972455,0.964288,0.007808,0.171776,-4.69,-1.84625,-4.05125,-18.152,20.368,5.144,concentric,3,3.0,19096.0,139209.0,227326.0,278934.0,262748.0
2026-04-08 21:49:28.812221,237343,1609504141020516,1740987362,0.987712,-0.037088,0.20496,-3.85875,-2.26625,-1.715,-18.248001,20.176,5.944,concentric,3,3.0,19055.0,139016.0,227053.0,278716.0,262653.0
2026-04-08 21:49:28.814726,237344,1609504141029581,1740996068,0.987712,-0.037088,0.20496,-0.175,-3.0625,-3.64875,-18.248001,20.176,5.944,concentric,3,3.0,19055.0,139016.0,227053.0,278716.0,262653.0
2026-04-08 21:49:28.817249,237345,1609504141038516,1741004799,1.077504,0.0488,0.017568,7.44625,-1.5925,-3.19375,-18.304,20.104,8.84,concentric,3,3.0,19055.0,139016.0,227053.0,278716.0,262653.0
2026-04-08 21:49:28.819761,237346,1609504141053218,1741019730,1.077504,0.0488,0.017568,5.04,-6.3175,0.385,-18.304,20.104,8.84,concentric,3,3.0,19055.0,139016.0,227053.0,278716.0,262653.0
2026-04-08 21:49:28.850096,237347,1609504141062169,1741028404,0.845216,-0.074176,0.103456,6.7025,-2.12625,1.19,-18.12,20.12,5.832,concentric,3,3.0,19055.0,139016.0,227053.0,278716.0,262653.0
2026-04-08 21:49:28.853480,237348,1609504141076701,1741043274,0.845216,-0.074176,0.103456,10.28125,-1.18125,0.21875,-18.12,20.12,5.832,concentric,3,3.0,19055.0,139016.0,227053.0,278716.0,262653.0
2026-04-08 21:49:28.856077,237349,1609504141085638,1741051923,0.804224,0.021472,-0.103456,4.9875,-2.45875,5.565,-18.336,20.352001,5.456,concentric,3,3.0,19055.0,139016.0,227053.0,278716.0,262653.0
2026-04-08 21:49:28.861020,237350,1609504141094551,1741060617,0.804224,0.021472,-0.103456,4.55875,-4.36625,3.115,-18.336,20.352001,5.456,concentric,3,3.0,19055.0,139016.0,227053.0,278716.0,262653.0
2026-04-08 21:49:28.954840,237361,1609504141109072,1741075518,0.96624,-0.023424,0.124928,8.39125,-5.53,-9.24,-18.84,20.176,7.088,concentric,3,3.0,19121.0,139225.0,227236.0,278850.0,262671.0
2026-04-08 21:49:28.957277,237362,1609504141118429,1741084198,0.96624,-0.076128,0.081984,12.4775,-4.9525,-11.06,-18.84,20.176,5.04,concentric,3,3.0,19121.0,139225.0,227236.0,278850.0,262671.0
2026-04-08 21:49:28.959756,237363,1609504141132903,1741099041,0.950624,-0.076128,0.081984,12.64375,-4.34,-9.065,-18.568,19.960001,5.264,concentric,3,3.0,19121.0,139225.0,227236.0,278850.0,262671.0
2026-04-08 21:49:28.962287,237364,1609504141141878,1741107775,0.866688,-0.083936,-0.10736,12.52125,-3.87625,-7.88375,-18.672,19.720001,7.24,concentric,3,3.0,19121.0,139225.0,227236.0,278850.0,262671.0
2026-04-08 21:49:28.964817,237365,1609504141156389,1741122666,0.866688,-0.083936,-0.10736,12.85375,-3.6925,-7.49875,-18.672,19.720001,7.24,concentric,3,3.0,19121.0,139225.0,227236.0,278850.0,262671.0
2026-04-08 21:49:28.967218,237366,1609504141165288,1741131347,0.84912,0.037088,-0.01952,12.8275,-3.66625,-7.74375,-18.688002,19.864,7.000001,concentric,3,3.0,19121.0,139225.0,227236.0,278850.0,262671.0
2026-04-08 21:49:28.969751,237367,1609504141174191,1741140049,0.84912,0.037088,-0.01952,9.42375,-3.38625,-10.3425,-18.688002,19.864,7.000001,concentric,3,3.0,19121.0,139225.0,227236.0,278850.0,262671.0
2026-04-08 21:49:28.972271,237368,1609504141188661,1741154925,0.88816,-0.001952,-0.154208,7.6125,-1.91625,-11.48875,-19.016,19.848001,5.936,concentric,3,3.0,19121.0,139225.0,227236.0,278850.0,262671.0
2026-04-08 21:49:28.974772,237369,1609504141197558,1741163589,0.88816,-0.001952,-0.154208,3.2025,-0.84,-10.4125,-19.016,19.848001,5.936,concentric,3,3.0,19121.0,139225.0,227236.0,278850.0,262671.0
2026-04-08 21:49:29.002160,237380,1609504141212568,1741178578,0.890112,-0.005856,-0.099552,-1.54875,0.18375,-7.25375,-19.448002,19.928001,7.016,concentric,3,3.0,19201.0,139525.0,227585.0,279072.0,262805.0
2026-04-08 21:49:29.004717,237381,1609504141221614,1741187359,0.845216,0.005856,-0.027328,-3.24625,0.76125,-6.93,-19.448002,19.52,7.752,concentric,3,3.0,19201.0,139525.0,227585.0,279072.0,262805.0
2026-04-08 21:49:29.007226,237382,1609504141230545,1741196051,0.845216,0.005856,-0.027328,-4.025,0.35,-9.24875,-19.448002,19.52,7.752,concentric,3,3.0,19201.0,139525.0,227585.0,279072.0,262805.0
2026-04-08 21:49:29.009776,237383,1609504141245525,1741210992,0.960384,0.003904,0.128832,-2.5725,-0.21,-8.35625,-19.344002,19.456001,8.152,concentric,3,3.0,19201.0,139525.0,227585.0,279072.0,262805.0
2026-04-08 21:49:29.040003,237384,1609504141254807,1741221751,0.960384,0.003904,0.128832,-2.44125,-0.63875,-7.28875,-19.344002,19.456001,8.152,concentric,3,3.0,19201.0,139525.0,227585.0,279072.0,262805.0
2026-04-08 21:49:29.043553,237385,1609504141269363,1741234551,0.98576,0.0,0.050752,-1.93375,-0.49,-9.52,-19.672,19.84,6.224001,concentric,3,3.0,19201.0,139525.0,227585.0,279072.0,262805.0
2026-04-08 21:49:29.046065,237386,1609504141278497,1741245309,0.98576,0.0,0.050752,1.225,-0.74375,-11.515,-19.672,19.84,6.224001,concentric,3,3.0,19201.0,139525.0,227585.0,279072.0,262805.0
2026-04-08 21:49:29.053541,237387,1609504141287412,1741254002,0.940864,-0.007808,-0.089792,2.58125,-0.7175,-11.585,-19.560001,19.616001,6.088,concentric,3,3.0,19201.0,139525.0,227585.0,279072.0,262805.0
2026-04-08 21:49:29.083694,237388,1609504141301899,1741268893,0.8784,0.033184,0.005856,2.87875,0.2275,-10.0625,-19.52,19.640001,6.096,concentric,3,3.0,19201.0,139525.0,227585.0,279072.0,262805.0
2026-04-08 21:49:29.112207,237399,1609504141311133,1741277512,0.8784,0.033184,0.005856,0.16625,0.7175,-9.6425,-19.52,19.640001,6.096,concentric,3,3.0,19256.0,139775.0,227935.0,279340.0,262978.0
2026-04-08 21:49:29.114729,237400,1609504141325695,1741292408,0.962336,-0.005856,-0.03904,-2.79125,1.28625,-9.948751,-19.552,19.624,6.376,concentric,3,3.0,19256.0,139775.0,227935.0,279340.0,262978.0
2026-04-08 21:49:29.117273,237401,1609504141334697,1741301178,0.962336,-0.005856,-0.03904,-2.96625,0.77,-11.05125,-19.552,19.624,6.376,concentric,3,3.0,19256.0,139775.0,227935.0,279340.0,262978.0
2026-04-08 21:49:29.119747,237402,1609504141343648,1741309890,0.880352,0.031232,-0.042944,-2.5025,0.7,-11.73375,-19.672,19.384,7.192,concentric,3,3.0,19256.0,139775.0,227935.0,279340.0,262978.0
2026-04-08 21:49:29.124765,237403,1609504141358206,1741324831,0.880352,0.031232,-0.042944,-2.7825,0.53375,-11.85625,-19.672,19.384,7.192,concentric,3,3.0,19256.0,139775.0,227935.0,279340.0,262978.0
2026-04-08 21:49:29.154947,237404,1609504141367139,1741333499,0.899872,0.005856,0.121024,-4.12125,1.46125,-11.5675,-19.952002,19.416,6.32,concentric,3,3.0,19256.0,139775.0,227935.0,279340.0,262978.0
2026-04-08 21:49:29.158525,237405,1609504141381665,1741348397,0.847168,0.003904,-0.042944,-4.66375,1.5925,-10.64875,-19.800001,19.496,7.864,concentric,3,3.0,19256.0,139775.0,227935.0,279340.0,262978.0
2026-04-08 21:49:29.160962,237406,1609504141390567,1741357093,0.847168,0.003904,-0.042944,-5.53,1.25125,-10.9375,-19.800001,19.496,7.864,concentric,3,3.0,19256.0,139775.0,227935.0,279340.0,262978.0
2026-04-08 21:49:29.192416,237407,1609504141405077,1741371959,0.89792,0.015616,0.083936,-4.59375,0.63875,-11.45375,-20.464,19.168001,7.064,concentric,3,3.0,19256.0,139775.0,227935.0,279340.0,262978.0
2026-04-08 21:49:29.294556,237418,1609504141414683,1741380912,0.89792,0.015616,0.083936,-1.785,0.76125,-11.47125,-20.464,19.168001,7.064,concentric,3,3.0,19220.0,139694.0,227851.0,279319.0,262994.0
2026-04-08 21:49:29.296048,237419,1609504141423630,1741389604,0.886208,-0.00976,-0.035136,-0.70875,0.49,-11.1475,-20.088001,19.112001,6.264,concentric,3,3.0,19220.0,139694.0,227851.0,279319.0,262994.0
2026-04-08 21:49:29.300296,237420,1609504141438113,1741404458,0.886208,-0.00976,-0.035136,-4.03375,0.04375,-12.59125,-20.088001,19.112001,6.264,concentric,3,3.0,19220.0,139694.0,227851.0,279319.0,262994.0
2026-04-08 21:49:29.302011,237421,1609504141447070,1741413164,0.876448,0.001952,-0.081984,-5.80125,0.07875,-16.45,-20.576,19.04,8.136001,concentric,3,3.0,19220.0,139694.0,227851.0,279319.0,262994.0
2026-04-08 21:49:29.303566,237422,1609504141461597,1741428093,0.901824,0.027328,-0.017568,-6.4225,0.20125,-17.8325,-20.68,19.28,4.376,concentric,3,3.0,19220.0,139694.0,227851.0,279319.0,262994.0
2026-04-08 21:49:29.308058,237423,1609504141470493,1741436749,0.901824,0.027328,-0.017568,-8.7325,0.53375,-17.33375,-20.68,19.28,4.376,concentric,3,3.0,19220.0,139694.0,227851.0,279319.0,262994.0
2026-04-08 21:49:29.309810,237424,1609504141479485,1741445398,0.901824,0.027328,-0.017568,-8.21625,1.1025,-13.50125,-20.68,19.28,4.376,concentric,3,3.0,19220.0,139694.0,227851.0,279319.0,262994.0
2026-04-08 21:49:29.312391,237425,1609504141493956,1741460265,0.9272,-0.003904,-0.031232,-8.65375,2.2575,-14.4375,-21.016,18.992,7.744,concentric,3,3.0,19220.0,139694.0,227851.0,279319.0,262994.0
2026-04-08 21:49:29.313896,237426,1609504141502875,1741468925,0.876448,0.00976,-0.10736,-6.67625,2.9225,-13.886251,-20.76,19.096,5.824,concentric,3,3.0,19220.0,139694.0,227851.0,279319.0,262994.0
2026-04-08 21:49:29.344828,237437,1609504141517453,1741483794,0.876448,0.00976,-0.10736,-3.94625,3.1325,-11.4625,-20.76,19.096,5.824,concentric,3,3.0,19071.0,139147.0,227303.0,278933.0,262801.0
2026-04-08 21:49:29.349092,237438,1609504141526365,1741492548,0.931104,0.042944,-0.07808,-3.38625,3.14125,-13.125,-21.192001,18.544,5.824,concentric,3,3.0,19071.0,139147.0,227303.0,278933.0,262801.0
2026-04-08 21:49:29.350789,237439,1609504141540928,1741507526,0.931104,0.042944,0.072224,-3.2725,2.37125,-16.5375,-21.192001,18.544,5.824,concentric,3,3.0,19071.0,139147.0,227303.0,278933.0,262801.0
2026-04-08 21:49:29.352272,237440,1609504141549849,1741516209,0.954528,0.037088,0.072224,-2.59,1.96875,-16.8,-21.768002,18.784,7.176,concentric,3,3.0,19071.0,139147.0,227303.0,278933.0,262801.0
2026-04-08 21:49:29.356549,237441,1609504141558797,1741524968,0.954528,0.037088,0.072224,-2.6775,1.6625,-11.2875,-21.768002,18.784,7.176,concentric,3,3.0,19071.0,139147.0,227303.0,278933.0,262801.0
2026-04-08 21:49:29.358401,237442,1609504141573297,1741539835,0.872544,0.035136,0.015616,-5.9325,2.54625,-9.61625,-21.776001,19.0,5.552,concentric,3,3.0,19071.0,139147.0,227303.0,278933.0,262801.0
2026-04-08 21:49:29.359821,237443,1609504141582417,1741548574,0.903776,-0.013664,-0.183488,-7.53375,2.9925,-7.07,-21.784,18.936,7.000001,concentric,3,3.0,19071.0,139147.0,227303.0,278933.0,262801.0
2026-04-08 21:49:29.363935,237444,1609504141596918,1741563471,0.903776,-0.013664,-0.183488,-6.92125,1.68,-10.57875,-21.784,18.936,7.000001,concentric,3,3.0,19071.0,139147.0,227303.0,278933.0,262801.0
2026-04-08 21:49:29.380214,237445,1609504141605834,1741572166,0.895968,0.025376,-0.037088,-1.7675,0.735,-12.6875,-21.944,18.776001,7.208,concentric,3,3.0,19071.0,139147.0,227303.0,278933.0,262801.0
2026-04-08 21:49:29.407832,237456,1609504141620449,1741587094,0.895968,0.025376,-0.037088,0.2975,1.32125,-14.2625,-21.944,18.776001,7.208,concentric,3,3.0,19144.0,139335.0,227335.0,278844.0,262651.0
2026-04-08 21:49:29.409537,237457,1609504141629511,1741595789,0.913536,0.080032,0.021472,-1.5575,1.88125,-12.24125,-21.944,18.608002,8.968,concentric,3,3.0,19144.0,139335.0,227335.0,278844.0,262651.0
2026-04-08 21:49:29.411019,237458,1609504141638552,1741604551,0.913536,0.080032,0.021472,-0.25375,3.19375,-10.115,-21.944,18.608002,8.968,concentric,3,3.0,19144.0,139335.0,227335.0,278844.0,262651.0
2026-04-08 21:49:29.442203,237459,1609504141653061,1741619453,0.88816,0.062464,-0.142496,-5.425,3.2725,-13.965,-22.032001,18.568,5.8,concentric,3,3.0,19144.0,139335.0,227335.0,278844.0,262651.0
2026-04-08 21:49:29.446688,237460,1609504141661996,1741628129,0.903776,0.052704,-0.132736,-8.96875,3.675,-13.685,-22.032001,18.568,5.8,concentric,3,3.0,19144.0,139335.0,227335.0,278844.0,262651.0
2026-04-08 21:49:29.448357,237461,1609504141676463,1741643014,0.89792,0.052704,-0.132736,-8.6275,4.3575,-10.9725,-22.032001,18.528002,4.984,concentric,3,3.0,19144.0,139335.0,227335.0,278844.0,262651.0
2026-04-08 21:49:29.449925,237462,1609504141685381,1741651712,0.981856,0.05856,0.101504,-9.9225,3.605,-12.67,-22.2,18.264,5.832,concentric,3,3.0,19144.0,139335.0,227335.0,278844.0,262651.0
2026-04-08 21:49:29.482205,237463,1609504141694359,1741660410,0.981856,0.05856,0.101504,-8.645,2.7825,-13.39625,-22.2,18.264,5.832,concentric,3,3.0,19144.0,139335.0,227335.0,278844.0,262651.0
2026-04-08 21:49:29.486743,237464,1609504141708827,1741675269,0.987712,0.0488,-0.003904,-4.34875,2.42375,-13.5625,-22.368002,17.968,5.704001,concentric,3,3.0,19144.0,139335.0,227335.0,278844.0,262651.0
2026-04-08 21:49:29.516088,237475,1609504141717940,1741684040,0.987712,0.0488,-0.003904,-2.03,2.765,-18.34875,-22.368002,17.968,5.704001,concentric,3,3.0,19155.0,139269.0,227292.0,278774.0,262573.0
2026-04-08 21:49:29.551391,237476,1609504141732441,1741699036,0.911584,0.054656,-0.138592,0.76125,2.73875,-19.62625,-22.376001,18.016,5.576,concentric,3,3.0,19155.0,139269.0,227292.0,278774.0,262573.0
2026-04-08 21:49:29.553923,237477,1609504141741448,1741707713,0.911584,0.054656,-0.138592,2.77375,2.51125,-16.625,-22.376001,18.016,5.576,concentric,3,3.0,19155.0,139269.0,227292.0,278774.0,262573.0
2026-04-08 21:49:29.556030,237478,1609504141756008,1741722604,1.01504,0.054656,0.0,0.805,1.47875,-18.025,-22.824001,18.112001,8.04,concentric,3,3.0,19155.0,139269.0,227292.0,278774.0,262573.0
2026-04-08 21:49:29.558534,237479,1609504141765044,1741731272,1.009184,0.064416,0.003904,-2.695,0.665,-20.25625,-23.024,18.024,5.624,concentric,3,3.0,19155.0,139269.0,227292.0,278774.0,262573.0
2026-04-08 21:49:29.561054,237480,1609504141773992,1741739972,1.009184,0.064416,0.003904,-3.0275,0.5425,-19.285,-23.024,18.024,5.624,concentric,3,3.0,19155.0,139269.0,227292.0,278774.0,262573.0
2026-04-08 21:49:29.563496,237481,1609504141788474,1741754894,0.894016,0.046848,-0.162016,-0.0175,0.04375,-18.147501,-23.272001,18.088001,5.656,concentric,3,3.0,19155.0,139269.0,227292.0,278774.0,262573.0
2026-04-08 21:49:29.566004,237482,1609504141797388,1741763559,0.894016,0.046848,-0.162016,1.82,-0.2625,-17.9375,-23.272001,18.088001,5.656,concentric,3,3.0,19155.0,139269.0,227292.0,278774.0,262573.0
2026-04-08 21:49:29.619777,237493,1609504141811865,1741778783,0.991616,0.023424,-0.138592,1.855,-1.4,-18.305,-23.304,17.584002,7.536,concentric,3,3.0,19173.0,139325.0,227292.0,278701.0,262478.0
2026-04-08 21:49:29.623345,237494,1609504141820793,1741787475,0.991616,0.023424,-0.138592,2.3275,-2.1875,-18.54125,-23.304,17.584002,7.536,concentric,3,3.0,19173.0,139325.0,227292.0,278701.0,262478.0
2026-04-08 21:49:29.624751,237495,1609504141835269,1741802376,0.950624,0.122976,-0.154208,5.705,-2.45,-18.095,-23.912,17.616001,6.024,concentric,3,3.0,19173.0,139325.0,227292.0,278701.0,262478.0
2026-04-08 21:49:29.628822,237496,1609504141844264,1741811063,0.938912,0.119072,-0.152256,10.78875,-2.16125,-17.8325,-24.016,17.736,7.28,concentric,3,3.0,19173.0,139325.0,227292.0,278701.0,262478.0
2026-04-08 21:49:29.631989,237497,1609504141853206,1741819775,0.938912,0.119072,-0.152256,13.0375,-2.3975,-17.0275,-24.016,17.736,7.28,concentric,3,3.0,19173.0,139325.0,227292.0,278701.0,262478.0
2026-04-08 21:49:29.633789,237498,1609504141867717,1741834688,0.954528,0.093696,0.138592,4.64625,-3.52625,-16.77375,-23.992,17.184,5.56,concentric,3,3.0,19173.0,139325.0,227292.0,278701.0,262478.0
2026-04-08 21:49:29.663755,237499,1609504141876619,1741843353,0.954528,0.093696,0.138592,-5.34625,-5.005,-15.86375,-23.992,17.184,5.56,concentric,3,3.0,19173.0,139325.0,227292.0,278701.0,262478.0
2026-04-08 21:49:29.667324,237500,1609504141891111,1741858202,0.88816,0.08784,-0.050752,-9.02125,-5.1625,-12.46,-23.672,17.0,5.88,concentric,3,3.0,19173.0,139325.0,227292.0,278701.0,262478.0
2026-04-08 21:49:29.669790,237501,1609504141900013,1741866868,0.88816,0.08784,-0.050752,-5.71375,-5.39875,-10.15875,-23.672,17.0,5.88,concentric,3,3.0,19173.0,139325.0,227292.0,278701.0,262478.0
2026-04-08 21:49:29.725945,237512,1609504141914519,1741879673,1.026752,0.1464,-0.027328,4.0075,-6.1425,-10.885,-24.464,16.904001,5.704001,concentric,3,3.0,19083.0,138943.0,226927.0,278365.0,262255.0
2026-04-08 21:49:29.728534,237513,1609504141923700,1741890425,1.026752,0.12688,-0.132736,16.70375,-5.57375,-10.9025,-24.464,16.904001,5.704001,concentric,3,3.0,19083.0,138943.0,226927.0,278365.0,262255.0
2026-04-08 21:49:29.731002,237514,1609504141932630,1741899087,0.997472,0.12688,-0.132736,20.6675,-4.92625,-9.87875,-24.072,17.064001,5.936,concentric,3,3.0,19083.0,138943.0,226927.0,278365.0,262255.0
2026-04-08 21:49:29.733499,237515,1609504141947199,1741913949,1.009184,0.091744,0.050752,15.44375,-4.97,-8.91625,-24.736002,16.904001,5.728,concentric,3,3.0,19083.0,138943.0,226927.0,278365.0,262255.0
2026-04-08 21:49:29.736023,237516,1609504141956160,1741922599,1.009184,0.091744,0.050752,8.575,-5.075,-7.245,-24.736002,16.904001,5.728,concentric,3,3.0,19083.0,138943.0,226927.0,278365.0,262255.0
2026-04-08 21:49:29.738448,237517,1609504141970652,1741937519,0.960384,0.10736,-0.085888,2.75625,-5.66125,-6.265,-24.664001,16.720001,5.592001,concentric,3,3.0,19083.0,138943.0,226927.0,278365.0,262255.0
2026-04-08 21:49:29.768731,237518,1609504141979582,1741946192,0.960384,0.10736,-0.085888,1.77625,-6.71125,-7.72625,-24.664001,16.720001,5.592001,concentric,3,3.0,19083.0,138943.0,226927.0,278365.0,262255.0
2026-04-08 21:49:29.772267,237519,1609504141994105,1741961068,0.970144,0.070272,-0.189344,3.1675,-6.50125,-9.345,-24.488,16.712,6.248,concentric,3,3.0,19083.0,138943.0,226927.0,278365.0,262255.0
2026-04-08 21:49:29.774780,237520,1609504142003024,1741969807,0.970144,0.070272,-0.189344,-0.5075,-5.495,-10.80625,-24.488,16.712,6.248,concentric,3,3.0,19083.0,138943.0,226927.0,278365.0,262255.0
2026-04-08 21:49:29.777309,237521,1609504142011917,1741978459,1.013088,0.099552,-0.044896,1.7325,-5.25,-11.85625,-24.640001,16.528,4.576,concentric,3,3.0,19083.0,138943.0,226927.0,278365.0,262255.0
2026-04-08 21:49:29.808507,237532,1609504142026471,1741993389,1.052128,0.109312,-0.005856,7.8575,-6.62375,-11.8475,-25.224,16.376001,7.816001,concentric,3,3.0,18831.0,138067.0,226040.0,277774.0,261936.0
2026-04-08 21:49:29.811094,237533,1609504142035487,1742002090,1.052128,0.109312,-0.005856,13.64125,-6.78125,-11.725,-25.224,16.376001,7.816001,concentric,3,3.0,18831.0,138067.0,226040.0,277774.0,261936.0
2026-04-08 21:49:29.849991,237534,1609504142049998,1742016943,0.950624,0.128832,-0.111264,15.2425,-6.25625,-14.5775,-25.216002,16.272001,5.856,concentric,3,3.0,18831.0,138067.0,226040.0,277774.0,261936.0
2026-04-08 21:49:29.853562,237535,1609504142058954,1742025617,0.950624,0.128832,-0.111264,11.33125,-5.59125,-20.44,-25.216002,16.272001,5.856,concentric,3,3.0,18831.0,138067.0,226040.0,277774.0,261936.0
2026-04-08 21:49:29.856068,237536,1609504142067866,1742034274,1.032608,0.152256,-0.122976,11.22625,-6.22125,-21.46375,-25.296001,15.816001,5.592001,concentric,3,3.0,18831.0,138067.0,226040.0,277774.0,261936.0
2026-04-08 21:49:29.858597,237537,1609504142082322,1742049137,1.032608,0.152256,-0.122976,16.6075,-7.13125,-18.40125,-25.296001,15.816001,5.592001,concentric,3,3.0,18831.0,138067.0,226040.0,277774.0,261936.0
2026-04-08 21:49:29.861001,237538,1609504142091256,1742057818,1.05408,0.162016,-0.177632,20.41375,-7.70875,-13.92125,-25.472002,15.736001,5.856,concentric,3,3.0,18831.0,138067.0,226040.0,277774.0,261936.0
2026-04-08 21:49:29.891247,237539,1609504142105830,1742072758,0.979904,0.16592,-0.16592,24.14125,-5.9675,-7.16625,-25.224,15.688001,6.384,concentric,3,3.0,18831.0,138067.0,226040.0,277774.0,261936.0
2026-04-08 21:49:29.923499,237550,1609504142114748,1742081471,0.979904,0.16592,-0.16592,21.07,-3.91125,0.83125,-25.224,15.688001,6.384,concentric,3,3.0,18738.0,137575.0,225359.0,277238.0,261555.0
2026-04-08 21:49:29.925949,237551,1609504142129687,1742096380,0.944768,0.150304,-0.046848,17.0625,-3.29875,1.435,-25.344002,15.6,5.944,concentric,3,3.0,18738.0,137575.0,225359.0,277238.0,261555.0
2026-04-08 21:49:29.928505,237552,1609504142138615,1742105059,0.944768,0.150304,-0.046848,14.16625,-2.91375,0.7,-25.344002,15.6,5.944,concentric,3,3.0,18738.0,137575.0,225359.0,277238.0,261555.0
2026-04-08 21:49:29.930934,237553,1609504142147610,1742113742,0.972096,0.199104,-0.085888,12.71375,-2.3625,2.44125,-25.168001,15.336,6.944,concentric,3,3.0,18738.0,137575.0,225359.0,277238.0,261555.0
2026-04-08 21:49:29.933448,237554,1609504142162099,1742128702,0.972096,0.199104,-0.085888,11.9,-2.38,3.61375,-25.168001,15.336,6.944,concentric,3,3.0,18738.0,137575.0,225359.0,277238.0,261555.0
2026-04-08 21:49:29.937247,237555,1609504142171032,1742137393,0.968192,0.232288,0.085888,12.3725,-2.2925,1.995,-25.352001,15.824,6.784,concentric,3,3.0,18738.0,137575.0,225359.0,277238.0,261555.0
2026-04-08 21:49:29.967402,237556,1609504142185521,1742152300,0.94672,0.062464,-0.101504,5.18,-2.2225,-5.7575,-25.352001,15.824,6.984,concentric,3,3.0,18738.0,137575.0,225359.0,277238.0,261555.0
