pc_time,serial_num,sensor_ts,host_ts,ax,ay,az,gx,gy,gz,mx,my,mz,phase,rpe,weight_kg,ppg_a,ppg_b,ppg_c,ppg_d,ppg_e
2026-04-08 21:49:33.052707,238141,1609504145286946,1745253715,1.003328,0.111264,-0.152256,16.397501,-0.98,3.92,-24.792002,16.016,9.432,eccentric,3,3.0,19825.0,140457.0,227533.0,278575.0,262347.0
2026-04-08 21:49:33.091182,238142,1609504145295851,1745262431,1.003328,0.111264,-0.152256,13.685,-0.81375,4.73375,-24.792002,16.016,9.432,eccentric,3,3.0,19825.0,140457.0,227533.0,278575.0,262347.0
2026-04-08 21:49:33.124623,238143,1609504145310327,1745277303,1.028704,0.144448,-0.103456,10.75375,-0.7,0.7525,-24.712002,15.664001,8.328,eccentric,3,3.0,19825.0,140457.0,227533.0,278575.0,262347.0
2026-04-08 21:49:33.129186,238144,1609504145319193,1745285951,1.028704,0.144448,-0.103456,12.845,-1.75,0.7175,-24.712002,15.664001,8.328,eccentric,3,3.0,19825.0,140457.0,227533.0,278575.0,262347.0
2026-04-08 21:49:33.156485,238155,1609504145333910,1745299172,1.01504,0.148352,-0.062464,11.57625,-1.9775,0.5075,-24.768002,15.64,7.624001,eccentric,3,3.0,19817.0,140396.0,227369.0,278403.0,262239.0
2026-04-08 21:49:33.158159,238156,1609504145343263,1745310028,1.01504,0.148352,-0.062464,6.16875,-1.33,-0.14,-24.768002,15.64,7.624001,eccentric,3,3.0,19817.0,140396.0,227369.0,278403.0,262239.0
2026-04-08 21:49:33.159778,238157,1609504145352172,1745318699,1.057984,0.16592,0.023424,2.21375,-0.55125,-0.02625,-24.592001,15.400001,8.168,eccentric,3,3.0,19817.0,140396.0,227369.0,278403.0,262239.0
2026-04-08 21:49:33.164006,238158,1609504145366654,1745333565,1.042368,0.162016,-0.148352,0.88375,-0.56875,1.02375,-24.592001,15.400001,10.072001,eccentric,3,3.0,19817.0,140396.0,227369.0,278403.0,262239.0
2026-04-08 21:49:33.165744,238159,1609504145375647,1745342256,1.036512,0.162016,-0.148352,0.21875,-0.76125,1.05875,-24.648,15.552001,10.072001,eccentric,3,3.0,19817.0,140396.0,227369.0,278403.0,262239.0
2026-04-08 21:49:33.167256,238160,1609504145390273,1745357183,1.04432,0.130784,-0.066368,-2.70375,-0.56,0.9975,-24.768002,15.448001,10.424001,eccentric,3,3.0,19817.0,140396.0,227369.0,278403.0,262239.0
2026-04-08 21:49:33.171386,238161,1609504145399197,1745365869,1.04432,0.130784,-0.066368,-6.6675,0.07875,1.65375,-24.768002,15.448001,10.424001,eccentric,3,3.0,19817.0,140396.0,227369.0,278403.0,262239.0
2026-04-08 21:49:33.175171,238162,1609504145408158,1745374590,1.0736,0.130784,0.02928,-9.7825,0.2975,3.21125,-24.448002,16.088001,9.336,eccentric,3,3.0,19817.0,140396.0,227369.0,278403.0,262239.0
2026-04-08 21:49:33.203702,238163,1609504145422662,1745389474,1.0736,0.130784,0.02928,-11.165,-0.315,4.26125,-24.448002,16.088001,9.336,eccentric,3,3.0,19817.0,140396.0,227369.0,278403.0,262239.0
2026-04-08 21:49:33.234828,238174,1609504145431584,1745398146,1.138016,0.091744,-0.013664,-10.9725,-0.5775,4.1825,-24.36,15.872001,8.176001,eccentric,3,3.0,19805.0,140245.0,227095.0,278120.0,262037.0
2026-04-08 21:49:33.238991,238175,1609504145446474,1745413049,1.138016,0.091744,-0.013664,-8.89,-1.00625,3.1325,-24.36,15.872001,8.176001,eccentric,3,3.0,19805.0,140245.0,227095.0,278120.0,262037.0
2026-04-08 21:49:33.240779,238176,1609504145455474,1745421766,1.067744,0.115168,-0.042944,-7.98875,-1.0675,1.25125,-24.512001,15.880001,8.736,eccentric,3,3.0,19805.0,140245.0,227095.0,278120.0,262037.0
2026-04-08 21:49:33.243152,238177,1609504145464416,1745430470,1.067744,0.115168,-0.042944,-5.495,0.035,-0.8575,-24.512001,15.880001,8.736,eccentric,3,3.0,19805.0,140245.0,227095.0,278120.0,262037.0
2026-04-08 21:49:33.244730,238178,1609504145478866,1745445367,1.04432,0.0976,-0.089792,-4.54125,1.35625,-1.3125,-23.928001,15.792001,9.216001,eccentric,3,3.0,19805.0,140245.0,227095.0,278120.0,262037.0
2026-04-08 21:49:33.275804,238179,1609504145487850,1745454027,1.14192,0.13664,0.06832,-7.46375,1.295,-0.0175,-24.048,16.44,8.552,eccentric,3,3.0,19805.0,140245.0,227095.0,278120.0,262037.0
2026-04-08 21:49:33.280266,238180,1609504145502313,1745468916,1.14192,0.13664,0.06832,-8.84625,1.7675,0.83125,-24.048,16.44,8.552,eccentric,3,3.0,19805.0,140245.0,227095.0,278120.0,262037.0
2026-04-08 21:49:33.281828,238181,1609504145511196,1745477559,1.087264,0.130784,-0.091744,-9.45875,1.89875,1.18125,-24.104002,16.144001,8.024,eccentric,3,3.0,19805.0,140245.0,227095.0,278120.0,262037.0
2026-04-08 21:49:33.312082,238182,1609504145525730,1745492431,1.087264,0.130784,-0.091744,-11.80375,2.17875,0.385,-24.104002,16.144001,8.024,eccentric,3,3.0,19805.0,140245.0,227095.0,278120.0,262037.0
2026-04-08 21:49:33.340803,238193,1609504145535048,1745501171,1.06384,0.089792,-0.132736,-14.49875,2.14375,-0.21875,-23.944,16.312,6.144,eccentric,3,3.0,20131.0,141043.0,227383.0,278067.0,261891.0
2026-04-08 21:49:33.342272,238194,1609504145544023,1745509891,1.06384,0.089792,-0.132736,-17.928751,2.0475,0.25375,-23.944,16.312,6.144,eccentric,3,3.0,20131.0,141043.0,227383.0,278067.0,261891.0
2026-04-08 21:49:33.346485,238195,1609504145558510,1745524798,1.061888,0.099552,-0.052704,-21.5775,1.68875,1.0675,-23.208,16.240002,8.224,eccentric,3,3.0,20131.0,141043.0,227383.0,278067.0,261891.0
2026-04-08 21:49:33.348181,238196,1609504145567434,1745533474,1.061888,0.099552,-0.083936,-21.93625,2.37125,0.6125,-23.208,16.240002,8.224,eccentric,3,3.0,20131.0,141043.0,227383.0,278067.0,261891.0
2026-04-08 21:49:33.349820,238197,1609504145581931,1745548405,1.08336,0.074176,-0.089792,-20.02875,2.975,0.525,-23.328001,16.296001,7.880001,eccentric,3,3.0,20131.0,141043.0,227383.0,278067.0,261891.0
2026-04-08 21:49:33.411204,238198,1609504145590842,1745557109,1.032608,0.124928,-0.040992,-20.16875,3.33375,0.88375,-23.176,16.448,7.968,eccentric,3,3.0,20131.0,141043.0,227383.0,278067.0,261891.0
2026-04-08 21:49:33.414741,238199,1609504145605325,1745572000,1.032608,0.124928,-0.040992,-21.98,3.15,0.49,-23.176,16.448,7.968,eccentric,3,3.0,20131.0,141043.0,227383.0,278067.0,261891.0
2026-04-08 21:49:33.417212,238200,1609504145614306,1745580676,1.085312,0.12688,0.056608,-24.4475,2.94875,0.13125,-23.192001,16.640001,7.824,eccentric,3,3.0,20131.0,141043.0,227383.0,278067.0,261891.0
2026-04-08 21:49:33.419760,238201,1609504145623221,1745589331,1.085312,0.12688,0.056608,-24.535,2.5375,1.015,-23.192001,16.640001,7.824,eccentric,3,3.0,20131.0,141043.0,227383.0,278067.0,261891.0
2026-04-08 21:49:33.447234,238212,1609504145637836,1745604225,1.036512,0.07808,-0.193248,-25.89125,2.80875,1.58375,-22.880001,16.456001,7.896,eccentric,3,3.0,20542.0,142148.0,228171.0,278512.0,262128.0
2026-04-08 21:49:33.449702,238213,1609504145646833,1745612888,1.036512,0.07808,-0.193248,-27.44875,3.2725,2.24875,-22.880001,16.456001,7.896,eccentric,3,3.0,20542.0,142148.0,228171.0,278512.0,262128.0
2026-04-08 21:49:33.452201,238214,1609504145661342,1745627782,1.050176,0.093696,0.023424,-29.715,3.71875,3.36,-22.576,16.768002,6.552001,eccentric,3,3.0,20542.0,142148.0,228171.0,278512.0,262128.0
2026-04-08 21:49:33.454729,238215,1609504145670322,1745636541,0.950624,0.091744,-0.150304,-29.70625,4.445,3.7625,-22.792002,17.176,8.456,eccentric,3,3.0,20542.0,142148.0,228171.0,278512.0,262128.0
2026-04-08 21:49:33.457308,238216,1609504145679350,1745645273,0.950624,0.091744,-0.150304,-28.21875,4.2875,3.99,-22.792002,17.176,8.456,eccentric,3,3.0,20542.0,142148.0,228171.0,278512.0,262128.0
2026-04-08 21:49:33.459793,238217,1609504145693845,1745660229,0.98576,0.093696,-0.05856,-29.1725,3.59625,4.8475,-22.296001,17.416,8.416,eccentric,3,3.0,20542.0,142148.0,228171.0,278512.0,262128.0
2026-04-08 21:49:33.490013,238218,1609504145702837,1745668917,0.98576,0.093696,-0.05856,-28.81375,2.98375,5.8975,-22.296001,17.416,8.416,eccentric,3,3.0,20542.0,142148.0,228171.0,278512.0,262128.0
2026-04-08 21:49:33.493615,238219,1609504145717297,1745683769,0.91744,0.093696,-0.167872,-27.36125,2.0825,6.02,-21.920002,17.28,7.432,eccentric,3,3.0,20542.0,142148.0,228171.0,278512.0,262128.0
2026-04-08 21:49:33.496038,238220,1609504145726267,1745692424,0.91744,0.093696,-0.167872,-25.34,1.47,5.03125,-21.920002,17.28,7.432,eccentric,3,3.0,20542.0,142148.0,228171.0,278512.0,262128.0
2026-04-08 21:49:33.523548,238231,1609504145740927,1745707609,0.831552,0.091744,-0.06832,-25.13875,2.14375,4.7425,-21.984001,17.344002,7.664001,eccentric,3,3.0,20791.0,142942.0,229024.0,279137.0,262502.0
2026-04-08 21:49:33.526010,238232,1609504145749850,1745716327,0.874496,0.105408,0.017568,-26.425,3.0275,5.31125,-21.416,17.552,8.024,eccentric,3,3.0,20791.0,142942.0,229024.0,279137.0,262502.0
2026-04-08 21:49:33.528599,238233,1609504145758804,1745725098,0.874496,0.105408,0.017568,-27.58875,3.00125,6.545,-21.416,17.552,8.024,eccentric,3,3.0,20791.0,142942.0,229024.0,279137.0,262502.0
2026-04-08 21:49:33.558683,238234,1609504145773344,1745739976,0.909632,0.0976,0.031232,-27.01125,2.8525,6.9825,-21.408,17.816,7.048,eccentric,3,3.0,20791.0,142942.0,229024.0,279137.0,262502.0
2026-04-08 21:49:33.562265,238235,1609504145782245,1745748692,0.909632,0.0976,0.031232,-26.18875,1.96875,6.58875,-21.408,17.816,7.048,eccentric,3,3.0,20791.0,142942.0,229024.0,279137.0,262502.0
2026-04-08 21:49:33.564730,238236,1609504145796702,1745763521,0.80032,0.142496,-0.10736,-27.8775,1.785,6.46625,-21.184002,17.736,6.832,eccentric,3,3.0,20791.0,142942.0,229024.0,279137.0,262502.0
2026-04-08 21:49:33.570957,238237,1609504145805639,1745772208,0.80032,0.142496,-0.10736,-29.53125,1.8025,6.74625,-21.184002,17.736,6.832,eccentric,3,3.0,20791.0,142942.0,229024.0,279137.0,262502.0
2026-04-08 21:49:33.601194,238238,1609504145820150,1745787074,0.845216,0.08784,0.064416,-26.6525,1.96875,6.545,-21.088001,18.112001,6.84,eccentric,3,3.0,20791.0,142942.0,229024.0,279137.0,262502.0
2026-04-08 21:49:33.604832,238239,1609504145829061,1745795760,0.845216,0.08784,0.064416,-26.36375,2.35375,6.3525,-21.088001,18.112001,6.84,eccentric,3,3.0,20791.0,142942.0,229024.0,279137.0,262502.0
2026-04-08 21:49:33.633350,238250,1609504145838117,1745804451,0.794464,0.060512,-0.115168,-29.40875,1.60125,7.11375,-20.784,18.304,6.6,eccentric,3,3.0,20855.0,143251.0,229344.0,279363.0,262630.0
2026-04-08 21:49:33.640388,238251,1609504145852693,1745819393,0.847168,0.060512,-0.076128,-28.175,1.575,8.2075,-20.656,18.240002,7.504,eccentric,3,3.0,20855.0,143251.0,229344.0,279363.0,262630.0
2026-04-08 21:49:33.642025,238252,1609504145861618,1745828137,0.847168,0.060512,-0.076128,-26.53,1.26,8.40875,-20.656,18.240002,7.504,eccentric,3,3.0,20855.0,143251.0,229344.0,279363.0,262630.0
2026-04-08 21:49:33.643551,238253,1609504145876199,1745843033,0.806176,0.109312,0.007808,-26.81875,0.76125,6.99125,-20.568,19.0,7.216001,eccentric,3,3.0,20855.0,143251.0,229344.0,279363.0,262630.0
2026-04-08 21:49:33.701269,238254,1609504145885179,1745851730,0.806176,0.109312,0.007808,-28.42,-0.11375,5.74875,-20.568,19.0,7.216001,eccentric,3,3.0,20855.0,143251.0,229344.0,279363.0,262630.0
2026-04-08 21:49:33.704874,238255,1609504145899659,1745866606,0.866688,0.03904,0.011712,-30.91375,-0.9975,5.41625,-20.184,18.672,6.552001,eccentric,3,3.0,20855.0,143251.0,229344.0,279363.0,262630.0
2026-04-08 21:49:33.708953,238256,1609504145908572,1745875259,0.866688,0.03904,0.011712,-30.415,-0.69125,4.76,-20.184,18.672,6.552001,eccentric,3,3.0,20855.0,143251.0,229344.0,279363.0,262630.0
2026-04-08 21:49:33.712185,238257,1609504145917621,1745883907,0.827648,0.0,-0.027328,-28.37625,-0.21875,3.85875,-20.088001,18.888,9.776,eccentric,3,3.0,20855.0,143251.0,229344.0,279363.0,262630.0
2026-04-08 21:49:33.712780,238258,1609504145932079,1745898832,0.786656,0.046848,-0.12688,-26.897501,-0.035,3.7275,-20.080002,18.896002,5.736,eccentric,3,3.0,20855.0,143251.0,229344.0,279363.0,262630.0
2026-04-08 21:49:33.745752,238269,1609504145941010,1745907499,0.786656,0.046848,-0.12688,-24.7275,-0.13125,3.75375,-20.080002,18.896002,5.736,eccentric,3,3.0,21013.0,143678.0,229641.0,279555.0,262717.0
2026-04-08 21:49:33.751600,238270,1609504145955541,1745922430,0.843264,0.060512,-0.05856,-23.77375,-1.5925,3.77125,-19.656,18.968,6.272,eccentric,3,3.0,21013.0,143678.0,229641.0,279555.0,262717.0
2026-04-08 21:49:33.753311,238271,1609504145964524,1745931184,0.843264,0.060512,-0.05856,-24.08,-2.0825,3.07125,-19.656,18.968,6.272,eccentric,3,3.0,21013.0,143678.0,229641.0,279555.0,262717.0
2026-04-08 21:49:33.754830,238272,1609504145979046,1745946080,0.8296,0.052704,0.011712,-22.46125,-2.51125,2.4675,-19.896002,18.872002,5.656,eccentric,3,3.0,21013.0,143678.0,229641.0,279555.0,262717.0
2026-04-08 21:49:33.759044,238273,1609504145988049,1745954745,0.8296,0.052704,0.011712,-18.20875,-2.4675,2.135,-19.896002,18.872002,5.656,eccentric,3,3.0,21013.0,143678.0,229641.0,279555.0,262717.0
2026-04-08 21:49:33.765198,238274,1609504145997148,1745963423,0.786656,0.05856,0.12688,-17.61375,-1.82,3.00125,-19.512001,18.792002,5.68,eccentric,3,3.0,21013.0,143678.0,229641.0,279555.0,262717.0
2026-04-08 21:49:33.797208,238275,1609504146011613,1745978363,0.843264,0.025376,0.064416,-18.48875,-0.9275,4.2875,-19.2,19.216002,3.928,eccentric,3,3.0,21013.0,143678.0,229641.0,279555.0,262717.0
2026-04-08 21:49:33.801738,238276,1609504146020496,1745987012,0.843264,0.025376,0.064416,-20.37875,-1.51375,4.585,-19.2,19.216002,3.928,eccentric,3,3.0,21013.0,143678.0,229641.0,279555.0,262717.0
2026-04-08 21:49:33.828259,238287,1609504146034932,1746001901,0.812032,0.023424,0.017568,-22.21625,-2.16125,4.4275,-19.112001,19.256,5.408001,eccentric,3,3.0,21167.0,144064.0,229938.0,279717.0,262810.0
2026-04-08 21:49:33.829939,238288,1609504146044428,1746010602,0.812032,0.023424,0.017568,-21.9975,-2.23125,3.395,-19.112001,19.256,5.408001,eccentric,3,3.0,21167.0,144064.0,229938.0,279717.0,262810.0
2026-04-08 21:49:33.834049,238289,1609504146053341,1746019308,0.774944,0.013664,0.056608,-19.355,-2.205,1.645,-19.144001,19.240002,6.336,eccentric,3,3.0,21167.0,144064.0,229938.0,279717.0,262810.0
2026-04-08 21:49:33.836458,238290,1609504146067872,1746034218,0.774944,0.013664,0.056608,-16.178751,-1.435,-0.25375,-19.144001,19.240002,6.336,eccentric,3,3.0,21167.0,144064.0,229938.0,279717.0,262810.0
2026-04-08 21:49:33.864948,238291,1609504146076886,1746042918,0.745664,0.005856,0.021472,-14.70875,-0.665,-0.98,-19.0,19.304,6.104,eccentric,3,3.0,21167.0,144064.0,229938.0,279717.0,262810.0
2026-04-08 21:49:33.869649,238292,1609504146091390,1746057831,0.808128,0.017568,-0.00976,-13.53625,-0.245,-0.6125,-19.0,19.304,4.208,eccentric,3,3.0,21167.0,144064.0,229938.0,279717.0,262810.0
2026-04-08 21:49:33.871303,238293,1609504146100281,1746066508,0.802272,0.017568,-0.00976,-14.875,-0.8925,-0.41125,-18.784,19.208,4.208,eccentric,3,3.0,21167.0,144064.0,229938.0,279717.0,262810.0
2026-04-08 21:49:33.902241,238294,1609504146114807,1746081375,0.786656,-0.005856,0.031232,-15.645,-1.07625,-2.63375,-18.688002,19.2,5.032,eccentric,3,3.0,21167.0,144064.0,229938.0,279717.0,262810.0
2026-04-08 21:49:33.906518,238295,1609504146123742,1746090082,0.786656,-0.005856,0.031232,-13.51875,-1.21625,-2.59,-18.688002,19.2,5.032,eccentric,3,3.0,21167.0,144064.0,229938.0,279717.0,262810.0
2026-04-08 21:49:33.908232,238296,1609504146132640,1746098755,0.735904,-0.013664,0.023424,-13.448751,-0.805,-1.25125,-18.896002,19.352001,4.896,eccentric,3,3.0,21167.0,144064.0,229938.0,279717.0,262810.0
2026-04-08 21:49:33.938417,238307,1609504146147200,1746113885,0.735904,-0.013664,0.023424,-14.245,-0.30625,-1.95125,-18.896002,19.352001,4.896,eccentric,3,3.0,21107.0,143887.0,229878.0,279704.0,262845.0
2026-04-08 21:49:33.940964,238308,1609504146156242,1746122584,0.823744,-0.031232,0.064416,-11.97875,-0.90125,-3.15,-19.256,19.312,6.968,eccentric,3,3.0,21107.0,143887.0,229878.0,279704.0,262845.0
2026-04-08 21:49:33.943495,238309,1609504146170801,1746137508,0.823744,-0.031232,0.064416,-7.56,-1.3825,-2.75625,-19.256,19.312,6.968,eccentric,3,3.0,21107.0,143887.0,229878.0,279704.0,262845.0
2026-04-08 21:49:33.945910,238310,1609504146179726,1746146240,0.835456,0.017568,-0.013664,-5.97625,-1.9775,-5.145,-18.856,19.320002,4.432,eccentric,3,3.0,21107.0,143887.0,229878.0,279704.0,262845.0
2026-04-08 21:49:34.002307,238311,1609504146188672,1746154933,0.835456,0.017568,-0.013664,-5.59125,-1.5925,-8.39125,-18.856,19.320002,4.432,eccentric,3,3.0,21107.0,143887.0,229878.0,279704.0,262845.0
2026-04-08 21:49:34.004916,238312,1609504146203150,1746169855,0.870592,-0.005856,0.064416,-5.67,-0.42875,-8.9425,-18.744001,19.216002,4.688,eccentric,3,3.0,21107.0,143887.0,229878.0,279704.0,262845.0
2026-04-08 21:49:34.007268,238313,1609504146212033,1746178541,0.870592,-0.056608,0.046848,-7.7875,-0.28,-7.8225,-18.744001,19.216002,4.688,eccentric,3,3.0,21107.0,143887.0,229878.0,279704.0,262845.0
2026-04-08 21:49:34.011381,238314,1609504146226493,1746193382,0.851072,-0.056608,0.046848,-8.0325,0.20125,-6.4575,-18.848001,19.400002,4.896,eccentric,3,3.0,21107.0,143887.0,229878.0,279704.0,262845.0
2026-04-08 21:49:34.041021,238325,1609504146235413,1746202065,0.915488,-0.005856,0.113216,-6.92125,-0.32375,-5.8275,-18.6,19.264002,4.816001,eccentric,3,3.0,21089.0,143880.0,229759.0,279592.0,262766.0
2026-04-08 21:49:34.043596,238326,1609504146249956,1746217059,0.915488,-0.005856,0.113216,-6.99125,-1.365,-6.9125,-18.6,19.264002,4.816001,eccentric,3,3.0,21089.0,143880.0,229759.0,279592.0,262766.0
2026-04-08 21:49:34.045980,238327,1609504146258879,1746225736,0.854976,0.015616,-0.0976,-4.69,-0.88375,-8.35625,-18.944,18.696001,4.8,eccentric,3,3.0,21089.0,143880.0,229759.0,279592.0,262766.0
2026-04-08 21:49:34.048558,238328,1609504146273420,1746238694,0.7808,-0.005856,-0.074176,-0.0525,-0.79625,-8.5225,-18.824001,19.032001,4.248,eccentric,3,3.0,21089.0,143880.0,229759.0,279592.0,262766.0
2026-04-08 21:49:34.050929,238329,1609504146282724,1746249433,0.7808,-0.005856,-0.074176,1.18125,-1.4875,-8.65375,-18.824001,19.032001,4.248,eccentric,3,3.0,21089.0,143880.0,229759.0,279592.0,262766.0
2026-04-08 21:49:34.056753,238330,1609504146291639,1746258146,0.7808,-0.005856,-0.074176,-2.555,-2.6075,-8.1725,-18.824001,19.032001,4.248,eccentric,3,3.0,21089.0,143880.0,229759.0,279592.0,262766.0
2026-04-08 21:49:34.086318,238331,1609504146306121,1746273029,0.843264,-0.005856,0.050752,-3.5,-3.92875,-6.65,-19.2,18.792002,7.344,eccentric,3,3.0,21089.0,143880.0,229759.0,279592.0,262766.0
2026-04-08 21:49:34.089839,238332,1609504146315020,1746281683,0.872544,-0.015616,-0.06832,-0.7525,-4.2175,-5.38125,-19.248001,19.304,4.904,eccentric,3,3.0,21089.0,143880.0,229759.0,279592.0,262766.0
2026-04-08 21:49:34.096088,238333,1609504146329518,1746296529,0.872544,-0.015616,-0.06832,2.30125,-4.0425,-5.43375,-19.248001,19.304,4.904,eccentric,3,3.0,21089.0,143880.0,229759.0,279592.0,262766.0
2026-04-08 21:49:34.126049,238344,1609504146338599,1746305235,0.831552,-0.001952,-0.062464,6.8425,-3.96375,-6.16,-18.736,18.752,4.816001,eccentric,3,3.0,20934.0,143397.0,229414.0,279452.0,262740.0
2026-04-08 21:49:34.128561,238345,1609504146347711,1746313938,0.831552,-0.001952,-0.062464,9.135,-4.76,-5.45125,-18.736,18.752,4.816001,eccentric,3,3.0,20934.0,143397.0,229414.0,279452.0,262740.0
2026-04-08 21:49:34.131197,238346,1609504146362226,1746328918,0.835456,0.03904,0.109312,7.81375,-6.1775,-4.47125,-19.408,18.816,5.912,eccentric,3,3.0,20934.0,143397.0,229414.0,279452.0,262740.0
2026-04-08 21:49:34.136148,238347,1609504146371170,1746337652,0.835456,0.03904,0.109312,5.775,-6.65875,-3.6925,-19.408,18.816,5.912,eccentric,3,3.0,20934.0,143397.0,229414.0,279452.0,262740.0
2026-04-08 21:49:34.168754,238348,1609504146385622,1746352510,0.823744,0.040992,0.040992,3.465,-6.0725,-3.8675,-19.28,18.736,4.752,eccentric,3,3.0,20934.0,143397.0,229414.0,279452.0,262740.0
2026-04-08 21:49:34.172314,238349,1609504146394550,1746361191,0.853024,0.02928,0.025376,-0.14875,-5.6875,-4.025,-19.160002,18.712002,3.264,eccentric,3,3.0,20934.0,143397.0,229414.0,279452.0,262740.0
2026-04-08 21:49:34.174795,238350,1609504146409042,1746376024,0.853024,0.02928,0.025376,-2.68625,-4.52375,-3.63125,-19.160002,18.712002,3.264,eccentric,3,3.0,20934.0,143397.0,229414.0,279452.0,262740.0
2026-04-08 21:49:34.205083,238351,1609504146417971,1746384694,0.856928,0.015616,0.093696,-4.66375,-4.27875,-3.465,-19.0,18.856,5.648,concentric,3,3.0,20934.0,143397.0,229414.0,279452.0,262740.0
2026-04-08 21:49:34.208556,238352,1609504146426985,1746393414,0.856928,0.015616,0.093696,-9.12625,-3.6925,-3.7975,-19.0,18.856,5.648,concentric,3,3.0,20934.0,143397.0,229414.0,279452.0,262740.0
2026-04-08 21:49:34.238548,238363,1609504146441587,1746408329,0.843264,0.023424,-0.050752,-13.0025,-3.28125,-3.92875,-19.400002,18.784,4.736,concentric,3,3.0,20825.0,143074.0,229189.0,279322.0,262653.0
2026-04-08 21:49:34.241137,238364,1609504146450514,1746416980,0.843264,0.023424,-0.050752,-14.8225,-2.37125,-3.9375,-19.400002,18.784,4.736,concentric,3,3.0,20825.0,143074.0,229189.0,279322.0,262653.0
2026-04-08 21:49:34.243568,238365,1609504146465046,1746431852,0.864736,0.023424,-0.132736,-15.4875,-1.6975,-3.91125,-19.464,18.744001,4.592,concentric,3,3.0,20825.0,143074.0,229189.0,279322.0,262653.0
2026-04-08 21:49:34.245985,238366,1609504146473989,1746440616,0.942816,0.0,0.035136,-13.39625,-1.30375,-3.6225,-19.464,18.744001,5.256,concentric,3,3.0,20825.0,143074.0,229189.0,279322.0,262653.0
2026-04-08 21:49:34.303839,238367,1609504146488517,1746455535,0.942816,0.0,0.035136,-10.8675,-1.26,-4.15625,-18.944,19.04,5.256,concentric,3,3.0,20825.0,143074.0,229189.0,279322.0,262653.0
2026-04-08 21:49:34.307164,238368,1609504146497473,1746464208,0.892064,0.056608,0.031232,-9.8,-0.32375,-4.17375,-19.232,19.0,5.232,concentric,3,3.0,20825.0,143074.0,229189.0,279322.0,262653.0
2026-04-08 21:49:34.309760,238369,1609504146506394,1746472875,0.892064,0.056608,0.031232,-10.54375,0.175,-3.03625,-19.232,19.0,5.232,concentric,3,3.0,20825.0,143074.0,229189.0,279322.0,262653.0
2026-04-08 21:49:34.312207,238370,1609504146520875,1746487695,0.899872,0.0976,0.007808,-11.27,0.56,-1.91625,-19.144001,19.288,1.968,concentric,3,3.0,20825.0,143074.0,229189.0,279322.0,262653.0
2026-04-08 21:49:34.314771,238371,1609504146529790,1746496343,0.899872,0.0976,0.007808,-10.24625,0.63,-0.315,-19.144001,19.288,1.968,concentric,3,3.0,20825.0,143074.0,229189.0,279322.0,262653.0
2026-04-08 21:49:34.375722,238382,1609504146544309,1746509631,0.968192,0.035136,0.02928,-8.9075,0.95375,0.93625,-18.944,18.808,4.544,concentric,3,3.0,20977.0,143520.0,229432.0,279359.0,262648.0
2026-04-08 21:49:34.377269,238383,1609504146553710,1746520406,0.968192,0.035136,0.02928,-7.4375,0.56,2.61625,-18.944,18.808,4.544,concentric,3,3.0,20977.0,143520.0,229432.0,279359.0,262648.0
2026-04-08 21:49:34.381545,238384,1609504146562671,1746529084,0.938912,0.015616,0.025376,-5.04875,-0.00875,3.75375,-19.256,19.368,3.184,concentric,3,3.0,20977.0,143520.0,229432.0,279359.0,262648.0
2026-04-08 21:49:34.383279,238385,1609504146577156,1746544010,0.901824,0.052704,-0.171776,-3.64,-0.525,3.07125,-18.952002,18.968,4.552,concentric,3,3.0,20977.0,143520.0,229432.0,279359.0,262648.0
2026-04-08 21:49:34.384835,238386,1609504146586090,1746552684,0.901824,0.052704,-0.171776,-2.8875,-0.875,1.2425,-18.952002,18.968,4.552,concentric,3,3.0,20977.0,143520.0,229432.0,279359.0,262648.0
2026-04-08 21:49:34.389067,238387,1609504146600560,1746567555,0.882304,0.07808,-0.031232,1.435,-0.81375,0.81375,-19.208,18.880001,4.52,concentric,3,3.0,20977.0,143520.0,229432.0,279359.0,262648.0
2026-04-08 21:49:34.390880,238388,1609504146609537,1746576273,0.882304,0.07808,-0.031232,6.3,-0.32375,1.3125,-19.208,18.880001,4.52,concentric,3,3.0,20977.0,143520.0,229432.0,279359.0,262648.0
2026-04-08 21:49:34.392369,238389,1609504146624061,1746591222,0.864736,0.046848,-0.003904,7.00875,-0.5775,2.19625,-18.856,19.224,5.408001,concentric,3,3.0,20977.0,143520.0,229432.0,279359.0,262648.0
2026-04-08 21:49:34.423795,238390,1609504146633002,1746599953,0.864736,0.046848,-0.003904,5.43375,-1.54,3.92875,-18.856,19.224,5.408001,concentric,3,3.0,20977.0,143520.0,229432.0,279359.0,262648.0
2026-04-08 21:49:34.451181,238401,1609504146642315,1746608729,0.833504,0.0488,-0.046848,4.27875,-2.415,3.70125,-19.176,19.064001,4.232,concentric,3,3.0,20741.0,142815.0,228989.0,279209.0,262627.0
2026-04-08 21:49:34.455350,238402,1609504146656787,1746623612,0.903776,0.001952,-0.040992,3.98125,-3.14125,2.1,-19.088001,19.0,2.712,concentric,3,3.0,20741.0,142815.0,228989.0,279209.0,262627.0
2026-04-08 21:49:34.457061,238403,1609504146665711,1746632308,0.903776,0.001952,-0.040992,6.16875,-4.31375,1.26875,-19.088001,19.0,2.712,concentric,3,3.0,20741.0,142815.0,228989.0,279209.0,262627.0
2026-04-08 21:49:34.458549,238404,1609504146680257,1746647174,0.841312,-0.015616,-0.101504,7.385,-4.78625,-0.02625,-19.240002,19.096,6.008,concentric,3,3.0,20741.0,142815.0,228989.0,279209.0,262627.0
2026-04-08 21:49:34.466579,238405,1609504146689224,1746655882,0.841312,-0.015616,-0.101504,8.00625,-5.06625,-1.505,-19.240002,19.096,6.008,concentric,3,3.0,20741.0,142815.0,228989.0,279209.0,262627.0
2026-04-08 21:49:34.469014,238406,1609504146698218,1746664602,0.882304,0.013664,0.113216,9.3975,-5.145,-2.54625,-19.016,19.144001,6.384,concentric,3,3.0,20741.0,142815.0,228989.0,279209.0,262627.0
2026-04-08 21:49:34.497535,238407,1609504146712707,1746679523,0.882304,0.013664,0.113216,10.85875,-5.03125,-3.3425,-19.016,19.144001,6.384,concentric,3,3.0,20741.0,142815.0,228989.0,279209.0,262627.0
2026-04-08 21:49:34.503039,238408,1609504146721614,1746688181,0.853024,0.052704,-0.064416,12.0925,-5.985,-3.71,-19.104,19.064001,4.832,concentric,3,3.0,20741.0,142815.0,228989.0,279209.0,262627.0
2026-04-08 21:49:34.503541,238409,1609504146736074,1746703024,0.853024,0.037088,-0.12688,12.87125,-6.7375,-3.9375,-19.024,19.168001,4.688,concentric,3,3.0,20741.0,142815.0,228989.0,279209.0,262627.0
2026-04-08 21:49:34.533544,238420,1609504146745086,1746711802,0.853024,0.037088,-0.12688,13.825,-7.07,-3.98125,-19.024,19.168001,4.688,concentric,3,3.0,20269.0,141574.0,228269.0,279015.0,262668.0
2026-04-08 21:49:34.536038,238421,1609504146759584,1746726715,0.854976,0.007808,-0.12688,11.06875,-7.25375,-3.535,-19.264002,19.032001,5.496,concentric,3,3.0,20269.0,141574.0,228269.0,279015.0,262668.0
2026-04-08 21:49:34.538536,238422,1609504146768586,1746735380,0.854976,0.007808,-0.12688,7.04375,-7.69125,-3.26375,-19.264002,19.032001,5.496,concentric,3,3.0,20269.0,141574.0,228269.0,279015.0,262668.0
2026-04-08 21:49:34.543614,238423,1609504146777526,1746744059,0.903776,0.011712,0.003904,5.15375,-7.30625,-3.045,-19.416,19.152,5.584,concentric,3,3.0,20269.0,141574.0,228269.0,279015.0,262668.0
2026-04-08 21:49:34.603660,238424,1609504146792020,1746758924,0.903776,0.011712,0.003904,2.66875,-7.34125,-2.8,-19.416,19.152,5.584,concentric,3,3.0,20269.0,141574.0,228269.0,279015.0,262668.0
2026-04-08 21:49:34.607323,238425,1609504146800920,1746767591,0.894016,0.042944,0.074176,0.4025,-7.62125,-3.9375,-18.968,18.552,4.384,concentric,3,3.0,20269.0,141574.0,228269.0,279015.0,262668.0
2026-04-08 21:49:34.609794,238426,1609504146815405,1746782455,0.894016,0.042944,0.074176,1.1025,-7.70875,-6.62375,-18.968,18.552,4.384,concentric,3,3.0,20269.0,141574.0,228269.0,279015.0,262668.0
2026-04-08 21:49:34.612312,238427,1609504146824293,1746791144,0.862784,0.054656,0.101504,4.05125,-8.05,-5.46875,-19.36,19.160002,3.4,concentric,3,3.0,20269.0,141574.0,228269.0,279015.0,262668.0
2026-04-08 21:49:34.614803,238428,1609504146838775,1746803944,0.808128,0.0488,0.027328,7.9275,-8.07625,-2.89625,-19.312,19.104,4.368,concentric,3,3.0,20269.0,141574.0,228269.0,279015.0,262668.0
2026-04-08 21:49:34.642307,238439,1609504146848270,1746814740,0.808128,0.0488,0.027328,9.31875,-7.37625,-3.7275,-19.312,19.104,4.368,concentric,3,3.0,19808.0,140418.0,227566.0,278766.0,262632.0
2026-04-08 21:49:34.644828,238440,1609504146857248,1746823421,0.856928,0.03904,0.017568,8.3125,-6.67625,-4.85625,-19.728,18.808,4.6,concentric,3,3.0,19808.0,140418.0,227566.0,278766.0,262632.0
2026-04-08 21:49:34.647246,238441,1609504146871796,1746838362,0.856928,0.03904,0.017568,7.56,-6.3525,-4.515,-19.728,18.808,4.6,concentric,3,3.0,19808.0,140418.0,227566.0,278766.0,262632.0
2026-04-08 21:49:34.649730,238442,1609504146880734,1746847067,0.833504,0.050752,-0.023424,7.86625,-6.27375,-4.3225,-19.712002,18.320002,6.144,concentric,3,3.0,19808.0,140418.0,227566.0,278766.0,262632.0
2026-04-08 21:49:34.679995,238443,1609504146895244,1746862004,0.833504,0.050752,-0.023424,8.16375,-6.01125,-4.1475,-19.712002,18.320002,6.144,concentric,3,3.0,19808.0,140418.0,227566.0,278766.0,262632.0
2026-04-08 21:49:34.683513,238444,1609504146904164,1746870667,0.84912,0.052704,0.12688,10.01875,-5.285,-4.20875,-19.792002,18.752,5.704001,concentric,3,3.0,19808.0,140418.0,227566.0,278766.0,262632.0
2026-04-08 21:49:34.686026,238445,1609504146918685,1746885519,0.813984,0.064416,0.083936,11.41,-5.005,-5.43375,-20.184,19.080002,4.752,concentric,3,3.0,19808.0,140418.0,227566.0,278766.0,262632.0
2026-04-08 21:49:34.716260,238446,1609504146927625,1746894187,0.813984,0.064416,0.083936,10.92,-4.7075,-5.88875,-20.184,19.080002,4.752,concentric,3,3.0,19808.0,140418.0,227566.0,278766.0,262632.0
2026-04-08 21:49:34.719815,238447,1609504146936579,1746902872,0.813984,0.064416,-0.00976,11.480001,-3.9025,-4.69875,-20.184,19.080002,4.752,concentric,3,3.0,19808.0,140418.0,227566.0,278766.0,262632.0
2026-04-08 21:49:34.753251,238458,1609504146951105,1746917803,0.81008,0.03904,-0.00976,12.4775,-4.1125,-4.9175,-20.176,18.984001,5.176,concentric,3,3.0,19840.0,140615.0,227822.0,278940.0,262715.0
2026-04-08 21:49:34.754542,238459,1609504146960039,1746926565,0.815936,0.040992,-0.06832,11.97,-5.04875,-5.6875,-20.064001,18.904001,4.664,concentric,3,3.0,19840.0,140615.0,227822.0,278940.0,262715.0
2026-04-08 21:49:34.756062,238460,1609504146974649,1746941522,0.815936,0.040992,-0.06832,13.7725,-6.0725,-6.58875,-20.064001,18.904001,4.664,concentric,3,3.0,19840.0,140615.0,227822.0,278940.0,262715.0
2026-04-08 21:49:34.760407,238461,1609504146983614,1746950276,0.8784,0.037088,0.08784,14.88375,-5.90625,-7.875,-20.36,18.744001,5.84,concentric,3,3.0,19840.0,140615.0,227822.0,278940.0,262715.0
2026-04-08 21:49:34.761931,238462,1609504146992553,1746958965,0.8784,0.037088,0.08784,13.230001,-5.24125,-7.8225,-20.36,18.744001,5.84,concentric,3,3.0,19840.0,140615.0,227822.0,278940.0,262715.0
2026-04-08 21:49:34.792185,238463,1609504147007026,1746973829,0.792512,0.066368,0.091744,11.10375,-3.73625,-7.06125,-20.2,18.896002,5.872,concentric,3,3.0,19840.0,140615.0,227822.0,278940.0,262715.0
2026-04-08 21:49:34.796595,238464,1609504147015941,1746982511,0.792512,0.066368,0.091744,9.205,-3.21125,-6.69375,-20.2,18.896002,5.872,concentric,3,3.0,19840.0,140615.0,227822.0,278940.0,262715.0
2026-04-08 21:49:34.799011,238465,1609504147030408,1746997344,0.80032,0.050752,-0.138592,6.2125,-3.43875,-7.02625,-20.008001,18.208,4.624,concentric,3,3.0,19840.0,140615.0,227822.0,278940.0,262715.0
2026-04-08 21:49:34.855554,238476,1609504147039363,1747005976,0.8784,0.046848,0.040992,5.95,-4.15625,-7.8225,-20.416,18.160002,4.464,concentric,3,3.0,19981.0,141067.0,228202.0,279156.0,262810.0
2026-04-08 21:49:34.861615,238477,1609504147053864,1747020843,0.8784,0.046848,0.040992,10.045,-3.50875,-8.7675,-20.416,18.160002,4.464,concentric,3,3.0,19981.0,141067.0,228202.0,279156.0,262810.0
2026-04-08 21:49:34.863304,238478,1609504147062754,1747029486,0.821792,0.025376,-0.12688,12.60875,-2.5725,-9.4675,-20.44,18.408,5.112001,concentric,3,3.0,19981.0,141067.0,228202.0,279156.0,262810.0
2026-04-08 21:49:34.864834,238479,1609504147071640,1747038154,0.821792,0.025376,-0.12688,11.82125,-0.875,-9.72125,-20.44,18.408,5.112001,concentric,3,3.0,19981.0,141067.0,228202.0,279156.0,262810.0
2026-04-08 21:49:34.869146,238480,1609504147086155,1747053155,0.8784,0.07808,0.072224,11.698751,-0.14,-8.7675,-20.536001,18.088001,7.016,concentric,3,3.0,19981.0,141067.0,228202.0,279156.0,262810.0
2026-04-08 21:49:34.871901,238481,1609504147095083,1747061911,0.8784,0.07808,0.072224,9.485,-0.41125,-7.70875,-20.536001,18.088001,7.016,concentric,3,3.0,19981.0,141067.0,228202.0,279156.0,262810.0
2026-04-08 21:49:34.906006,238482,1609504147109602,1747074756,0.954528,0.046848,-0.113216,7.93625,-0.39375,-7.83125,-20.92,18.096,6.8,concentric,3,3.0,19981.0,141067.0,228202.0,279156.0,262810.0
2026-04-08 21:49:34.910215,238483,1609504147118761,1747085512,0.89792,0.07808,0.054656,9.2225,0.27125,-7.83125,-20.592001,18.288,4.704,concentric,3,3.0,19981.0,141067.0,228202.0,279156.0,262810.0
2026-04-08 21:49:34.913281,238484,1609504147133227,1747100363,0.89792,0.07808,0.054656,7.8575,1.75,-8.54875,-20.592001,18.288,4.704,concentric,3,3.0,19981.0,141067.0,228202.0,279156.0,262810.0
2026-04-08 21:49:34.938916,238495,1609504147142380,1747109094,0.90768,0.033184,-0.085888,6.08125,3.115,-8.53125,-21.344002,18.088001,5.248,concentric,3,3.0,20037.0,141275.0,228323.0,279216.0,262807.0
2026-04-08 21:49:34.941143,238496,1609504147151424,1747117829,0.90768,0.033184,-0.085888,6.09875,4.15625,-7.4725,-21.344002,18.088001,5.248,concentric,3,3.0,20037.0,141275.0,228323.0,279216.0,262807.0
2026-04-08 21:49:34.944535,238497,1609504147165927,1747132788,0.895968,0.099552,0.003904,5.6175,4.585,-6.825,-21.224,18.288,6.176,concentric,3,3.0,20037.0,141275.0,228323.0,279216.0,262807.0
2026-04-08 21:49:34.946063,238498,1609504147174899,1747141500,0.895968,0.099552,0.003904,4.0425,4.33125,-5.95875,-21.224,18.288,6.176,concentric,3,3.0,20037.0,141275.0,228323.0,279216.0,262807.0
2026-04-08 21:49:34.977178,238499,1609504147189448,1747156368,0.938912,0.066368,-0.113216,3.89375,5.1975,-4.6025,-21.216002,18.096,6.8,concentric,3,3.0,20037.0,141275.0,228323.0,279216.0,262807.0
2026-04-08 21:49:34.981628,238500,1609504147198381,1747165061,0.938912,0.050752,-0.138592,4.76,6.3175,-3.7275,-21.216002,18.096,6.8,concentric,3,3.0,20037.0,141275.0,228323.0,279216.0,262807.0
2026-04-08 21:49:34.983796,238501,1609504147212843,1747179924,0.856928,0.050752,-0.138592,4.08625,7.35,-3.07125,-21.312,18.224,5.024,concentric,3,3.0,20037.0,141275.0,228323.0,279216.0,262807.0
2026-04-08 21:49:34.990737,238502,1609504147221735,1747188643,0.884256,0.025376,-0.140544,4.1475,7.28,-1.77625,-21.296001,17.968,6.232,concentric,3,3.0,20037.0,141275.0,228323.0,279216.0,262807.0
2026-04-08 21:49:35.018769,238503,1609504147230756,1747197375,0.884256,0.025376,-0.140544,5.74875,7.1925,-0.6475,-21.296001,17.968,6.232,concentric,3,3.0,20037.0,141275.0,228323.0,279216.0,262807.0
2026-04-08 21:49:35.047309,238514,1609504147245463,1747212302,0.874496,0.074176,-0.1952,4.83875,6.53625,-0.49,-21.568,17.904001,5.312,concentric,3,3.0,20188.0,141751.0,228709.0,279443.0,262905.0
2026-04-08 21:49:35.051628,238515,1609504147254415,1747220960,0.874496,0.074176,-0.1952,3.38625,6.5975,-2.6075,-21.568,17.904001,5.312,concentric,3,3.0,20188.0,141751.0,228709.0,279443.0,262905.0
2026-04-08 21:49:35.053283,238516,1609504147268944,1747235882,0.901824,0.105408,-0.013664,1.95125,7.39375,-3.5,-21.528002,18.192001,5.68,concentric,3,3.0,20188.0,141751.0,228709.0,279443.0,262905.0
2026-04-08 21:49:35.054907,238517,1609504147277875,1747244606,0.901824,0.105408,-0.013664,0.63875,8.81125,-4.03375,-21.528002,18.192001,5.68,concentric,3,3.0,20188.0,141751.0,228709.0,279443.0,262905.0
2026-04-08 21:49:35.059052,238518,1609504147286877,1747253317,0.90768,0.044896,-0.054656,0.58625,9.75625,-4.05125,-21.792002,18.152,7.960001,concentric,3,3.0,20188.0,141751.0,228709.0,279443.0,262905.0
2026-04-08 21:49:35.087529,238519,1609504147301443,1747268215,0.882304,0.083936,0.101504,2.54625,10.52625,-2.89625,-22.072,18.168001,6.72,concentric,3,3.0,20188.0,141751.0,228709.0,279443.0,262905.0
2026-04-08 21:49:35.092051,238520,1609504147310378,1747276939,0.882304,0.083936,0.101504,2.33625,10.535,-2.03875,-22.072,18.168001,6.72,concentric,3,3.0,20188.0,141751.0,228709.0,279443.0,262905.0
2026-04-08 21:49:35.093593,238521,1609504147324855,1747291788,0.952576,0.099552,-0.050752,0.3325,9.835,-1.19,-21.664001,18.112001,5.864,concentric,3,3.0,20188.0,141751.0,228709.0,279443.0,262905.0
2026-04-08 21:49:35.101533,238522,1609504147333772,1747300472,0.952576,0.099552,-0.050752,0.21,8.65375,-2.89625,-21.664001,18.112001,5.864,concentric,3,3.0,20188.0,141751.0,228709.0,279443.0,262905.0
2026-04-08 21:49:35.165312,238534,1609504147348367,1747313771,0.925248,0.089792,-0.142496,0.315,8.4525,-5.24125,-21.952002,17.984001,5.816001,concentric,3,3.0,20284.0,142082.0,229022.0,279645.0,263011.0
2026-04-08 21:49:35.167038,238535,1609504147357816,1747324516,0.925248,0.089792,-0.142496,-0.5075,9.3625,-3.9375,-21.952002,17.984001,5.816001,concentric,3,3.0,20284.0,142082.0,229022.0,279645.0,263011.0
2026-04-08 21:49:35.168565,238536,1609504147366765,1747333201,0.854976,0.03904,-0.132736,-3.99,10.2375,-3.045,-21.464,18.248001,6.000001,concentric,3,3.0,20284.0,142082.0,229022.0,279645.0,263011.0
2026-04-08 21:49:35.203553,238537,1609504147381231,1747348118,0.853024,0.08784,-0.103456,-5.94125,10.99,-2.56375,-22.264002,18.12,7.952,concentric,3,3.0,20284.0,142082.0,229022.0,279645.0,263011.0
2026-04-08 21:49:35.207851,238538,1609504147390255,1747356868,0.853024,0.08784,-0.103456,-4.54125,10.78,-2.58125,-22.264002,18.12,7.952,concentric,3,3.0,20284.0,142082.0,229022.0,279645.0,263011.0
2026-04-08 21:49:35.209566,238539,1609504147404756,1747371744,1.001376,0.089792,0.021472,-1.04125,9.33625,-3.59625,-22.176,18.12,7.016,concentric,3,3.0,20284.0,142082.0,229022.0,279645.0,263011.0
2026-04-08 21:49:35.211184,238540,1609504147413695,1747380412,1.001376,0.089792,0.021472,2.7125,8.0325,-6.825,-22.176,18.12,7.016,concentric,3,3.0,20284.0,142082.0,229022.0,279645.0,263011.0
2026-04-08 21:49:35.215347,238541,1609504147422612,1747389093,0.95648,0.0976,0.025376,1.91625,7.4025,-7.2275,-22.344002,18.152,5.704001,concentric,3,3.0,20284.0,142082.0,229022.0,279645.0,263011.0
2026-04-08 21:49:35.217162,238542,1609504147437102,1747403932,0.95648,0.0976,0.025376,-3.05375,7.49,-5.39,-22.344002,18.152,5.704001,concentric,3,3.0,20284.0,142082.0,229022.0,279645.0,263011.0
2026-04-08 21:49:35.245456,238553,1609504147446372,1747412683,0.989664,0.054656,0.089792,-7.9625,7.5075,-5.8625,-22.128,18.328001,5.896,concentric,3,3.0,20248.0,141967.0,228954.0,279561.0,262921.0
2026-04-08 21:49:35.247333,238554,1609504147460889,1747427588,0.919392,0.060512,-0.158112,-10.00125,7.95375,-7.70875,-22.648,18.456001,7.08,concentric,3,3.0,20248.0,141967.0,228954.0,279561.0,262921.0
2026-04-08 21:49:35.259126,238555,1609504147469951,1747436289,0.919392,0.060512,-0.158112,-6.88625,7.595,-7.4025,-22.648,18.456001,7.08,concentric,3,3.0,20248.0,141967.0,228954.0,279561.0,262921.0
2026-04-08 21:49:35.260787,238556,1609504147484455,1747451192,1.0248,0.101504,-0.01952,-2.80875,6.23875,-6.23,-22.68,18.136002,8.016001,concentric,3,3.0,20248.0,141967.0,228954.0,279561.0,262921.0
2026-04-08 21:49:35.262308,238557,1609504147493339,1747459851,1.0248,0.101504,-0.01952,2.2225,5.1975,-8.89875,-22.68,18.136002,8.016001,concentric,3,3.0,20248.0,141967.0,228954.0,279561.0,262921.0
2026-04-08 21:49:35.270213,238558,1609504147502324,1747468549,0.958432,0.113216,-0.085888,5.10125,4.935,-11.64625,-22.68,18.304,5.064,concentric,3,3.0,20248.0,141967.0,228954.0,279561.0,262921.0
2026-04-08 21:49:35.298778,238559,1609504147516827,1747483438,0.958432,0.113216,-0.085888,4.2175,4.97,-9.68625,-22.68,18.304,5.064,concentric,3,3.0,20248.0,141967.0,228954.0,279561.0,262921.0
2026-04-08 21:49:35.303629,238560,1609504147525721,1747492099,0.886208,0.13664,-0.105408,-0.06125,5.5125,-5.88875,-22.672,18.144001,6.224001,concentric,3,3.0,20248.0,141967.0,228954.0,279561.0,262921.0
2026-04-08 21:49:35.308429,238561,1609504147540196,1747506972,0.886208,0.13664,-0.105408,-4.0775,4.99625,-4.50625,-22.672,18.144001,6.224001,concentric,3,3.0,20248.0,141967.0,228954.0,279561.0,262921.0
2026-04-08 21:49:35.334931,238572,1609504147549260,1747515732,0.997472,0.064416,-0.025376,-5.635,3.56125,-4.48875,-22.432001,17.912,7.664001,concentric,3,3.0,20367.0,142235.0,229125.0,279602.0,262892.0
2026-04-08 21:49:35.339064,238573,1609504147563806,1747530648,1.001376,0.023424,-0.042944,-6.0025,2.79125,-4.96125,-22.84,17.584002,7.048,concentric,3,3.0,20367.0,142235.0,229125.0,279602.0,262892.0
2026-04-08 21:49:35.340638,238574,1609504147572799,1747539324,1.001376,0.023424,-0.042944,-5.71375,2.345,-7.49,-22.84,17.584002,7.048,concentric,3,3.0,20367.0,142235.0,229125.0,279602.0,262892.0
2026-04-08 21:49:35.370953,238575,1609504147581746,1747547983,0.96624,0.056608,-0.066368,-4.0075,2.28375,-10.85,-23.192001,17.752,7.32,concentric,3,3.0,20367.0,142235.0,229125.0,279602.0,262892.0
2026-04-08 21:49:35.373257,238576,1609504147596243,1747562853,0.96624,0.056608,-0.066368,-1.47,2.345,-13.51,-23.192001,17.752,7.32,concentric,3,3.0,20367.0,142235.0,229125.0,279602.0,262892.0
2026-04-08 21:49:35.377815,238577,1609504147605174,1747571515,0.909632,0.121024,-0.052704,3.49125,2.5725,-14.035,-23.296001,17.744001,6.408001,concentric,3,3.0,20367.0,142235.0,229125.0,279602.0,262892.0
2026-04-08 21:49:35.406315,238578,1609504147619678,1747586414,0.909632,0.121024,-0.052704,7.84,1.79375,-14.035,-23.296001,17.744001,6.408001,concentric,3,3.0,20367.0,142235.0,229125.0,279602.0,262892.0
2026-04-08 21:49:35.409853,238579,1609504147628603,1747595071,0.948672,0.095648,-0.132736,6.72875,0.5775,-15.4875,-23.560001,18.064001,7.072001,concentric,3,3.0,20367.0,142235.0,229125.0,279602.0,262892.0
2026-04-08 21:49:35.438262,238590,1609504147643064,1747609860,0.977952,0.099552,0.105408,4.13,-0.4025,-16.80875,-23.840002,17.240002,6.808,concentric,3,3.0,20666.0,142982.0,229560.0,279729.0,262860.0
2026-04-08 21:49:35.440719,238591,1609504147652389,1747618648,0.977952,0.099552,0.105408,1.96875,-0.90125,-17.26375,-23.840002,17.240002,6.808,concentric,3,3.0,20666.0,142982.0,229560.0,279729.0,262860.0
2026-04-08 21:49:35.442265,238592,1609504147661336,1747627328,0.977952,0.099552,-0.064416,0.7175,-0.7525,-17.2375,-23.840002,17.240002,6.808,concentric,3,3.0,20666.0,142982.0,229560.0,279729.0,262860.0
2026-04-08 21:49:35.446468,238593,1609504147675875,1747642219,0.98576,0.070272,-0.064416,0.55125,-0.65625,-16.9225,-24.328001,17.568,6.544,concentric,3,3.0,20666.0,142982.0,229560.0,279729.0,262860.0
2026-04-08 21:49:35.451923,238594,1609504147684799,1747650893,0.96624,0.142496,0.056608,2.28375,-1.25125,-16.94875,-24.496,17.112001,7.496,concentric,3,3.0,20666.0,142982.0,229560.0,279729.0,262860.0
2026-04-08 21:49:35.502172,238595,1609504147699272,1747665821,0.96624,0.142496,0.056608,6.4575,-1.23375,-17.10625,-24.496,17.112001,7.496,concentric,3,3.0,20666.0,142982.0,229560.0,279729.0,262860.0
2026-04-08 21:49:35.504426,238596,1609504147708176,1747674485,0.960384,0.128832,-0.033184,9.6075,-1.435,-17.9375,-24.224,16.736,6.264,concentric,3,3.0,20666.0,142982.0,229560.0,279729.0,262860.0
2026-04-08 21:49:35.509144,238597,1609504147717097,1747683139,0.960384,0.128832,-0.033184,14.3675,-1.4875,-16.8175,-24.224,16.736,6.264,concentric,3,3.0,20666.0,142982.0,229560.0,279729.0,262860.0
2026-04-08 21:49:35.510798,238598,1609504147731565,1747698000,0.976,0.11712,-0.095648,14.4375,-2.31,-15.47875,-24.12,16.736,6.704001,concentric,3,3.0,20666.0,142982.0,229560.0,279729.0,262860.0
2026-04-08 21:49:35.512353,238599,1609504147740565,1747706681,0.976,0.11712,-0.095648,12.39,-2.9575,-14.81375,-24.12,16.736,6.704001,concentric,3,3.0,20666.0,142982.0,229560.0,279729.0,262860.0
2026-04-08 21:49:35.540776,238610,1609504147755159,1747722006,0.999424,0.160064,-0.093696,12.7225,-3.9375,-13.79875,-24.448002,16.624,6.112001,concentric,3,3.0,20812.0,143374.0,229823.0,279877.0,262953.0
2026-04-08 21:49:35.542356,238611,1609504147764085,1747730690,0.954528,0.171776,-0.12688,13.11625,-4.03375,-13.79875,-24.936,16.28,7.136,concentric,3,3.0,20812.0,143374.0,229823.0,279877.0,262953.0
2026-04-08 21:49:35.546450,238612,1609504147778631,1747745573,0.954528,0.171776,-0.12688,12.95,-3.8325,-12.53,-24.936,16.28,7.136,concentric,3,3.0,20812.0,143374.0,229823.0,279877.0,262953.0
2026-04-08 21:49:35.575028,238613,1609504147787571,1747754230,0.974048,0.169824,0.095648,11.48875,-3.70125,-10.08875,-24.816002,16.320002,6.696,concentric,3,3.0,20812.0,143374.0,229823.0,279877.0,262953.0
2026-04-08 21:49:35.579579,238614,1609504147796491,1747762913,0.974048,0.169824,0.095648,9.40625,-3.17625,-7.735,-24.816002,16.320002,6.696,concentric,3,3.0,20812.0,143374.0,229823.0,279877.0,262953.0
2026-04-08 21:49:35.581852,238615,1609504147810966,1747777769,1.016992,0.15616,0.06832,7.18375,-3.9725,-4.82125,-24.920002,16.640001,6.440001,concentric,3,3.0,20812.0,143374.0,229823.0,279877.0,262953.0
2026-04-08 21:49:35.587655,238616,1609504147819932,1747786434,1.016992,0.15616,0.06832,6.265,-4.9875,-5.635,-24.920002,16.640001,6.440001,concentric,3,3.0,20812.0,143374.0,229823.0,279877.0,262953.0
2026-04-08 21:49:35.637226,238617,1609504147834414,1747801308,1.081408,0.105408,0.01952,8.3125,-4.97,-7.04375,-25.384,16.728,8.160001,concentric,3,3.0,20812.0,143374.0,229823.0,279877.0,262953.0
2026-04-08 21:49:35.667228,238628,1609504147843317,1747809957,1.001376,0.148352,-0.099552,11.06,-4.13875,-6.825,-25.44,16.44,5.168,concentric,3,3.0,20782.0,143242.0,229710.0,279785.0,262912.0
2026-04-08 21:49:35.669748,238629,1609504147857807,1747824907,1.001376,0.148352,-0.099552,12.565,-4.795,-6.545,-25.44,16.44,5.168,concentric,3,3.0,20782.0,143242.0,229710.0,279785.0,262912.0
2026-04-08 21:49:35.672265,238630,1609504147866721,1747833564,1.009184,0.177632,0.01952,14.56,-4.6725,-6.72875,-25.152,15.576001,6.496,concentric,3,3.0,20782.0,143242.0,229710.0,279785.0,262912.0
2026-04-08 21:49:35.674818,238631,1609504147875669,1747842212,1.009184,0.177632,0.01952,16.555,-3.9725,-6.0375,-25.152,15.576001,6.496,concentric,3,3.0,20782.0,143242.0,229710.0,279785.0,262912.0
2026-04-08 21:49:35.681021,238632,1609504147890209,1747857079,0.981856,0.183488,-0.081984,16.82625,-3.91125,-4.2,-25.328001,16.008001,8.608001,concentric,3,3.0,20782.0,143242.0,229710.0,279785.0,262912.0
2026-04-08 21:49:35.683481,238633,1609504147899282,1747865794,0.981856,0.183488,-0.081984,15.88125,-4.19125,-2.77375,-25.328001,16.008001,8.608001,concentric,3,3.0,20782.0,143242.0,229710.0,279785.0,262912.0
2026-04-08 21:49:35.686025,238634,1609504147913746,1747880696,1.13216,0.11712,-0.013664,12.76625,-4.6375,-3.045,-25.36,15.952001,6.536,concentric,3,3.0,20782.0,143242.0,229710.0,279785.0,262912.0
2026-04-08 21:49:35.688469,238635,1609504147922752,1747889373,1.13216,0.11712,-0.013664,11.235,-4.55875,-1.60125,-25.36,15.952001,6.536,concentric,3,3.0,20782.0,143242.0,229710.0,279785.0,262912.0
2026-04-08 21:49:35.718704,238636,1609504147937246,1747904258,1.020896,0.12688,-0.119072,13.23875,-4.655,0.49,-25.432001,15.960001,8.392,concentric,3,3.0,20782.0,143242.0,229710.0,279785.0,262912.0
2026-04-08 21:49:35.747236,238647,1609504147946551,1747913126,1.071648,0.132736,-0.035136,15.37375,-4.6725,1.26875,-25.656002,15.944001,6.704001,concentric,3,3.0,20536.0,142456.0,229088.0,279484.0,262761.0
2026-04-08 21:49:35.749796,238648,1609504147955542,1747921825,1.071648,0.132736,-0.035136,16.35375,-4.94375,1.1375,-25.656002,15.944001,6.704001,concentric,3,3.0,20536.0,142456.0,229088.0,279484.0,262761.0
2026-04-08 21:49:35.752249,238649,1609504147970011,1747936745,1.081408,0.179584,0.033184,14.3675,-5.1625,1.32125,-25.312,15.952001,7.8,concentric,3,3.0,20536.0,142456.0,229088.0,279484.0,262761.0
2026-04-08 21:49:35.754734,238650,1609504147979029,1747945445,1.081408,0.179584,0.033184,12.48625,-5.53875,1.995,-25.312,15.952001,7.8,concentric,3,3.0,20536.0,142456.0,229088.0,279484.0,262761.0
2026-04-08 21:49:35.759812,238651,1609504147993573,1747960313,1.0248,0.13664,-0.154208,11.34875,-5.5125,0.48125,-25.592001,15.664001,8.008,concentric,3,3.0,20536.0,142456.0,229088.0,279484.0,262761.0
2026-04-08 21:49:35.801587,238652,1609504148002528,1747969011,1.0248,0.13664,-0.154208,9.1525,-4.66375,-1.33,-25.592001,15.664001,8.008,concentric,3,3.0,20536.0,142456.0,229088.0,279484.0,262761.0
2026-04-08 21:49:35.805297,238653,1609504148011477,1747977701,1.097024,0.140544,-0.02928,8.225,-4.34,3.29875,-25.104002,15.872001,7.56,concentric,3,3.0,20536.0,142456.0,229088.0,279484.0,262761.0
2026-04-08 21:49:35.807223,238654,1609504148025966,1747992555,1.081408,0.183488,0.025376,8.09375,-3.7625,9.17875,-25.376001,15.552001,6.504,concentric,3,3.0,20536.0,142456.0,229088.0,279484.0,262761.0
2026-04-08 21:49:35.809752,238655,1609504148034831,1748001210,1.081408,0.183488,0.025376,3.66625,-2.70375,6.93875,-25.376001,15.552001,6.504,concentric,3,3.0,20536.0,142456.0,229088.0,279484.0,262761.0
2026-04-08 21:49:35.846069,238666,1609504148049660,1748016198,0.983808,0.162016,-0.011712,0.875,-2.03875,4.935,-25.28,15.752001,8.0,concentric,3,3.0,20332.0,141850.0,228497.0,279104.0,262584.0
2026-04-08 21:49:35.848502,238667,1609504148058608,1748024898,0.983808,0.162016,-0.011712,0.3675,-2.2575,7.44625,-25.28,15.752001,8.0,concentric,3,3.0,20332.0,141850.0,228497.0,279104.0,262584.0
2026-04-08 21:49:35.850998,238668,1609504148073124,1748039828,0.999424,0.11712,-0.052704,0.88375,-1.925,8.1375,-24.896002,16.28,6.752,concentric,3,3.0,20332.0,141850.0,228497.0,279104.0,262584.0
2026-04-08 21:49:35.853489,238669,1609504148082107,1748048509,0.999424,0.11712,-0.052704,2.5725,-2.275,7.00875,-24.896002,16.28,6.752,concentric,3,3.0,20332.0,141850.0,228497.0,279104.0,262584.0
2026-04-08 21:49:35.855998,238670,1609504148091051,1748057229,1.089216,0.101504,-0.003904,5.1975,-2.70375,5.075,-24.976002,16.008001,6.688,concentric,3,3.0,20332.0,141850.0,228497.0,279104.0,262584.0
2026-04-08 21:49:35.887132,238671,1609504148105507,1748072098,1.026752,0.132736,-0.0488,6.92125,-2.975,2.2925,-25.216002,15.800001,7.824,concentric,3,3.0,20332.0,141850.0,228497.0,279104.0,262584.0
2026-04-08 21:49:35.889372,238672,1609504148114419,1748080754,1.026752,0.132736,-0.0488,6.15125,-2.45,0.8225,-25.216002,15.800001,7.824,concentric,3,3.0,20332.0,141850.0,228497.0,279104.0,262584.0
