pc_time,serial_num,sensor_ts,host_ts,ax,ay,az,gx,gy,gz,mx,my,mz,phase,rpe,weight_kg,ppg_a,ppg_b,ppg_c,ppg_d,ppg_e
2026-04-09 22:35:31.194674,511373,3061047821,3061049264,-1.061888,0.085888,0.054656,6.8075,3.66625,-7.1225,18.248001,-29.624,40.072002,none,7,5.0,32863.0,403431.0,158366.0,21346.0,-107.0
2026-04-09 22:35:31.197159,511374,3061062304,3061064192,-1.061888,0.085888,0.054656,6.965,3.82375,-6.69375,17.104,-29.624,40.072002,none,7,5.0,32863.0,403431.0,158366.0,21346.0,-107.0
2026-04-09 22:35:31.200464,511375,3061071203,3061072880,-1.059936,0.089792,0.0488,6.86875,4.0425,-6.37875,17.352001,-30.456001,40.672,none,7,5.0,32863.0,403431.0,158366.0,21346.0,-107.0
2026-04-09 22:35:31.202696,511376,3061080134,3061081572,-1.059936,0.089792,0.0488,6.57125,3.98125,-5.97625,17.352001,-30.456001,40.672,none,7,5.0,32863.0,403431.0,158366.0,21346.0,-107.0
2026-04-09 22:35:31.204731,511377,3061094601,3061096508,-1.065792,0.0976,0.044896,6.67625,4.3925,-5.88875,17.624,-30.408,39.896004,none,7,5.0,32863.0,403431.0,158366.0,21346.0,-107.0
2026-04-09 22:35:31.207225,511378,3061103529,3061105235,-1.065792,0.0976,0.044896,6.9475,3.8325,-5.7925,17.624,-30.408,39.896004,none,7,5.0,32863.0,403431.0,158366.0,21346.0,-107.0
2026-04-09 22:35:31.209677,511379,3061112538,3061114010,-1.067744,0.093696,0.042944,6.83375,3.2375,-5.74875,16.504002,-29.920002,41.832,none,7,5.0,32863.0,403431.0,158366.0,21346.0,-107.0
2026-04-09 22:35:31.212178,511380,3061127050,3061128945,-1.067744,0.093696,0.042944,6.76375,3.33375,-6.15125,16.504002,-29.920002,41.832,none,7,5.0,32863.0,403431.0,158366.0,21346.0,-107.0
2026-04-09 22:35:31.218525,511381,3061135942,3061137640,-1.069696,0.08784,0.035136,6.02875,3.3075,-6.37875,16.912,-29.544,41.376003,none,7,5.0,32863.0,403431.0,158366.0,21346.0,-107.0
2026-04-09 22:35:31.250663,511392,3061145215,3061146530,-1.069696,0.08784,0.035136,5.92375,3.12375,-6.15125,16.912,-29.544,41.376003,none,7,5.0,32794.0,403431.0,158979.0,21947.0,-104.0
2026-04-09 22:35:31.252137,511393,3061154335,3061155356,-1.067744,0.089792,0.040992,5.74,2.765,-6.23,16.880001,-29.904001,41.368004,none,7,5.0,32794.0,403431.0,158979.0,21947.0,-104.0
2026-04-09 22:35:31.254639,511394,3061168847,3061170315,-1.081408,0.099552,0.040992,5.38125,2.65125,-6.335,16.536001,-29.944002,40.824,none,7,5.0,32794.0,403431.0,158979.0,21947.0,-104.0
2026-04-09 22:35:31.295817,511395,3061177811,3061179110,-1.081408,0.099552,0.040992,5.285,2.73,-6.13375,16.536001,-29.944002,40.824,none,7,5.0,32794.0,403431.0,158979.0,21947.0,-104.0
2026-04-09 22:35:31.300673,511396,3061186716,3061187840,-1.081408,0.099552,0.040992,4.99625,2.5025,-6.06375,16.536001,-29.944002,40.824,none,7,5.0,32794.0,403431.0,158979.0,21947.0,-104.0
2026-04-09 22:35:31.306447,511397,3061201212,3061202700,-1.065792,0.0976,0.02928,4.445,3.0625,-6.4225,17.160002,-30.304,40.576,none,7,5.0,32794.0,403431.0,158979.0,21947.0,-104.0
2026-04-09 22:35:31.308133,511398,3061210149,3061211393,-1.065792,0.093696,0.044896,4.0075,3.6225,-6.90375,17.808,-30.384,40.568,none,7,5.0,32794.0,403431.0,158979.0,21947.0,-104.0
2026-04-09 22:35:31.309745,511399,3061219048,3061220151,-1.065792,0.093696,0.044896,3.815,4.24375,-6.57125,17.808,-30.384,40.568,none,7,5.0,32794.0,403431.0,158979.0,21947.0,-104.0
2026-04-09 22:35:31.317900,511400,3061233571,3061235074,-1.067744,0.0976,0.037088,3.57875,4.20875,-6.6675,17.896,-30.480001,40.72,none,7,5.0,32794.0,403431.0,158979.0,21947.0,-104.0
2026-04-09 22:35:31.346098,511401,3061242514,3061243774,-1.067744,0.0976,0.037088,3.5175,4.7425,-7.09625,17.896,-30.480001,40.72,none,7,5.0,32794.0,403431.0,158979.0,21947.0,-104.0
2026-04-09 22:35:31.372178,511411,3061251473,3061252527,-1.071648,0.103456,0.037088,3.12375,4.97,-7.4375,17.800001,-30.000002,40.368,none,7,5.0,32762.0,403431.0,159361.0,22296.0,-105.0
2026-04-09 22:35:31.374671,511412,3061260409,3061261214,-1.071648,0.103456,0.037088,2.9925,4.795,-8.12875,17.800001,-30.000002,40.368,none,7,5.0,32762.0,403431.0,159361.0,22296.0,-105.0
2026-04-09 22:35:31.377183,511413,3061274942,3061276098,-1.077504,0.103456,0.03904,3.19375,4.71625,-8.6625,18.184,-29.488,40.2,none,7,5.0,32762.0,403431.0,159361.0,22296.0,-105.0
2026-04-09 22:35:31.379664,511414,3061283884,3061284817,-1.077504,0.103456,0.03904,3.045,4.7775,-8.72375,18.184,-29.488,40.2,none,7,5.0,32762.0,403431.0,159361.0,22296.0,-105.0
2026-04-09 22:35:31.382190,511415,3061292977,3061293584,-1.05408,0.091744,0.044896,3.00125,4.27875,-8.96,17.296001,-30.448002,40.488003,none,7,5.0,32762.0,403431.0,159361.0,22296.0,-105.0
2026-04-09 22:35:31.412380,511416,3061307914,3061308505,-1.05408,0.091744,0.044896,2.28375,3.9025,-9.073751,17.296001,-30.448002,40.488003,none,7,5.0,32762.0,403431.0,159361.0,22296.0,-105.0
2026-04-09 22:35:31.415951,511417,3061317098,3061319252,-1.085312,0.089792,0.025376,1.39125,4.55875,-8.14625,17.752,-29.856,40.208,none,7,5.0,32762.0,403431.0,159361.0,22296.0,-105.0
2026-04-09 22:35:31.418427,511418,3061326028,3061327962,-1.085312,0.089792,0.025376,0.48125,4.47125,-7.735,17.752,-29.856,40.208,none,7,5.0,32762.0,403431.0,159361.0,22296.0,-105.0
2026-04-09 22:35:31.420964,511419,3061334971,3061336674,-1.06384,0.074176,0.033184,0.1225,4.27,-7.14,17.808,-29.920002,39.752003,none,7,5.0,32762.0,403431.0,159361.0,22296.0,-105.0
2026-04-09 22:35:31.483439,511429,3061349690,3061351789,-1.065792,0.070272,0.023424,0.98,4.06,-6.965,17.832,-29.832,39.160004,none,7,5.0,32721.0,403431.0,160169.0,23060.0,-107.0
2026-04-09 22:35:31.485953,511430,3061358628,3061360556,-1.065792,0.070272,0.023424,2.54625,3.73625,-7.04375,17.832,-29.832,39.160004,none,7,5.0,32721.0,403431.0,160169.0,23060.0,-107.0
2026-04-09 22:35:31.488489,511431,3061367572,3061369266,-1.065792,0.070272,0.023424,3.71,3.77125,-6.3875,17.832,-29.832,39.160004,none,7,5.0,32721.0,403431.0,160169.0,23060.0,-107.0
2026-04-09 22:35:31.490946,511432,3061382078,3061384156,-1.050176,0.08784,0.027328,4.45375,3.465,-5.59125,17.6,-30.160002,42.232002,none,7,5.0,32721.0,403431.0,160169.0,23060.0,-107.0
2026-04-09 22:35:31.493448,511433,3061391025,3061392914,-1.048224,0.074176,0.025376,3.89375,3.50875,-5.5825,17.400002,-29.968002,40.992,none,7,5.0,32721.0,403431.0,160169.0,23060.0,-107.0
2026-04-09 22:35:31.495949,511434,3061399971,3061401661,-1.048224,0.074176,0.025376,3.22875,3.78875,-5.46875,17.400002,-29.968002,40.992,none,7,5.0,32721.0,403431.0,160169.0,23060.0,-107.0
2026-04-09 22:35:31.498424,511435,3061414680,3061416548,-1.06384,0.080032,0.015616,3.56125,4.165,-5.53,17.256,-29.536001,40.904003,none,7,5.0,32721.0,403431.0,160169.0,23060.0,-107.0
2026-04-09 22:35:31.528684,511436,3061423768,3061425335,-1.06384,0.080032,0.015616,3.87625,3.92875,-5.6175,17.256,-29.536001,40.904003,none,7,5.0,32721.0,403431.0,160169.0,23060.0,-107.0
2026-04-09 22:35:31.532223,511437,3061432738,3061434031,-1.057984,0.083936,0.037088,4.235,3.255,-5.915,17.216002,-30.112001,41.248,none,7,5.0,32721.0,403431.0,160169.0,23060.0,-107.0
2026-04-09 22:35:31.534679,511438,3061441682,3061442740,-1.057984,0.083936,0.037088,4.655,3.22875,-5.60875,17.216002,-30.112001,41.248,none,7,5.0,32721.0,403431.0,160169.0,23060.0,-107.0
2026-04-09 22:35:31.573386,511449,3061456260,3061457726,-1.036512,0.076128,0.046848,4.6025,3.31625,-5.67875,17.864,-30.032001,40.208,none,7,5.0,32720.0,403431.0,160154.0,23106.0,-103.0
2026-04-09 22:35:31.576036,511450,3061465265,3061466496,-1.036512,0.076128,0.046848,4.40125,3.745,-5.81875,17.864,-30.032001,40.208,none,7,5.0,32720.0,403431.0,160154.0,23106.0,-103.0
2026-04-09 22:35:31.578448,511451,3061474162,3061475231,-1.046272,0.083936,0.035136,4.4625,4.55,-6.125,17.696001,-29.840002,40.016003,none,7,5.0,32720.0,403431.0,160154.0,23106.0,-103.0
2026-04-09 22:35:31.584718,511452,3061488720,3061490172,-1.046272,0.083936,0.035136,5.11875,5.15375,-6.08125,17.696001,-29.840002,40.016003,none,7,5.0,32720.0,403431.0,160154.0,23106.0,-103.0
2026-04-09 22:35:31.587193,511453,3061497656,3061498891,-1.050176,0.07808,0.027328,4.17375,5.705,-6.65,17.432001,-30.568,41.048,none,7,5.0,32720.0,403431.0,160154.0,23106.0,-103.0
2026-04-09 22:35:31.589695,511454,3061506569,3061507637,-1.050176,0.07808,0.027328,3.5525,6.23,-6.825,17.432001,-30.568,41.048,none,7,5.0,32720.0,403431.0,160154.0,23106.0,-103.0
2026-04-09 22:35:31.620920,511455,3061521073,3061522597,-1.040416,0.074176,0.03904,3.4475,6.67625,-7.0,17.072,-30.104002,40.968002,none,7,5.0,32720.0,403431.0,160154.0,23106.0,-103.0
2026-04-09 22:35:31.623105,511456,3061529994,3061531334,-1.038464,0.046848,0.02928,4.62,6.51,-7.30625,17.272001,-30.2,40.976,none,7,5.0,32720.0,403431.0,160154.0,23106.0,-103.0
2026-04-09 22:35:31.627832,511457,3061538951,3061540052,-1.038464,0.046848,0.02928,5.53,7.0525,-8.04125,17.272001,-30.2,40.976,none,7,5.0,32720.0,403431.0,160154.0,23106.0,-103.0
2026-04-09 22:35:31.654418,511467,3061548316,3061548923,-1.038464,0.046848,0.02928,6.6675,7.875,-8.39125,17.272001,-30.2,40.976,none,7,5.0,32652.0,403431.0,160036.0,23139.0,-96.0
2026-04-09 22:35:31.655970,511468,3061563291,3061563928,-1.026752,0.074176,0.040992,10.45625,7.805,-8.8025,17.688002,-30.000002,37.144,none,7,5.0,32652.0,403431.0,160036.0,23139.0,-96.0
2026-04-09 22:35:31.660140,511469,3061572567,3061574684,-0.98576,0.111264,0.027328,14.25375,7.95375,-10.36875,18.2,-30.12,39.136,none,7,5.0,32652.0,403431.0,160036.0,23139.0,-96.0
2026-04-09 22:35:31.666350,511470,3061581515,3061583386,-0.98576,0.111264,0.027328,13.16875,8.93375,-11.5325,18.2,-30.12,39.136,none,7,5.0,32652.0,403431.0,160036.0,23139.0,-96.0
2026-04-09 22:35:31.694896,511471,3061590460,3061592122,-0.972096,0.074176,0.011712,7.7175,10.1325,-11.6025,17.12,-30.248001,39.184002,none,7,5.0,32652.0,403431.0,160036.0,23139.0,-96.0
2026-04-09 22:35:31.699422,511472,3061604943,3061607014,-0.972096,0.074176,0.011712,2.065,11.375,-12.355001,17.12,-30.248001,39.184002,none,7,5.0,32652.0,403431.0,160036.0,23139.0,-96.0
2026-04-09 22:35:31.701009,511473,3061613866,3061615708,-0.999424,0.040992,0.0,-0.44625,13.0025,-13.475,18.184,-29.824001,39.456,none,7,5.0,32652.0,403431.0,160036.0,23139.0,-96.0
2026-04-09 22:35:31.707679,511474,3061622795,3061624450,-0.999424,0.040992,0.0,0.39375,13.125,-13.86875,18.184,-29.824001,39.456,none,7,5.0,32652.0,403431.0,160036.0,23139.0,-96.0
2026-04-09 22:35:31.759591,511475,3061637290,3061639372,-0.98576,0.054656,0.015616,1.925,12.285,-13.13375,16.84,-29.936,40.312,none,7,5.0,32652.0,403431.0,160036.0,23139.0,-96.0
2026-04-09 22:35:31.787186,511485,3061646223,3061648116,-0.98576,0.054656,0.015616,4.10375,11.305,-13.02,16.84,-29.936,40.312,none,7,5.0,32493.0,403431.0,160217.0,23524.0,-93.0
2026-04-09 22:35:31.791552,511486,3061655644,3061656866,-0.997472,0.0976,0.01952,5.565,10.8675,-13.58875,18.296001,-29.880001,39.24,none,7,5.0,32493.0,403431.0,160217.0,23524.0,-93.0
2026-04-09 22:35:31.793340,511487,3061670090,3061671760,-1.00528,0.081984,0.011712,4.57625,11.50625,-13.97375,18.296001,-29.880001,37.824,none,7,5.0,32493.0,403431.0,160217.0,23524.0,-93.0
2026-04-09 22:35:31.794780,511488,3061678998,3061680447,-1.00528,0.081984,0.011712,0.04375,12.6875,-13.9825,18.384,-29.808,37.824,none,7,5.0,32493.0,403431.0,160217.0,23524.0,-93.0
2026-04-09 22:35:31.799810,511489,3061687934,3061689204,-1.00528,0.081984,0.011712,-5.11875,13.85125,-14.02625,18.384,-29.808,37.824,none,7,5.0,32493.0,403431.0,160217.0,23524.0,-93.0
2026-04-09 22:35:31.800862,511490,3061702455,3061704180,-1.0248,0.054656,-0.017568,-7.49875,15.33,-14.105001,18.560001,-29.376001,41.88,none,7,5.0,32493.0,403431.0,160217.0,23524.0,-93.0
2026-04-09 22:35:31.802403,511491,3061711515,3061712981,-1.0248,0.037088,-0.013664,-7.70875,16.52,-15.417501,18.368,-29.088001,40.248,none,7,5.0,32493.0,403431.0,160217.0,23524.0,-93.0
2026-04-09 22:35:31.806314,511492,3061720494,3061721781,-1.0248,0.037088,-0.013664,-5.985,16.82625,-15.61,18.368,-29.088001,40.248,concentric,7,5.0,32493.0,403431.0,160217.0,23524.0,-93.0
2026-04-09 22:35:31.812609,511493,3061729410,3061730503,-1.0248,0.037088,-0.013664,-4.41875,17.36875,-14.7875,18.368,-29.088001,40.248,concentric,7,5.0,32493.0,403431.0,160217.0,23524.0,-93.0
2026-04-09 22:35:31.841170,511494,3061743892,3061745463,-0.999424,0.046848,-0.01952,-3.3425,18.01625,-14.533751,18.312,-29.768002,40.424004,concentric,7,5.0,32493.0,403431.0,160217.0,23524.0,-93.0
2026-04-09 22:35:31.875783,511505,3061752880,3061754287,-1.01504,0.070272,-0.060512,-2.30125,19.39,-15.12875,19.112001,-29.392002,38.992,concentric,7,5.0,32391.0,403431.0,160132.0,23569.0,-97.0
2026-04-09 22:35:31.878389,511506,3061761825,3061762997,-1.01504,0.070272,-0.060512,-2.98375,19.95,-15.82875,19.112001,-29.392002,38.992,concentric,7,5.0,32391.0,403431.0,160132.0,23569.0,-97.0
2026-04-09 22:35:31.878491,511507,3061776330,3061777951,-1.03456,0.066368,-0.033184,-3.6575,19.97625,-16.96625,19.152,-29.560001,39.832,concentric,7,5.0,32391.0,403431.0,160132.0,23569.0,-97.0
2026-04-09 22:35:31.881956,511508,3061785254,3061786698,-1.03456,0.066368,-0.033184,-5.1625,19.495,-18.52375,19.152,-29.560001,39.832,concentric,7,5.0,32391.0,403431.0,160132.0,23569.0,-97.0
2026-04-09 22:35:31.883817,511509,3061794185,3061795402,-1.032608,0.015616,-0.02928,-6.3875,19.635,-19.6,18.872002,-29.2,40.056004,concentric,7,5.0,32391.0,403431.0,160132.0,23569.0,-97.0
2026-04-09 22:35:31.914571,511510,3061808708,3061810397,-1.032608,0.015616,-0.02928,-6.29125,19.39,-19.64375,18.872002,-29.2,40.056004,concentric,7,5.0,32391.0,403431.0,160132.0,23569.0,-97.0
2026-04-09 22:35:31.916908,511511,3061817627,3061819092,-1.032608,0.01952,-0.005856,-5.53875,19.27625,-18.445,19.072,-29.104002,39.744003,concentric,7,5.0,32391.0,403431.0,160132.0,23569.0,-97.0
2026-04-09 22:35:31.921476,511512,3061826521,3061827789,-1.032608,0.01952,-0.005856,-2.94875,19.29375,-17.5525,19.072,-29.104002,39.744003,concentric,7,5.0,32391.0,403431.0,160132.0,23569.0,-97.0
2026-04-09 22:35:31.923971,511513,3061835490,3061836540,-1.026752,0.042944,-0.025376,-0.3675,19.36375,-17.5175,20.160002,-28.720001,38.752003,concentric,7,5.0,32391.0,403431.0,160132.0,23569.0,-97.0
2026-04-09 22:35:31.953159,511523,3061850130,3061851545,-1.026752,0.042944,-0.025376,0.5775,18.73375,-17.77125,20.160002,-28.720001,38.752003,concentric,7,5.0,32241.0,403431.0,161310.0,24818.0,-108.0
2026-04-09 22:35:31.954467,511524,3061859115,3061860286,-1.052128,0.064416,-0.050752,0.69125,18.59375,-19.04,20.768002,-28.608002,38.984,concentric,7,5.0,32241.0,403431.0,161310.0,24818.0,-108.0
2026-04-09 22:35:31.956999,511525,3061868181,3061869108,-1.052128,0.064416,-0.050752,-1.4175,18.585001,-20.41375,20.768002,-28.608002,38.984,concentric,7,5.0,32241.0,403431.0,161310.0,24818.0,-108.0
2026-04-09 22:35:31.986135,511526,3061882672,3061884046,-1.050176,0.015616,-0.01952,-4.8125,17.61375,-19.88,19.448002,-29.408,39.824,concentric,7,5.0,32241.0,403431.0,161310.0,24818.0,-108.0
2026-04-09 22:35:31.990676,511527,3061891584,3061892748,-1.020896,-0.031232,0.013664,-7.30625,16.73875,-18.31375,20.888,-29.112001,38.456,concentric,7,5.0,32241.0,403431.0,161310.0,24818.0,-108.0
2026-04-09 22:35:31.993025,511528,3061900495,3061901462,-1.020896,-0.031232,0.013664,-7.48125,15.995,-16.58125,20.888,-29.112001,38.456,concentric,7,5.0,32241.0,403431.0,161310.0,24818.0,-108.0
2026-04-09 22:35:31.998929,511529,3061914977,3061916344,-1.046272,0.033184,-0.021472,-4.66375,16.02125,-14.25375,21.456001,-28.816002,38.624,concentric,7,5.0,32241.0,403431.0,161310.0,24818.0,-108.0
2026-04-09 22:35:32.059595,511530,3061923914,3061925052,-1.046272,0.033184,-0.021472,-0.455,15.88125,-13.16,21.456001,-28.816002,38.624,concentric,7,5.0,32241.0,403431.0,161310.0,24818.0,-108.0
2026-04-09 22:35:32.061861,511531,3061932859,3061933747,-1.038464,0.054656,-0.056608,1.05,14.79625,-12.3025,21.072,-28.400002,38.192,concentric,7,5.0,32241.0,403431.0,161310.0,24818.0,-108.0
2026-04-09 22:35:32.087371,511541,3061947306,3061948842,-1.038464,0.054656,-0.056608,-0.1575,13.8425,-12.04,21.072,-28.400002,38.192,concentric,7,5.0,32145.0,403431.0,162548.0,26027.0,-84.0
2026-04-09 22:35:32.089810,511542,3061956229,3061957544,-1.030656,-0.005856,-0.046848,-1.93375,13.125,-11.87375,20.728,-28.760002,38.320004,concentric,7,5.0,32145.0,403431.0,162548.0,26027.0,-84.0
2026-04-09 22:35:32.094035,511543,3061965179,3061966222,-1.030656,-0.005856,-0.046848,-3.5175,10.59625,-11.59375,20.728,-28.760002,38.320004,concentric,7,5.0,32145.0,403431.0,162548.0,26027.0,-84.0
2026-04-09 22:35:32.095754,511544,3061974099,3061974936,-1.018944,-0.021472,-0.021472,-4.7425,8.81125,-10.0625,21.288,-28.824001,38.216003,concentric,7,5.0,32145.0,403431.0,162548.0,26027.0,-84.0
2026-04-09 22:35:32.097278,511545,3061988724,3061989875,-1.018944,-0.021472,-0.021472,-3.12375,7.84,-7.07,21.288,-28.824001,38.216003,concentric,7,5.0,32145.0,403431.0,162548.0,26027.0,-84.0
2026-04-09 22:35:32.101496,511546,3061997750,3061998677,-1.026752,0.00976,-0.050752,2.24,6.79875,-5.6,22.128,-28.640001,38.088,concentric,7,5.0,32145.0,403431.0,162548.0,26027.0,-84.0
2026-04-09 22:35:32.103223,511547,3062006701,3062007472,-1.026752,0.00976,-0.050752,6.8775,6.5625,-4.9875,22.128,-28.640001,38.088,concentric,7,5.0,32145.0,403431.0,162548.0,26027.0,-84.0
2026-04-09 22:35:32.104895,511548,3062021742,3062022416,-1.069696,0.056608,-0.066368,10.24625,5.71375,-3.78,21.256,-28.688002,38.088,concentric,7,5.0,32145.0,403431.0,162548.0,26027.0,-84.0
2026-04-09 22:35:32.138388,511549,3062031036,3062033190,-1.069696,0.025376,-0.060512,11.2175,5.0225,-2.9225,21.256,-28.688002,38.088,concentric,7,5.0,32145.0,403431.0,162548.0,26027.0,-84.0
2026-04-09 22:35:32.141094,511550,3062039978,3062041882,-1.075552,0.01952,-0.060512,10.955,3.45625,-3.5175,21.608002,-28.848001,37.568,concentric,7,5.0,32145.0,403431.0,162548.0,26027.0,-84.0
2026-04-09 22:35:32.173243,511561,3062049246,3062050584,-1.075552,0.01952,-0.060512,10.31625,1.6625,-3.19375,21.608002,-28.848001,37.568,concentric,7,5.0,32167.0,403431.0,162264.0,25730.0,-85.0
2026-04-09 22:35:32.174921,511562,3062063758,3062065540,-1.048224,0.025376,-0.021472,11.4625,0.91875,-3.1325,21.384,-28.952002,36.04,concentric,7,5.0,32167.0,403431.0,162264.0,25730.0,-85.0
2026-04-09 22:35:32.179010,511563,3062072697,3062074286,-1.050176,0.062464,-0.015616,14.4375,1.295,-3.535,21.952002,-29.152002,39.712,concentric,7,5.0,32167.0,403431.0,162264.0,25730.0,-85.0
2026-04-09 22:35:32.180780,511564,3062081806,3062083032,-1.050176,0.062464,-0.015616,13.86875,2.24875,-4.76,21.952002,-29.152002,39.712,concentric,7,5.0,32167.0,403431.0,162264.0,25730.0,-85.0
2026-04-09 22:35:32.182297,511565,3062096314,3062097924,-1.095072,0.062464,-0.08784,9.3625,2.9575,-5.32,21.224,-29.032001,38.760002,concentric,7,5.0,32167.0,403431.0,162264.0,25730.0,-85.0
2026-04-09 22:35:32.188102,511566,3062105258,3062106690,-1.095072,0.062464,-0.08784,3.0625,3.4125,-5.76625,21.224,-29.032001,38.760002,concentric,7,5.0,32167.0,403431.0,162264.0,25730.0,-85.0
2026-04-09 22:35:32.199004,511567,3062114181,3062115413,-1.118496,0.00976,-0.06832,-4.82125,2.8875,-6.615,20.904001,-28.656002,38.992,concentric,7,5.0,32167.0,403431.0,162264.0,25730.0,-85.0
2026-04-09 22:35:32.226349,511568,3062123105,3062124219,-1.118496,0.00976,-0.06832,-6.97375,1.6625,-6.39625,20.904001,-28.656002,38.992,concentric,7,5.0,32167.0,403431.0,162264.0,25730.0,-85.0
2026-04-09 22:35:32.230694,511569,3062137622,3062139104,-1.085312,0.005856,-0.01952,-3.64,0.3325,-6.51,21.720001,-28.512001,38.08,concentric,7,5.0,32167.0,403431.0,162264.0,25730.0,-85.0
2026-04-09 22:35:32.232203,511570,3062146490,3062147790,-1.085312,0.005856,-0.01952,0.56,-0.46375,-6.23,21.720001,-28.512001,38.08,concentric,7,5.0,32167.0,403431.0,162264.0,25730.0,-85.0
2026-04-09 22:35:32.325816,511580,3062155438,3062156607,-1.118496,0.044896,-0.040992,2.52875,-0.8575,-5.92375,20.704,-28.864002,39.272003,concentric,7,5.0,32230.0,403431.0,161602.0,24986.0,-96.0
2026-04-09 22:35:32.328707,511581,3062170042,3062171569,-1.118496,0.044896,-0.040992,2.52,-1.04125,-5.46,20.704,-28.864002,39.272003,concentric,7,5.0,32230.0,403431.0,161602.0,24986.0,-96.0
2026-04-09 22:35:32.369420,511582,3062179055,3062180431,-1.120448,0.054656,-0.044896,4.61125,-1.9775,-5.29375,21.048,-29.072,39.232002,concentric,7,5.0,32230.0,403431.0,161602.0,24986.0,-96.0
2026-04-09 22:35:32.372905,511583,3062188032,3062189163,-1.120448,0.054656,-0.044896,3.85,-3.185,-6.36125,21.048,-29.072,39.232002,concentric,7,5.0,32230.0,403431.0,161602.0,24986.0,-96.0
2026-04-09 22:35:32.373591,511584,3062202552,3062204055,-1.118496,0.013664,-0.031232,2.87,-4.0075,-5.67875,21.608002,-29.264002,38.368,concentric,7,5.0,32230.0,403431.0,161602.0,24986.0,-96.0
2026-04-09 22:35:32.374014,511585,3062211467,3062212769,-1.118496,0.013664,-0.015616,2.75625,-4.41,-4.2525,21.608002,-29.264002,38.368,concentric,7,5.0,32230.0,403431.0,161602.0,24986.0,-96.0
2026-04-09 22:35:32.374270,511586,3062220437,3062221474,-1.089216,-0.007808,-0.003904,3.1325,-5.04875,-3.07125,21.984001,-29.128002,38.088,concentric,7,5.0,32230.0,403431.0,161602.0,24986.0,-96.0
2026-04-09 22:35:32.374539,511587,3062234923,3062236416,-1.06384,0.007808,-0.015616,3.78,-6.09,-1.9425,21.904001,-28.952002,39.424004,concentric,7,5.0,32230.0,403431.0,161602.0,24986.0,-96.0
2026-04-09 22:35:32.375111,511588,3062243844,3062245122,-1.06384,0.007808,-0.015616,6.405,-6.615,-1.89875,21.904001,-28.952002,39.424004,concentric,7,5.0,32230.0,403431.0,161602.0,24986.0,-96.0
2026-04-09 22:35:32.393437,511598,3062253395,3062253889,-1.057984,0.070272,-0.025376,8.75,-6.58875,-2.70375,21.448002,-29.000002,38.4,concentric,7,5.0,32353.0,403431.0,160680.0,24170.0,-92.0
2026-04-09 22:35:32.395979,511599,3062262913,3062264671,-1.057984,0.070272,-0.025376,9.2575,-7.105,-1.89,21.448002,-29.000002,38.4,concentric,7,5.0,32353.0,403431.0,160680.0,24170.0,-92.0
2026-04-09 22:35:32.407180,511600,3062277402,3062279558,-1.048224,0.066368,-0.017568,7.4725,-7.72625,-1.8025,21.824001,-29.024002,38.096,concentric,7,5.0,32353.0,403431.0,160680.0,24170.0,-92.0
2026-04-09 22:35:32.409684,511601,3062286302,3062288287,-1.048224,0.066368,-0.017568,6.43125,-7.16625,-3.29875,21.824001,-29.024002,38.096,concentric,7,5.0,32353.0,403431.0,160680.0,24170.0,-92.0
2026-04-09 22:35:32.412182,511602,3062295245,3062297051,-1.056032,0.062464,-0.035136,5.53875,-6.57125,-3.675,19.976002,-29.04,40.448,concentric,7,5.0,32353.0,403431.0,160680.0,24170.0,-92.0
2026-04-09 22:35:32.414702,511603,3062304284,3062305771,-1.056032,0.062464,-0.035136,4.3925,-6.22125,-3.4125,19.976002,-29.04,40.448,concentric,7,5.0,32353.0,403431.0,160680.0,24170.0,-92.0
2026-04-09 22:35:32.417323,511604,3062318803,3062320764,-1.057984,0.052704,-0.037088,2.0125,-5.73125,-3.9725,19.984001,-29.04,40.024002,concentric,7,5.0,32353.0,403431.0,160680.0,24170.0,-92.0
2026-04-09 22:35:32.423661,511605,3062327736,3062329483,-1.057984,0.052704,-0.037088,1.9075,-5.6525,-3.94625,19.984001,-29.04,40.024002,concentric,7,5.0,32353.0,403431.0,160680.0,24170.0,-92.0
2026-04-09 22:35:32.426019,511606,3062336692,3062338178,-1.050176,0.040992,-0.02928,2.4675,-6.0375,-5.04875,20.632002,-29.472002,39.352,concentric,7,5.0,32353.0,403431.0,160680.0,24170.0,-92.0
2026-04-09 22:35:32.453575,511616,3062351889,3062353349,-1.050176,0.040992,-0.02928,4.27875,-5.67875,-7.13125,20.632002,-29.472002,39.352,concentric,7,5.0,32434.0,403431.0,160681.0,24141.0,-97.0
2026-04-09 22:35:32.456023,511617,3062361007,3062362133,-1.061888,0.056608,-0.064416,5.88875,-4.19125,-7.14,21.416,-29.288002,38.088,concentric,7,5.0,32434.0,403431.0,160681.0,24141.0,-97.0
2026-04-09 22:35:32.458510,511618,3062369941,3062370828,-1.061888,0.056608,-0.064416,5.215,-3.66625,-8.49625,21.416,-29.288002,38.088,concentric,7,5.0,32434.0,403431.0,160681.0,24141.0,-97.0
2026-04-09 22:35:32.460954,511619,3062378931,3062379571,-1.04432,0.033184,-0.037088,4.24375,-3.955,-10.10625,21.896002,-29.024002,38.512,concentric,7,5.0,32434.0,403431.0,160681.0,24141.0,-97.0
2026-04-09 22:35:32.491134,511620,3062393887,3062394497,-1.022848,0.007808,-0.03904,4.50625,-4.3225,-10.31625,21.568,-29.672,38.824,concentric,7,5.0,32434.0,403431.0,160681.0,24141.0,-97.0
2026-04-09 22:35:32.494728,511621,3062403171,3062405249,-1.022848,0.007808,-0.03904,4.40125,-4.01625,-9.835,21.568,-29.672,38.824,concentric,7,5.0,32434.0,403431.0,160681.0,24141.0,-97.0
2026-04-09 22:35:32.497189,511622,3062412106,3062413927,-1.022848,0.007808,-0.03904,3.0975,-3.08,-9.12625,21.568,-29.672,38.824,concentric,7,5.0,32434.0,403431.0,160681.0,24141.0,-97.0
2026-04-09 22:35:32.527450,511623,3062426635,3062428895,-1.026752,0.023424,-0.0488,0.1925,-1.225,-8.54,21.584002,-29.080002,38.952003,concentric,7,5.0,32434.0,403431.0,160681.0,24141.0,-97.0
2026-04-09 22:35:32.530978,511624,3062435576,3062437601,-1.028704,0.023424,-0.033184,-2.695,0.14875,-8.98625,22.064001,-28.856,38.344,concentric,7,5.0,32434.0,403431.0,160681.0,24141.0,-97.0
2026-04-09 22:35:32.533483,511625,3062444498,3062446299,-1.028704,0.023424,-0.033184,-0.6475,0.34125,-10.78,22.064001,-28.856,38.344,concentric,7,5.0,32434.0,403431.0,160681.0,24141.0,-97.0
2026-04-09 22:35:32.595874,511636,3062453562,3062455066,-1.052128,-0.017568,-0.021472,-0.91875,0.42,-11.935,21.320002,-28.952002,39.320004,concentric,7,5.0,32476.0,403431.0,160269.0,23914.0,-97.0
2026-04-09 22:35:32.597401,511637,3062468165,3062470111,-1.052128,-0.017568,-0.021472,-0.98,0.42875,-11.935,21.320002,-28.952002,39.320004,concentric,7,5.0,32476.0,403431.0,160269.0,23914.0,-97.0
2026-04-09 22:35:32.599829,511638,3062477086,3062478803,-1.040416,0.003904,-0.017568,1.75875,-0.39375,-11.095,22.160002,-29.424002,38.288002,concentric,7,5.0,32476.0,403431.0,160269.0,23914.0,-97.0
2026-04-09 22:35:32.604001,511639,3062486000,3062487503,-1.040416,0.003904,-0.017568,5.53875,1.1725,-12.4775,22.160002,-29.424002,38.288002,concentric,7,5.0,32476.0,403431.0,160269.0,23914.0,-97.0
2026-04-09 22:35:32.605666,511640,3062500463,3062502404,-1.05408,0.025376,-0.02928,6.58,1.8025,-13.67625,22.232,-28.952002,38.456,concentric,7,5.0,32476.0,403431.0,160269.0,23914.0,-97.0
2026-04-09 22:35:32.607419,511641,3062509394,3062511189,-1.05408,0.025376,-0.02928,5.20625,2.4325,-14.39375,22.232,-28.952002,38.456,concentric,7,5.0,32476.0,403431.0,160269.0,23914.0,-97.0
2026-04-09 22:35:32.611373,511642,3062518416,3062519961,-1.081408,-0.001952,-0.040992,4.41,2.94875,-15.60125,21.728,-29.344002,38.376003,concentric,7,5.0,32476.0,403431.0,160269.0,23914.0,-97.0
2026-04-09 22:35:32.617671,511643,3062532927,3062534917,-1.081408,-0.001952,-0.027328,3.78875,3.29,-16.4675,21.728,-29.344002,38.376003,concentric,7,5.0,32476.0,403431.0,160269.0,23914.0,-97.0
2026-04-09 22:35:32.661671,511644,3062541889,3062543647,-1.057984,-0.013664,-0.027328,4.59375,2.415,-15.70625,22.768002,-29.432001,36.696003,concentric,7,5.0,32476.0,403431.0,160269.0,23914.0,-97.0
2026-04-09 22:35:32.688629,511654,3062550826,3062552614,-1.057984,-0.013664,-0.027328,4.1125,2.49375,-13.57125,22.768002,-29.432001,36.696003,concentric,7,5.0,32285.0,403431.0,161071.0,24876.0,-90.0
2026-04-09 22:35:32.692761,511655,3062559779,3062561451,-1.08336,-0.01952,-0.027328,4.13875,2.9925,-11.6025,22.368002,-28.968002,38.320004,concentric,7,5.0,32285.0,403431.0,161071.0,24876.0,-90.0
2026-04-09 22:35:32.695587,511656,3062574245,3062576353,-1.134112,0.011712,-0.044896,5.60875,2.86125,-10.84125,23.032001,-29.024002,38.256,concentric,7,5.0,32285.0,403431.0,161071.0,24876.0,-90.0
2026-04-09 22:35:32.700712,511657,3062583162,3062585052,-1.134112,0.011712,-0.044896,8.56625,3.29875,-10.70125,23.032001,-29.024002,38.256,concentric,7,5.0,32285.0,403431.0,161071.0,24876.0,-90.0
2026-04-09 22:35:32.702349,511658,3062592124,3062593785,-1.134112,0.011712,-0.044896,9.82625,3.33375,-9.96625,23.032001,-29.024002,38.256,concentric,7,5.0,32285.0,403431.0,161071.0,24876.0,-90.0
2026-04-09 22:35:32.706469,511659,3062606719,3062608722,-1.159488,0.0,-0.003904,8.93375,3.01,-10.45625,23.2,-29.088001,38.584003,concentric,7,5.0,32285.0,403431.0,161071.0,24876.0,-90.0
2026-04-09 22:35:32.708207,511660,3062615673,3062617481,-1.163392,-0.02928,0.035136,10.325,1.995,-10.47375,21.336,-28.856,40.0,concentric,7,5.0,32285.0,403431.0,161071.0,24876.0,-90.0
2026-04-09 22:35:32.710172,511661,3062624578,3062626205,-1.163392,-0.02928,0.035136,13.3,1.6275,-9.8175,21.336,-28.856,40.0,concentric,7,5.0,32285.0,403431.0,161071.0,24876.0,-90.0
2026-04-09 22:35:32.740809,511662,3062639060,3062641097,-1.167296,-0.021472,-0.007808,14.49875,2.61625,-9.065,22.68,-29.296001,37.928,concentric,7,5.0,32285.0,403431.0,161071.0,24876.0,-90.0
2026-04-09 22:35:32.743182,511663,3062647985,3062649800,-1.167296,-0.021472,-0.007808,11.6375,2.38875,-4.06875,22.68,-29.296001,37.928,concentric,7,5.0,32285.0,403431.0,161071.0,24876.0,-90.0
2026-04-09 22:35:32.771144,511673,3062657021,3062658582,-1.116544,-0.046848,-0.035136,11.97875,2.24875,-2.79125,22.872002,-29.080002,38.136,concentric,7,5.0,32106.0,403431.0,162395.0,26251.0,-79.0
2026-04-09 22:35:32.775279,511674,3062671588,3062673504,-1.116544,-0.046848,-0.035136,14.35,2.45875,-3.325,22.872002,-29.080002,38.136,concentric,7,5.0,32106.0,403431.0,162395.0,26251.0,-79.0
2026-04-09 22:35:32.777023,511675,3062680608,3062682285,-1.069696,-0.007808,-0.023424,16.87875,1.995,-0.5425,21.496,-29.960001,38.784,concentric,7,5.0,32106.0,403431.0,162395.0,26251.0,-79.0
2026-04-09 22:35:32.778541,511676,3062689565,3062691034,-1.069696,-0.007808,-0.023424,21.315,0.34125,0.5775,21.496,-29.960001,38.784,concentric,7,5.0,32106.0,403431.0,162395.0,26251.0,-79.0
2026-04-09 22:35:32.782556,511677,3062698562,3062699743,-1.061888,0.00976,-0.023424,25.01625,-0.1225,0.46375,22.008001,-29.592001,38.224003,concentric,7,5.0,32106.0,403431.0,162395.0,26251.0,-79.0
2026-04-09 22:35:32.811101,511678,3062713044,3062714671,-1.061888,0.00976,-0.023424,26.34625,-0.42875,2.77375,22.008001,-29.592001,38.224003,concentric,7,5.0,32106.0,403431.0,162395.0,26251.0,-79.0
2026-04-09 22:35:32.815748,511679,3062721938,3062723348,-1.06384,0.013664,-0.050752,24.1325,0.3325,4.025,23.576,-29.192001,35.456,concentric,7,5.0,32106.0,403431.0,162395.0,26251.0,-79.0
2026-04-09 22:35:32.818069,511680,3062730928,3062732103,-1.06384,0.013664,-0.050752,19.81,0.7,2.4325,23.576,-29.192001,35.456,concentric,7,5.0,32106.0,403431.0,162395.0,26251.0,-79.0
2026-04-09 22:35:32.849824,511681,3062745424,3062747055,-1.077504,0.011712,-0.03904,16.93125,0.72625,0.245,23.112001,-29.632002,37.696003,concentric,7,5.0,32106.0,403431.0,162395.0,26251.0,-79.0
2026-04-09 22:35:32.877056,511692,3062754460,3062755840,-1.026752,-0.001952,0.031232,19.25875,-0.58625,-0.35,23.112001,-30.008001,34.928,concentric,7,5.0,31872.0,403431.0,162648.0,26722.0,-64.0
2026-04-09 22:35:32.878602,511693,3062763526,3062764588,-1.026752,-0.001952,0.031232,19.915,-2.065,-0.46375,23.264002,-30.008001,34.928,concentric,7,5.0,31872.0,403431.0,162648.0,26722.0,-64.0
2026-04-09 22:35:32.882215,511694,3062778140,3062779520,-1.061888,-0.013664,-0.003904,20.7375,-2.6075,-0.07875,22.28,-29.952002,38.104,concentric,7,5.0,31872.0,403431.0,162648.0,26722.0,-64.0
2026-04-09 22:35:32.884425,511695,3062787149,3062788294,-1.061888,-0.013664,-0.003904,25.62875,-2.31,-0.3325,22.28,-29.952002,38.104,concentric,7,5.0,31872.0,403431.0,162648.0,26722.0,-64.0
2026-04-09 22:35:32.887461,511696,3062796220,3062797009,-1.079456,0.042944,-0.013664,28.0525,-2.52,-1.925,21.848001,-29.936,37.832,concentric,7,5.0,31872.0,403431.0,162648.0,26722.0,-64.0
2026-04-09 22:35:32.889306,511697,3062805136,3062805741,-1.079456,0.042944,-0.013664,28.69125,-1.81125,-3.92,21.848001,-29.936,37.832,concentric,7,5.0,31872.0,403431.0,162648.0,26722.0,-64.0
2026-04-09 22:35:32.920225,511698,3062820155,3062820648,-1.173152,0.0,0.035136,23.7825,-0.4375,-7.1925,22.344002,-30.216002,36.952003,concentric,7,5.0,31872.0,403431.0,162648.0,26722.0,-64.0
2026-04-09 22:35:32.922292,511699,3062829504,3062831401,-1.173152,0.0,0.035136,16.56375,-0.455,-10.17625,22.344002,-30.216002,36.952003,concentric,7,5.0,31872.0,403431.0,162648.0,26722.0,-64.0
2026-04-09 22:35:32.958636,511700,3062838437,3062840133,-1.120448,0.007808,0.042944,10.4125,-1.085,-11.59375,23.016,-30.128002,36.504,concentric,7,5.0,31872.0,403431.0,162648.0,26722.0,-64.0
2026-04-09 22:35:32.968642,511701,3062847386,3062848867,-1.120448,0.007808,0.042944,4.90875,-1.96,-12.4775,23.016,-30.128002,36.504,concentric,7,5.0,31872.0,403431.0,162648.0,26722.0,-64.0
2026-04-09 22:35:32.998698,511711,3062861915,3062863820,-1.110688,0.007808,-0.02928,1.3825,-2.45875,-13.11625,23.320002,-30.088001,36.464,concentric,7,5.0,31813.0,403431.0,163689.0,27613.0,-69.0
2026-04-09 22:35:33.000568,511712,3062870834,3062872509,-1.110688,0.007808,-0.02928,-2.555,-0.93625,-14.2975,23.320002,-30.088001,36.464,concentric,7,5.0,31813.0,403431.0,163689.0,27613.0,-69.0
2026-04-09 22:35:33.002818,511713,3062879730,3062881203,-1.159488,0.001952,-0.040992,-5.81,-0.46375,-13.7375,23.288002,-30.304,36.936,concentric,7,5.0,31813.0,403431.0,163689.0,27613.0,-69.0
2026-04-09 22:35:33.004807,511714,3062894234,3062896174,-1.159488,0.001952,0.025376,-6.9825,-0.8575,-13.51,23.288002,-30.304,36.936,concentric,7,5.0,31813.0,403431.0,163689.0,27613.0,-69.0
2026-04-09 22:35:33.007266,511715,3062903176,3062904969,-1.079456,-0.035136,0.025376,-5.53,-1.16375,-14.3325,23.512001,-29.736002,36.992,concentric,7,5.0,31813.0,403431.0,163689.0,27613.0,-69.0
2026-04-09 22:35:33.009769,511716,3062912124,3062913704,-1.079456,-0.035136,0.025376,-0.7525,-0.93625,-14.95375,23.512001,-29.736002,36.992,concentric,7,5.0,31813.0,403431.0,163689.0,27613.0,-69.0
2026-04-09 22:35:33.012257,511717,3062926656,3062928631,-1.0736,0.056608,-0.00976,5.57375,-0.88375,-13.895,22.864,-30.168001,39.08,concentric,7,5.0,31813.0,403431.0,163689.0,27613.0,-69.0
2026-04-09 22:35:33.018582,511718,3062935614,3062937330,-1.126304,0.083936,-0.052704,8.198751,0.09625,-14.533751,22.480001,-29.680002,39.08,concentric,7,5.0,31813.0,403431.0,163689.0,27613.0,-69.0
2026-04-09 22:35:33.048718,511719,3062944531,3062946105,-1.126304,0.083936,-0.052704,3.21125,0.735,-15.09375,22.480001,-29.680002,39.08,concentric,7,5.0,31813.0,403431.0,163689.0,27613.0,-69.0
2026-04-09 22:35:33.074849,511729,3062959157,3062961049,-1.139968,-0.011712,-0.072224,-5.03125,2.0825,-17.0625,24.160002,-29.664001,37.208,concentric,7,5.0,32010.0,403431.0,163361.0,27097.0,-67.0
2026-04-09 22:35:33.077755,511730,3062968087,3062969779,-1.139968,-0.011712,-0.072224,-8.4,2.56375,-19.71375,24.160002,-29.664001,37.208,concentric,7,5.0,32010.0,403431.0,163361.0,27097.0,-67.0
2026-04-09 22:35:33.080652,511731,3062976998,3062978481,-1.116544,0.00976,-0.017568,-5.2675,2.87,-21.49875,22.384,-29.352001,38.536003,concentric,7,5.0,32010.0,403431.0,163361.0,27097.0,-67.0
2026-04-09 22:35:33.082494,511732,3062985949,3062987221,-1.116544,0.00976,-0.017568,1.84625,3.00125,-21.035,22.384,-29.352001,38.536003,concentric,7,5.0,32010.0,403431.0,163361.0,27097.0,-67.0
2026-04-09 22:35:33.087285,511733,3063000459,3063002192,-1.071648,0.005856,0.005856,5.43375,2.14375,-19.36375,23.44,-28.976002,38.016003,concentric,7,5.0,32010.0,403431.0,163361.0,27097.0,-67.0
2026-04-09 22:35:33.092326,511734,3063009450,3063010907,-1.071648,0.005856,0.005856,4.26125,0.90125,-18.57625,23.44,-28.976002,38.016003,concentric,7,5.0,32010.0,403431.0,163361.0,27097.0,-67.0
2026-04-09 22:35:33.124696,511735,3063018383,3063019603,-1.138016,-0.007808,-0.027328,2.56375,1.4175,-19.022501,24.856,-29.184002,37.04,concentric,7,5.0,32010.0,403431.0,163361.0,27097.0,-67.0
2026-04-09 22:35:33.126972,511736,3063032902,3063034480,-1.138016,-0.007808,-0.027328,4.05125,1.9075,-18.4975,24.856,-29.184002,37.04,concentric,7,5.0,32010.0,403431.0,163361.0,27097.0,-67.0
2026-04-09 22:35:33.131555,511737,3063041845,3063043214,-1.153632,-0.01952,-0.044896,6.65875,2.79125,-17.70125,24.744001,-29.376001,36.960003,concentric,7,5.0,32010.0,403431.0,163361.0,27097.0,-67.0
2026-04-09 22:35:33.133332,511738,3063050776,3063051982,-1.153632,-0.01952,-0.044896,6.2475,2.6425,-17.71875,24.744001,-29.376001,36.960003,concentric,7,5.0,32010.0,403431.0,163361.0,27097.0,-67.0
2026-04-09 22:35:33.161841,511749,3063065437,3063066923,-1.09312,-0.03904,0.013664,5.74875,1.98625,-15.39125,23.584002,-29.232002,37.904003,concentric,7,5.0,32081.0,403431.0,162752.0,26505.0,-78.0
2026-04-09 22:35:33.164418,511750,3063074457,3063075802,-1.09312,-0.03904,0.013664,5.5475,1.16375,-14.42,23.584002,-29.232002,37.904003,concentric,7,5.0,32081.0,403431.0,162752.0,26505.0,-78.0
2026-04-09 22:35:33.167655,511751,3063083413,3063084545,-1.085312,-0.01952,0.0,7.98,0.8925,-13.20375,23.928001,-29.392002,38.032,concentric,7,5.0,32081.0,403431.0,162752.0,26505.0,-78.0
2026-04-09 22:35:33.196212,511752,3063097912,3063099506,-1.139968,0.046848,-0.007808,11.375,0.90125,-12.06625,24.352001,-29.328001,37.984,concentric,7,5.0,32081.0,403431.0,162752.0,26505.0,-78.0
2026-04-09 22:35:33.200731,511753,3063106869,3063108217,-1.139968,0.046848,-0.007808,12.4775,2.1875,-12.215,24.352001,-29.328001,37.984,concentric,7,5.0,32081.0,403431.0,162752.0,26505.0,-78.0
2026-04-09 22:35:33.202358,511754,3063115787,3063116919,-1.163392,0.023424,-0.02928,8.98625,3.45625,-13.04625,24.608002,-28.960001,37.056004,concentric,7,5.0,32081.0,403431.0,162752.0,26505.0,-78.0
2026-04-09 22:35:33.208924,511755,3063124713,3063125613,-1.163392,0.023424,-0.02928,1.54,5.06625,-13.09875,24.608002,-28.960001,37.056004,concentric,7,5.0,32081.0,403431.0,162752.0,26505.0,-78.0
2026-04-09 22:35:33.256622,511756,3063139207,3063140562,-1.104832,-0.060512,0.052704,-3.47375,5.2325,-13.440001,24.320002,-28.648,36.616,concentric,7,5.0,32081.0,403431.0,162752.0,26505.0,-78.0
2026-04-09 22:35:33.260501,511757,3063148128,3063149261,-1.104832,-0.060512,0.052704,-4.33125,3.6225,-12.66125,24.320002,-28.648,36.616,concentric,7,5.0,32081.0,403431.0,162752.0,26505.0,-78.0
2026-04-09 22:35:33.283239,511767,3063157657,3063158041,-1.09312,-0.040992,-0.005856,-2.3975,2.17875,-10.50875,25.224,-28.608002,38.656002,concentric,7,5.0,31905.0,403431.0,163319.0,27232.0,-67.0
2026-04-09 22:35:33.284806,511768,3063166940,3063168833,-1.09312,-0.040992,-0.005856,3.9025,1.67125,-10.05375,25.224,-28.608002,38.656002,concentric,7,5.0,31905.0,403431.0,163319.0,27232.0,-67.0
2026-04-09 22:35:33.288995,511769,3063181447,3063183756,-1.18096,-0.005856,-0.035136,5.55625,1.96875,-8.4525,25.232,-29.168001,36.960003,concentric,7,5.0,31905.0,403431.0,163319.0,27232.0,-67.0
2026-04-09 22:35:33.290689,511770,3063190476,3063192522,-1.18096,-0.005856,-0.035136,6.335,2.03,-7.3325,25.232,-29.168001,36.960003,concentric,7,5.0,31905.0,403431.0,163319.0,27232.0,-67.0
2026-04-09 22:35:33.292253,511771,3063199515,3063201240,-1.147776,-0.015616,-0.031232,5.8275,2.24875,-7.65625,25.032001,-29.224,36.992,concentric,7,5.0,31905.0,403431.0,163319.0,27232.0,-67.0
2026-04-09 22:35:33.297692,511772,3063214156,3063216154,-1.147776,-0.015616,-0.031232,0.51625,2.38875,-5.81,25.032001,-29.224,36.992,concentric,7,5.0,31905.0,403431.0,163319.0,27232.0,-67.0
