pc_time,serial_num,sensor_ts,host_ts,ax,ay,az,gx,gy,gz,mx,my,mz,phase,rpe,weight_kg,ppg_a,ppg_b,ppg_c,ppg_d,ppg_e
2026-04-09 22:35:45.646532,514075,3075524546,3075525154,-1.1712,-0.015616,-0.011712,2.87875,3.77125,-5.90625,25.952002,-28.712002,38.896004,eccentric,7,5.0,31358.0,403431.0,169317.0,31900.0,-40.0
2026-04-09 22:35:45.650728,514076,3075539248,3075540347,-1.1712,-0.015616,-0.011712,1.51375,3.5175,-6.615,25.952002,-28.712002,38.896004,eccentric,7,5.0,31358.0,403431.0,169317.0,31900.0,-40.0
2026-04-09 22:35:45.652403,514077,3075548291,3075549085,-1.184864,-0.00976,-0.021472,2.555,3.99,-6.965,25.480001,-28.856,38.408,eccentric,7,5.0,31358.0,403431.0,169317.0,31900.0,-40.0
2026-04-09 22:35:45.654799,514078,3075557219,3075557806,-1.184864,-0.00976,-0.021472,3.96375,4.03375,-5.73125,25.480001,-28.856,38.408,eccentric,7,5.0,31358.0,403431.0,169317.0,31900.0,-40.0
2026-04-09 22:35:45.658900,514079,3075566422,3075568622,-1.198528,-0.01952,-0.054656,2.0475,3.4475,-4.71625,25.992,-28.52,38.960003,eccentric,7,5.0,31358.0,403431.0,169317.0,31900.0,-40.0
2026-04-09 22:35:45.664417,514080,3075581011,3075581539,-1.198528,-0.01952,-0.054656,0.13125,3.3425,-4.34,25.992,-28.52,38.960003,eccentric,7,5.0,31358.0,403431.0,169317.0,31900.0,-40.0
2026-04-09 22:35:45.692868,514081,3075590521,3075592317,-1.192672,-0.027328,-0.021472,1.46125,3.00125,-4.5325,25.368002,-28.768002,39.016003,eccentric,7,5.0,31358.0,403431.0,169317.0,31900.0,-40.0
2026-04-09 22:35:45.697406,514082,3075599426,3075601015,-1.192672,-0.027328,-0.021472,4.4275,2.0125,-4.76,25.368002,-28.768002,39.016003,eccentric,7,5.0,31358.0,403431.0,169317.0,31900.0,-40.0
2026-04-09 22:35:45.698896,514083,3075613935,3075615920,-1.147776,-0.001952,-0.011712,5.3725,1.4175,-4.3225,25.816002,-28.408,38.968002,eccentric,7,5.0,31358.0,403431.0,169317.0,31900.0,-40.0
2026-04-09 22:35:45.730112,514084,3075622939,3075624661,-1.1712,-0.023424,-0.00976,4.26125,0.84875,-4.27875,25.664001,-29.328001,39.2,eccentric,7,5.0,31358.0,403431.0,169317.0,31900.0,-40.0
2026-04-09 22:35:45.756972,514094,3075632078,3075633395,-1.1712,-0.023424,-0.00976,3.77125,1.1725,-4.55,25.664001,-29.328001,39.2,eccentric,7,5.0,31234.0,403431.0,169968.0,32663.0,-29.0
2026-04-09 22:35:45.758712,514095,3075641025,3075642101,-1.1712,-0.023424,-0.00976,2.9575,1.225,-4.17375,25.664001,-29.328001,39.2,eccentric,7,5.0,31234.0,403431.0,169968.0,32663.0,-29.0
2026-04-09 22:35:45.761620,514096,3075655505,3075657044,-1.184864,-0.025376,-0.037088,2.21375,0.77,-2.7825,25.368002,-28.912,38.024002,eccentric,7,5.0,31234.0,403431.0,169968.0,32663.0,-29.0
2026-04-09 22:35:45.764549,514097,3075664534,3075665771,-1.175104,-0.003904,-0.013664,2.40625,0.62125,-2.49375,24.608002,-28.560001,39.800003,eccentric,7,5.0,31234.0,403431.0,169968.0,32663.0,-29.0
2026-04-09 22:35:45.766248,514098,3075674944,3075676656,-1.175104,-0.003904,-0.013664,3.21125,-0.09625,-2.61625,24.608002,-28.560001,39.800003,eccentric,7,5.0,31234.0,403431.0,169968.0,32663.0,-29.0
2026-04-09 22:35:45.768562,514099,3075683993,3075685370,-1.15168,-0.042944,-0.015616,3.255,-1.82,-2.485,24.696001,-28.984001,39.480003,eccentric,7,5.0,31234.0,403431.0,169968.0,32663.0,-29.0
2026-04-09 22:35:45.800131,514100,3075698513,3075700299,-1.15168,-0.042944,-0.015616,3.42125,-1.995,-2.9925,24.696001,-28.984001,39.480003,eccentric,7,5.0,31234.0,403431.0,169968.0,32663.0,-29.0
2026-04-09 22:35:45.801082,514101,3075707483,3075709036,-1.186816,-0.017568,-0.037088,4.19125,-1.26875,-2.4325,25.44,-28.792002,38.648003,eccentric,7,5.0,31234.0,403431.0,169968.0,32663.0,-29.0
2026-04-09 22:35:45.805704,514102,3075716406,3075717741,-1.186816,-0.017568,-0.037088,3.045,-0.7,-2.275,25.44,-28.792002,38.648003,eccentric,7,5.0,31234.0,403431.0,169968.0,32663.0,-29.0
2026-04-09 22:35:45.870156,514112,3075731070,3075732731,-1.167296,0.003904,-0.015616,2.52,-0.83125,-2.94,25.624,-28.968002,40.056004,eccentric,7,5.0,31199.0,403431.0,170475.0,33176.0,-18.0
2026-04-09 22:35:45.874498,514113,3075740055,3075741449,-1.167296,0.003904,-0.015616,0.32375,-0.25375,-2.75625,25.624,-28.968002,40.056004,eccentric,7,5.0,31199.0,403431.0,170475.0,33176.0,-18.0
2026-04-09 22:35:45.876991,514114,3075749038,3075750259,-1.13216,-0.015616,0.00976,-3.29,-0.455,-2.89625,24.408,-29.448002,39.848003,eccentric,7,5.0,31199.0,403431.0,170475.0,33176.0,-18.0
2026-04-09 22:35:45.880072,514115,3075763553,3075765158,-1.145824,-0.050752,-0.021472,-5.46875,-0.4375,-3.17625,25.176,-29.400002,39.04,eccentric,7,5.0,31199.0,403431.0,170475.0,33176.0,-18.0
2026-04-09 22:35:45.880839,514116,3075772494,3075773859,-1.145824,-0.050752,-0.021472,-5.075,0.04375,-2.94,25.176,-29.400002,39.04,eccentric,7,5.0,31199.0,403431.0,170475.0,33176.0,-18.0
2026-04-09 22:35:45.882720,514117,3075781406,3075782565,-1.145824,-0.050752,-0.021472,-4.10375,0.27125,-1.7675,25.176,-29.400002,39.04,eccentric,7,5.0,31199.0,403431.0,170475.0,33176.0,-18.0
2026-04-09 22:35:45.885247,514118,3075790381,3075791330,-1.18096,0.0,-0.052704,-2.17875,0.46375,-0.90125,24.424002,-28.984001,37.992,eccentric,7,5.0,31199.0,403431.0,170475.0,33176.0,-18.0
2026-04-09 22:35:45.887759,514119,3075804993,3075806324,-1.159488,0.003904,-0.031232,-2.9575,-0.09625,-0.595,24.288002,-29.240002,39.208,eccentric,7,5.0,31199.0,403431.0,170475.0,33176.0,-18.0
2026-04-09 22:35:45.917972,514120,3075813911,3075815042,-1.159488,0.003904,-0.031232,-5.06625,-0.77875,-0.6475,24.288002,-29.240002,39.208,eccentric,7,5.0,31199.0,403431.0,170475.0,33176.0,-18.0
2026-04-09 22:35:45.921516,514121,3075822845,3075823741,-1.159488,0.00976,-0.00976,-5.64375,0.0875,-1.07625,24.288002,-28.672,39.592003,eccentric,7,5.0,31199.0,403431.0,170475.0,33176.0,-18.0
2026-04-09 22:35:45.948959,514132,3075837381,3075839080,-1.159488,0.00976,-0.00976,-5.18,-0.07,-1.46125,25.016,-28.672,39.592003,eccentric,7,5.0,31266.0,403431.0,170574.0,33155.0,-20.0
2026-04-09 22:35:45.951583,514133,3075846302,3075847791,-1.138016,0.001952,-0.015616,-5.17125,-0.6125,-1.785,24.2,-28.792002,39.952003,eccentric,7,5.0,31266.0,403431.0,170574.0,33155.0,-20.0
2026-04-09 22:35:45.953952,514134,3075855293,3075856536,-1.138016,0.001952,-0.015616,-3.92875,-0.8575,-2.94,24.2,-28.792002,39.952003,eccentric,7,5.0,31266.0,403431.0,170574.0,33155.0,-20.0
2026-04-09 22:35:45.957820,514135,3075869804,3075871572,-1.167296,-0.013664,-0.021472,-3.6575,-0.37625,-3.29,23.928001,-29.144001,40.344,eccentric,7,5.0,31266.0,403431.0,170574.0,33155.0,-20.0
2026-04-09 22:35:45.963136,514136,3075878760,3075880295,-1.167296,-0.013664,-0.021472,-4.0425,-0.105,-2.66,23.928001,-29.144001,40.344,eccentric,7,5.0,31266.0,403431.0,170574.0,33155.0,-20.0
2026-04-09 22:35:45.993040,514137,3075887716,3075889010,-1.138016,0.01952,-0.035136,-3.4475,0.175,-2.82625,25.04,-29.056002,40.432003,eccentric,7,5.0,31266.0,403431.0,170574.0,33155.0,-20.0
2026-04-09 22:35:45.996494,514138,3075896651,3075897733,-1.138016,0.01952,-0.035136,-2.45,1.23375,-3.115,25.04,-29.056002,40.432003,eccentric,7,5.0,31266.0,403431.0,170574.0,33155.0,-20.0
2026-04-09 22:35:45.999039,514139,3075911173,3075912644,-1.147776,0.021472,-0.027328,-4.12125,2.1175,-4.20875,24.528002,-29.152002,39.600002,eccentric,7,5.0,31266.0,403431.0,170574.0,33155.0,-20.0
2026-04-09 22:35:46.002764,514140,3075920095,3075921353,-1.147776,0.021472,-0.027328,-5.43375,2.26625,-4.27,24.528002,-29.152002,39.600002,eccentric,7,5.0,31266.0,403431.0,170574.0,33155.0,-20.0
2026-04-09 22:35:46.030266,514150,3075929712,3075930188,-1.155584,0.005856,-0.031232,-6.22125,2.07375,-4.87375,23.104002,-29.104002,41.752003,eccentric,7,5.0,31270.0,403431.0,171147.0,33705.0,-11.0
2026-04-09 22:35:46.032694,514151,3075944791,3075945225,-1.165344,-0.021472,-0.031232,-5.32,1.67125,-4.97,25.192001,-28.952002,41.392002,eccentric,7,5.0,31270.0,403431.0,171147.0,33705.0,-11.0
2026-04-09 22:35:46.038378,514152,3075954111,3075956000,-1.165344,-0.021472,-0.031232,-4.3925,1.7325,-4.48,25.192001,-28.952002,41.392002,eccentric,7,5.0,31270.0,403431.0,171147.0,33705.0,-11.0
2026-04-09 22:35:46.068007,514153,3075963100,3075964702,-1.165344,0.00976,-0.031232,-3.52625,1.75875,-4.095,25.192001,-28.952002,39.344,eccentric,7,5.0,31270.0,403431.0,171147.0,33705.0,-11.0
2026-04-09 22:35:46.071516,514154,3075972045,3075973384,-1.153632,0.00976,-0.031232,-1.4525,2.555,-3.96375,24.504002,-29.080002,39.784,eccentric,7,5.0,31270.0,403431.0,171147.0,33705.0,-11.0
2026-04-09 22:35:46.073973,514155,3075986532,3075988323,-1.159488,0.025376,-0.025376,-0.90125,2.87875,-4.2,24.240002,-28.832,39.584003,eccentric,7,5.0,31270.0,403431.0,171147.0,33705.0,-11.0
2026-04-09 22:35:46.079015,514156,3075995472,3075997047,-1.159488,0.025376,-0.025376,-0.91875,3.52625,-3.98125,24.240002,-28.832,39.584003,eccentric,7,5.0,31270.0,403431.0,171147.0,33705.0,-11.0
2026-04-09 22:35:46.109209,514157,3076004402,3076005743,-1.163392,0.015616,-0.037088,-1.21625,3.5875,-3.70125,23.632002,-28.504002,40.808002,eccentric,7,5.0,31270.0,403431.0,171147.0,33705.0,-11.0
2026-04-09 22:35:46.112860,514158,3076018884,3076020651,-1.163392,0.015616,-0.037088,-1.2775,3.5875,-4.19125,23.632002,-28.504002,40.808002,eccentric,7,5.0,31270.0,403431.0,171147.0,33705.0,-11.0
2026-04-09 22:35:46.170224,514168,3076028268,3076029860,-1.194624,-0.021472,-0.056608,-0.9625,3.5525,-4.0425,24.168001,-28.576002,40.128002,eccentric,7,5.0,31235.0,403431.0,172059.0,34577.0,33.0
2026-04-09 22:35:46.172729,514169,3076037291,3076038681,-1.194624,-0.021472,-0.056608,-0.9625,3.45625,-3.00125,24.168001,-28.576002,40.128002,eccentric,7,5.0,31235.0,403431.0,172059.0,34577.0,33.0
2026-04-09 22:35:46.175250,514170,3076046306,3076047460,-1.159488,-0.037088,-0.0488,0.00875,3.29875,-1.1725,23.832,-29.12,40.208,eccentric,7,5.0,31235.0,403431.0,172059.0,34577.0,33.0
2026-04-09 22:35:46.177752,514171,3076060796,3076062305,-1.159488,-0.037088,-0.0488,1.96,2.91375,-0.93625,23.832,-29.12,40.208,eccentric,7,5.0,31235.0,403431.0,172059.0,34577.0,33.0
2026-04-09 22:35:46.180227,514172,3076069738,3076071011,-1.143872,0.007808,-0.035136,5.95,3.185,-0.21,23.288002,-28.896002,39.872,eccentric,7,5.0,31235.0,403431.0,172059.0,34577.0,33.0
2026-04-09 22:35:46.182727,514173,3076078648,3076079744,-1.143872,0.007808,-0.035136,8.00625,3.85,0.46375,23.288002,-28.896002,39.872,eccentric,7,5.0,31235.0,403431.0,172059.0,34577.0,33.0
2026-04-09 22:35:46.185228,514174,3076093227,3076094665,-1.136064,0.027328,-0.01952,6.9475,4.75125,1.23375,23.312,-28.944002,41.344,eccentric,7,5.0,31235.0,403431.0,172059.0,34577.0,33.0
2026-04-09 22:35:46.187727,514175,3076102347,3076103402,-1.136064,0.027328,-0.01952,5.27625,5.3725,2.17,23.312,-28.944002,41.344,eccentric,7,5.0,31235.0,403431.0,172059.0,34577.0,33.0
2026-04-09 22:35:46.194061,514176,3076111287,3076112128,-1.11264,0.021472,-0.046848,2.415,5.8625,1.785,22.728,-28.984001,42.008003,eccentric,7,5.0,31235.0,403431.0,172059.0,34577.0,33.0
2026-04-09 22:35:46.224221,514177,3076125783,3076127019,-1.120448,0.011712,-0.066368,0.735,6.30875,1.81125,22.864,-28.52,39.52,eccentric,7,5.0,31235.0,403431.0,172059.0,34577.0,33.0
2026-04-09 22:35:46.257746,514188,3076134810,3076135781,-1.120448,0.011712,-0.066368,1.4,7.00875,1.26,22.864,-28.52,39.52,eccentric,7,5.0,31205.0,403431.0,172583.0,35139.0,40.0
2026-04-09 22:35:46.260239,514189,3076143710,3076144495,-1.120448,-0.021472,-0.050752,2.21375,7.0875,0.6125,22.864,-28.52,39.52,eccentric,7,5.0,31205.0,403431.0,172583.0,35139.0,40.0
2026-04-09 22:35:46.262736,514190,3076152663,3076153150,-1.114592,-0.021472,-0.050752,3.1675,6.48375,0.91875,22.960001,-28.824001,39.008003,eccentric,7,5.0,31205.0,403431.0,172583.0,35139.0,40.0
2026-04-09 22:35:46.265284,514191,3076167610,3076168076,-1.114592,-0.015616,-0.064416,3.21125,6.02,2.17,22.2,-29.392002,40.24,eccentric,7,5.0,31205.0,403431.0,172583.0,35139.0,40.0
2026-04-09 22:35:46.267749,514192,3076177004,3076178885,-1.114592,-0.015616,-0.064416,4.34875,5.4075,2.6425,22.2,-29.392002,40.24,eccentric,7,5.0,31205.0,403431.0,172583.0,35139.0,40.0
2026-04-09 22:35:46.270328,514193,3076185940,3076187587,-1.104832,0.033184,-0.031232,7.14875,5.64375,3.21125,22.104002,-28.936,40.688004,eccentric,7,5.0,31205.0,403431.0,172583.0,35139.0,40.0
2026-04-09 22:35:46.300523,514194,3076194919,3076196328,-1.104832,0.033184,-0.031232,8.2775,5.845,3.0625,22.104002,-28.936,40.688004,eccentric,7,5.0,31205.0,403431.0,172583.0,35139.0,40.0
2026-04-09 22:35:46.314639,514195,3076209396,3076211252,-1.104832,0.052704,-0.042944,10.36,5.83625,1.53125,22.712002,-29.264002,39.472,eccentric,7,5.0,31205.0,403431.0,172583.0,35139.0,40.0
2026-04-09 22:35:46.316308,514196,3076218291,3076219953,-1.104832,0.052704,-0.042944,9.26625,6.6675,-0.21875,22.712002,-29.264002,39.472,eccentric,7,5.0,31205.0,403431.0,172583.0,35139.0,40.0
2026-04-09 22:35:46.340350,514206,3076227194,3076228764,-1.098976,0.0,-0.070272,7.72625,7.14,-1.14625,22.76,-29.416002,39.800003,eccentric,7,5.0,31156.0,403431.0,173049.0,35631.0,56.0
2026-04-09 22:35:46.344620,514207,3076242005,3076243716,-1.098976,0.0,-0.070272,6.545,6.7725,-0.53375,22.76,-29.416002,39.800003,eccentric,7,5.0,31156.0,403431.0,173049.0,35631.0,56.0
2026-04-09 22:35:46.346253,514208,3076250922,3076252492,-1.061888,-0.003904,-0.023424,6.65,6.72875,-0.58625,21.344002,-29.176,41.672,eccentric,7,5.0,31156.0,403431.0,173049.0,35631.0,56.0
2026-04-09 22:35:46.347834,514209,3076259891,3076261232,-1.061888,-0.003904,-0.023424,8.47,7.525,-0.3675,21.344002,-29.176,41.672,eccentric,7,5.0,31156.0,403431.0,173049.0,35631.0,56.0
2026-04-09 22:35:46.378972,514210,3076274401,3076276247,-1.0736,0.02928,-0.066368,8.575,8.68,-0.34125,21.056002,-29.288002,40.704002,eccentric,7,5.0,31156.0,403431.0,173049.0,35631.0,56.0
2026-04-09 22:35:46.383334,514211,3076283320,3076284950,-1.0736,0.02928,-0.066368,8.68875,9.58125,-0.39375,21.056002,-29.288002,40.704002,eccentric,7,5.0,31156.0,403431.0,173049.0,35631.0,56.0
2026-04-09 22:35:46.384862,514212,3076292241,3076293648,-1.059936,0.013664,-0.070272,7.875,9.73875,-0.56,22.648,-29.056002,39.168003,eccentric,7,5.0,31156.0,403431.0,173049.0,35631.0,56.0
2026-04-09 22:35:46.415188,514213,3076306720,3076308544,-1.03456,0.015616,-0.037088,7.53375,9.555,-0.23625,21.800001,-29.136002,39.0,eccentric,7,5.0,31156.0,403431.0,173049.0,35631.0,56.0
2026-04-09 22:35:46.417433,514214,3076315661,3076317267,-1.03456,0.015616,-0.037088,8.785,9.695,-0.16625,21.800001,-29.136002,39.0,eccentric,7,5.0,31156.0,403431.0,173049.0,35631.0,56.0
2026-04-09 22:35:46.422025,514215,3076324552,3076325986,-1.007232,-0.011712,-0.044896,9.9925,9.23125,0.35,21.800001,-29.136002,38.568,eccentric,7,5.0,31156.0,403431.0,173049.0,35631.0,56.0
2026-04-09 22:35:46.485818,514225,3076333616,3076334715,-1.007232,-0.011712,-0.044896,8.96875,8.89,0.25375,22.008001,-29.2,38.568,eccentric,7,5.0,31188.0,403431.0,172910.0,35479.0,47.0
2026-04-09 22:35:46.487534,514226,3076348177,3076349667,-1.046272,-0.023424,-0.091744,9.30125,9.1525,1.16375,21.28,-29.424002,40.288002,eccentric,7,5.0,31188.0,403431.0,172910.0,35479.0,47.0
2026-04-09 22:35:46.489066,514227,3076357100,3076358391,-1.046272,-0.023424,-0.091744,12.3025,8.1025,2.73875,21.28,-29.424002,40.288002,eccentric,7,5.0,31188.0,403431.0,172910.0,35479.0,47.0
2026-04-09 22:35:46.493295,514228,3076366005,3076367085,-0.999424,-0.013664,-0.066368,15.26875,6.62375,3.70125,21.576,-29.888,38.88,eccentric,7,5.0,31188.0,403431.0,172910.0,35479.0,47.0
2026-04-09 22:35:46.494973,514229,3076380460,3076382004,-0.999424,-0.013664,-0.066368,19.241251,5.1275,4.59375,21.576,-29.888,38.88,eccentric,7,5.0,31188.0,403431.0,172910.0,35479.0,47.0
2026-04-09 22:35:46.496591,514230,3076389499,3076390740,-0.950624,0.080032,0.011712,21.14,4.8475,5.1625,20.656,-29.36,39.696003,eccentric,7,5.0,31188.0,403431.0,172910.0,35479.0,47.0
2026-04-09 22:35:46.500793,514231,3076398512,3076399482,-0.950624,0.080032,0.011712,19.80125,7.25375,4.83875,20.656,-29.36,39.696003,eccentric,7,5.0,31188.0,403431.0,172910.0,35479.0,47.0
2026-04-09 22:35:46.503234,514232,3076413003,3076414457,-1.011136,0.081984,-0.035136,17.87625,9.5725,2.695,21.528002,-29.272001,39.480003,eccentric,7,5.0,31188.0,403431.0,172910.0,35479.0,47.0
2026-04-09 22:35:46.507399,514233,3076421952,3076423193,-1.011136,0.081984,-0.035136,12.97625,10.31625,-0.27125,21.528002,-29.272001,39.480003,eccentric,7,5.0,31188.0,403431.0,172910.0,35479.0,47.0
2026-04-09 22:35:46.538765,514244,3076431454,3076432090,-1.013088,0.031232,-0.064416,9.10875,10.605001,-1.96875,21.096,-29.168001,39.568,eccentric,7,5.0,31344.0,403431.0,171744.0,34250.0,14.0
2026-04-09 22:35:46.540332,514245,3076440784,3076442887,-1.013088,0.031232,-0.064416,9.28375,10.5175,-2.59,21.096,-29.168001,39.568,eccentric,7,5.0,31344.0,403431.0,171744.0,34250.0,14.0
2026-04-09 22:35:46.544470,514246,3076455346,3076455756,-1.038464,-0.005856,-0.056608,10.92,9.84375,-3.70125,20.832,-29.544,38.392002,eccentric,7,5.0,31344.0,403431.0,171744.0,34250.0,14.0
2026-04-09 22:35:46.548520,514247,3076464697,3076466582,-1.038464,-0.005856,-0.025376,12.4775,8.61,-3.71875,20.832,-29.544,38.392002,eccentric,7,5.0,31344.0,403431.0,171744.0,34250.0,14.0
2026-04-09 22:35:46.578932,514248,3076473636,3076475299,-1.020896,0.076128,-0.025376,16.2575,7.805,-3.85,21.192001,-29.728,37.424004,eccentric,7,5.0,31344.0,403431.0,171744.0,34250.0,14.0
2026-04-09 22:35:46.583327,514249,3076482554,3076484002,-1.020896,0.076128,-0.025376,17.272501,8.14625,-5.3725,21.192001,-29.728,37.424004,eccentric,7,5.0,31344.0,403431.0,171744.0,34250.0,14.0
2026-04-09 22:35:46.584920,514250,3076497047,3076498892,-1.026752,0.056608,-0.031232,14.56,8.2075,-6.25625,21.976002,-29.736002,38.320004,eccentric,7,5.0,31344.0,403431.0,171744.0,34250.0,14.0
2026-04-09 22:35:46.590739,514251,3076506036,3076507624,-1.065792,0.011712,-0.095648,12.985,7.67375,-6.16,20.144001,-29.416002,38.712,eccentric,7,5.0,31344.0,403431.0,171744.0,34250.0,14.0
2026-04-09 22:35:46.643036,514252,3076514965,3076516362,-1.065792,0.011712,-0.095648,13.0025,7.14,-6.88625,20.144001,-29.416002,38.712,eccentric,7,5.0,31344.0,403431.0,171744.0,34250.0,14.0
2026-04-09 22:35:46.668978,514262,3076529467,3076531311,-1.0248,0.00976,-0.046848,13.06375,5.25875,-6.055,21.192001,-29.600002,37.800003,eccentric,7,5.0,31360.0,403431.0,171719.0,34177.0,7.0
2026-04-09 22:35:46.671517,514263,3076538833,3076540129,-1.0248,0.00976,-0.046848,15.00625,3.56125,-4.73375,21.192001,-29.600002,37.800003,eccentric,7,5.0,31360.0,403431.0,171719.0,34177.0,7.0
2026-04-09 22:35:46.673997,514264,3076547757,3076548841,-0.997472,0.054656,-0.011712,16.0125,3.1675,-4.41,20.68,-28.824001,37.84,eccentric,7,5.0,31360.0,403431.0,171719.0,34177.0,7.0
2026-04-09 22:35:46.676539,514265,3076562251,3076563725,-0.997472,0.054656,-0.011712,18.03375,2.4675,-4.5675,20.68,-28.824001,37.84,eccentric,7,5.0,31360.0,403431.0,171719.0,34177.0,7.0
2026-04-09 22:35:46.680264,514266,3076571178,3076572473,-1.020896,0.033184,-0.06832,17.94625,2.09125,-4.54125,20.84,-29.248001,37.392002,eccentric,7,5.0,31360.0,403431.0,171719.0,34177.0,7.0
2026-04-09 22:35:46.681816,514267,3076580284,3076581199,-1.020896,0.033184,-0.06832,13.755,2.52,-4.62875,20.84,-29.248001,37.392002,eccentric,7,5.0,31360.0,403431.0,171719.0,34177.0,7.0
2026-04-09 22:35:46.684254,514268,3076589231,3076589973,-0.977952,0.003904,-0.042944,9.79125,1.6625,-3.40375,19.12,-29.672,39.856003,eccentric,7,5.0,31360.0,403431.0,171719.0,34177.0,7.0
2026-04-09 22:35:46.686489,514269,3076604521,3076604980,-0.977952,0.003904,-0.042944,10.745,0.51625,-1.75875,19.12,-29.672,39.856003,eccentric,7,5.0,31360.0,403431.0,171719.0,34177.0,7.0
2026-04-09 22:35:46.716796,514270,3076613936,3076615781,-0.93696,0.046848,-0.003904,13.04625,0.28,-0.95375,19.056002,-29.624,39.376003,eccentric,7,5.0,31360.0,403431.0,171719.0,34177.0,7.0
2026-04-09 22:35:46.720353,514271,3076622908,3076624479,-0.93696,0.046848,-0.003904,13.79875,0.945,-1.02375,19.056002,-29.624,39.376003,eccentric,7,5.0,31360.0,403431.0,171719.0,34177.0,7.0
2026-04-09 22:35:46.780218,514281,3076631932,3076633263,-0.976,0.083936,-0.060512,14.875,2.10875,-2.52875,20.712002,-29.728,37.24,eccentric,7,5.0,31365.0,403431.0,171656.0,34120.0,9.0
2026-04-09 22:35:46.782904,514282,3076646635,3076648219,-1.003328,0.02928,-0.0488,14.323751,2.8175,-4.34875,20.592001,-29.864002,38.120003,eccentric,7,5.0,31365.0,403431.0,171656.0,34120.0,9.0
2026-04-09 22:35:46.788984,514283,3076655570,3076656916,-1.003328,0.02928,-0.0488,11.698751,2.31875,-5.39875,20.592001,-29.864002,38.120003,eccentric,7,5.0,31365.0,403431.0,171656.0,34120.0,9.0
2026-04-09 22:35:46.791544,514284,3076664550,3076665631,-1.003328,0.02928,-0.0488,12.6875,1.30375,-5.55625,20.592001,-29.864002,38.120003,eccentric,7,5.0,31365.0,403431.0,171656.0,34120.0,9.0
2026-04-09 22:35:46.794048,514285,3076679058,3076680527,-0.972096,0.046848,0.001952,13.95625,-0.07875,-5.95,20.160002,-29.976002,39.624,eccentric,7,5.0,31365.0,403431.0,171656.0,34120.0,9.0
2026-04-09 22:35:46.799219,514286,3076687997,3076689265,-0.99552,0.01952,-0.027328,13.39625,0.2975,-6.2825,20.576,-29.680002,39.280003,eccentric,7,5.0,31365.0,403431.0,171656.0,34120.0,9.0
2026-04-09 22:35:46.801483,514287,3076696986,3076698028,-0.99552,0.01952,-0.027328,11.73375,0.34125,-6.02875,20.576,-29.680002,39.280003,eccentric,7,5.0,31365.0,403431.0,171656.0,34120.0,9.0
2026-04-09 22:35:46.804019,514288,3076711621,3076712960,-1.011136,0.05856,-0.035136,12.1975,-0.21875,-4.68125,20.808,-29.12,38.336002,eccentric,7,5.0,31365.0,403431.0,171656.0,34120.0,9.0
2026-04-09 22:35:46.806481,514289,3076720612,3076721688,-1.011136,0.05856,-0.035136,12.85375,-0.8575,-4.3225,20.808,-29.12,38.336002,eccentric,7,5.0,31365.0,403431.0,171656.0,34120.0,9.0
2026-04-09 22:35:46.812826,514290,3076729547,3076730411,-1.030656,0.076128,-0.033184,11.47125,-0.88375,-5.005,20.056002,-29.208002,38.192,eccentric,7,5.0,31365.0,403431.0,171656.0,34120.0,9.0
2026-04-09 22:35:46.841146,514301,3076738602,3076739213,-1.030656,0.076128,-0.033184,9.56375,-0.20125,-4.9875,20.056002,-29.208002,38.192,eccentric,7,5.0,31475.0,403431.0,170980.0,33290.0,2.0
2026-04-09 22:35:46.843051,514302,3076753416,3076754143,-1.003328,0.005856,-0.003904,5.075,-1.3475,-4.64625,20.136002,-29.504002,36.632,eccentric,7,5.0,31475.0,403431.0,170980.0,33290.0,2.0
2026-04-09 22:35:46.847765,514303,3076762776,3076764982,-1.003328,0.005856,-0.003904,3.70125,-3.36,-3.89375,20.136002,-29.504002,36.632,eccentric,7,5.0,31475.0,403431.0,170980.0,33290.0,2.0
2026-04-09 22:35:46.878016,514304,3076771731,3076773700,-0.974048,0.066368,0.02928,7.18375,-4.83875,-3.33375,19.264002,-29.344002,37.920002,eccentric,7,5.0,31475.0,403431.0,170980.0,33290.0,2.0
2026-04-09 22:35:46.881525,514305,3076786215,3076786563,-0.974048,0.101504,-0.007808,9.4325,-4.5325,-3.22875,19.264002,-29.344002,37.920002,eccentric,7,5.0,31475.0,403431.0,170980.0,33290.0,2.0
2026-04-09 22:35:46.884058,514306,3076795425,3076797354,-1.028704,0.101504,-0.007808,6.3175,-3.01875,-3.6225,20.296001,-29.752,37.736,eccentric,7,5.0,31475.0,403431.0,170980.0,33290.0,2.0
2026-04-09 22:35:46.887780,514307,3076804374,3076806064,-1.028704,0.101504,-0.007808,0.5425,-2.38875,-4.34875,20.296001,-29.752,37.736,eccentric,7,5.0,31475.0,403431.0,170980.0,33290.0,2.0
2026-04-09 22:35:46.918729,514308,3076813338,3076814750,-1.020896,0.062464,-0.013664,-4.095,-2.1175,-5.34625,19.976002,-29.720001,36.872,eccentric,7,5.0,31475.0,403431.0,170980.0,33290.0,2.0
2026-04-09 22:35:46.922141,514309,3076827846,3076829685,-1.018944,0.027328,-0.013664,-8.12875,-2.10875,-5.985,20.352001,-30.096,37.096,eccentric,7,5.0,31475.0,403431.0,170980.0,33290.0,2.0
2026-04-09 22:35:46.946460,514319,3076836943,3076838469,-1.018944,0.027328,-0.013664,-9.511251,-2.44125,-5.7925,20.352001,-30.096,37.096,eccentric,7,5.0,31454.0,403431.0,171306.0,33507.0,-3.0
2026-04-09 22:35:46.949008,514320,3076846019,3076847183,-1.018944,0.027328,-0.013664,-8.3825,-3.94625,-4.76,20.352001,-30.096,37.096,eccentric,7,5.0,31454.0,403431.0,171306.0,33507.0,-3.0
2026-04-09 22:35:46.951497,514321,3076860795,3076862105,-1.022848,0.066368,-0.015616,-6.93,-5.0225,-4.75125,20.272001,-29.056002,36.512,eccentric,7,5.0,31454.0,403431.0,171306.0,33507.0,-3.0
2026-04-09 22:35:46.954026,514322,3076869746,3076870825,-1.042368,0.064416,-0.023424,-8.02375,-5.04,-4.24375,20.328001,-29.944002,37.512,eccentric,7,5.0,31454.0,403431.0,171306.0,33507.0,-3.0
2026-04-09 22:35:46.986751,514323,3076878707,3076879523,-1.042368,0.064416,-0.023424,-10.31625,-4.4975,-4.15625,20.328001,-29.944002,37.512,eccentric,7,5.0,31454.0,403431.0,171306.0,33507.0,-3.0
2026-04-09 22:35:46.990295,514324,3076887619,3076888247,-1.046272,0.052704,-0.011712,-12.41625,-4.20875,-4.1825,19.944,-29.920002,37.936,eccentric,7,5.0,31454.0,403431.0,171306.0,33507.0,-3.0
2026-04-09 22:35:46.993251,514325,3076902405,3076903185,-1.046272,0.052704,-0.011712,-13.81625,-3.395,-4.15625,19.944,-29.920002,37.936,eccentric,7,5.0,31454.0,403431.0,171306.0,33507.0,-3.0
2026-04-09 22:35:46.995270,514326,3076911788,3076914008,-1.050176,0.083936,-0.011712,-15.2775,-2.45875,-3.64,19.68,-29.112001,38.504,eccentric,7,5.0,31454.0,403431.0,171306.0,33507.0,-3.0
2026-04-09 22:35:47.054327,514327,3076920711,3076922704,-1.050176,0.083936,-0.011712,-13.92125,-2.00375,-3.6575,19.68,-29.112001,38.504,eccentric,7,5.0,31454.0,403431.0,171306.0,33507.0,-3.0
2026-04-09 22:35:47.111621,514337,3076935799,3076937630,-1.048224,0.064416,-0.031232,-13.2825,-2.19625,-4.48,19.92,-29.416002,38.464,eccentric,7,5.0,31463.0,403431.0,171738.0,33816.0,0.0
2026-04-09 22:35:47.115058,514338,3076944785,3076946399,-1.048224,0.064416,-0.031232,-14.0875,-1.47,-4.76,19.92,-29.416002,38.464,eccentric,7,5.0,31463.0,403431.0,171738.0,33816.0,0.0
2026-04-09 22:35:47.116589,514339,3076953739,3076955099,-1.026752,0.054656,-0.037088,-15.6625,-1.47875,-4.01625,19.512001,-29.312002,38.352,eccentric,7,5.0,31463.0,403431.0,171738.0,33816.0,0.0
2026-04-09 22:35:47.120819,514340,3076962652,3076963786,-1.026752,0.054656,-0.037088,-16.51125,-0.7,-3.955,19.512001,-29.312002,38.352,eccentric,7,5.0,31463.0,403431.0,171738.0,33816.0,0.0
2026-04-09 22:35:47.122591,514341,3076977144,3076978708,-1.032608,0.089792,-0.0488,-17.12375,1.77625,-4.2525,19.544,-29.544,38.608,eccentric,7,5.0,31463.0,403431.0,171738.0,33816.0,0.0
2026-04-09 22:35:47.124237,514342,3076986087,3076987406,-1.032608,0.089792,-0.0488,-19.355,2.79125,-4.1475,19.544,-29.544,38.608,eccentric,7,5.0,31463.0,403431.0,171738.0,33816.0,0.0
2026-04-09 22:35:47.128361,514343,3076995009,3076996114,-1.03456,0.042944,-0.074176,-21.72625,2.89625,-3.99875,19.2,-28.968002,39.016003,eccentric,7,5.0,31463.0,403431.0,171738.0,33816.0,0.0
2026-04-09 22:35:47.130053,514344,3077009497,3077011004,-1.022848,0.031232,-0.054656,-21.32375,2.61625,-3.4475,20.672,-27.800001,39.024002,eccentric,7,5.0,31463.0,403431.0,171738.0,33816.0,0.0
2026-04-09 22:35:47.131584,514345,3077018518,3077019706,-1.022848,0.031232,-0.054656,-19.06625,2.45,-2.82625,20.672,-27.800001,39.024002,eccentric,7,5.0,31463.0,403431.0,171738.0,33816.0,0.0
2026-04-09 22:35:47.135889,514346,3077027517,3077028394,-0.977952,0.081984,-0.01952,-15.67125,1.30375,-1.9775,20.672,-29.080002,40.512,eccentric,7,5.0,31463.0,403431.0,171738.0,33816.0,0.0
2026-04-09 22:35:47.163479,514357,3077036715,3077037614,-0.977952,0.081984,-0.01952,-12.8275,1.2775,-1.3125,19.584002,-29.080002,40.512,eccentric,7,5.0,31597.0,403431.0,170875.0,32953.0,-23.0
2026-04-09 22:35:47.165014,514358,3077051242,3077052603,-1.001376,0.091744,-0.056608,-13.64125,2.30125,-1.715,19.36,-29.080002,40.432003,eccentric,7,5.0,31597.0,403431.0,170875.0,32953.0,-23.0
2026-04-09 22:35:47.166545,514359,3077060172,3077061322,-1.001376,0.091744,-0.056608,-15.53125,4.5325,-2.23125,19.36,-29.080002,40.432003,eccentric,7,5.0,31597.0,403431.0,170875.0,32953.0,-23.0
2026-04-09 22:35:47.170991,514360,3077069183,3077070085,-1.018944,0.050752,-0.050752,-17.5525,6.08125,-2.63375,19.344002,-28.920002,42.272003,eccentric,7,5.0,31597.0,403431.0,170875.0,32953.0,-23.0
2026-04-09 22:35:47.175027,514361,3077083784,3077085107,-1.018944,0.050752,-0.050752,-16.70375,6.3875,-3.6575,19.344002,-28.920002,42.272003,eccentric,7,5.0,31597.0,403431.0,170875.0,32953.0,-23.0
2026-04-09 22:35:47.176566,514362,3077092704,3077093884,-0.970144,0.05856,-0.015616,-13.60625,6.55375,-4.3225,18.768002,-29.056002,40.416,eccentric,7,5.0,31597.0,403431.0,170875.0,32953.0,-23.0
2026-04-09 22:35:47.208834,514363,3077101652,3077102595,-0.970144,0.05856,-0.015616,-10.115,7.8225,-5.18,18.768002,-29.056002,40.416,eccentric,7,5.0,31597.0,403431.0,170875.0,32953.0,-23.0
2026-04-09 22:35:47.210604,514364,3077116165,3077117528,-0.983808,0.121024,-0.02928,-7.37625,8.49625,-5.94125,19.576,-28.552002,39.832,eccentric,7,5.0,31597.0,403431.0,170875.0,32953.0,-23.0
2026-04-09 22:35:47.212750,514365,3077125071,3077126241,-0.983808,0.121024,-0.02928,-8.575,10.08875,-6.78125,19.576,-28.552002,39.832,eccentric,7,5.0,31597.0,403431.0,170875.0,32953.0,-23.0
2026-04-09 22:35:47.237753,514375,3077134588,3077134985,-1.018944,0.080032,-0.076128,-14.81375,12.04875,-7.72625,19.656,-28.776001,39.168003,eccentric,7,5.0,31607.0,403431.0,170672.0,32760.0,-37.0
2026-04-09 22:35:47.240242,514376,3077143941,3077145886,-1.018944,0.080032,-0.076128,-19.635,12.67875,-7.56875,19.656,-28.776001,39.168003,eccentric,7,5.0,31607.0,403431.0,170672.0,32760.0,-37.0
2026-04-09 22:35:47.242755,514377,3077158503,3077160818,-1.01504,0.02928,-0.062464,-19.01375,12.48625,-7.2975,19.936,-28.096,39.408,eccentric,7,5.0,31607.0,403431.0,170672.0,32760.0,-37.0
2026-04-09 22:35:47.272938,514378,3077167465,3077169521,-1.01504,0.060512,-0.01952,-17.0625,12.6,-6.71125,19.936,-28.096,39.408,eccentric,7,5.0,31607.0,403431.0,170672.0,32760.0,-37.0
2026-04-09 22:35:47.276432,514379,3077176372,3077178190,-1.001376,0.05856,-0.01952,-12.8275,12.66125,-6.44875,19.816002,-28.928001,41.800003,eccentric,7,5.0,31607.0,403431.0,170672.0,32760.0,-37.0
2026-04-09 22:35:47.278951,514380,3077190808,3077193090,-1.007232,0.099552,-0.040992,-8.26,12.81875,-7.14875,19.76,-28.688002,39.528004,eccentric,7,5.0,31607.0,403431.0,170672.0,32760.0,-37.0
2026-04-09 22:35:47.283973,514381,3077199716,3077201790,-1.007232,0.099552,-0.040992,-8.26875,13.658751,-6.69375,19.76,-28.688002,39.528004,eccentric,7,5.0,31607.0,403431.0,170672.0,32760.0,-37.0
2026-04-09 22:35:47.314181,514382,3077208634,3077210483,-1.042368,0.03904,-0.064416,-13.41375,14.86625,-5.06625,19.696001,-28.368002,42.256,eccentric,7,5.0,31607.0,403431.0,170672.0,32760.0,-37.0
2026-04-09 22:35:47.318628,514383,3077217643,3077219186,-1.042368,0.03904,-0.064416,-18.6375,15.96875,-4.0425,19.696001,-28.368002,42.256,eccentric,7,5.0,31607.0,403431.0,170672.0,32760.0,-37.0
2026-04-09 22:35:47.378968,514393,3077232130,3077234571,-1.009184,0.017568,-0.050752,-20.1425,16.65125,-4.06875,19.928001,-28.368002,40.104,concentric,7,5.0,31512.0,403431.0,171738.0,33841.0,-9.0
2026-04-09 22:35:47.381452,514394,3077241123,3077243205,-1.009184,0.017568,-0.050752,-17.80625,17.2375,-2.80875,19.928001,-28.368002,40.104,concentric,7,5.0,31512.0,403431.0,171738.0,33841.0,-9.0
2026-04-09 22:35:47.383964,514395,3077250113,3077251913,-1.030656,0.037088,-0.052704,-13.230001,17.56125,-1.88125,20.456001,-28.672,40.048,concentric,7,5.0,31512.0,403431.0,171738.0,33841.0,-9.0
2026-04-09 22:35:47.386528,514396,3077264627,3077266849,-1.030656,0.037088,-0.052704,-8.2425,17.33375,-1.09375,20.456001,-28.672,40.048,concentric,7,5.0,31512.0,403431.0,171738.0,33841.0,-9.0
2026-04-09 22:35:47.389054,514397,3077273530,3077275525,-1.016992,0.037088,-0.056608,-6.9125,16.45,-0.6125,20.880001,-28.080002,39.832,concentric,7,5.0,31512.0,403431.0,171738.0,33841.0,-9.0
2026-04-09 22:35:47.391598,514398,3077282458,3077284227,-1.016992,0.037088,-0.056608,-4.33125,16.2225,-0.67375,20.880001,-28.080002,39.832,concentric,7,5.0,31512.0,403431.0,171738.0,33841.0,-9.0
2026-04-09 22:35:47.394005,514399,3077296961,3077299195,-1.0248,0.054656,-0.066368,-1.9425,17.07125,-1.44375,18.672,-28.36,40.4,concentric,7,5.0,31512.0,403431.0,171738.0,33841.0,-9.0
2026-04-09 22:35:47.396520,514400,3077305968,3077307930,-1.0248,0.054656,-0.066368,-1.16375,17.36875,-1.96,18.672,-28.36,40.4,concentric,7,5.0,31512.0,403431.0,171738.0,33841.0,-9.0
2026-04-09 22:35:47.399422,514401,3077314980,3077316627,-1.011136,0.046848,-0.052704,-2.23125,17.26375,-2.02125,19.096,-28.400002,41.312,concentric,7,5.0,31512.0,403431.0,171738.0,33841.0,-9.0
2026-04-09 22:35:47.429195,514402,3077329451,3077331530,-1.020896,0.03904,-0.050752,-3.7975,16.8,-2.5725,20.488,-28.336,39.960003,concentric,7,5.0,31512.0,403431.0,171738.0,33841.0,-9.0
2026-04-09 22:35:47.455246,514412,3077338515,3077340353,-1.020896,0.03904,-0.050752,-4.7075,16.66,-2.73,20.488,-28.336,39.960003,concentric,7,5.0,31560.0,403431.0,171680.0,33771.0,-10.0
2026-04-09 22:35:47.459571,514413,3077347474,3077349061,-1.020896,0.03904,-0.050752,-5.59125,16.10875,-1.9075,20.488,-28.336,39.960003,concentric,7,5.0,31560.0,403431.0,171680.0,33771.0,-10.0
2026-04-09 22:35:47.461261,514414,3077356408,3077357767,-1.016992,0.02928,-0.042944,-5.20625,15.75,-2.33625,20.640001,-28.800001,39.512,concentric,7,5.0,31560.0,403431.0,171680.0,33771.0,-10.0
2026-04-09 22:35:47.462820,514415,3077370939,3077372730,-1.007232,0.076128,-0.031232,-4.445,16.28375,-2.7475,20.392,-28.712002,39.824,concentric,7,5.0,31560.0,403431.0,171680.0,33771.0,-10.0
2026-04-09 22:35:47.466880,514416,3077379978,3077381488,-1.007232,0.076128,-0.031232,-1.6275,16.87875,-4.2175,20.392,-28.712002,39.824,concentric,7,5.0,31560.0,403431.0,171680.0,33771.0,-10.0
2026-04-09 22:35:47.473250,514417,3077389020,3077390251,-1.011136,0.064416,-0.064416,0.2275,16.40625,-5.635,20.424002,-28.608002,40.536003,concentric,7,5.0,31560.0,403431.0,171680.0,33771.0,-10.0
2026-04-09 22:35:47.501740,514418,3077403488,3077405204,-1.011136,0.064416,-0.064416,-3.07125,16.52,-6.755,20.424002,-28.608002,40.536003,concentric,7,5.0,31560.0,403431.0,171680.0,33771.0,-10.0
2026-04-09 22:35:47.506214,514419,3077412428,3077413899,-1.028704,0.033184,-0.083936,-7.0525,16.02125,-8.02375,20.720001,-28.52,39.336002,concentric,7,5.0,31560.0,403431.0,171680.0,33771.0,-10.0
2026-04-09 22:35:47.507808,514420,3077421406,3077422620,-1.028704,0.033184,-0.083936,-7.18375,15.3825,-9.28375,20.720001,-28.52,39.336002,concentric,7,5.0,31560.0,403431.0,171680.0,33771.0,-10.0
2026-04-09 22:35:47.567043,514431,3077436532,3077437883,-1.026752,0.011712,-0.060512,-4.83,14.945,-10.12375,20.008001,-28.096,40.272003,concentric,7,5.0,31682.0,403431.0,170745.0,32768.0,-31.0
2026-04-09 22:35:47.568795,514432,3077445596,3077446694,-1.026752,0.011712,-0.060512,-4.76875,14.21875,-9.975,20.008001,-28.096,40.272003,concentric,7,5.0,31682.0,403431.0,170745.0,32768.0,-31.0
2026-04-09 22:35:47.570389,514433,3077454517,3077455385,-1.013088,0.02928,-0.042944,-3.7275,14.0525,-9.275,21.552002,-27.864002,39.048,concentric,7,5.0,31682.0,403431.0,170745.0,32768.0,-31.0
2026-04-09 22:35:47.578380,514434,3077463468,3077464121,-1.013088,0.02928,-0.042944,-4.96125,14.980001,-9.31,21.552002,-27.864002,39.048,concentric,7,5.0,31682.0,403431.0,170745.0,32768.0,-31.0
2026-04-09 22:35:47.580071,514435,3077478312,3077479081,-1.022848,0.062464,-0.03904,-8.5925,16.56375,-9.5375,20.616001,-28.096,40.328003,concentric,7,5.0,31682.0,403431.0,170745.0,32768.0,-31.0
2026-04-09 22:35:47.581715,514436,3077487695,3077489863,-1.022848,0.062464,-0.03904,-10.2375,17.6575,-9.975,20.616001,-28.096,40.328003,concentric,7,5.0,31682.0,403431.0,170745.0,32768.0,-31.0
2026-04-09 22:35:47.585684,514437,3077496632,3077498621,-1.028704,0.03904,-0.064416,-12.0575,17.64875,-10.815,20.232,-28.44,41.104,concentric,7,5.0,31682.0,403431.0,170745.0,32768.0,-31.0
2026-04-09 22:35:47.591959,514438,3077505587,3077507323,-1.028704,0.03904,-0.064416,-13.09875,17.465,-12.15375,20.232,-28.44,41.104,concentric,7,5.0,31682.0,403431.0,170745.0,32768.0,-31.0
2026-04-09 22:35:47.651908,514439,3077520102,3077522368,-1.03456,0.02928,-0.099552,-9.38875,16.975,-13.7375,21.160002,-28.336,39.24,concentric,7,5.0,31682.0,403431.0,170745.0,32768.0,-31.0
2026-04-09 22:35:47.656404,514440,3077529013,3077531081,-1.03456,0.035136,-0.130784,-7.2625,15.6625,-14.0175,21.160002,-28.336,39.384003,concentric,7,5.0,31682.0,403431.0,170745.0,32768.0,-31.0
2026-04-09 22:35:47.680416,514450,3077538125,3077539909,-1.042368,0.035136,-0.130784,-7.00875,14.58625,-13.50125,22.072,-28.240002,39.384003,concentric,7,5.0,31709.0,403431.0,170192.0,32277.0,-39.0
2026-04-09 22:35:47.684578,514451,3077552729,3077554846,-1.059936,0.023424,-0.091744,-7.00875,13.78125,-14.385,21.552002,-27.904001,39.056004,concentric,7,5.0,31709.0,403431.0,170192.0,32277.0,-39.0
2026-04-09 22:35:47.686333,514452,3077561650,3077563536,-1.059936,0.023424,-0.091744,-5.45125,12.17125,-16.0125,21.552002,-27.904001,39.056004,concentric,7,5.0,31709.0,403431.0,170192.0,32277.0,-39.0
2026-04-09 22:35:47.687858,514453,3077570589,3077572256,-1.046272,0.003904,-0.050752,-2.42375,10.77125,-16.3625,21.920002,-27.752,36.656002,concentric,7,5.0,31709.0,403431.0,170192.0,32277.0,-39.0
2026-04-09 22:35:47.692079,514454,3077585122,3077587241,-1.046272,0.003904,-0.050752,-0.11375,9.00375,-16.02125,21.920002,-27.752,36.656002,concentric,7,5.0,31709.0,403431.0,170192.0,32277.0,-39.0
2026-04-09 22:35:47.693839,514455,3077594116,3077595994,-1.0248,0.01952,-0.072224,2.03875,7.18375,-15.33875,20.568,-27.392002,40.808002,concentric,7,5.0,31709.0,403431.0,170192.0,32277.0,-39.0
2026-04-09 22:35:47.695366,514456,3077603164,3077604759,-1.0248,0.01952,-0.072224,2.52875,7.1575,-14.58625,20.568,-27.392002,40.808002,concentric,7,5.0,31709.0,403431.0,170192.0,32277.0,-39.0
2026-04-09 22:35:47.699437,514457,3077612204,3077613518,-1.01504,0.003904,-0.095648,0.79625,8.07625,-14.60375,20.312,-27.808,40.056004,concentric,7,5.0,31709.0,403431.0,170192.0,32277.0,-39.0
2026-04-09 22:35:47.728079,514458,3077626717,3077628492,-1.01504,0.003904,-0.095648,-1.8725,8.53125,-14.00875,20.312,-27.808,40.056004,concentric,7,5.0,31709.0,403431.0,170192.0,32277.0,-39.0
2026-04-09 22:35:47.755056,514468,3077635661,3077637172,-1.042368,-0.011712,-0.132736,-0.70875,7.81375,-13.43125,22.272001,-28.072,39.088,concentric,7,5.0,31675.0,403431.0,169846.0,32029.0,-44.0
2026-04-09 22:35:47.757509,514469,3077645246,3077645894,-1.042368,-0.011712,-0.132736,3.78,6.02875,-13.58875,22.272001,-28.072,39.088,concentric,7,5.0,31675.0,403431.0,169846.0,32029.0,-44.0
2026-04-09 22:35:47.759064,514470,3077654548,3077656683,-1.022848,0.044896,-0.093696,8.5225,4.235,-12.6,22.632002,-28.264002,38.904003,concentric,7,5.0,31675.0,403431.0,169846.0,32029.0,-44.0
2026-04-09 22:35:47.763364,514471,3077669157,3077669583,-1.022848,0.044896,-0.076128,10.8325,2.73875,-11.89125,22.632002,-28.264002,38.904003,concentric,7,5.0,31675.0,403431.0,169846.0,32029.0,-44.0
2026-04-09 22:35:47.765760,514472,3077678540,3077680358,-1.020896,0.011712,-0.076128,9.56375,2.03875,-12.52125,22.312,-28.104002,38.160004,concentric,7,5.0,31675.0,403431.0,169846.0,32029.0,-44.0
2026-04-09 22:35:47.771953,514473,3077687510,3077689087,-1.020896,0.011712,-0.076128,7.67375,1.9775,-12.573751,22.312,-28.104002,38.160004,concentric,7,5.0,31675.0,403431.0,169846.0,32029.0,-44.0
2026-04-09 22:35:47.801867,514474,3077702071,3077703999,-1.026752,0.025376,-0.060512,6.08125,2.1525,-12.215,22.960001,-28.272001,39.2,concentric,7,5.0,31675.0,403431.0,169846.0,32029.0,-44.0
2026-04-09 22:35:47.804086,514475,3077711099,3077712697,-1.036512,0.007808,-0.083936,5.495,2.205,-12.80125,23.344002,-27.208002,39.68,concentric,7,5.0,31675.0,403431.0,169846.0,32029.0,-44.0
2026-04-09 22:35:47.808264,514476,3077720053,3077721369,-1.036512,0.007808,-0.083936,4.96125,2.30125,-13.41375,23.344002,-27.208002,39.68,concentric,7,5.0,31675.0,403431.0,169846.0,32029.0,-44.0
2026-04-09 22:35:47.812348,514477,3077729004,3077730184,-1.036512,0.007808,-0.083936,7.105,1.65375,-12.6,23.344002,-27.208002,39.68,concentric,7,5.0,31675.0,403431.0,169846.0,32029.0,-44.0
2026-04-09 22:35:47.874599,514488,3077743561,3077745164,-1.06384,-0.017568,-0.121024,9.66,0.21875,-11.97,23.168001,-26.920002,39.448,concentric,7,5.0,31541.0,403431.0,169983.0,32333.0,-35.0
2026-04-09 22:35:47.877585,514489,3077752583,3077753836,-1.057984,-0.027328,-0.130784,12.62625,-1.82,-11.17375,22.704,-28.080002,38.736,concentric,7,5.0,31541.0,403431.0,169983.0,32333.0,-35.0
2026-04-09 22:35:47.880480,514490,3077761491,3077762650,-1.057984,-0.027328,-0.130784,16.58125,-3.66625,-9.8875,22.704,-28.080002,38.736,concentric,7,5.0,31541.0,403431.0,169983.0,32333.0,-35.0
2026-04-09 22:35:47.882526,514491,3077776046,3077777589,-1.03456,0.044896,-0.050752,18.8125,-5.04,-9.7125,22.208,-27.800001,39.2,concentric,7,5.0,31541.0,403431.0,169983.0,32333.0,-35.0
2026-04-09 22:35:47.884972,514492,3077785125,3077786351,-1.03456,0.044896,-0.050752,18.90875,-4.9175,-9.38,22.208,-27.800001,39.2,concentric,7,5.0,31541.0,403431.0,169983.0,32333.0,-35.0
2026-04-09 22:35:47.890836,514493,3077794078,3077795190,-1.026752,0.052704,-0.056608,16.77375,-3.8325,-9.75625,22.072,-28.320002,38.368,concentric,7,5.0,31541.0,403431.0,169983.0,32333.0,-35.0
2026-04-09 22:35:47.893276,514494,3077808592,3077810191,-1.026752,0.052704,-0.056608,12.3375,-2.7475,-10.745,22.072,-28.320002,38.368,concentric,7,5.0,31541.0,403431.0,169983.0,32333.0,-35.0
2026-04-09 22:35:47.955537,514495,3077817598,3077818899,-1.061888,-0.001952,-0.1464,9.073751,-2.12625,-10.85875,23.304,-28.240002,38.960003,concentric,7,5.0,31541.0,403431.0,169983.0,32333.0,-35.0
2026-04-09 22:35:47.959209,514496,3077826502,3077827598,-1.061888,-0.001952,-0.1464,7.9275,-2.835,-10.185,23.304,-28.240002,38.960003,concentric,7,5.0,31541.0,403431.0,169983.0,32333.0,-35.0
2026-04-09 22:35:47.961747,514497,3077835392,3077836297,-1.056032,-0.015616,-0.119072,8.26875,-4.45375,-10.26375,23.28,-28.168001,38.52,concentric,7,5.0,31541.0,403431.0,169983.0,32333.0,-35.0
2026-04-09 22:35:47.986586,514507,3077849892,3077851193,-1.056032,-0.015616,-0.056608,10.167501,-6.1425,-9.56375,23.28,-28.168001,38.52,concentric,7,5.0,31379.0,403431.0,170088.0,32647.0,-25.0
2026-04-09 22:35:47.989029,514508,3077858814,3077859891,-1.032608,0.054656,-0.056608,12.005,-6.67625,-9.765,23.688002,-27.896002,38.336002,concentric,7,5.0,31379.0,403431.0,170088.0,32647.0,-25.0
2026-04-09 22:35:47.991580,514509,3077867699,3077868671,-1.032608,0.054656,-0.056608,11.99625,-6.02,-11.7075,23.688002,-27.896002,38.336002,concentric,7,5.0,31379.0,403431.0,170088.0,32647.0,-25.0
2026-04-09 22:35:47.994022,514510,3077882191,3077883585,-1.059936,-0.00976,-0.124928,10.8675,-5.5825,-12.06625,23.704,-27.752,38.432003,concentric,7,5.0,31379.0,403431.0,170088.0,32647.0,-25.0
2026-04-09 22:35:47.996495,514511,3077891199,3077892314,-1.079456,-0.023424,-0.11712,8.5925,-6.0375,-11.261251,22.632002,-27.736002,40.160004,concentric,7,5.0,31379.0,403431.0,170088.0,32647.0,-25.0
2026-04-09 22:35:47.999251,514512,3077900130,3077901075,-1.079456,-0.023424,-0.11712,9.2575,-7.27125,-11.01625,22.632002,-27.736002,40.160004,concentric,7,5.0,31379.0,403431.0,170088.0,32647.0,-25.0
2026-04-09 22:35:48.001506,514513,3077914667,3077916092,-1.087264,0.01952,-0.064416,16.79125,-9.3975,-10.91125,22.288,-27.840002,40.264004,concentric,7,5.0,31379.0,403431.0,170088.0,32647.0,-25.0
2026-04-09 22:35:48.006127,514514,3077923615,3077924837,-1.087264,0.01952,-0.064416,20.37,-10.68375,-11.20875,22.288,-27.840002,40.264004,concentric,7,5.0,31379.0,403431.0,170088.0,32647.0,-25.0
2026-04-09 22:35:48.037567,514515,3077932532,3077933569,-1.059936,0.01952,-0.072224,18.40125,-10.2725,-10.815,22.024,-28.264002,40.128002,concentric,7,5.0,31379.0,403431.0,170088.0,32647.0,-25.0
2026-04-09 22:35:48.062803,514525,3077947290,3077948955,-1.059936,0.01952,-0.072224,14.04375,-9.03,-9.87,22.024,-28.264002,40.128002,concentric,7,5.0,31263.0,403431.0,170730.0,33285.0,-11.0
2026-04-09 22:35:48.065298,514526,3077956200,3077957672,-1.05408,0.005856,-0.0976,6.055,-8.61875,-10.1325,23.424002,-28.408,38.448,concentric,7,5.0,31263.0,403431.0,170730.0,33285.0,-11.0
2026-04-09 22:35:48.067807,514527,3077965136,3077966404,-1.05408,0.005856,-0.0976,3.94625,-8.26,-11.57625,23.424002,-28.408,38.448,concentric,7,5.0,31263.0,403431.0,170730.0,33285.0,-11.0
2026-04-09 22:35:48.070299,514528,3077974093,3077975134,-1.09312,0.023424,-0.12688,7.1575,-7.60375,-13.48375,23.888,-28.288002,38.536003,concentric,7,5.0,31263.0,403431.0,170730.0,33285.0,-11.0
2026-04-09 22:35:48.072791,514529,3077988580,3077990049,-1.09312,0.023424,-0.12688,12.32,-8.47,-14.6825,23.888,-28.288002,38.536003,concentric,7,5.0,31263.0,403431.0,170730.0,33285.0,-11.0
2026-04-09 22:35:48.103003,514530,3077997578,3077998851,-1.081408,0.007808,-0.12688,13.39625,-9.47625,-14.13125,24.152,-27.936,38.808002,concentric,7,5.0,31263.0,403431.0,170730.0,33285.0,-11.0
2026-04-09 22:35:48.106591,514531,3078006548,3078007635,-1.081408,0.007808,-0.12688,10.84125,-10.12375,-13.4225,24.152,-27.936,38.808002,concentric,7,5.0,31263.0,403431.0,170730.0,33285.0,-11.0
2026-04-09 22:35:48.109088,514532,3078021034,3078022524,-1.026752,-0.015616,-0.06832,11.48875,-11.2175,-13.93875,24.016,-27.776001,38.504,concentric,7,5.0,31263.0,403431.0,170730.0,33285.0,-11.0
2026-04-09 22:35:48.114032,514533,3078029972,3078031240,-1.026752,-0.015616,-0.06832,15.18125,-11.62,-15.0675,24.016,-27.776001,38.504,concentric,7,5.0,31263.0,403431.0,170730.0,33285.0,-11.0
2026-04-09 22:35:48.149082,514544,3078038914,3078040083,-1.110688,0.011712,-0.134688,15.61,-9.94,-16.38875,23.464,-28.2,39.832,concentric,7,5.0,31274.0,403431.0,169989.0,32577.0,-37.0
2026-04-09 22:35:48.151561,514545,3078053478,3078055216,-1.118496,-0.021472,-0.103456,14.07875,-9.77375,-16.31875,24.464,-28.272001,39.408,concentric,7,5.0,31274.0,403431.0,169989.0,32577.0,-37.0
2026-04-09 22:35:48.154060,514546,3078062405,3078063920,-1.118496,-0.021472,-0.103456,12.4775,-10.6225,-15.417501,24.464,-28.272001,39.408,concentric,7,5.0,31274.0,403431.0,169989.0,32577.0,-37.0
2026-04-09 22:35:48.156521,514547,3078071340,3078072694,-1.026752,0.00976,-0.001952,10.9375,-12.01375,-13.86875,24.464,-28.016,38.184002,concentric,7,5.0,31274.0,403431.0,169989.0,32577.0,-37.0
2026-04-09 22:35:48.189245,514548,3078085843,3078087628,-1.026752,0.00976,-0.001952,12.985,-11.62875,-12.66125,23.808,-28.016,38.184002,concentric,7,5.0,31274.0,403431.0,169989.0,32577.0,-37.0
2026-04-09 22:35:48.194298,514549,3078094791,3078096341,-1.06384,0.007808,-0.095648,14.81375,-9.58125,-12.43375,24.04,-28.168001,38.552002,concentric,7,5.0,31274.0,403431.0,169989.0,32577.0,-37.0
2026-04-09 22:35:48.195342,514550,3078103699,3078105039,-1.06384,0.007808,-0.095648,12.59125,-8.0675,-11.9,24.04,-28.168001,38.552002,concentric,7,5.0,31274.0,403431.0,169989.0,32577.0,-37.0
2026-04-09 22:35:48.198901,514551,3078112671,3078113729,-1.108736,-0.083936,-0.201056,8.89875,-8.12875,-10.78,24.248001,-28.400002,37.568,concentric,7,5.0,31274.0,403431.0,169989.0,32577.0,-37.0
2026-04-09 22:35:48.253112,514552,3078127144,3078128629,-1.108736,-0.083936,-0.201056,8.417501,-10.28125,-9.065,24.248001,-28.400002,37.568,concentric,7,5.0,31274.0,403431.0,169989.0,32577.0,-37.0
2026-04-09 22:35:48.256606,514553,3078136037,3078137338,-1.0248,0.00976,-0.072224,13.72,-13.16,-7.63,24.720001,-28.576002,38.744003,concentric,7,5.0,31274.0,403431.0,169989.0,32577.0,-37.0
2026-04-09 22:35:48.281584,514563,3078145123,3078146068,-1.0248,0.00976,-0.072224,22.5925,-14.72625,-7.37625,24.720001,-28.576002,38.744003,concentric,7,5.0,31269.0,403431.0,169357.0,32094.0,-19.0
2026-04-09 22:35:48.284023,514564,3078159654,3078160963,-1.032608,0.080032,-0.035136,24.3425,-13.0725,-8.05,24.928001,-27.856,38.064003,concentric,7,5.0,31269.0,403431.0,169357.0,32094.0,-19.0
2026-04-09 22:35:48.286619,514565,3078168557,3078169651,-1.032608,0.080032,-0.035136,16.58125,-10.68375,-9.96625,24.928001,-27.856,38.064003,concentric,7,5.0,31269.0,403431.0,169357.0,32094.0,-19.0
2026-04-09 22:35:48.289078,514566,3078177460,3078178337,-1.04432,-0.027328,-0.076128,6.2475,-8.88125,-11.34875,24.808,-28.400002,38.800003,concentric,7,5.0,31269.0,403431.0,169357.0,32094.0,-19.0
2026-04-09 22:35:48.291585,514567,3078192045,3078193360,-1.069696,-0.02928,-0.080032,1.84625,-7.41125,-11.36625,24.952002,-28.080002,38.984,concentric,7,5.0,31269.0,403431.0,169357.0,32094.0,-19.0
2026-04-09 22:35:48.296592,514568,3078201005,3078202111,-1.069696,-0.02928,-0.080032,2.37125,-5.7225,-9.6075,24.952002,-28.080002,38.984,concentric,7,5.0,31269.0,403431.0,169357.0,32094.0,-19.0
2026-04-09 22:35:48.299120,514569,3078209954,3078210823,-1.069696,-0.02928,-0.080032,4.585,-4.08625,-7.385,24.952002,-28.080002,38.984,concentric,7,5.0,31269.0,403431.0,169357.0,32094.0,-19.0
2026-04-09 22:35:48.301536,514570,3078218911,3078219542,-1.091168,0.050752,-0.07808,5.7925,-2.555,-7.04375,24.904001,-28.592001,41.376003,concentric,7,5.0,31269.0,403431.0,169357.0,32094.0,-19.0
2026-04-09 22:35:48.331768,514571,3078233689,3078234461,-1.081408,-0.031232,-0.083936,4.31375,-1.46125,-9.24875,25.656002,-28.304,39.776,concentric,7,5.0,31269.0,403431.0,169357.0,32094.0,-19.0
2026-04-09 22:35:48.358460,514581,3078243422,3078245335,-1.081408,-0.031232,-0.083936,1.05875,-0.945,-10.45625,25.656002,-28.304,39.776,concentric,7,5.0,31371.0,403431.0,168799.0,31453.0,-62.0
2026-04-09 22:35:48.361924,514582,3078252401,3078254062,-1.098976,-0.013664,-0.062464,0.1575,-1.00625,-10.01,25.04,-28.312002,39.088,concentric,7,5.0,31371.0,403431.0,168799.0,31453.0,-62.0
2026-04-09 22:35:48.363304,514583,3078266926,3078269050,-1.098976,-0.013664,-0.062464,3.00125,-1.30375,-9.58125,25.04,-28.312002,39.088,concentric,7,5.0,31371.0,403431.0,168799.0,31453.0,-62.0
2026-04-09 22:35:48.365248,514584,3078275879,3078277757,-1.128256,0.031232,-0.033184,2.8175,0.315,-8.81125,23.392,-28.328001,40.192,concentric,7,5.0,31371.0,403431.0,168799.0,31453.0,-62.0
2026-04-09 22:35:48.369073,514585,3078284863,3078286464,-1.128256,0.031232,-0.033184,-0.93625,1.8725,-8.3125,23.392,-28.328001,40.192,concentric,7,5.0,31371.0,403431.0,168799.0,31453.0,-62.0
2026-04-09 22:35:48.399308,514586,3078293834,3078295145,-1.120448,-0.033184,-0.095648,-4.655,3.2025,-9.16125,24.840002,-28.04,38.640003,concentric,7,5.0,31371.0,403431.0,168799.0,31453.0,-62.0
2026-04-09 22:35:48.402898,514587,3078308360,3078310128,-1.120448,-0.033184,-0.095648,-7.77875,4.06875,-8.1375,24.840002,-28.04,38.640003,concentric,7,5.0,31371.0,403431.0,168799.0,31453.0,-62.0
2026-04-09 22:35:48.405340,514588,3078317275,3078318842,-1.1712,-0.025376,-0.124928,-5.9325,3.78875,-6.90375,25.688002,-28.072,39.208,concentric,7,5.0,31371.0,403431.0,168799.0,31453.0,-62.0
2026-04-09 22:35:48.412946,514589,3078326207,3078327542,-1.1712,-0.025376,-0.124928,-1.47,3.35125,-7.32375,25.688002,-28.072,39.208,concentric,7,5.0,31371.0,403431.0,168799.0,31453.0,-62.0
2026-04-09 22:35:48.472820,514600,3078341317,3078343064,-1.167296,-0.005856,-0.05856,1.79375,1.8725,-6.3,25.36,-28.592001,38.536003,concentric,7,5.0,31384.0,403431.0,169359.0,31903.0,-48.0
2026-04-09 22:35:48.475313,514601,3078350298,3078351828,-1.167296,-0.005856,-0.05856,1.3475,1.07625,-5.6875,25.36,-28.592001,38.536003,concentric,7,5.0,31384.0,403431.0,169359.0,31903.0,-48.0
2026-04-09 22:35:48.477812,514602,3078359250,3078360552,-1.192672,-0.00976,-0.03904,0.5425,2.02125,-5.6525,25.584002,-28.776001,40.088,concentric,7,5.0,31384.0,403431.0,169359.0,31903.0,-48.0
2026-04-09 22:35:48.480300,514603,3078368188,3078369276,-1.192672,-0.00976,-0.03904,-3.5,3.815,-3.82375,25.584002,-28.776001,40.088,concentric,7,5.0,31384.0,403431.0,169359.0,31903.0,-48.0
2026-04-09 22:35:48.482811,514604,3078382698,3078384203,-1.184864,-0.037088,-0.040992,-8.2075,4.0775,-2.24,24.672,-28.648,39.472,concentric,7,5.0,31384.0,403431.0,169359.0,31903.0,-48.0
2026-04-09 22:35:48.485325,514605,3078391647,3078392995,-1.184864,-0.037088,-0.040992,-7.21,4.40125,-1.35625,24.672,-28.648,39.472,concentric,7,5.0,31384.0,403431.0,169359.0,31903.0,-48.0
2026-04-09 22:35:48.490345,514606,3078400621,3078401785,-1.19072,0.007808,-0.080032,-4.7075,4.585,-1.4525,24.704,-28.368002,40.208,concentric,7,5.0,31384.0,403431.0,169359.0,31903.0,-48.0
2026-04-09 22:35:48.553102,514607,3078415183,3078416685,-1.237568,-0.064416,-0.101504,-1.6975,5.005,-1.93375,25.080002,-28.656002,39.712,concentric,7,5.0,31384.0,403431.0,169359.0,31903.0,-48.0
2026-04-09 22:35:48.556687,514608,3078424102,3078425384,-1.237568,-0.064416,-0.101504,-3.87625,4.87375,-1.6975,25.080002,-28.656002,39.712,concentric,7,5.0,31384.0,403431.0,169359.0,31903.0,-48.0
2026-04-09 22:35:48.559063,514609,3078433090,3078434128,-1.097024,-0.027328,0.015616,-6.8075,3.22,1.1375,25.432001,-27.888,39.416,concentric,7,5.0,31384.0,403431.0,169359.0,31903.0,-48.0
2026-04-09 22:35:48.584097,514619,3078447679,3078449035,-1.097024,-0.027328,0.015616,-5.60875,3.2375,3.6225,25.432001,-27.888,39.416,concentric,7,5.0,31319.0,403431.0,170154.0,32817.0,-26.0
2026-04-09 22:35:48.586560,514620,3078456580,3078457747,-1.139968,0.08784,0.035136,-4.47125,6.2475,2.68625,25.304,-27.864002,38.848003,concentric,7,5.0,31319.0,403431.0,170154.0,32817.0,-26.0
2026-04-09 22:35:48.589060,514621,3078465512,3078466450,-1.139968,0.08784,0.035136,-6.5975,9.93125,0.62125,25.304,-27.864002,38.848003,concentric,7,5.0,31319.0,403431.0,170154.0,32817.0,-26.0
2026-04-09 22:35:48.591656,514622,3078480035,3078481353,-1.214144,-0.011712,-0.124928,-9.695,12.46,-3.045,25.800001,-28.528002,38.776,concentric,7,5.0,31319.0,403431.0,170154.0,32817.0,-26.0
2026-04-09 22:35:48.594073,514623,3078489031,3078490149,-1.214144,-0.011712,-0.124928,-15.365,12.48625,-5.90625,25.800001,-28.528002,38.776,concentric,7,5.0,31319.0,403431.0,170154.0,32817.0,-26.0
2026-04-09 22:35:48.596568,514624,3078498071,3078498919,-1.179008,-0.089792,-0.105408,-15.5225,9.75625,-5.74,24.896002,-28.424002,40.024002,concentric,7,5.0,31319.0,403431.0,170154.0,32817.0,-26.0
2026-04-09 22:35:48.599858,514625,3078507022,3078507669,-1.179008,-0.089792,-0.105408,-9.72125,6.16875,-2.72125,24.896002,-28.424002,40.024002,concentric,7,5.0,31319.0,403431.0,170154.0,32817.0,-26.0
2026-04-09 22:35:48.604047,514626,3078521986,3078522663,-1.192672,-0.001952,-0.001952,-4.8825,3.98125,-0.84875,24.856,-28.44,40.376003,concentric,7,5.0,31319.0,403431.0,170154.0,32817.0,-26.0
2026-04-09 22:35:48.634358,514627,3078531459,3078533450,-1.192672,-0.001952,-0.001952,-2.5025,3.29875,-1.00625,24.856,-28.44,40.376003,concentric,7,5.0,31319.0,403431.0,170154.0,32817.0,-26.0
2026-04-09 22:35:48.660456,514637,3078540439,3078542114,-1.198528,-0.02928,-0.02928,-3.85875,3.03625,-2.0125,26.224,-28.320002,39.856003,concentric,7,5.0,31330.0,403431.0,170242.0,32820.0,-33.0
2026-04-09 22:35:48.662844,514638,3078549389,3078550934,-1.198528,-0.02928,-0.02928,-7.2275,3.24625,-1.4875,26.224,-28.320002,39.856003,concentric,7,5.0,31330.0,403431.0,170242.0,32820.0,-33.0
2026-04-09 22:35:48.665349,514639,3078563895,3078565877,-1.218048,-0.06832,-0.076128,-8.8025,2.765,-0.28875,25.816002,-28.472002,39.464,concentric,7,5.0,31330.0,403431.0,170242.0,32820.0,-33.0
2026-04-09 22:35:48.667862,514640,3078572927,3078574588,-1.218048,-0.017568,-0.062464,-7.69125,1.82,1.12,25.816002,-28.472002,39.552002,concentric,7,5.0,31330.0,403431.0,170242.0,32820.0,-33.0
2026-04-09 22:35:48.673873,514641,3078581912,3078583340,-1.206336,-0.017568,-0.062464,-5.2675,0.385,2.59,25.36,-28.784002,39.552002,concentric,7,5.0,31330.0,403431.0,170242.0,32820.0,-33.0
2026-04-09 22:35:48.703086,514642,3078596436,3078598244,-1.208288,0.021472,-0.025376,-1.74125,0.25375,3.325,25.552002,-29.016,39.504,concentric,7,5.0,31330.0,403431.0,170242.0,32820.0,-33.0
2026-04-09 22:35:48.706637,514643,3078605448,3078606970,-1.208288,0.021472,-0.025376,-1.02375,0.1925,2.52875,25.552002,-29.016,39.504,concentric,7,5.0,31330.0,403431.0,170242.0,32820.0,-33.0
2026-04-09 22:35:48.709150,514644,3078614346,3078615694,-1.19072,0.007808,0.003904,-4.15625,0.44625,1.23375,24.736002,-28.584002,39.472,concentric,7,5.0,31330.0,403431.0,170242.0,32820.0,-33.0
2026-04-09 22:35:48.715412,514645,3078628821,3078630586,-1.19072,0.007808,0.003904,-10.08,0.72625,-0.035,24.736002,-28.584002,39.472,concentric,7,5.0,31330.0,403431.0,170242.0,32820.0,-33.0
2026-04-09 22:35:48.721633,514646,3078637813,3078639303,-1.247328,0.001952,-0.017568,-15.2075,2.73875,-1.77625,23.968,-28.432001,40.864002,concentric,7,5.0,31330.0,403431.0,170242.0,32820.0,-33.0
