pc_time,serial_num,sensor_ts,host_ts,ax,ay,az,gx,gy,gz,mx,my,mz,phase,rpe,weight_kg,ppg_a,ppg_b,ppg_c,ppg_d,ppg_e
2026-04-07 17:50:57.236645,243897,1327568038,1327569656,-0.571936,-0.335744,0.095648,24.0975,-0.875,-2.1525,29.784002,18.248001,29.528002,eccentric,4,3.0,20665.0,305018.0,276247.0,325906.0,287121.0
2026-04-07 17:50:57.238346,243898,1327577005,1327578374,-0.628544,-0.33184,0.095648,13.93,-0.13125,0.56875,29.456001,18.2,28.216002,eccentric,4,3.0,20665.0,305018.0,276247.0,325906.0,287121.0
2026-04-07 17:50:57.242495,243899,1327591500,1327593291,-0.7808,-0.255712,-0.0488,0.93625,-0.385,5.01375,30.184002,18.248001,30.36,eccentric,4,3.0,20665.0,305018.0,276247.0,325906.0,287121.0
2026-04-07 17:50:57.244108,243900,1327600428,1327601982,-0.7808,-0.255712,-0.0488,-3.73625,-0.1575,10.815,30.184002,18.248001,30.36,eccentric,4,3.0,20665.0,305018.0,276247.0,325906.0,287121.0
2026-04-07 17:50:57.245837,243901,1327609331,1327610651,-0.77104,-0.083936,-0.122976,3.21125,1.98625,15.42625,30.256,18.472,31.800001,eccentric,4,3.0,20665.0,305018.0,276247.0,325906.0,287121.0
2026-04-07 17:50:57.249883,243902,1327623799,1327625521,-0.77104,-0.083936,-0.122976,12.845,6.6325,17.4475,30.256,18.472,31.800001,eccentric,4,3.0,20665.0,305018.0,276247.0,325906.0,287121.0
2026-04-07 17:50:57.251611,243903,1327632851,1327634259,-0.763232,-0.154208,-0.05856,12.9325,10.5,15.26,30.296001,18.072,31.248001,eccentric,4,3.0,20665.0,305018.0,276247.0,325906.0,287121.0
2026-04-07 17:50:57.253477,243904,1327641816,1327642961,-0.763232,-0.154208,-0.05856,7.0875,13.97375,12.03125,30.296001,18.072,31.248001,eccentric,4,3.0,20665.0,305018.0,276247.0,325906.0,287121.0
2026-04-07 17:50:57.258616,243905,1327650767,1327651654,-0.84912,-0.228384,0.001952,-2.2575,15.89875,11.3225,30.672,17.984001,30.752,eccentric,4,3.0,20665.0,305018.0,276247.0,325906.0,287121.0
2026-04-07 17:50:57.294391,243916,1327665585,1327666582,-0.84912,-0.228384,0.001952,-8.6975,16.23125,14.49,30.672,17.984001,30.752,eccentric,4,3.0,20166.0,300729.0,272873.0,323218.0,286118.0
2026-04-07 17:50:57.297810,243917,1327674550,1327675390,-0.833504,-0.154208,-0.072224,-10.29875,16.905,18.13,32.344,18.216002,29.112001,eccentric,4,3.0,20166.0,300729.0,272873.0,323218.0,286118.0
2026-04-07 17:50:57.299314,243918,1327683517,1327684141,-0.833504,-0.154208,-0.072224,-8.5575,18.025,19.74875,32.344,18.216002,29.112001,eccentric,4,3.0,20166.0,300729.0,272873.0,323218.0,286118.0
2026-04-07 17:50:57.306297,243919,1327698349,1327699083,-0.886208,-0.140544,-0.119072,-4.62,18.40125,18.83,32.208,18.264,29.304,eccentric,4,3.0,20166.0,300729.0,272873.0,323218.0,286118.0
2026-04-07 17:50:57.341740,243920,1327707668,1327709845,-0.886208,-0.140544,-0.119072,-1.4875,17.7975,19.2325,32.208,18.264,29.304,eccentric,4,3.0,20166.0,300729.0,272873.0,323218.0,286118.0
2026-04-07 17:50:57.344027,243921,1327716601,1327718604,-0.886208,-0.121024,-0.046848,0.21875,17.31625,20.79875,31.872002,17.096,33.2,eccentric,4,3.0,20166.0,300729.0,272873.0,323218.0,286118.0
2026-04-07 17:50:57.349647,243922,1327725536,1327727305,-0.886208,-0.121024,-0.046848,1.67125,16.03875,22.505,31.872002,17.096,33.2,eccentric,4,3.0,20166.0,300729.0,272873.0,323218.0,286118.0
2026-04-07 17:50:57.353476,243923,1327740052,1327742187,-0.931104,-0.142496,-0.070272,-1.75875,14.91875,24.272501,32.0,17.592001,29.064001,eccentric,4,3.0,20166.0,300729.0,272873.0,323218.0,286118.0
2026-04-07 17:50:57.358495,243924,1327749054,1327750873,-0.94672,-0.121024,-0.060512,-4.6025,13.27375,25.17375,32.0,17.592001,29.328001,eccentric,4,3.0,20166.0,300729.0,272873.0,323218.0,286118.0
2026-04-07 17:50:57.395497,243925,1327757996,1327759601,-0.948672,-0.121024,-0.060512,-2.9925,13.72875,25.935,32.816,18.088001,29.328001,eccentric,4,3.0,20166.0,300729.0,272873.0,323218.0,286118.0
2026-04-07 17:50:57.425371,243935,1327772568,1327774565,-1.026752,-0.056608,-0.054656,-1.21625,14.90125,27.18625,33.392002,17.288,29.232002,eccentric,4,3.0,19849.0,298041.0,270796.0,321589.0,285535.0
2026-04-07 17:50:57.426922,243936,1327781521,1327783256,-1.026752,-0.056608,-0.054656,0.90125,14.44625,27.51875,33.392002,17.288,29.232002,eccentric,4,3.0,19849.0,298041.0,270796.0,321589.0,285535.0
2026-04-07 17:50:57.431137,243937,1327790444,1327791943,-1.06384,-0.072224,-0.07808,0.62125,11.83875,27.16875,34.392002,17.008001,29.448002,eccentric,4,3.0,19849.0,298041.0,270796.0,321589.0,285535.0
2026-04-07 17:50:57.432832,243938,1327804949,1327806825,-1.06384,-0.072224,-0.07808,-5.01375,7.875,25.515,34.392002,17.008001,29.448002,eccentric,4,3.0,19849.0,298041.0,270796.0,321589.0,285535.0
2026-04-07 17:50:57.434376,243939,1327813923,1327815531,-1.089216,-0.099552,-0.052704,-3.115,6.895,25.585001,35.096,17.320002,29.376001,eccentric,4,3.0,19849.0,298041.0,270796.0,321589.0,285535.0
2026-04-07 17:50:57.438685,243940,1327823015,1327824234,-1.089216,-0.099552,-0.052704,-2.2225,6.86875,26.52125,35.096,17.320002,29.376001,eccentric,4,3.0,19849.0,298041.0,270796.0,321589.0,285535.0
2026-04-07 17:50:57.441134,243941,1327831961,1327832945,-1.097024,-0.13664,-0.167872,-7.81375,4.9525,26.13625,35.488003,17.312,28.560001,eccentric,4,3.0,19849.0,298041.0,270796.0,321589.0,285535.0
2026-04-07 17:50:57.469551,243942,1327846482,1327847843,-1.097024,-0.13664,-0.167872,-7.30625,3.885,25.366251,35.488003,17.312,28.560001,eccentric,4,3.0,19849.0,298041.0,270796.0,321589.0,285535.0
2026-04-07 17:50:57.474124,243943,1327855360,1327856533,-1.15168,-0.013664,-0.148352,0.35,1.88125,24.78875,35.744003,16.704,29.392002,eccentric,4,3.0,19849.0,298041.0,270796.0,321589.0,285535.0
2026-04-07 17:50:57.498316,243953,1327864402,1327865882,-1.15168,-0.013664,-0.148352,9.7825,1.26875,22.2075,35.744003,16.704,29.392002,eccentric,4,3.0,19621.0,295845.0,268968.0,319614.0,284156.0
2026-04-07 17:50:57.500639,243954,1327879074,1327880815,-1.206336,0.023424,-0.17568,19.50375,0.77,21.34125,36.08,17.072,29.376001,eccentric,4,3.0,19621.0,295845.0,268968.0,319614.0,284156.0
2026-04-07 17:50:57.504911,243955,1327888032,1327889559,-1.206336,0.023424,-0.17568,17.0975,0.70875,19.95875,36.08,17.072,29.376001,eccentric,4,3.0,19621.0,295845.0,268968.0,319614.0,284156.0
2026-04-07 17:50:57.506482,243956,1327896997,1327898274,-1.149728,-0.183488,-0.013664,4.38375,1.00625,16.73875,36.248,16.288,29.656002,eccentric,4,3.0,19621.0,295845.0,268968.0,319614.0,284156.0
2026-04-07 17:50:57.539315,243957,1327911608,1327913190,-1.175104,-0.1952,-0.02928,0.16625,1.19875,17.465,36.280003,16.448,29.408,eccentric,4,3.0,19621.0,295845.0,268968.0,319614.0,284156.0
2026-04-07 17:50:57.541674,243958,1327920531,1327921937,-1.175104,-0.1952,-0.02928,1.33875,0.34125,21.9275,36.280003,16.448,29.408,eccentric,4,3.0,19621.0,295845.0,268968.0,319614.0,284156.0
2026-04-07 17:50:57.546282,243959,1327929490,1327930634,-1.175104,-0.1952,0.005856,6.67625,1.785,25.9525,36.280003,16.448,29.408,eccentric,4,3.0,19621.0,295845.0,268968.0,319614.0,284156.0
2026-04-07 17:50:57.549071,243960,1327938524,1327939306,-1.165344,-0.013664,0.005856,13.72875,4.73375,28.83125,37.2,16.0,30.880001,eccentric,4,3.0,19621.0,295845.0,268968.0,319614.0,284156.0
2026-04-07 17:50:57.577103,243961,1327953033,1327954201,-1.11264,-0.025376,-0.066368,8.1375,5.25,28.805,37.744003,16.496,29.296001,eccentric,4,3.0,19621.0,295845.0,268968.0,319614.0,284156.0
2026-04-07 17:50:57.581725,243962,1327961984,1327962913,-1.11264,-0.025376,-0.066368,-4.4275,5.6,28.42,37.744003,16.496,29.296001,eccentric,4,3.0,19621.0,295845.0,268968.0,319614.0,284156.0
2026-04-07 17:50:57.612786,243973,1327970930,1327971714,-1.10288,-0.080032,-0.130784,-9.0825,6.58875,27.195,38.4,16.400002,28.720001,eccentric,4,3.0,19524.0,294854.0,268078.0,318502.0,283174.0
2026-04-07 17:50:57.615316,243974,1327985992,1327986645,-1.10288,-0.080032,-0.130784,-6.8775,6.55375,25.29625,38.4,16.400002,28.720001,eccentric,4,3.0,19524.0,294854.0,268078.0,318502.0,283174.0
2026-04-07 17:50:57.616774,243975,1327995245,1327997453,-1.100928,-0.06832,-0.060512,-1.18125,8.33875,24.36,38.056004,15.976001,29.488,eccentric,4,3.0,19524.0,294854.0,268078.0,318502.0,283174.0
2026-04-07 17:50:57.621381,243976,1328004187,1328006158,-1.100928,-0.06832,-0.060512,4.71625,8.11125,22.89,38.056004,15.976001,29.488,eccentric,4,3.0,19524.0,294854.0,268078.0,318502.0,283174.0
2026-04-07 17:50:57.622791,243977,1328013162,1328014875,-1.089216,-0.05856,-0.052704,3.745,6.85125,21.9625,37.904003,14.592001,31.704002,eccentric,4,3.0,19524.0,294854.0,268078.0,318502.0,283174.0
2026-04-07 17:50:57.652980,243978,1328027682,1328029761,-1.089216,-0.05856,-0.052704,3.01,6.16875,23.4325,37.904003,14.592001,31.704002,eccentric,4,3.0,19524.0,294854.0,268078.0,318502.0,283174.0
2026-04-07 17:50:57.657452,243979,1328036626,1328038460,-1.10288,-0.031232,-0.042944,4.96125,5.81875,26.36375,39.0,14.952001,29.304,eccentric,4,3.0,19524.0,294854.0,268078.0,318502.0,283174.0
2026-04-07 17:50:57.658947,243980,1328045546,1328047137,-1.10288,-0.031232,-0.042944,4.83,5.81,26.90625,39.0,14.952001,29.304,eccentric,4,3.0,19524.0,294854.0,268078.0,318502.0,283174.0
2026-04-07 17:50:57.696736,243981,1328060041,1328062015,-1.120448,-0.023424,-0.037088,6.055,5.66125,24.9375,39.640003,14.264001,29.44,eccentric,4,3.0,19524.0,294854.0,268078.0,318502.0,283174.0
2026-04-07 17:50:57.723717,243991,1328069080,1328070859,-1.120448,-0.023424,-0.037088,8.225,5.87125,23.59,39.640003,14.264001,29.44,eccentric,4,3.0,19620.0,295539.0,268518.0,318656.0,282995.0
2026-04-07 17:50:57.726479,243992,1328078030,1328079542,-0.981856,0.007808,-0.103456,6.50125,7.245,22.19875,39.816,14.440001,28.936,eccentric,4,3.0,19620.0,295539.0,268518.0,318656.0,282995.0
2026-04-07 17:50:57.730302,243993,1328092530,1328094427,-1.050176,-0.042944,-0.105408,2.905,9.35375,18.69,40.216003,14.048,29.496002,eccentric,4,3.0,19620.0,295539.0,268518.0,318656.0,282995.0
2026-04-07 17:50:57.731986,243994,1328101486,1328103137,-1.050176,-0.042944,-0.105408,-1.39125,8.89875,17.8675,40.216003,14.048,29.496002,eccentric,4,3.0,19620.0,295539.0,268518.0,318656.0,282995.0
2026-04-07 17:50:57.736129,243995,1328110452,1328111884,-1.050176,0.025376,-0.07808,-1.96,8.6625,18.935,40.216003,14.048,29.496002,eccentric,4,3.0,19620.0,295539.0,268518.0,318656.0,282995.0
2026-04-07 17:50:57.737769,243996,1328119391,1328120589,-1.173152,0.025376,-0.07808,3.5,7.1925,17.28125,40.456,14.264001,30.544,eccentric,4,3.0,19620.0,295539.0,268518.0,318656.0,282995.0
2026-04-07 17:50:57.741536,243997,1328133906,1328135518,-1.089216,0.07808,-0.076128,14.595,6.81625,16.17,40.312,13.624001,30.136002,eccentric,4,3.0,19620.0,295539.0,268518.0,318656.0,282995.0
2026-04-07 17:50:57.771716,243998,1328142889,1328144179,-1.089216,0.07808,-0.076128,18.2525,5.97625,13.265,40.312,13.624001,30.136002,eccentric,4,3.0,19620.0,295539.0,268518.0,318656.0,282995.0
2026-04-07 17:50:57.774037,243999,1328151815,1328152882,-1.159488,0.015616,-0.081984,12.9325,5.6,9.52,40.952003,13.728001,31.672,eccentric,4,3.0,19620.0,295539.0,268518.0,318656.0,282995.0
2026-04-07 17:50:57.806630,244009,1328166930,1328167874,-1.159488,0.015616,-0.081984,9.49375,5.25,8.505,40.952003,13.728001,31.672,eccentric,4,3.0,19741.0,296806.0,269561.0,319719.0,283750.0
2026-04-07 17:50:57.808153,244010,1328175948,1328176612,-1.071648,-0.003904,-0.08784,7.455,5.81,7.04375,41.04,13.208,29.344002,eccentric,4,3.0,19741.0,296806.0,269561.0,319719.0,283750.0
2026-04-07 17:50:57.812426,244011,1328185248,1328187375,-1.071648,-0.003904,-0.08784,5.11875,6.71125,5.99375,41.04,13.208,29.344002,eccentric,4,3.0,19741.0,296806.0,269561.0,319719.0,283750.0
2026-04-07 17:50:57.814212,244012,1328194179,1328196130,-1.139968,-0.037088,-0.064416,5.08375,8.0325,5.0575,41.2,12.944,29.376001,eccentric,4,3.0,19741.0,296806.0,269561.0,319719.0,283750.0
2026-04-07 17:50:57.815645,244013,1328208801,1328211135,-1.139968,-0.037088,-0.064416,4.05125,7.44625,5.45125,41.2,12.944,29.376001,eccentric,4,3.0,19741.0,296806.0,269561.0,319719.0,283750.0
2026-04-07 17:50:57.846690,244014,1328217812,1328219837,-1.175104,0.007808,-0.081984,2.38875,6.55375,7.30625,41.72,12.248,29.784002,eccentric,4,3.0,19741.0,296806.0,269561.0,319719.0,283750.0
2026-04-07 17:50:57.849005,244015,1328226761,1328228519,-1.175104,0.007808,-0.081984,4.4625,5.20625,8.74125,41.72,12.248,29.784002,eccentric,4,3.0,19741.0,296806.0,269561.0,319719.0,283750.0
2026-04-07 17:50:57.853535,244016,1328241274,1328243480,-1.145824,0.046848,-0.15616,5.17125,2.695,7.6475,42.000004,13.048,29.272001,eccentric,4,3.0,19741.0,296806.0,269561.0,319719.0,283750.0
2026-04-07 17:50:57.857666,244017,1328250204,1328252217,-1.145824,0.046848,-0.15616,5.4775,0.56,5.4075,42.000004,13.048,29.272001,eccentric,4,3.0,19741.0,296806.0,269561.0,319719.0,283750.0
2026-04-07 17:50:57.887983,244018,1328259141,1328260957,-1.208288,0.072224,-0.150304,8.3825,-0.5775,3.955,42.84,12.272,28.832,eccentric,4,3.0,19741.0,296806.0,269561.0,319719.0,283750.0
2026-04-07 17:50:57.919073,244029,1328268682,1328269886,-1.208288,0.072224,-0.150304,11.6375,-2.205,2.58125,42.84,12.272,28.832,eccentric,4,3.0,19912.0,298416.0,270888.0,321063.0,284628.0
2026-04-07 17:50:57.920613,244030,1328283235,1328284884,-1.19072,0.031232,-0.13664,12.1625,-3.49125,-3.2025,42.472,12.808001,29.36,eccentric,4,3.0,19912.0,298416.0,270888.0,321063.0,284628.0
2026-04-07 17:50:57.924856,244031,1328292191,1328293625,-1.208288,0.005856,-0.093696,16.75625,-4.4275,-5.34625,41.912003,11.68,32.352,eccentric,4,3.0,19912.0,298416.0,270888.0,321063.0,284628.0
2026-04-07 17:50:57.926605,244032,1328301138,1328302416,-1.208288,0.005856,-0.093696,20.71125,-5.83625,-5.85375,41.912003,11.68,32.352,eccentric,4,3.0,19912.0,298416.0,270888.0,321063.0,284628.0
2026-04-07 17:50:57.928180,244033,1328315632,1328317382,-1.218048,-0.044896,-0.054656,20.3,-5.94125,-5.46875,41.856003,11.928,32.064003,eccentric,4,3.0,19912.0,298416.0,270888.0,321063.0,284628.0
2026-04-07 17:50:57.932225,244034,1328324598,1328326070,-1.218048,-0.044896,-0.054656,18.095,-5.6175,-2.905,41.856003,11.928,32.064003,eccentric,4,3.0,19912.0,298416.0,270888.0,321063.0,284628.0
2026-04-07 17:50:57.994299,244035,1328333531,1328334791,-1.241472,-0.10736,-0.00976,14.542501,-5.53875,0.16625,42.152,11.464001,30.752,eccentric,4,3.0,19912.0,298416.0,270888.0,321063.0,284628.0
2026-04-07 17:50:57.996558,244036,1328347994,1328349705,-1.241472,-0.10736,-0.00976,8.89,-6.055,2.31875,42.152,11.464001,30.752,eccentric,4,3.0,19912.0,298416.0,270888.0,321063.0,284628.0
2026-04-07 17:50:57.999344,244037,1328356889,1328358374,-1.264896,-0.02928,-0.052704,7.77,-5.46875,5.8975,42.640003,11.920001,30.104002,eccentric,4,3.0,19912.0,298416.0,270888.0,321063.0,284628.0
2026-04-07 17:50:58.024413,244047,1328366046,1328367079,-1.264896,-0.02928,-0.052704,8.2425,-4.69,9.54625,42.640003,11.920001,30.104002,eccentric,4,3.0,20162.0,300570.0,272585.0,322282.0,284906.0
2026-04-07 17:50:58.028643,244048,1328375133,1328375867,-1.192672,-0.003904,-0.1464,7.14875,-4.935,10.7975,43.016003,11.296001,30.376001,eccentric,4,3.0,20162.0,300570.0,272585.0,322282.0,284906.0
2026-04-07 17:50:58.030642,244049,1328390026,1328390778,-1.192672,-0.003904,-0.1464,4.0775,-5.53875,10.75375,43.016003,11.296001,30.376001,eccentric,4,3.0,20162.0,300570.0,272585.0,322282.0,284906.0
2026-04-07 17:50:58.031948,244050,1328399465,1328401660,-1.223904,0.003904,-0.144448,2.625,-5.5475,9.765,44.064003,12.136001,27.784,eccentric,4,3.0,20162.0,300570.0,272585.0,322282.0,284906.0
2026-04-07 17:50:58.035976,244051,1328408421,1328410414,-1.223904,0.003904,-0.144448,4.85625,-5.845,10.73625,44.064003,12.136001,27.784,eccentric,4,3.0,20162.0,300570.0,272585.0,322282.0,284906.0
2026-04-07 17:50:58.042508,244052,1328422919,1328423270,-1.225856,-0.0488,-0.099552,8.435,-7.04375,13.7375,44.128002,10.624001,29.920002,eccentric,4,3.0,20162.0,300570.0,272585.0,322282.0,284906.0
2026-04-07 17:50:58.044904,244053,1328432184,1328434100,-1.188768,-0.02928,-0.021472,11.22625,-9.12625,17.491251,44.128002,10.72,31.256002,eccentric,4,3.0,20162.0,300570.0,272585.0,322282.0,284906.0
2026-04-07 17:50:58.049003,244054,1328441125,1328442797,-1.188768,-0.02928,-0.021472,13.32625,-10.17625,22.39125,43.56,10.72,31.256002,eccentric,4,3.0,20162.0,300570.0,272585.0,322282.0,284906.0
2026-04-07 17:50:58.079294,244055,1328450083,1328451506,-1.188768,-0.02928,-0.021472,13.79875,-10.15,25.10375,43.56,10.72,31.256002,eccentric,4,3.0,20162.0,300570.0,272585.0,322282.0,284906.0
2026-04-07 17:50:58.106476,244065,1328464553,1328466782,-1.194624,0.0488,0.021472,14.2625,-8.96875,26.57375,43.912003,10.400001,32.184002,eccentric,4,3.0,20529.0,303851.0,275149.0,324698.0,286400.0
2026-04-07 17:50:58.110868,244066,1328473514,1328475453,-1.182912,0.033184,-0.070272,10.19375,-8.68875,25.73375,44.36,9.656,30.216002,eccentric,4,3.0,20529.0,303851.0,275149.0,324698.0,286400.0
2026-04-07 17:50:58.112203,244067,1328482483,1328484199,-1.182912,0.033184,-0.070272,3.57875,-9.6775,24.89375,44.36,9.656,30.216002,eccentric,4,3.0,20529.0,303851.0,275149.0,324698.0,286400.0
2026-04-07 17:50:58.114365,244068,1328496984,1328499114,-1.139968,0.031232,-0.1464,-0.34125,-9.7475,24.64875,44.2,9.168,32.120003,eccentric,4,3.0,20529.0,303851.0,275149.0,324698.0,286400.0
2026-04-07 17:50:58.117647,244069,1328505923,1328507814,-1.139968,0.031232,-0.1464,1.015,-9.72125,23.47625,44.2,9.168,32.120003,eccentric,4,3.0,20529.0,303851.0,275149.0,324698.0,286400.0
2026-04-07 17:50:58.123610,244070,1328514871,1328516556,-1.118496,0.062464,-0.115168,4.64625,-8.855001,23.82625,44.640003,9.016001,31.496002,eccentric,4,3.0,20529.0,303851.0,275149.0,324698.0,286400.0
2026-04-07 17:50:58.152039,244071,1328529328,1328531481,-1.118496,0.062464,-0.115168,8.42625,-8.21625,24.59625,44.640003,9.016001,31.496002,eccentric,4,3.0,20529.0,303851.0,275149.0,324698.0,286400.0
2026-04-07 17:50:58.156569,244072,1328538234,1328540203,-1.130208,0.054656,-0.03904,8.00625,-8.54,24.31625,45.52,8.288,30.456001,eccentric,4,3.0,20529.0,303851.0,275149.0,324698.0,286400.0
2026-04-07 17:50:58.158146,244073,1328547142,1328548880,-1.130208,0.054656,-0.03904,5.775,-8.6975,23.84375,45.52,8.288,30.456001,eccentric,4,3.0,20529.0,303851.0,275149.0,324698.0,286400.0
2026-04-07 17:50:58.189277,244074,1328561684,1328563770,-1.149728,0.046848,-0.033184,7.21875,-8.2425,23.59,45.536003,8.88,30.904001,eccentric,4,3.0,20529.0,303851.0,275149.0,324698.0,286400.0
2026-04-07 17:50:58.216932,244085,1328570702,1328572566,-1.149728,0.046848,-0.033184,7.735,-8.575,23.45,45.536003,8.88,30.904001,eccentric,4,3.0,20792.0,306248.0,277108.0,326728.0,287980.0
2026-04-07 17:50:58.219363,244086,1328579697,1328581253,-1.116544,0.095648,-0.066368,7.86625,-8.95125,22.3475,45.592003,7.944,29.224,eccentric,4,3.0,20792.0,306248.0,277108.0,326728.0,287980.0
2026-04-07 17:50:58.221920,244087,1328588617,1328589938,-1.116544,0.095648,-0.066368,9.45,-8.225,21.02625,45.592003,7.944,29.224,eccentric,4,3.0,20792.0,306248.0,277108.0,326728.0,287980.0
2026-04-07 17:50:58.224371,244088,1328603158,1328604915,-1.09312,0.103456,-0.093696,9.31875,-6.64125,17.33375,44.752003,7.488,33.744003,eccentric,4,3.0,20792.0,306248.0,277108.0,326728.0,287980.0
2026-04-07 17:50:58.226919,244089,1328612178,1328613653,-1.09312,0.103456,-0.093696,6.78125,-5.53,14.79625,44.752003,7.488,33.744003,eccentric,4,3.0,20792.0,306248.0,277108.0,326728.0,287980.0
2026-04-07 17:50:58.229412,244090,1328621130,1328622435,-1.130208,0.08784,-0.081984,6.0025,-5.705,13.3525,44.616,7.416,33.496002,eccentric,4,3.0,20792.0,306248.0,277108.0,326728.0,287980.0
2026-04-07 17:50:58.293351,244091,1328635609,1328637343,-1.145824,0.042944,-0.05856,5.4425,-6.65,11.82125,45.320004,7.872,31.792002,eccentric,4,3.0,20792.0,306248.0,277108.0,326728.0,287980.0
2026-04-07 17:50:58.296913,244092,1328644548,1328646029,-1.145824,0.042944,-0.05856,4.5325,-7.56875,10.5,45.320004,7.872,31.792002,eccentric,4,3.0,20792.0,306248.0,277108.0,326728.0,287980.0
2026-04-07 17:50:58.301798,244093,1328653537,1328654714,-1.128256,0.01952,-0.074176,5.20625,-7.98875,9.835,45.888,8.04,31.824001,eccentric,4,3.0,20792.0,306248.0,277108.0,326728.0,287980.0
2026-04-07 17:50:58.328510,244103,1328668487,1328670110,-1.128256,0.01952,-0.074176,8.82875,-6.86,9.6425,45.888,8.04,31.824001,eccentric,4,3.0,20826.0,306939.0,277806.0,327558.0,288543.0
2026-04-07 17:50:58.330608,244104,1328677545,1328678840,-1.124352,0.03904,-0.05856,8.47,-6.125,9.1,46.064003,7.400001,31.888002,eccentric,4,3.0,20826.0,306939.0,277806.0,327558.0,288543.0
2026-04-07 17:50:58.332564,244105,1328686443,1328687528,-1.124352,0.03904,-0.05856,7.4025,-5.43375,9.56375,46.064003,7.400001,31.888002,eccentric,4,3.0,20826.0,306939.0,277806.0,327558.0,288543.0
2026-04-07 17:50:58.335376,244106,1328695370,1328696224,-1.108736,0.081984,-0.023424,7.3325,-3.9375,10.63125,46.120003,7.056,31.624,eccentric,4,3.0,20826.0,306939.0,277806.0,327558.0,288543.0
2026-04-07 17:50:58.357978,244107,1328710060,1328711132,-1.108736,0.081984,-0.023424,5.48625,-2.38875,11.45375,46.120003,7.056,31.624,eccentric,4,3.0,20826.0,306939.0,277806.0,327558.0,288543.0
2026-04-07 17:50:58.358890,244108,1328718972,1328719930,-1.130208,0.06832,-0.021472,-1.7675,-0.90125,10.14125,45.920002,7.168,33.024002,eccentric,4,3.0,20826.0,306939.0,277806.0,327558.0,288543.0
2026-04-07 17:50:58.359941,244109,1328727911,1328728686,-1.130208,0.06832,-0.021472,-11.41875,-0.44625,8.225,45.920002,7.168,33.024002,eccentric,4,3.0,20826.0,306939.0,277806.0,327558.0,288543.0
2026-04-07 17:50:58.359998,244110,1328737312,1328739473,-1.116544,0.03904,-0.037088,-17.17625,-0.49,7.95375,45.68,6.36,32.384003,eccentric,4,3.0,20826.0,306939.0,277806.0,327558.0,288543.0
2026-04-07 17:50:58.378405,244111,1328751844,1328752359,-1.116544,0.03904,-0.037088,-18.3225,0.27125,8.23375,45.68,6.36,32.384003,eccentric,4,3.0,20826.0,306939.0,277806.0,327558.0,288543.0
2026-04-07 17:50:58.381908,244112,1328761221,1328763083,-1.098976,-0.017568,-0.099552,-16.178751,-0.09625,8.6625,45.848003,6.696,31.840002,eccentric,4,3.0,20826.0,306939.0,277806.0,327558.0,288543.0
2026-04-07 17:50:58.415786,244122,1328770305,1328771849,-1.098976,-0.017568,-0.099552,-11.38375,-0.21875,10.2025,45.848003,6.696,31.840002,eccentric,4,3.0,21212.0,310634.0,280938.0,331123.0,291930.0
2026-04-07 17:50:58.418429,244123,1328784915,1328786775,-1.059936,0.025376,-0.076128,-4.865,-0.34125,11.48875,46.816,5.896,32.224003,eccentric,4,3.0,21212.0,310634.0,280938.0,331123.0,291930.0
2026-04-07 17:50:58.424583,244124,1328793834,1328795464,-1.077504,0.066368,-0.066368,-0.5075,0.665,10.64875,46.816,6.248,31.920002,eccentric,4,3.0,21212.0,310634.0,280938.0,331123.0,291930.0
2026-04-07 17:50:58.430858,244125,1328802861,1328804159,-1.077504,0.066368,-0.066368,-1.1375,1.77625,8.1375,46.536003,6.248,31.920002,eccentric,4,3.0,21212.0,310634.0,280938.0,331123.0,291930.0
2026-04-07 17:50:58.435839,244126,1328811930,1328812877,-1.077504,0.066368,-0.066368,-4.24375,1.56625,6.5975,46.536003,6.248,31.920002,eccentric,4,3.0,21212.0,310634.0,280938.0,331123.0,291930.0
2026-04-07 17:50:58.436839,244127,1328826435,1328827788,-1.091168,0.033184,-0.074176,-6.46625,1.67125,5.0225,45.784,5.544,32.84,eccentric,4,3.0,21212.0,310634.0,280938.0,331123.0,291930.0
2026-04-07 17:50:58.462168,244128,1328835438,1328836553,-1.10288,0.03904,-0.076128,-6.92125,1.51375,3.80625,46.312004,5.992,30.872002,eccentric,4,3.0,21212.0,310634.0,280938.0,331123.0,291930.0
2026-04-07 17:50:58.465691,244129,1328844387,1328845229,-1.10288,0.03904,-0.076128,-5.9325,0.81375,1.89875,46.312004,5.992,30.872002,eccentric,4,3.0,21212.0,310634.0,280938.0,331123.0,291930.0
2026-04-07 17:50:58.500972,244130,1328858888,1328860178,-1.120448,0.03904,-0.085888,-4.0075,0.0525,0.35875,47.064003,6.232,31.800001,eccentric,4,3.0,21212.0,310634.0,280938.0,331123.0,291930.0
2026-04-07 17:50:58.533122,244141,1328867848,1328869150,-1.120448,0.03904,-0.085888,-2.35375,-0.51625,0.11375,47.064003,6.232,31.800001,concentric,4,3.0,21602.0,314078.0,283768.0,334148.0,294551.0
2026-04-07 17:50:58.535620,244142,1328877804,1328880059,-1.104832,-0.017568,-0.070272,-1.89875,-0.81375,0.07875,46.904003,6.088,32.304,concentric,4,3.0,21602.0,314078.0,283768.0,334148.0,294551.0
2026-04-07 17:50:58.538184,244143,1328886728,1328888765,-1.104832,-0.017568,-0.070272,-1.33875,-0.74375,0.76125,46.904003,6.088,32.304,concentric,4,3.0,21602.0,314078.0,283768.0,334148.0,294551.0
2026-04-07 17:50:58.540721,244144,1328901285,1328901606,-1.124352,-0.027328,-0.06832,-0.97125,-0.5075,1.28625,46.304,5.832,32.16,concentric,4,3.0,21602.0,314078.0,283768.0,334148.0,294551.0
2026-04-07 17:50:58.543113,244145,1328910659,1328912437,-1.124352,-0.027328,-0.06832,-1.785,0.69125,1.26875,46.304,5.832,32.16,concentric,4,3.0,21602.0,314078.0,283768.0,334148.0,294551.0
2026-04-07 17:50:58.545666,244146,1328919697,1328921175,-1.15168,-0.001952,-0.062464,-2.51125,0.77,1.2775,46.136,5.648,32.032,concentric,4,3.0,21602.0,314078.0,283768.0,334148.0,294551.0
2026-04-07 17:50:58.548120,244147,1328934248,1328936110,-1.167296,0.021472,-0.03904,-2.6775,1.4875,1.26875,46.136,5.648,34.952003,concentric,4,3.0,21602.0,314078.0,283768.0,334148.0,294551.0
2026-04-07 17:50:58.550590,244148,1328943201,1328944888,-1.1712,0.021472,-0.03904,-4.29625,1.65375,1.05,46.312004,5.872,34.952003,concentric,4,3.0,21602.0,314078.0,283768.0,334148.0,294551.0
2026-04-07 17:50:58.592501,244149,1328952191,1328953599,-1.1712,0.021472,-0.03904,-7.00875,2.17,0.72625,46.312004,5.872,34.952003,concentric,4,3.0,21602.0,314078.0,283768.0,334148.0,294551.0
2026-04-07 17:50:58.595625,244150,1328961134,1328962290,-1.184864,0.001952,-0.03904,-11.5325,3.4825,0.55125,46.784,5.92,32.824,concentric,4,3.0,21602.0,314078.0,283768.0,334148.0,294551.0
2026-04-07 17:50:58.620558,244160,1328975683,1328977315,-1.175104,-0.023424,-0.06832,-14.2975,3.43,-0.74375,46.36,5.888001,31.344002,concentric,4,3.0,21647.0,314147.0,283660.0,333844.0,294258.0
2026-04-07 17:50:58.623157,244161,1328984623,1328986033,-1.175104,-0.023424,-0.06832,-13.4925,3.64,-2.16125,46.36,5.888001,31.344002,concentric,4,3.0,21647.0,314147.0,283660.0,333844.0,294258.0
2026-04-07 17:50:58.625584,244162,1328993524,1328994740,-1.175104,-0.023424,-0.06832,-8.9075,5.08375,-3.50875,46.36,5.888001,31.344002,concentric,4,3.0,21647.0,314147.0,283660.0,333844.0,294258.0
2026-04-07 17:50:58.628171,244163,1329008051,1329009721,-1.177056,0.013664,-0.081984,-4.52375,6.16,-5.36375,46.312004,5.56,33.04,concentric,4,3.0,21647.0,314147.0,283660.0,333844.0,294258.0
2026-04-07 17:50:58.630599,244164,1329017031,1329018449,-1.20048,0.01952,-0.070272,-1.715,6.95625,-6.60625,46.328003,5.896,32.440002,concentric,4,3.0,21647.0,314147.0,283660.0,333844.0,294258.0
2026-04-07 17:50:58.633153,244165,1329025986,1329027184,-1.20048,0.01952,-0.070272,-2.5725,6.83375,-8.0325,46.328003,5.896,32.440002,concentric,4,3.0,21647.0,314147.0,283660.0,333844.0,294258.0
2026-04-07 17:50:58.663423,244166,1329040542,1329042075,-1.188768,-0.023424,-0.052704,-5.9675,7.06125,-9.79125,45.792004,5.472,31.616001,concentric,4,3.0,21647.0,314147.0,283660.0,333844.0,294258.0
2026-04-07 17:50:58.666881,244167,1329049504,1329050801,-1.188768,-0.023424,-0.052704,-8.9775,7.76125,-10.57,45.792004,5.472,31.616001,concentric,4,3.0,21647.0,314147.0,283660.0,333844.0,294258.0
2026-04-07 17:50:58.669370,244168,1329058424,1329059533,-1.1712,-0.06832,-0.062464,-9.7825,7.9275,-10.6575,46.600002,5.768,31.248001,concentric,4,3.0,21647.0,314147.0,283660.0,333844.0,294258.0
2026-04-07 17:50:58.699470,244178,1329073621,1329074546,-1.1712,-0.06832,-0.062464,-8.505,8.25125,-10.36875,46.600002,5.768,31.248001,concentric,4,3.0,21134.0,309207.0,279400.0,328954.0,289923.0
2026-04-07 17:50:58.705628,244179,1329082708,1329083342,-1.157536,-0.06832,-0.052704,-5.635,9.19625,-10.045,46.536003,5.856,30.984001,concentric,4,3.0,21134.0,309207.0,279400.0,328954.0,289923.0
2026-04-07 17:50:58.708060,244180,1329092003,1329094116,-1.157536,-0.06832,-0.052704,-5.88,9.63375,-8.995,46.536003,5.856,30.984001,concentric,4,3.0,21134.0,309207.0,279400.0,328954.0,289923.0
2026-04-07 17:50:58.710544,244181,1329100978,1329102861,-1.159488,-0.046848,-0.070272,-6.95625,10.167501,-8.26875,46.280003,5.712,32.104,concentric,4,3.0,21134.0,309207.0,279400.0,328954.0,289923.0
2026-04-07 17:50:58.740936,244182,1329115427,1329115751,-1.167296,-0.021472,-0.080032,-6.3175,10.57875,-7.385,46.52,6.2,31.528002,concentric,4,3.0,21134.0,309207.0,279400.0,328954.0,289923.0
2026-04-07 17:50:58.744435,244183,1329124640,1329126514,-1.167296,-0.021472,-0.080032,-6.335,10.9725,-6.4575,46.52,6.2,31.528002,concentric,4,3.0,21134.0,309207.0,279400.0,328954.0,289923.0
2026-04-07 17:50:58.746917,244184,1329133557,1329135194,-1.167296,-0.021472,-0.080032,-6.9475,11.08625,-8.05875,46.52,6.2,31.528002,concentric,4,3.0,21134.0,309207.0,279400.0,328954.0,289923.0
2026-04-07 17:50:58.749368,244185,1329142473,1329143916,-1.145824,-0.037088,-0.089792,-5.78375,10.7975,-8.0675,47.168003,6.568,30.376001,concentric,4,3.0,21134.0,309207.0,279400.0,328954.0,289923.0
2026-04-07 17:50:58.780525,244186,1329157054,1329158834,-1.134112,-0.023424,-0.0976,-2.7125,10.36,-8.05,46.584003,6.592001,31.024002,concentric,4,3.0,21134.0,309207.0,279400.0,328954.0,289923.0
2026-04-07 17:50:58.785326,244187,1329165984,1329167519,-1.134112,-0.023424,-0.0976,-1.05875,10.78,-9.49375,46.584003,6.592001,31.024002,concentric,4,3.0,21134.0,309207.0,279400.0,328954.0,289923.0
2026-04-07 17:50:58.811886,244197,1329174991,1329176286,-1.134112,-0.023424,-0.080032,0.5775,10.43875,-10.0625,46.584003,6.592001,31.024002,concentric,4,3.0,20460.0,302962.0,274144.0,323239.0,285008.0
2026-04-07 17:50:58.816143,244198,1329189489,1329191244,-1.15168,0.037088,-0.080032,1.04125,10.815,-11.50625,46.480003,6.088,30.432001,concentric,4,3.0,20460.0,302962.0,274144.0,323239.0,285008.0
2026-04-07 17:50:58.817820,244199,1329198409,1329199959,-1.149728,0.013664,-0.064416,0.7,10.96375,-13.685,45.264004,6.528,31.384,concentric,4,3.0,20460.0,302962.0,274144.0,323239.0,285008.0
2026-04-07 17:50:58.819390,244200,1329207344,1329208696,-1.149728,0.013664,-0.064416,-0.385,11.73375,-15.96875,45.264004,6.528,31.384,concentric,4,3.0,20460.0,302962.0,274144.0,323239.0,285008.0
2026-04-07 17:50:58.850481,244201,1329221881,1329223617,-1.124352,0.021472,-0.081984,0.60375,11.87375,-19.41625,46.000004,6.624001,31.536001,concentric,4,3.0,20460.0,302962.0,274144.0,323239.0,285008.0
2026-04-07 17:50:58.854934,244202,1329230812,1329232302,-1.124352,0.021472,-0.081984,3.54375,13.15125,-22.26875,46.000004,6.624001,31.536001,concentric,4,3.0,20460.0,302962.0,274144.0,323239.0,285008.0
2026-04-07 17:50:58.856581,244203,1329239699,1329240991,-1.124352,0.074176,-0.081984,5.59125,15.16375,-25.27,46.464,7.008,30.096,concentric,4,3.0,20460.0,302962.0,274144.0,323239.0,285008.0
2026-04-07 17:50:58.858138,244204,1329248627,1329249683,-1.124352,0.074176,-0.081984,5.53875,17.00125,-29.75,46.464,7.008,30.096,concentric,4,3.0,20460.0,302962.0,274144.0,323239.0,285008.0
2026-04-07 17:50:58.923023,244205,1329263099,1329264642,-1.134112,0.062464,-0.085888,3.7625,18.05125,-31.911251,45.904003,7.464,31.168001,concentric,4,3.0,20460.0,302962.0,274144.0,323239.0,285008.0
2026-04-07 17:50:58.960422,244216,1329272105,1329273465,-1.134112,0.062464,-0.085888,-0.18375,18.725,-33.7225,45.904003,7.464,31.168001,concentric,4,3.0,20045.0,298981.0,270873.0,319727.0,282180.0
2026-04-07 17:50:58.961948,244217,1329281277,1329282173,-1.206336,0.066368,-0.121024,-1.925,19.53875,-36.12,46.072002,7.888001,29.928001,concentric,4,3.0,20045.0,298981.0,270873.0,319727.0,282180.0
2026-04-07 17:50:58.966153,244218,1329296512,1329297573,-1.270752,0.03904,-0.111264,2.8,20.90375,-37.4675,45.976,8.096001,29.424002,concentric,4,3.0,20045.0,298981.0,270873.0,319727.0,282180.0
2026-04-07 17:50:58.967839,244219,1329305498,1329306275,-1.270752,0.03904,-0.111264,7.21875,22.1025,-37.8175,45.976,8.096001,29.424002,concentric,4,3.0,20045.0,298981.0,270873.0,319727.0,282180.0
2026-04-07 17:50:58.969417,244220,1329314402,1329314974,-1.270752,0.03904,-0.111264,7.04375,23.2575,-38.5175,45.976,8.096001,29.424002,concentric,4,3.0,20045.0,298981.0,270873.0,319727.0,282180.0
2026-04-07 17:50:58.973669,244221,1329323568,1329325758,-1.241472,-0.040992,-0.081984,5.53,22.53125,-39.15625,45.496002,8.576,30.552002,concentric,4,3.0,20045.0,298981.0,270873.0,319727.0,282180.0
2026-04-07 17:50:58.975291,244222,1329338104,1329338674,-1.18096,0.031232,-0.128832,2.02125,21.56,-40.59125,44.256,8.928,30.984001,concentric,4,3.0,20045.0,298981.0,270873.0,319727.0,282180.0
2026-04-07 17:50:58.976860,244223,1329347591,1329349457,-1.18096,0.031232,-0.128832,0.6125,21.5075,-42.65625,44.256,8.928,30.984001,concentric,4,3.0,20045.0,298981.0,270873.0,319727.0,282180.0
2026-04-07 17:50:58.981082,244224,1329356608,1329358229,-1.192672,0.093696,-0.103456,2.33625,21.647501,-44.66,44.112003,9.992001,29.672,concentric,4,3.0,20045.0,298981.0,270873.0,319727.0,282180.0
2026-04-07 17:50:59.022900,244234,1329371770,1329373201,-1.192672,0.093696,-0.103456,3.78875,21.69125,-47.04,44.112003,9.992001,29.672,concentric,4,3.0,19625.0,294993.0,267749.0,317033.0,280910.0
2026-04-07 17:50:59.024435,244235,1329380859,1329382033,-1.198528,0.072224,-0.121024,3.82375,20.93,-48.685,44.544003,10.256001,29.544,concentric,4,3.0,19625.0,294993.0,267749.0,317033.0,280910.0
2026-04-07 17:50:59.028732,244236,1329389776,1329390792,-1.198528,0.072224,-0.121024,3.71,18.83875,-48.44,44.544003,10.256001,29.544,concentric,4,3.0,19625.0,294993.0,267749.0,317033.0,280910.0
2026-04-07 17:50:59.030360,244237,1329398789,1329399532,-1.182912,0.017568,-0.081984,5.11875,18.0775,-47.17125,43.264004,10.256001,31.496002,concentric,4,3.0,19625.0,294993.0,267749.0,317033.0,280910.0
2026-04-07 17:50:59.031980,244238,1329413696,1329414450,-1.182912,0.017568,-0.081984,5.7575,15.91625,-47.46,43.264004,10.256001,31.496002,concentric,4,3.0,19625.0,294993.0,267749.0,317033.0,280910.0
2026-04-07 17:50:59.035376,244239,1329423097,1329425255,-1.159488,0.023424,-0.046848,3.1325,14.81375,-48.09875,42.744003,10.976001,31.376001,concentric,4,3.0,19625.0,294993.0,267749.0,317033.0,280910.0
2026-04-07 17:50:59.041025,244240,1329432053,1329433983,-1.159488,0.023424,-0.046848,1.33875,15.89,-48.34375,42.744003,10.976001,31.376001,concentric,4,3.0,19625.0,294993.0,267749.0,317033.0,280910.0
2026-04-07 17:50:59.070005,244241,1329441049,1329442683,-1.194624,0.025376,-0.013664,-1.2425,17.59625,-47.81875,42.640003,11.408001,29.144001,concentric,4,3.0,19625.0,294993.0,267749.0,317033.0,280910.0
2026-04-07 17:50:59.074208,244242,1329455535,1329457567,-1.194624,0.025376,-0.013664,-6.405,17.92,-46.97,42.640003,11.408001,29.144001,concentric,4,3.0,19625.0,294993.0,267749.0,317033.0,280910.0
2026-04-07 17:50:59.075600,244243,1329464489,1329466266,-1.266848,0.060512,-0.05856,-9.9925,18.57625,-45.395,42.704002,11.792001,28.536001,concentric,4,3.0,19625.0,294993.0,267749.0,317033.0,280910.0
2026-04-07 17:50:59.104485,244253,1329474090,1329475038,-1.266848,0.060512,-0.05856,-8.295,20.41375,-42.35,42.704002,11.792001,28.536001,concentric,4,3.0,19486.0,293742.0,266662.0,315942.0,280117.0
2026-04-07 17:50:59.105714,244254,1329483201,1329483840,-1.28832,0.101504,-0.06832,-6.86875,23.8,-38.71875,41.68,12.152,30.288002,concentric,4,3.0,19486.0,293742.0,266662.0,315942.0,280117.0
2026-04-07 17:50:59.113688,244255,1329498088,1329498814,-1.272704,0.025376,0.037088,-8.015,28.385,-37.607502,41.352,13.032001,28.320002,concentric,4,3.0,19486.0,293742.0,266662.0,315942.0,280117.0
2026-04-07 17:50:59.116000,244256,1329507482,1329509701,-1.272704,0.025376,0.037088,-10.01875,35.805,-35.4025,41.352,13.032001,28.320002,concentric,4,3.0,19486.0,293742.0,266662.0,315942.0,280117.0
2026-04-07 17:50:59.134964,244257,1329516400,1329518399,-1.272704,0.025376,-0.08784,-21.595,38.38625,-36.1375,41.352,13.032001,28.320002,concentric,4,3.0,19486.0,293742.0,266662.0,315942.0,280117.0
2026-04-07 17:50:59.136524,244258,1329530892,1329531242,-1.225856,-0.101504,-0.08784,-38.24625,38.115,-39.8125,41.144,13.168,27.968,concentric,4,3.0,19486.0,293742.0,266662.0,315942.0,280117.0
2026-04-07 17:50:59.194322,244259,1329540238,1329542014,-1.253184,0.054656,-0.228384,-40.50375,37.835,-39.29625,39.944,13.144001,28.112001,concentric,4,3.0,19486.0,293742.0,266662.0,315942.0,280117.0
2026-04-07 17:50:59.198678,244260,1329549180,1329550707,-1.253184,0.054656,-0.228384,-30.598751,37.59875,-36.085,39.944,13.144001,28.112001,concentric,4,3.0,19486.0,293742.0,266662.0,315942.0,280117.0
2026-04-07 17:50:59.200337,244261,1329558124,1329559439,-1.116544,0.044896,-0.220576,-22.98625,35.76125,-34.265,39.688004,13.984,29.056002,concentric,4,3.0,19486.0,293742.0,266662.0,315942.0,280117.0
2026-04-07 17:50:59.227007,244272,1329572830,1329574396,-1.116544,0.044896,-0.220576,-24.2375,31.64875,-35.3325,39.688004,13.984,29.056002,concentric,4,3.0,19759.0,296673.0,269208.0,319011.0,282908.0
2026-04-07 17:50:59.233288,244273,1329581995,1329583129,-1.124352,-0.005856,-0.212768,-28.00875,25.17375,-36.076252,39.176003,14.304001,29.624,concentric,4,3.0,19759.0,296673.0,269208.0,319011.0,282908.0
2026-04-07 17:50:59.234523,244274,1329590925,1329591811,-1.124352,-0.005856,-0.212768,-22.39125,20.08125,-33.99375,39.176003,14.304001,29.624,concentric,4,3.0,19759.0,296673.0,269208.0,319011.0,282908.0
2026-04-07 17:50:59.238837,244275,1329605477,1329606774,-1.159488,0.103456,-0.218624,-11.042501,14.79625,-31.40375,38.824,14.464001,27.168001,concentric,4,3.0,19759.0,296673.0,269208.0,319011.0,282908.0
2026-04-07 17:50:59.240323,244276,1329614419,1329615523,-1.159488,0.103456,-0.218624,-2.28375,9.905,-31.26375,38.824,14.464001,27.168001,concentric,4,3.0,19759.0,296673.0,269208.0,319011.0,282908.0
2026-04-07 17:50:59.241887,244277,1329623380,1329624261,-1.089216,0.056608,-0.203008,1.49625,6.1775,-32.865,38.88,14.448001,27.320002,concentric,4,3.0,19759.0,296673.0,269208.0,319011.0,282908.0
2026-04-07 17:50:59.246064,244278,1329632364,1329632971,-1.089216,0.056608,-0.203008,0.8575,3.885,-34.615,38.88,14.448001,27.320002,concentric,4,3.0,19759.0,296673.0,269208.0,319011.0,282908.0
2026-04-07 17:50:59.277598,244279,1329647216,1329647857,-1.124352,-0.044896,-0.113216,-1.3125,2.31875,-34.93875,38.0,14.816001,27.808,concentric,4,3.0,19759.0,296673.0,269208.0,319011.0,282908.0
2026-04-07 17:50:59.279220,244280,1329656463,1329658632,-1.124352,-0.044896,-0.113216,-1.16375,-0.62125,-33.845,38.0,14.816001,27.808,concentric,4,3.0,19759.0,296673.0,269208.0,319011.0,282908.0
2026-04-07 17:50:59.280678,244281,1329665404,1329667335,-1.145824,0.0,-0.142496,-0.07,-3.22,-33.11875,37.144,14.336,28.504002,concentric,4,3.0,19759.0,296673.0,269208.0,319011.0,282908.0
2026-04-07 17:50:59.307518,244291,1329680030,1329682300,-1.1712,0.064416,-0.203008,0.77875,-5.8975,-31.89375,36.920002,15.504001,27.704,concentric,4,3.0,19770.0,296436.0,268786.0,318202.0,281958.0
2026-04-07 17:50:59.309113,244292,1329689095,1329691016,-1.1712,0.064416,-0.203008,4.3575,-7.62125,-31.1675,36.920002,15.504001,27.704,concentric,4,3.0,19770.0,296436.0,268786.0,318202.0,281958.0
2026-04-07 17:50:59.310831,244293,1329698037,1329699725,-1.145824,-0.001952,-0.154208,7.42875,-7.72625,-31.1325,37.384003,15.128,28.504002,concentric,4,3.0,19770.0,296436.0,268786.0,318202.0,281958.0
2026-04-07 17:50:59.314698,244294,1329707016,1329708445,-1.145824,-0.001952,-0.154208,5.3375,-8.23375,-29.2775,37.384003,15.128,28.504002,concentric,4,3.0,19770.0,296436.0,268786.0,318202.0,281958.0
2026-04-07 17:50:59.343314,244295,1329721513,1329723337,-1.192672,-0.027328,-0.160064,2.87,-10.045,-28.2275,37.032,16.104,28.264002,concentric,4,3.0,19770.0,296436.0,268786.0,318202.0,281958.0
2026-04-07 17:50:59.347898,244296,1329730434,1329732030,-1.192672,-0.027328,-0.160064,6.55375,-10.56125,-27.62375,37.032,16.104,28.264002,concentric,4,3.0,19770.0,296436.0,268786.0,318202.0,281958.0
2026-04-07 17:50:59.349449,244297,1329739388,1329740722,-1.106784,0.00976,-0.167872,9.2575,-10.43875,-25.375,36.36,15.936001,31.720001,concentric,4,3.0,19770.0,296436.0,268786.0,318202.0,281958.0
2026-04-07 17:50:59.380629,244298,1329753905,1329755680,-1.106784,0.00976,-0.167872,6.335,-10.36,-24.5175,36.36,15.936001,31.720001,concentric,4,3.0,19770.0,296436.0,268786.0,318202.0,281958.0
2026-04-07 17:50:59.382809,244299,1329762880,1329764410,-1.13216,0.007808,-0.158112,5.32875,-8.95125,-24.955,36.248,16.184,26.912,concentric,4,3.0,19770.0,296436.0,268786.0,318202.0,281958.0
2026-04-07 17:50:59.387513,244300,1329771887,1329773094,-1.13216,0.007808,-0.158112,7.83125,-6.13375,-26.08375,36.248,16.184,26.912,concentric,4,3.0,19770.0,296436.0,268786.0,318202.0,281958.0
2026-04-07 17:50:59.412444,244310,1329786383,1329788075,-1.108736,0.023424,-0.08784,10.7275,-2.68625,-26.41625,34.432003,15.576001,30.600002,concentric,4,3.0,19756.0,295812.0,268101.0,317011.0,280645.0
2026-04-07 17:50:59.414180,244311,1329795348,1329796781,-1.108736,0.023424,-0.08784,10.325,0.525,-26.95,34.432003,15.576001,30.600002,concentric,4,3.0,19756.0,295812.0,268101.0,317011.0,280645.0
2026-04-07 17:50:59.415673,244312,1329804343,1329805539,-1.143872,-0.046848,-0.122976,7.74375,3.7275,-28.0,34.664,16.928001,27.408,concentric,4,3.0,19756.0,295812.0,268101.0,317011.0,280645.0
2026-04-07 17:50:59.421301,244313,1329813265,1329814239,-1.143872,-0.046848,-0.122976,5.57375,5.2675,-28.83125,34.664,16.928001,27.408,concentric,4,3.0,19756.0,295812.0,268101.0,317011.0,280645.0
2026-04-07 17:50:59.451664,244314,1329827823,1329829161,-1.124352,0.013664,-0.138592,7.13125,7.175,-29.18125,34.848003,16.504002,28.072,concentric,4,3.0,19756.0,295812.0,268101.0,317011.0,280645.0
2026-04-07 17:50:59.454014,244315,1329836761,1329837838,-1.124352,0.013664,-0.138592,11.85625,9.5725,-30.19625,34.848003,16.504002,28.072,concentric,4,3.0,19756.0,295812.0,268101.0,317011.0,280645.0
2026-04-07 17:50:59.458546,244316,1329845667,1329846542,-1.020896,0.021472,-0.171776,14.95375,13.11625,-32.99625,34.088,16.264,29.832,concentric,4,3.0,19756.0,295812.0,268101.0,317011.0,280645.0
2026-04-07 17:50:59.494313,244317,1329860232,1329862802,-0.972096,-0.042944,-0.132736,12.915,16.28375,-37.23125,33.36,16.504002,28.848001,concentric,4,3.0,19756.0,295812.0,268101.0,317011.0,280645.0
2026-04-07 17:50:59.496549,244318,1329869211,1329871524,-0.972096,-0.042944,-0.132736,10.17625,20.02875,-40.845,33.36,16.504002,28.848001,concentric,4,3.0,19756.0,295812.0,268101.0,317011.0,280645.0
2026-04-07 17:50:59.533192,244329,1329878250,1329880288,-0.972096,-0.089792,-0.074176,8.225,22.60125,-41.405,33.36,16.504002,28.848001,concentric,4,3.0,19789.0,296268.0,268580.0,317794.0,281478.0
2026-04-07 17:50:59.541320,244330,1329892774,1329893146,-1.016992,-0.093696,-0.074176,8.9425,23.8525,-42.638752,34.152,17.456001,26.208002,concentric,4,3.0,19789.0,296268.0,268580.0,317794.0,281478.0
2026-04-07 17:50:59.542921,244331,1329902189,1329903964,-0.890112,-0.119072,-0.121024,6.615,21.90125,-41.99125,33.352,17.176,26.744001,concentric,4,3.0,19789.0,296268.0,268580.0,317794.0,281478.0
2026-04-07 17:50:59.544559,244332,1329911194,1329912680,-0.890112,-0.119072,-0.121024,1.75875,18.7425,-41.982502,33.352,17.176,26.744001,concentric,4,3.0,19789.0,296268.0,268580.0,317794.0,281478.0
2026-04-07 17:50:59.546932,244333,1329920116,1329921349,-0.728096,-0.083936,-0.163968,-2.26625,16.555,-40.80125,33.04,17.352001,27.312002,concentric,4,3.0,19789.0,296268.0,268580.0,317794.0,281478.0
2026-04-07 17:50:59.549371,244334,1329934609,1329936338,-0.728096,-0.083936,-0.163968,-6.30875,14.0175,-39.138752,33.04,17.352001,27.312002,concentric,4,3.0,19789.0,296268.0,268580.0,317794.0,281478.0
2026-04-07 17:50:59.553484,244335,1329943566,1329945038,-0.786656,-0.01952,-0.193248,-5.7925,11.4975,-38.71,32.008003,17.52,26.608002,concentric,4,3.0,19789.0,296268.0,268580.0,317794.0,281478.0
2026-04-07 17:50:59.582074,244336,1329952495,1329953746,-0.786656,-0.01952,-0.193248,3.465,10.01875,-39.1825,32.008003,17.52,26.608002,concentric,4,3.0,19789.0,296268.0,268580.0,317794.0,281478.0
2026-04-07 17:50:59.586644,244337,1329966957,1329968679,-0.669536,-0.033184,-0.052704,11.4975,9.35375,-39.1125,31.760002,17.408,27.480001,concentric,4,3.0,19789.0,296268.0,268580.0,317794.0,281478.0
2026-04-07 17:50:59.616596,244347,1329975929,1329977569,-0.669536,-0.033184,-0.052704,13.0025,8.61,-40.53,31.760002,17.408,27.480001,concentric,4,3.0,19780.0,296479.0,268848.0,318379.0,282212.0
2026-04-07 17:50:59.618140,244348,1329984956,1329986363,-0.62464,-0.171776,0.001952,7.35875,7.20125,-40.52125,31.632002,18.024,26.224,concentric,4,3.0,19780.0,296479.0,268848.0,318379.0,282212.0
2026-04-07 17:50:59.622612,244349,1329999469,1330001330,-0.601216,-0.089792,-0.07808,-1.89875,5.0225,-37.68625,30.296001,17.480001,25.920002,concentric,4,3.0,19780.0,296479.0,268848.0,318379.0,282212.0
2026-04-07 17:50:59.624214,244350,1330008436,1330010061,-0.601216,-0.089792,-0.07808,-5.915,2.695,-33.66125,30.296001,17.480001,25.920002,concentric,4,3.0,19780.0,296479.0,268848.0,318379.0,282212.0
2026-04-07 17:50:59.625681,244351,1330017358,1330018763,-0.601216,-0.089792,-0.07808,-2.5025,2.4675,-31.70125,30.296001,17.480001,25.920002,concentric,4,3.0,19780.0,296479.0,268848.0,318379.0,282212.0
2026-04-07 17:50:59.633764,244352,1330026308,1330027492,-0.552416,-0.072224,-0.0488,2.3625,5.10125,-29.04125,30.688002,17.968,27.504002,concentric,4,3.0,19780.0,296479.0,268848.0,318379.0,282212.0
2026-04-07 17:50:59.662082,244353,1330040815,1330042422,-0.589504,-0.128832,0.015616,4.3225,7.525,-26.3375,30.384,18.328001,26.104002,concentric,4,3.0,19780.0,296479.0,268848.0,318379.0,282212.0
2026-04-07 17:50:59.666611,244354,1330049725,1330051127,-0.589504,-0.128832,0.015616,2.96625,8.785,-23.94,30.384,18.328001,26.104002,concentric,4,3.0,19780.0,296479.0,268848.0,318379.0,282212.0
2026-04-07 17:50:59.668158,244355,1330058622,1330059831,-0.589504,-0.128832,0.015616,0.77875,9.4675,-19.5825,30.384,18.328001,26.104002,concentric,4,3.0,19780.0,296479.0,268848.0,318379.0,282212.0
2026-04-07 17:50:59.701916,244356,1330073110,1330074752,-0.581696,-0.124928,0.001952,-1.0675,11.2175,-14.665,30.920002,18.216002,26.864002,concentric,4,3.0,19780.0,296479.0,268848.0,318379.0,282212.0
2026-04-07 17:50:59.728701,244366,1330082045,1330083515,-0.569984,-0.121024,0.03904,-4.36625,13.16875,-9.073751,30.592001,17.92,26.176,concentric,4,3.0,19823.0,296989.0,269377.0,319025.0,282732.0
2026-04-07 17:50:59.730389,244367,1330090979,1330092215,-0.569984,-0.121024,0.03904,-10.395,14.65625,-4.13875,30.592001,17.92,26.176,concentric,4,3.0,19823.0,296989.0,269377.0,319025.0,282732.0
2026-04-07 17:50:59.731931,244368,1330105407,1330107170,-0.568032,-0.099552,-0.040992,-16.51125,15.54,-0.16625,31.12,17.848001,25.720001,concentric,4,3.0,19823.0,296989.0,269377.0,319025.0,282732.0
2026-04-07 17:50:59.736107,244369,1330114345,1330115892,-0.568032,-0.099552,-0.040992,-17.9725,16.80875,3.115,31.12,17.848001,25.720001,concentric,4,3.0,19823.0,296989.0,269377.0,319025.0,282732.0
2026-04-07 17:50:59.738537,244370,1330123293,1330124667,-0.665632,-0.072224,-0.101504,-16.6075,18.61125,6.5975,30.232002,17.560001,26.328001,concentric,4,3.0,19823.0,296989.0,269377.0,319025.0,282732.0
2026-04-07 17:50:59.804926,244371,1330137815,1330139618,-0.665632,-0.072224,-0.101504,-15.12875,19.22375,10.63125,30.232002,17.560001,26.328001,concentric,4,3.0,19823.0,296989.0,269377.0,319025.0,282732.0
2026-04-07 17:50:59.812421,244372,1330146742,1330148323,-0.669536,-0.11712,-0.124928,-14.385,17.9025,14.23625,30.424002,18.304,24.952002,concentric,4,3.0,19823.0,296989.0,269377.0,319025.0,282732.0
2026-04-07 17:50:59.814091,244373,1330155593,1330157000,-0.669536,-0.11712,-0.124928,-15.2775,16.0125,16.89625,30.424002,18.304,24.952002,concentric,4,3.0,19823.0,296989.0,269377.0,319025.0,282732.0
