pc_time,serial_num,sensor_ts,host_ts,ax,ay,az,gx,gy,gz,mx,my,mz,phase,rpe,weight_kg,ppg_a,ppg_b,ppg_c,ppg_d,ppg_e
2026-04-07 17:51:07.305491,245774,1337626381,1337628060,-0.6832,-0.13664,-0.064416,3.745,-16.0825,3.5175,32.696003,16.536001,29.600002,eccentric,4,3.0,20566.0,304085.0,275403.0,325981.0,288410.0
2026-04-07 17:51:07.306824,245775,1337635297,1337636793,-0.651968,-0.101504,-0.0488,9.61625,-15.42625,6.02,33.536003,16.44,28.2,eccentric,4,3.0,20566.0,304085.0,275403.0,325981.0,288410.0
2026-04-07 17:51:07.311521,245776,1337644239,1337645492,-0.651968,-0.101504,-0.0488,11.31375,-14.735,6.22125,33.536003,16.44,28.2,eccentric,4,3.0,20566.0,304085.0,275403.0,325981.0,288410.0
2026-04-07 17:51:07.313042,245777,1337658768,1337660461,-0.6344,-0.134688,-0.128832,7.83125,-13.06375,7.21,33.640003,16.36,27.976002,eccentric,4,3.0,20566.0,304085.0,275403.0,325981.0,288410.0
2026-04-07 17:51:07.315394,245778,1337667673,1337669151,-0.6344,-0.134688,-0.128832,1.8725,-11.27875,10.19375,33.640003,16.36,27.976002,eccentric,4,3.0,20566.0,304085.0,275403.0,325981.0,288410.0
2026-04-07 17:51:07.316835,245779,1337676627,1337677884,-0.665632,-0.162016,-0.111264,-2.37125,-10.98125,12.39,33.224003,16.320002,29.480001,eccentric,4,3.0,20566.0,304085.0,275403.0,325981.0,288410.0
2026-04-07 17:51:07.321094,245780,1337691153,1337692857,-0.665632,-0.162016,-0.111264,-1.505,-9.511251,13.83375,33.224003,16.320002,29.480001,eccentric,4,3.0,20566.0,304085.0,275403.0,325981.0,288410.0
2026-04-07 17:51:07.322808,245781,1337700139,1337701547,-0.646112,-0.144448,-0.056608,3.2375,-7.0875,14.27125,33.528,16.128,27.776001,eccentric,4,3.0,20566.0,304085.0,275403.0,325981.0,288410.0
2026-04-07 17:51:07.324347,245782,1337709107,1337710295,-0.646112,-0.144448,-0.056608,6.37,-3.5525,15.42625,33.528,16.128,27.776001,eccentric,4,3.0,20566.0,304085.0,275403.0,325981.0,288410.0
2026-04-07 17:51:07.350207,245792,1337723679,1337725353,-0.730048,-0.13664,-0.042944,5.46875,-1.37375,17.4475,34.048,15.992001,28.088001,eccentric,4,3.0,20493.0,303654.0,275145.0,325591.0,288011.0
2026-04-07 17:51:07.352734,245793,1337732627,1337734087,-0.730048,-0.13664,-0.042944,2.555,0.14875,20.53625,34.048,15.992001,28.088001,eccentric,4,3.0,20493.0,303654.0,275145.0,325591.0,288011.0
2026-04-07 17:51:07.354391,245794,1337741584,1337742784,-0.716384,-0.08784,-0.083936,-1.19,3.36,22.33875,34.432003,16.096,27.784,eccentric,4,3.0,20493.0,303654.0,275145.0,325591.0,288011.0
2026-04-07 17:51:07.358501,245795,1337750516,1337751545,-0.716384,-0.08784,-0.083936,-1.3825,6.64125,22.2425,34.432003,16.096,27.784,eccentric,4,3.0,20493.0,303654.0,275145.0,325591.0,288011.0
2026-04-07 17:51:07.390812,245796,1337765001,1337766535,-0.74176,-0.130784,-0.134688,-1.5925,7.8225,21.7,34.84,15.776001,28.192001,eccentric,4,3.0,20493.0,303654.0,275145.0,325591.0,288011.0
2026-04-07 17:51:07.393346,245797,1337773950,1337775227,-0.769088,-0.124928,-0.134688,-3.22875,6.58875,22.37375,35.024002,15.776001,28.136002,eccentric,4,3.0,20493.0,303654.0,275145.0,325591.0,288011.0
2026-04-07 17:51:07.397344,245798,1337782889,1337783942,-0.769088,-0.124928,-0.134688,-3.94625,5.6875,22.68,35.024002,15.776001,28.136002,eccentric,4,3.0,20493.0,303654.0,275145.0,325591.0,288011.0
2026-04-07 17:51:07.447017,245799,1337797397,1337798890,-0.806176,-0.076128,-0.115168,-0.5075,5.53875,22.00625,34.672,15.408001,30.016,eccentric,4,3.0,20493.0,303654.0,275145.0,325591.0,288011.0
2026-04-07 17:51:07.450478,245800,1337806355,1337807655,-0.806176,-0.076128,-0.115168,4.515,5.46,22.54,34.672,15.408001,30.016,eccentric,4,3.0,20493.0,303654.0,275145.0,325591.0,288011.0
2026-04-07 17:51:07.453073,245801,1337815264,1337816345,-0.86864,-0.064416,-0.113216,5.8625,5.17125,22.42625,36.008003,15.408001,26.632002,eccentric,4,3.0,20493.0,303654.0,275145.0,325591.0,288011.0
2026-04-07 17:51:07.480537,245811,1337829837,1337831341,-0.86864,-0.064416,-0.113216,7.02625,3.59625,21.63875,36.008003,15.408001,26.632002,eccentric,4,3.0,20396.0,302777.0,274457.0,325051.0,287814.0
2026-04-07 17:51:07.483028,245812,1337838794,1337840085,-0.874496,-0.01952,-0.105408,9.31875,1.6275,22.11125,36.248,14.712001,27.920002,eccentric,4,3.0,20396.0,302777.0,274457.0,325051.0,287814.0
2026-04-07 17:51:07.485519,245813,1337847724,1337848784,-0.874496,-0.01952,-0.105408,9.2225,1.39125,22.11125,36.248,14.712001,27.920002,eccentric,4,3.0,20396.0,302777.0,274457.0,325051.0,287814.0
2026-04-07 17:51:07.488029,245814,1337856671,1337857507,-0.958432,-0.027328,-0.03904,9.1875,2.87,20.3875,35.800003,14.784,29.824001,eccentric,4,3.0,20396.0,302777.0,274457.0,325051.0,287814.0
2026-04-07 17:51:07.490522,245815,1337871217,1337872472,-0.958432,-0.027328,-0.03904,10.01875,3.9725,19.22375,35.800003,14.784,29.824001,eccentric,4,3.0,20396.0,302777.0,274457.0,325051.0,287814.0
2026-04-07 17:51:07.493016,245816,1337880122,1337881201,-0.901824,-0.070272,-0.095648,7.04375,5.10125,19.04875,36.224003,14.144001,29.336,eccentric,4,3.0,20396.0,302777.0,274457.0,325051.0,287814.0
2026-04-07 17:51:07.495536,245817,1337889060,1337889901,-0.901824,-0.070272,-0.095648,1.68875,6.1075,18.6025,36.224003,14.144001,29.336,eccentric,4,3.0,20396.0,302777.0,274457.0,325051.0,287814.0
2026-04-07 17:51:07.525839,245818,1337903561,1337904858,-0.98576,-0.02928,-0.085888,0.74375,7.07,17.54375,36.896,14.64,29.44,eccentric,4,3.0,20396.0,302777.0,274457.0,325051.0,287814.0
2026-04-07 17:51:07.529296,245819,1337912487,1337913554,-0.98576,-0.02928,-0.085888,5.81,8.61875,17.185,36.896,14.64,29.44,eccentric,4,3.0,20396.0,302777.0,274457.0,325051.0,287814.0
2026-04-07 17:51:07.591785,245830,1337922020,1337922356,-1.081408,0.066368,-0.062464,10.955,8.81125,17.38625,37.296,14.76,27.656002,eccentric,4,3.0,20115.0,300073.0,272233.0,322822.0,286310.0
2026-04-07 17:51:07.595516,245831,1337931316,1337933149,-1.081408,0.066368,-0.062464,12.18,9.073751,16.1875,37.296,14.76,27.656002,eccentric,4,3.0,20115.0,300073.0,272233.0,322822.0,286310.0
2026-04-07 17:51:07.598057,245832,1337945917,1337948080,-1.089216,0.027328,-0.091744,9.52875,8.51375,14.805,37.912003,15.088,29.352001,eccentric,4,3.0,20115.0,300073.0,272233.0,322822.0,286310.0
2026-04-07 17:51:07.600516,245833,1337954828,1337956771,-0.997472,-0.064416,-0.10736,3.2375,7.4025,12.495,38.128002,14.568001,27.840002,eccentric,4,3.0,20115.0,300073.0,272233.0,322822.0,286310.0
2026-04-07 17:51:07.603033,245834,1337963726,1337965442,-0.997472,-0.064416,-0.10736,-1.2075,8.32125,10.15875,38.128002,14.568001,27.840002,eccentric,4,3.0,20115.0,300073.0,272233.0,322822.0,286310.0
2026-04-07 17:51:07.605539,245835,1337978238,1337980361,-1.136064,0.005856,-0.062464,3.01,9.80875,10.6225,37.944,13.888001,29.704,eccentric,4,3.0,20115.0,300073.0,272233.0,322822.0,286310.0
2026-04-07 17:51:07.608000,245836,1337987256,1337989088,-1.136064,0.005856,-0.062464,14.315001,11.165,11.85625,37.944,13.888001,29.704,eccentric,4,3.0,20115.0,300073.0,272233.0,322822.0,286310.0
2026-04-07 17:51:07.610529,245837,1337996178,1337997808,-1.046272,0.044896,-0.111264,17.045,11.99625,11.2,38.464,13.728001,30.168001,eccentric,4,3.0,20115.0,300073.0,272233.0,322822.0,286310.0
2026-04-07 17:51:07.640766,245838,1338010699,1338012752,-1.046272,0.044896,-0.111264,12.2675,12.25875,10.15,38.464,13.728001,30.168001,eccentric,4,3.0,20115.0,300073.0,272233.0,322822.0,286310.0
2026-04-07 17:51:07.670100,245848,1338019636,1338021923,-1.057984,0.003904,-0.144448,9.45875,11.0075,7.83125,39.048,13.56,28.472002,eccentric,4,3.0,20078.0,299906.0,272193.0,323017.0,286701.0
2026-04-07 17:51:07.681111,245849,1338028630,1338030759,-1.057984,0.003904,-0.144448,9.135,10.21125,7.28875,39.048,13.56,28.472002,eccentric,4,3.0,20078.0,299906.0,272193.0,323017.0,286701.0
2026-04-07 17:51:07.682780,245850,1338043224,1338043590,-1.155584,0.054656,-0.105408,11.480001,9.31,7.1575,39.112003,14.056001,29.160002,eccentric,4,3.0,20078.0,299906.0,272193.0,323017.0,286701.0
2026-04-07 17:51:07.684305,245851,1338052490,1338054396,-1.155584,0.054656,-0.105408,17.64,8.30375,6.545,39.112003,14.056001,29.160002,eccentric,4,3.0,20078.0,299906.0,272193.0,323017.0,286701.0
2026-04-07 17:51:07.688629,245852,1338061438,1338063081,-1.106784,0.07808,-0.08784,20.23,5.9325,6.88625,39.104,14.232,31.184002,eccentric,4,3.0,20078.0,299906.0,272193.0,323017.0,286701.0
2026-04-07 17:51:07.690303,245853,1338070389,1338071793,-1.106784,0.07808,-0.08784,19.8275,5.55625,5.565,39.104,14.232,31.184002,eccentric,4,3.0,20078.0,299906.0,272193.0,323017.0,286701.0
2026-04-07 17:51:07.691963,245854,1338084923,1338086707,-1.149728,0.064416,0.005856,24.0275,7.7525,5.25,40.04,13.840001,29.36,eccentric,4,3.0,20078.0,299906.0,272193.0,323017.0,286701.0
2026-04-07 17:51:07.722836,245855,1338093884,1338095446,-1.149728,0.064416,0.005856,22.303751,9.10875,6.25625,40.04,13.840001,29.36,eccentric,4,3.0,20078.0,299906.0,272193.0,323017.0,286701.0
2026-04-07 17:51:07.727405,245856,1338102813,1338104153,-1.0736,0.035136,-0.080032,10.28125,10.70125,3.50875,40.08,13.52,31.024002,eccentric,4,3.0,20078.0,299906.0,272193.0,323017.0,286701.0
2026-04-07 17:51:07.729109,245857,1338117263,1338119043,-1.16144,0.0,-0.076128,4.06,13.685,1.82875,39.688004,13.616,29.312002,eccentric,4,3.0,20078.0,299906.0,272193.0,323017.0,286701.0
2026-04-07 17:51:07.754066,245867,1338126330,1338127797,-1.16144,0.0,-0.076128,4.29625,14.42875,4.41,39.688004,13.616,29.312002,eccentric,4,3.0,20112.0,300298.0,272541.0,323425.0,287017.0
2026-04-07 17:51:07.755707,245868,1338135293,1338136508,-1.206336,0.085888,-0.0976,4.76875,14.18375,6.37,39.688004,13.672001,28.584002,eccentric,4,3.0,20112.0,300298.0,272541.0,323425.0,287017.0
2026-04-07 17:51:07.759699,245869,1338144255,1338145226,-1.206336,0.085888,-0.0976,10.9725,13.4575,6.58875,40.792004,13.672001,28.584002,eccentric,4,3.0,20112.0,300298.0,272541.0,323425.0,287017.0
2026-04-07 17:51:07.788537,245870,1338158789,1338160191,-1.194624,0.109312,-0.119072,16.0475,11.66375,6.78125,40.832,13.168,29.336,eccentric,4,3.0,20112.0,300298.0,272541.0,323425.0,287017.0
2026-04-07 17:51:07.793373,245871,1338167705,1338168882,-1.194624,0.109312,-0.119072,18.97,9.28375,5.87125,40.832,13.168,29.336,eccentric,4,3.0,20112.0,300298.0,272541.0,323425.0,287017.0
2026-04-07 17:51:07.794299,245872,1338176611,1338177556,-1.108736,0.0488,-0.121024,20.78125,8.00625,5.0575,41.2,13.144001,28.984001,eccentric,4,3.0,20112.0,300298.0,272541.0,323425.0,287017.0
2026-04-07 17:51:07.798899,245873,1338191098,1338192527,-1.108736,0.0488,-0.121024,14.86625,7.49875,3.28125,41.2,13.144001,28.984001,eccentric,4,3.0,20112.0,300298.0,272541.0,323425.0,287017.0
2026-04-07 17:51:07.829130,245874,1338200038,1338201237,-1.208288,0.007808,-0.01952,6.3175,6.79875,2.47625,40.960003,12.68,30.2,eccentric,4,3.0,20112.0,300298.0,272541.0,323425.0,287017.0
2026-04-07 17:51:07.833675,245875,1338208946,1338209912,-1.208288,0.007808,-0.01952,5.32,7.76125,5.005,40.960003,12.68,30.2,eccentric,4,3.0,20112.0,300298.0,272541.0,323425.0,287017.0
2026-04-07 17:51:07.895335,245886,1338223915,1338225413,-1.196576,0.033184,0.070272,5.425,7.42,8.84625,41.592003,12.896001,29.456001,eccentric,4,3.0,20153.0,300851.0,273084.0,324224.0,287835.0
2026-04-07 17:51:07.896827,245887,1338232940,1338234206,-1.196576,0.033184,0.070272,0.95375,7.58625,14.0525,41.592003,12.896001,29.456001,eccentric,4,3.0,20153.0,300851.0,273084.0,324224.0,287835.0
2026-04-07 17:51:07.901117,245888,1338241842,1338242952,-1.19072,0.044896,-0.001952,-1.4175,9.02125,18.375,42.24,12.616,30.088001,eccentric,4,3.0,20153.0,300851.0,273084.0,324224.0,287835.0
2026-04-07 17:51:07.902803,245889,1338250860,1338251650,-1.19072,0.044896,-0.001952,-1.4175,10.50875,21.0525,42.24,12.616,30.088001,eccentric,4,3.0,20153.0,300851.0,273084.0,324224.0,287835.0
2026-04-07 17:51:07.904415,245890,1338265321,1338266533,-1.145824,0.060512,-0.095648,-3.2375,11.68125,22.26875,42.320004,12.224001,28.912,eccentric,4,3.0,20153.0,300851.0,273084.0,324224.0,287835.0
2026-04-07 17:51:07.908633,245891,1338274244,1338275263,-1.145824,0.060512,-0.095648,-4.43625,12.792501,20.95625,42.320004,12.224001,28.912,eccentric,4,3.0,20153.0,300851.0,273084.0,324224.0,287835.0
2026-04-07 17:51:07.910320,245892,1338283302,1338283998,-1.13216,0.105408,-0.152256,-4.05125,12.285,19.22375,41.984,11.496,28.936,eccentric,4,3.0,20153.0,300851.0,273084.0,324224.0,287835.0
2026-04-07 17:51:07.911931,245893,1338298279,1338298955,-1.155584,0.148352,-0.148352,-1.995,11.15625,17.5525,42.776,11.504001,28.880001,eccentric,4,3.0,20153.0,300851.0,273084.0,324224.0,287835.0
2026-04-07 17:51:07.916634,245894,1338307567,1338309731,-1.155584,0.148352,-0.148352,0.28875,9.23125,17.92,42.776,11.504001,28.880001,eccentric,4,3.0,20153.0,300851.0,273084.0,324224.0,287835.0
2026-04-07 17:51:07.947041,245895,1338316501,1338318416,-1.124352,0.033184,-0.142496,-1.40875,5.76625,17.6225,42.912003,11.544001,28.920002,eccentric,4,3.0,20153.0,300851.0,273084.0,324224.0,287835.0
2026-04-07 17:51:07.974844,245905,1338325553,1338327155,-1.124352,0.033184,-0.142496,-6.23875,0.2275,16.625,42.912003,11.544001,28.920002,eccentric,4,3.0,20575.0,305435.0,277147.0,328995.0,291771.0
2026-04-07 17:51:07.976590,245906,1338340064,1338342126,-1.138016,0.0488,-0.109312,-6.48375,-4.095,16.7475,43.120003,11.304001,28.952002,eccentric,4,3.0,20575.0,305435.0,277147.0,328995.0,291771.0
2026-04-07 17:51:07.978163,245907,1338348984,1338350948,-1.138016,0.0488,-0.109312,3.07125,-6.57125,17.272501,43.120003,11.304001,28.952002,eccentric,4,3.0,20575.0,305435.0,277147.0,328995.0,291771.0
2026-04-07 17:51:07.982283,245908,1338357910,1338359658,-1.114592,0.128832,-0.064416,12.53875,-7.035,18.3575,43.288002,10.896001,31.152002,eccentric,4,3.0,20575.0,305435.0,277147.0,328995.0,291771.0
2026-04-07 17:51:07.983873,245909,1338372488,1338374559,-1.114592,0.128832,-0.064416,15.26875,-7.86625,18.2,43.288002,10.896001,31.152002,eccentric,4,3.0,20575.0,305435.0,277147.0,328995.0,291771.0
2026-04-07 17:51:07.990937,245910,1338381552,1338383272,-1.163392,0.140544,-0.115168,11.82125,-10.35125,17.3075,43.504,10.224001,31.008001,eccentric,4,3.0,20575.0,305435.0,277147.0,328995.0,291771.0
2026-04-07 17:51:08.019470,245911,1338390480,1338392036,-1.163392,0.140544,-0.115168,6.86,-13.1425,16.24875,43.504,10.224001,31.008001,eccentric,4,3.0,20575.0,305435.0,277147.0,328995.0,291771.0
2026-04-07 17:51:08.024249,245912,1338404999,1338406929,-1.128256,0.148352,-0.134688,6.64125,-13.37875,14.6825,43.128002,9.808001,30.784002,eccentric,4,3.0,20575.0,305435.0,277147.0,328995.0,291771.0
2026-04-07 17:51:08.025617,245913,1338413912,1338415607,-1.128256,0.148352,-0.134688,8.505,-12.73125,12.39875,43.128002,9.808001,30.784002,eccentric,4,3.0,20575.0,305435.0,277147.0,328995.0,291771.0
2026-04-07 17:51:08.054008,245923,1338423124,1338424444,-1.18096,0.121024,-0.10736,6.86,-12.5475,10.57,43.872,10.360001,29.184002,eccentric,4,3.0,21192.0,311116.0,281944.0,333865.0,295020.0
2026-04-07 17:51:08.056499,245924,1338432296,1338433237,-1.18096,0.121024,-0.10736,5.0925,-13.8075,8.015,43.872,10.360001,29.184002,eccentric,4,3.0,21192.0,311116.0,281944.0,333865.0,295020.0
2026-04-07 17:51:08.058830,245925,1338446873,1338448222,-1.214144,0.080032,-0.076128,6.405,-14.752501,7.7525,43.392002,8.912001,30.640001,eccentric,4,3.0,21192.0,311116.0,281944.0,333865.0,295020.0
2026-04-07 17:51:08.061930,245926,1338455794,1338456880,-1.214144,0.080032,-0.076128,7.385,-15.4,11.06,43.392002,8.912001,30.640001,eccentric,4,3.0,21192.0,311116.0,281944.0,333865.0,295020.0
2026-04-07 17:51:08.092956,245927,1338464745,1338465594,-1.19072,0.105408,-0.074176,8.225,-15.95125,11.655,43.864002,9.352,28.624,eccentric,4,3.0,21192.0,311116.0,281944.0,333865.0,295020.0
2026-04-07 17:51:08.101269,245928,1338479226,1338480477,-1.149728,0.144448,-0.101504,8.46125,-15.28625,11.57625,44.624,9.320001,30.072,eccentric,4,3.0,21192.0,311116.0,281944.0,333865.0,295020.0
2026-04-07 17:51:08.102886,245929,1338488124,1338489195,-1.149728,0.144448,-0.101504,6.7375,-14.5775,13.011251,44.624,9.320001,30.072,eccentric,4,3.0,21192.0,311116.0,281944.0,333865.0,295020.0
2026-04-07 17:51:08.105469,245930,1338497080,1338497881,-1.177056,0.132736,-0.085888,4.17375,-14.971251,13.25625,44.824,9.392,30.776001,eccentric,4,3.0,21192.0,311116.0,281944.0,333865.0,295020.0
2026-04-07 17:51:08.167977,245931,1338511573,1338512873,-1.177056,0.132736,-0.085888,3.92875,-14.315001,12.18,44.824,9.392,30.776001,eccentric,4,3.0,21192.0,311116.0,281944.0,333865.0,295020.0
2026-04-07 17:51:08.172393,245932,1338520511,1338521571,-1.235616,0.080032,-0.060512,3.6575,-13.667501,12.1625,45.312,8.784,30.400002,eccentric,4,3.0,21192.0,311116.0,281944.0,333865.0,295020.0
2026-04-07 17:51:08.203597,245943,1338529491,1338530324,-1.235616,0.080032,-0.060512,1.5925,-13.825,12.573751,45.312,8.784,30.400002,eccentric,4,3.0,22030.0,319425.0,288919.0,341716.0,301368.0
2026-04-07 17:51:08.205324,245944,1338538410,1338539013,-1.19072,0.060512,-0.076128,0.72625,-14.48125,13.545,45.352,8.480001,32.936,eccentric,4,3.0,22030.0,319425.0,288919.0,341716.0,301368.0
2026-04-07 17:51:08.206829,245945,1338553189,1338553905,-1.19072,0.060512,-0.076128,0.8225,-14.980001,14.980001,45.352,8.480001,32.936,eccentric,4,3.0,22030.0,319425.0,288919.0,341716.0,301368.0
2026-04-07 17:51:08.211095,245946,1338562661,1338564612,-1.167296,0.105408,-0.115168,3.29875,-15.96,14.51625,45.392002,8.496,30.848001,eccentric,4,3.0,22030.0,319425.0,288919.0,341716.0,301368.0
2026-04-07 17:51:08.213940,245947,1338571654,1338573362,-1.167296,0.105408,-0.115168,6.48375,-16.02125,14.07,45.392002,8.496,30.848001,eccentric,4,3.0,22030.0,319425.0,288919.0,341716.0,301368.0
2026-04-07 17:51:08.217768,245948,1338586235,1338588335,-1.128256,0.10736,-0.134688,6.8075,-17.5525,12.87125,44.960003,8.008,31.048002,eccentric,4,3.0,22030.0,319425.0,288919.0,341716.0,301368.0
2026-04-07 17:51:08.219283,245949,1338595183,1338597054,-1.128256,0.10736,-0.134688,4.40125,-18.8125,11.33125,44.960003,8.008,31.048002,eccentric,4,3.0,22030.0,319425.0,288919.0,341716.0,301368.0
2026-04-07 17:51:08.223645,245950,1338604132,1338605770,-1.118496,0.12688,-0.111264,3.57,-18.305,9.135,45.312,8.072001,33.208,eccentric,4,3.0,22030.0,319425.0,288919.0,341716.0,301368.0
2026-04-07 17:51:08.226090,245951,1338613131,1338614516,-1.118496,0.12688,-0.111264,5.0225,-16.89625,7.5775,45.312,8.072001,33.208,eccentric,4,3.0,22030.0,319425.0,288919.0,341716.0,301368.0
2026-04-07 17:51:08.251544,245961,1338627793,1338629635,-1.149728,0.138592,-0.035136,5.43375,-16.7475,7.105,45.072002,7.504,32.648003,eccentric,4,3.0,23273.0,331076.0,298585.0,352296.0,310283.0
2026-04-07 17:51:08.253088,245962,1338636784,1338638414,-1.149728,0.138592,-0.05856,2.45875,-18.6025,5.83625,45.072002,7.504,32.648003,eccentric,4,3.0,23273.0,331076.0,298585.0,352296.0,310283.0
2026-04-07 17:51:08.257254,245963,1338645710,1338647105,-1.120448,0.081984,-0.05856,0.60375,-19.985,4.57625,45.568,7.36,32.264,eccentric,4,3.0,23273.0,331076.0,298585.0,352296.0,310283.0
2026-04-07 17:51:08.285755,245964,1338660379,1338662021,-1.124352,0.109312,-0.081984,3.54375,-20.36125,3.29,46.192,7.704001,31.864002,eccentric,4,3.0,23273.0,331076.0,298585.0,352296.0,310283.0
2026-04-07 17:51:08.290244,245965,1338669319,1338670744,-1.124352,0.109312,-0.081984,7.28875,-19.60875,2.03875,46.192,7.704001,31.864002,eccentric,4,3.0,23273.0,331076.0,298585.0,352296.0,310283.0
2026-04-07 17:51:08.292675,245966,1338678247,1338679425,-1.120448,0.109312,-0.076128,4.1125,-19.0925,-0.21,46.256,6.896,33.16,eccentric,4,3.0,23273.0,331076.0,298585.0,352296.0,310283.0
2026-04-07 17:51:08.323025,245967,1338692787,1338694347,-1.120448,0.109312,-0.076128,0.7175,-18.8825,-2.26625,46.256,6.896,33.16,eccentric,4,3.0,23273.0,331076.0,298585.0,352296.0,310283.0
2026-04-07 17:51:08.325209,245968,1338701758,1338703080,-1.159488,0.121024,-0.03904,0.83125,-18.94375,-4.06875,45.320004,6.728,32.920002,eccentric,4,3.0,23273.0,331076.0,298585.0,352296.0,310283.0
2026-04-07 17:51:08.329831,245969,1338710686,1338711761,-1.159488,0.121024,-0.03904,1.84625,-19.36375,-4.31375,45.320004,6.728,32.920002,eccentric,4,3.0,23273.0,331076.0,298585.0,352296.0,310283.0
2026-04-07 17:51:08.331574,245970,1338719580,1338720427,-1.15168,0.066368,-0.054656,3.0625,-19.99375,-5.24125,45.648003,7.624001,32.744003,eccentric,4,3.0,23273.0,331076.0,298585.0,352296.0,310283.0
2026-04-07 17:51:08.354405,245980,1338734143,1338735473,-1.15168,0.066368,-0.054656,3.395,-20.58,-5.11,45.648003,7.624001,32.744003,eccentric,4,3.0,24411.0,341503.0,307326.0,361866.0,317817.0
2026-04-07 17:51:08.359988,245981,1338743116,1338744251,-1.143872,0.046848,-0.050752,2.9225,-20.22125,-3.70125,45.56,7.16,32.920002,eccentric,4,3.0,24411.0,341503.0,307326.0,361866.0,317817.0
2026-04-07 17:51:08.362705,245982,1338752044,1338752949,-1.143872,0.046848,-0.050752,2.59875,-19.87125,-2.28375,45.56,7.16,32.920002,eccentric,4,3.0,24411.0,341503.0,307326.0,361866.0,317817.0
2026-04-07 17:51:08.394171,245983,1338766523,1338767886,-1.139968,0.035136,-0.056608,2.52875,-18.92625,-1.54,45.504,7.072001,33.4,eccentric,4,3.0,24411.0,341503.0,307326.0,361866.0,317817.0
2026-04-07 17:51:08.398629,245984,1338775435,1338776569,-1.139968,0.035136,-0.056608,1.05,-17.19375,-0.62125,45.504,7.072001,33.4,eccentric,4,3.0,24411.0,341503.0,307326.0,361866.0,317817.0
2026-04-07 17:51:08.402169,245985,1338784346,1338785270,-1.128256,0.054656,-0.025376,0.175,-14.84875,0.76125,45.552002,6.816001,33.248,eccentric,4,3.0,24411.0,341503.0,307326.0,361866.0,317817.0
2026-04-07 17:51:08.407197,245986,1338798830,1338800209,-1.157536,0.085888,-0.00976,1.47,-13.37875,2.065,45.176003,6.712,36.112003,eccentric,4,3.0,24411.0,341503.0,307326.0,361866.0,317817.0
2026-04-07 17:51:08.467961,245987,1338807766,1338808900,-1.157536,0.085888,-0.00976,0.70875,-11.83,2.73875,45.176003,6.712,36.112003,eccentric,4,3.0,24411.0,341503.0,307326.0,361866.0,317817.0
2026-04-07 17:51:08.470200,245988,1338816682,1338817560,-1.157536,0.085888,-0.00976,-3.6925,-11.38375,3.36875,45.176003,6.712,36.112003,eccentric,4,3.0,24411.0,341503.0,307326.0,361866.0,317817.0
2026-04-07 17:51:08.503170,245999,1338831260,1338832723,-1.153632,0.062464,-0.01952,-9.16125,-10.52625,3.54375,45.744003,6.76,33.784,eccentric,4,3.0,24952.0,346482.0,311538.0,366498.0,321513.0
2026-04-07 17:51:08.505453,246000,1338840165,1338841439,-1.18096,0.003904,-0.076128,-13.475,-9.63375,4.27,45.336002,5.824,33.864002,eccentric,4,3.0,24952.0,346482.0,311538.0,366498.0,321513.0
2026-04-07 17:51:08.506859,246001,1338849070,1338850179,-1.18096,0.003904,-0.076128,-16.38875,-9.02125,5.565,45.336002,5.824,33.864002,eccentric,4,3.0,24952.0,346482.0,311538.0,366498.0,321513.0
2026-04-07 17:51:08.512989,246002,1338857969,1338858894,-1.18096,-0.00976,-0.076128,-17.89375,-8.295,6.475,45.336002,5.824,33.864002,eccentric,4,3.0,24952.0,346482.0,311538.0,366498.0,321513.0
2026-04-07 17:51:08.513229,246003,1338872615,1338873845,-1.155584,-0.00976,-0.076128,-17.45625,-8.58375,7.8575,45.448,6.688,33.776,eccentric,4,3.0,24952.0,346482.0,311538.0,366498.0,321513.0
2026-04-07 17:51:08.515799,246004,1338881572,1338882598,-1.157536,-0.005856,-0.074176,-14.16625,-8.02375,8.77625,45.256,5.592001,34.552002,eccentric,4,3.0,24952.0,346482.0,311538.0,366498.0,321513.0
2026-04-07 17:51:08.523694,246005,1338890529,1338891360,-1.157536,-0.005856,-0.074176,-10.2725,-7.84,9.19625,45.256,5.592001,34.552002,eccentric,4,3.0,24952.0,346482.0,311538.0,366498.0,321513.0
2026-04-07 17:51:08.525286,246006,1338905027,1338906267,-1.139968,0.003904,-0.056608,-5.3375,-6.67625,8.49625,45.800003,5.904,33.824,eccentric,4,3.0,24952.0,346482.0,311538.0,366498.0,321513.0
2026-04-07 17:51:08.526885,246007,1338913917,1338915021,-1.139968,0.003904,-0.056608,0.49,-5.27625,7.41125,45.800003,5.904,33.824,eccentric,4,3.0,24952.0,346482.0,311538.0,366498.0,321513.0
2026-04-07 17:51:08.531117,246008,1338922877,1338923717,-1.14192,0.080032,-0.005856,4.4625,-3.64,6.23875,45.816,5.368,33.912003,eccentric,4,3.0,24952.0,346482.0,311538.0,366498.0,321513.0
2026-04-07 17:51:08.555370,246018,1338937414,1338938676,-1.14192,0.080032,-0.005856,3.73625,-2.38875,4.57625,45.816,5.368,33.912003,eccentric,4,3.0,25037.0,347489.0,312392.0,367553.0,322266.0
2026-04-07 17:51:08.556866,246019,1338946345,1338947413,-1.130208,0.052704,-0.007808,-4.2525,-1.0675,3.43875,45.656002,5.968,33.976,eccentric,4,3.0,25037.0,347489.0,312392.0,367553.0,322266.0
2026-04-07 17:51:08.563505,246020,1338955263,1338956114,-1.130208,0.052704,-0.007808,-14.2975,-1.4175,2.66875,45.656002,5.968,33.976,eccentric,4,3.0,25037.0,347489.0,312392.0,367553.0,322266.0
2026-04-07 17:51:08.592134,246021,1338969734,1338971018,-1.126304,-0.017568,0.007808,-20.08125,-1.6625,1.155,45.576004,5.864,33.248,eccentric,4,3.0,25037.0,347489.0,312392.0,367553.0,322266.0
2026-04-07 17:51:08.596555,246022,1338978666,1338979757,-1.136064,-0.017568,-0.005856,-19.4075,-0.56875,0.385,45.576004,5.864,33.152,eccentric,4,3.0,25037.0,347489.0,312392.0,367553.0,322266.0
2026-04-07 17:51:08.598033,246023,1338987561,1338988464,-1.136064,-0.017568,-0.005856,-15.05,0.46375,0.4725,45.856003,5.336,33.152,eccentric,4,3.0,25037.0,347489.0,312392.0,367553.0,322266.0
2026-04-07 17:51:08.629162,246024,1339002063,1339003373,-1.126304,-0.037088,-0.046848,-13.58875,0.8925,0.28,45.280003,5.392,35.216003,eccentric,4,3.0,25037.0,347489.0,312392.0,367553.0,322266.0
2026-04-07 17:51:08.633572,246025,1339010988,1339012072,-1.126304,-0.037088,-0.046848,-14.79625,1.3475,0.0875,45.280003,5.392,35.216003,eccentric,4,3.0,25037.0,347489.0,312392.0,367553.0,322266.0
2026-04-07 17:51:08.635318,246026,1339019880,1339020746,-1.120448,-0.007808,-0.021472,-15.54875,1.72375,-0.44625,45.480003,5.696,34.36,eccentric,4,3.0,25037.0,347489.0,312392.0,367553.0,322266.0
2026-04-07 17:51:08.664219,246036,1339029011,1339029639,-1.120448,-0.007808,-0.021472,-15.47,3.0275,-2.1875,45.480003,5.696,34.36,eccentric,4,3.0,24827.0,345828.0,311002.0,366057.0,320894.0
2026-04-07 17:51:08.666555,246037,1339043878,1339044632,-1.134112,-0.015616,-0.017568,-17.2025,3.6575,-4.9525,45.36,5.816001,33.352,eccentric,4,3.0,24827.0,345828.0,311002.0,366057.0,320894.0
2026-04-07 17:51:08.668045,246038,1339053312,1339055399,-1.134112,-0.015616,-0.017568,-20.7025,3.08,-6.76375,45.36,5.816001,33.352,eccentric,4,3.0,24827.0,345828.0,311002.0,366057.0,320894.0
2026-04-07 17:51:08.670952,246039,1339062313,1339064128,-1.118496,-0.025376,-0.040992,-22.72375,2.5025,-7.37625,45.328003,5.056,34.408,eccentric,4,3.0,24827.0,345828.0,311002.0,366057.0,320894.0
2026-04-07 17:51:08.701735,246040,1339071307,1339072857,-1.118496,-0.025376,-0.040992,-21.0525,3.94625,-7.20125,45.328003,5.056,34.408,eccentric,4,3.0,24827.0,345828.0,311002.0,366057.0,320894.0
2026-04-07 17:51:08.706417,246041,1339085785,1339087791,-1.11264,-0.056608,-0.050752,-18.99625,5.76625,-6.5625,45.88,5.784,33.512,eccentric,4,3.0,24827.0,345828.0,311002.0,366057.0,320894.0
2026-04-07 17:51:08.759563,246042,1339094714,1339096493,-1.11264,-0.056608,-0.050752,-17.605,6.93875,-7.23625,45.88,5.784,33.512,eccentric,4,3.0,24827.0,345828.0,311002.0,366057.0,320894.0
2026-04-07 17:51:08.783681,246043,1339103588,1339105192,-1.104832,-0.03904,-0.001952,-15.417501,7.72625,-7.32375,46.2,6.552001,32.712,eccentric,4,3.0,24827.0,345828.0,311002.0,366057.0,320894.0
2026-04-07 17:51:08.785315,246044,1339118092,1339120106,-1.104832,-0.03904,-0.001952,-13.93,9.42375,-8.25125,46.2,6.552001,32.712,eccentric,4,3.0,24827.0,345828.0,311002.0,366057.0,320894.0
2026-04-07 17:51:08.812280,246055,1339127581,1339128888,-1.100928,-0.021472,-0.011712,-14.27125,11.20875,-10.05375,45.68,6.128,33.296,eccentric,4,3.0,23956.0,337910.0,304488.0,359018.0,315501.0
2026-04-07 17:51:08.816104,246056,1339136551,1339137624,-1.100928,-0.021472,-0.011712,-15.51375,12.90625,-11.31375,45.68,6.128,33.296,eccentric,4,3.0,23956.0,337910.0,304488.0,359018.0,315501.0
2026-04-07 17:51:08.817796,246057,1339151021,1339152559,-1.118496,0.01952,-0.031232,-17.28125,14.30625,-11.2875,45.872,6.384,32.096,eccentric,4,3.0,23956.0,337910.0,304488.0,359018.0,315501.0
2026-04-07 17:51:08.819342,246058,1339159939,1339161261,-1.120448,-0.003904,-0.050752,-18.34875,15.855001,-13.1425,45.640003,5.936,33.632,eccentric,4,3.0,23956.0,337910.0,304488.0,359018.0,315501.0
2026-04-07 17:51:08.823776,246059,1339168859,1339169940,-1.120448,-0.003904,-0.050752,-21.1925,16.87,-14.805,45.640003,5.936,33.632,eccentric,4,3.0,23956.0,337910.0,304488.0,359018.0,315501.0
2026-04-07 17:51:08.825367,246060,1339177772,1339178677,-1.120448,-0.003904,-0.050752,-24.64875,17.26375,-14.7875,45.640003,5.936,33.632,eccentric,4,3.0,23956.0,337910.0,304488.0,359018.0,315501.0
2026-04-07 17:51:08.826887,246061,1339192304,1339193558,-1.14192,-0.040992,-0.050752,-23.7475,16.94875,-16.66,45.824,6.088,31.528002,eccentric,4,3.0,23956.0,337910.0,304488.0,359018.0,315501.0
2026-04-07 17:51:08.832799,246062,1339201285,1339202363,-1.120448,-0.066368,-0.060512,-19.2675,17.56125,-17.9725,44.912003,6.144,32.344,eccentric,4,3.0,23956.0,337910.0,304488.0,359018.0,315501.0
2026-04-07 17:51:08.832871,246063,1339210312,1339211147,-1.120448,-0.066368,-0.060512,-13.545,18.1825,-18.29625,44.912003,6.144,32.344,eccentric,4,3.0,23956.0,337910.0,304488.0,359018.0,315501.0
2026-04-07 17:51:08.834337,246064,1339224878,1339226070,-1.167296,-0.027328,-0.056608,-8.8725,20.15125,-20.02,45.168003,6.416,32.784,concentric,4,3.0,23956.0,337910.0,304488.0,359018.0,315501.0
2026-04-07 17:51:08.861092,246074,1339233869,1339234885,-1.167296,-0.027328,-0.056608,-6.5275,21.8575,-20.79,45.168003,6.416,32.784,concentric,4,3.0,22692.0,326032.0,294424.0,347831.0,305623.0
2026-04-07 17:51:08.862793,246075,1339242827,1339243747,-1.159488,-0.005856,-0.042944,-6.37875,22.3475,-20.4225,44.944,6.896,32.688,concentric,4,3.0,22692.0,326032.0,294424.0,347831.0,305623.0
2026-04-07 17:51:08.864363,246076,1339257377,1339258613,-1.159488,-0.005856,-0.042944,-7.44625,22.67125,-20.48375,44.944,6.896,32.688,concentric,4,3.0,22692.0,326032.0,294424.0,347831.0,305623.0
2026-04-07 17:51:08.895425,246077,1339266391,1339267360,-1.1712,0.001952,-0.056608,-8.417501,24.33375,-21.53375,44.728,7.056,32.440002,concentric,4,3.0,22692.0,326032.0,294424.0,347831.0,305623.0
2026-04-07 17:51:08.897696,246078,1339275316,1339276069,-1.1712,0.001952,-0.056608,-11.34,25.8825,-22.56625,44.728,7.056,32.440002,concentric,4,3.0,22692.0,326032.0,294424.0,347831.0,305623.0
2026-04-07 17:51:08.902459,246079,1339284692,1339286822,-1.1712,-0.076128,-0.052704,-12.9675,26.7925,-21.647501,45.536003,7.672,30.408,concentric,4,3.0,22692.0,326032.0,294424.0,347831.0,305623.0
2026-04-07 17:51:08.907292,246080,1339299263,1339299660,-1.1712,-0.076128,-0.052704,-13.0375,27.88625,-19.03125,45.536003,7.672,30.408,concentric,4,3.0,22692.0,326032.0,294424.0,347831.0,305623.0
2026-04-07 17:51:08.935756,246081,1339308614,1339310469,-1.167296,-0.132736,-0.062464,-10.96375,29.09375,-15.86375,44.840004,7.656,29.144001,concentric,4,3.0,22692.0,326032.0,294424.0,347831.0,305623.0
2026-04-07 17:51:08.940305,246082,1339317563,1339319207,-1.167296,-0.132736,-0.062464,-6.55375,30.73875,-13.41375,44.840004,7.656,29.144001,concentric,4,3.0,22692.0,326032.0,294424.0,347831.0,305623.0
2026-04-07 17:51:08.966829,246092,1339332252,1339334166,-1.21024,-0.0488,-0.040992,-3.85875,31.99,-10.07125,45.376003,7.896,29.608002,concentric,4,3.0,21836.0,317314.0,286983.0,339360.0,298873.0
2026-04-07 17:51:08.969261,246093,1339341297,1339342880,-1.270752,0.046848,-0.070272,-1.085,32.26125,-7.62125,45.144,8.0,30.624,concentric,4,3.0,21836.0,317314.0,286983.0,339360.0,298873.0
2026-04-07 17:51:08.972772,246094,1339350295,1339351631,-1.270752,0.046848,-0.070272,2.45,31.710001,-6.44875,45.144,8.0,30.624,concentric,4,3.0,21836.0,317314.0,286983.0,339360.0,298873.0
2026-04-07 17:51:08.974275,246095,1339359308,1339360397,-1.270752,0.046848,-0.070272,4.78625,31.80625,-6.23875,45.144,8.0,30.624,concentric,4,3.0,21836.0,317314.0,286983.0,339360.0,298873.0
2026-04-07 17:51:08.982379,246096,1339373847,1339375332,-1.270752,0.064416,-0.083936,3.15875,32.655,-8.05,45.208004,8.296001,31.440002,concentric,4,3.0,21836.0,317314.0,286983.0,339360.0,298873.0
2026-04-07 17:51:09.010796,246097,1339382789,1339384030,-1.29808,0.072224,-0.046848,-0.49,32.7425,-9.98375,44.984,8.400001,29.624,concentric,4,3.0,21836.0,317314.0,286983.0,339360.0,298873.0
2026-04-07 17:51:09.015347,246098,1339391728,1339392782,-1.29808,0.072224,-0.046848,-0.62125,32.375,-11.480001,44.984,8.400001,29.624,concentric,4,3.0,21836.0,317314.0,286983.0,339360.0,298873.0
2026-04-07 17:51:09.016872,246099,1339406231,1339407737,-1.282464,0.113216,-0.103456,2.40625,31.75375,-13.6325,45.424004,9.128,28.224,concentric,4,3.0,21836.0,317314.0,286983.0,339360.0,298873.0
2026-04-07 17:51:09.023435,246100,1339415267,1339416435,-1.282464,0.113216,-0.103456,4.08625,31.68375,-17.70125,45.424004,9.128,28.224,concentric,4,3.0,21836.0,317314.0,286983.0,339360.0,298873.0
2026-04-07 17:51:09.069251,246101,1339424197,1339425132,-1.30784,0.128832,-0.109312,4.31375,31.5525,-21.39375,44.976,8.92,28.128002,concentric,4,3.0,21836.0,317314.0,286983.0,339360.0,298873.0
2026-04-07 17:51:09.098598,246112,1339438804,1339440538,-1.30784,0.128832,-0.109312,4.34875,32.54125,-24.40375,44.976,8.92,28.128002,concentric,4,3.0,21179.0,310637.0,281230.0,332930.0,294049.0
2026-04-07 17:51:09.100267,246113,1339447723,1339449241,-1.321504,0.052704,-0.064416,5.18,33.24125,-26.7225,44.4,9.696,27.912,concentric,4,3.0,21179.0,310637.0,281230.0,332930.0,294049.0
2026-04-07 17:51:09.101868,246114,1339456659,1339457944,-1.321504,0.052704,-0.064416,4.7775,33.81,-27.7025,44.4,9.696,27.912,concentric,4,3.0,21179.0,310637.0,281230.0,332930.0,294049.0
2026-04-07 17:51:09.106131,246115,1339465569,1339466653,-1.344928,0.003904,-0.10736,2.31875,31.7975,-28.6125,44.688004,9.216001,27.512001,concentric,4,3.0,21179.0,310637.0,281230.0,332930.0,294049.0
2026-04-07 17:51:09.107755,246116,1339480228,1339481665,-1.344928,0.003904,-0.10736,2.1875,29.855,-29.07625,44.688004,9.216001,27.512001,concentric,4,3.0,21179.0,310637.0,281230.0,332930.0,294049.0
2026-04-07 17:51:09.109333,246117,1339489189,1339490406,-1.272704,0.076128,-0.177632,5.69625,28.90125,-29.70625,44.744003,9.416,27.304,concentric,4,3.0,21179.0,310637.0,281230.0,332930.0,294049.0
2026-04-07 17:51:09.113492,246118,1339498120,1339499113,-1.272704,0.076128,-0.177632,10.05375,29.67125,-31.5525,44.744003,9.416,27.304,concentric,4,3.0,21179.0,310637.0,281230.0,332930.0,294049.0
2026-04-07 17:51:09.145569,246119,1339512722,1339514039,-1.255136,0.128832,-0.124928,12.45125,30.05625,-32.87375,44.112003,10.744,27.376001,concentric,4,3.0,21179.0,310637.0,281230.0,332930.0,294049.0
2026-04-07 17:51:09.147723,246120,1339521738,1339522821,-1.28832,0.091744,-0.109312,14.2625,29.98625,-34.29125,43.224003,10.328,24.936,concentric,4,3.0,21179.0,310637.0,281230.0,332930.0,294049.0
2026-04-07 17:51:09.182906,246130,1339531281,1339531622,-1.28832,0.091744,-0.109312,13.09875,28.2275,-34.825,43.224003,10.328,24.936,concentric,4,3.0,20755.0,306303.0,277611.0,329288.0,291758.0
2026-04-07 17:51:09.184536,246131,1339540517,1339542352,-1.28832,0.091744,-0.109312,8.96875,25.7425,-35.06125,43.224003,10.328,24.936,concentric,4,3.0,20755.0,306303.0,277611.0,329288.0,291758.0
2026-04-07 17:51:09.188651,246132,1339555043,1339557317,-1.260992,0.056608,-0.144448,8.07625,24.77125,-36.18125,43.904003,11.072001,26.432001,concentric,4,3.0,20755.0,306303.0,277611.0,329288.0,291758.0
2026-04-07 17:51:09.190322,246133,1339564050,1339566023,-1.202432,0.06832,-0.15616,9.17875,23.31,-37.02125,42.544003,11.552001,28.288002,concentric,4,3.0,20755.0,306303.0,277611.0,329288.0,291758.0
2026-04-07 17:51:09.191902,246134,1339573000,1339574707,-1.202432,0.06832,-0.15616,12.46,22.56625,-38.0625,42.544003,11.552001,28.288002,concentric,4,3.0,20755.0,306303.0,277611.0,329288.0,291758.0
2026-04-07 17:51:09.199695,246135,1339587504,1339589633,-1.223904,0.115168,-0.062464,17.9375,23.09125,-40.11,42.216003,12.264001,26.984001,concentric,4,3.0,20755.0,306303.0,277611.0,329288.0,291758.0
2026-04-07 17:51:09.203850,246136,1339596433,1339598385,-1.223904,0.115168,-0.062464,21.385,24.54375,-41.15125,42.216003,12.264001,26.984001,concentric,4,3.0,20755.0,306303.0,277611.0,329288.0,291758.0
2026-04-07 17:51:09.234207,246137,1339605394,1339607088,-1.22,0.095648,-0.105408,20.1775,24.61375,-41.93875,42.016003,12.408001,26.528002,concentric,4,3.0,20755.0,306303.0,277611.0,329288.0,291758.0
2026-04-07 17:51:09.236500,246138,1339619867,1339621971,-1.22,0.095648,-0.105408,13.4575,23.12625,-43.44375,42.016003,12.408001,26.528002,concentric,4,3.0,20755.0,306303.0,277611.0,329288.0,291758.0
2026-04-07 17:51:09.261885,246148,1339628873,1339631211,-1.15168,0.08784,-0.109312,10.10625,22.89875,-45.78,41.528004,12.784,26.560001,concentric,4,3.0,20277.0,301436.0,273577.0,324849.0,288446.0
2026-04-07 17:51:09.266120,246149,1339637913,1339639953,-1.15168,0.08784,-0.109312,10.6225,24.01875,-49.385,41.528004,12.784,26.560001,concentric,4,3.0,20277.0,301436.0,273577.0,324849.0,288446.0
2026-04-07 17:51:09.267777,246150,1339646945,1339648787,-1.24928,0.105408,-0.158112,12.215,23.94875,-51.31875,40.616,13.344001,27.6,concentric,4,3.0,20277.0,301436.0,273577.0,324849.0,288446.0
2026-04-07 17:51:09.269315,246151,1339661451,1339663725,-1.24928,0.072224,-0.11712,18.06,23.98375,-51.625,40.616,13.344001,27.6,concentric,4,3.0,20277.0,301436.0,273577.0,324849.0,288446.0
2026-04-07 17:51:09.300619,246152,1339670405,1339672428,-1.266848,0.072224,-0.11712,24.465,24.9725,-50.2075,40.4,13.8,27.536001,concentric,4,3.0,20277.0,301436.0,273577.0,324849.0,288446.0
2026-04-07 17:51:09.305486,246153,1339679329,1339681105,-1.266848,0.072224,-0.11712,27.1075,25.8475,-49.48125,40.4,13.8,27.536001,concentric,4,3.0,20277.0,301436.0,273577.0,324849.0,288446.0
2026-04-07 17:51:09.307307,246154,1339693809,1339696002,-1.223904,0.033184,-0.132736,23.56375,24.9025,-50.435,39.736,14.816001,26.784,concentric,4,3.0,20277.0,301436.0,273577.0,324849.0,288446.0
2026-04-07 17:51:09.313431,246155,1339702760,1339704743,-1.216096,0.064416,-0.16592,14.9975,23.84375,-51.8175,38.512,14.864,30.184002,concentric,4,3.0,20277.0,301436.0,273577.0,324849.0,288446.0
2026-04-07 17:51:09.370433,246156,1339711729,1339713442,-1.216096,0.064416,-0.16592,11.19125,23.79125,-53.357502,38.512,14.864,30.184002,concentric,4,3.0,20277.0,301436.0,273577.0,324849.0,288446.0
2026-04-07 17:51:09.372723,246157,1339726211,1339728352,-1.253184,0.083936,-0.203008,11.9525,23.4325,-53.90875,38.488003,14.952001,26.624,concentric,4,3.0,20277.0,301436.0,273577.0,324849.0,288446.0
2026-04-07 17:51:09.402333,246168,1339735167,1339737070,-1.253184,0.083936,-0.203008,15.6975,21.9625,-55.195,38.488003,14.952001,26.624,concentric,4,3.0,20007.0,298943.0,271789.0,323426.0,287713.0
2026-04-07 17:51:09.404065,246169,1339744084,1339745791,-1.106784,0.070272,-0.121024,18.82125,20.65875,-55.67625,37.544003,15.912001,26.512001,concentric,4,3.0,20007.0,298943.0,271789.0,323426.0,287713.0
2026-04-07 17:51:09.406503,246170,1339752989,1339754504,-1.106784,0.070272,-0.121024,19.53,19.94125,-56.6825,37.544003,15.912001,26.512001,concentric,4,3.0,20007.0,298943.0,271789.0,323426.0,287713.0
2026-04-07 17:51:09.408052,246171,1339767508,1339769445,-1.100928,0.074176,0.001952,19.71375,20.8775,-57.56625,36.864002,16.232,26.680002,concentric,4,3.0,20007.0,298943.0,271789.0,323426.0,287713.0
2026-04-07 17:51:09.412311,246172,1339776562,1339778192,-1.100928,0.074176,0.001952,15.4,22.11125,-57.60125,36.864002,16.232,26.680002,concentric,4,3.0,20007.0,298943.0,271789.0,323426.0,287713.0
2026-04-07 17:51:09.414048,246173,1339785590,1339786922,-1.104832,0.080032,-0.121024,7.46375,19.87125,-57.65375,36.672,16.632,27.072,concentric,4,3.0,20007.0,298943.0,271789.0,323426.0,287713.0
2026-04-07 17:51:09.415606,246174,1339800125,1339801835,-1.104832,0.080032,-0.121024,3.68375,19.20625,-56.0525,36.672,16.632,27.072,concentric,4,3.0,20007.0,298943.0,271789.0,323426.0,287713.0
2026-04-07 17:51:09.419702,246175,1339809076,1339810626,-1.071648,0.115168,-0.138592,5.18875,19.7925,-55.1775,35.216003,16.352001,26.736002,concentric,4,3.0,20007.0,298943.0,271789.0,323426.0,287713.0
2026-04-07 17:51:09.426005,246176,1339818033,1339819331,-1.071648,0.115168,-0.138592,9.21375,19.145,-56.735,35.216003,16.352001,26.736002,concentric,4,3.0,20007.0,298943.0,271789.0,323426.0,287713.0
2026-04-07 17:51:09.481930,246186,1339833077,1339834314,-1.022848,0.083936,-0.148352,12.075,17.75375,-56.7,34.736,17.184,26.904001,concentric,4,3.0,19992.0,299346.0,272516.0,324709.0,289457.0
2026-04-07 17:51:09.486079,246187,1339842108,1339843043,-1.022848,0.083936,0.011712,12.31125,18.13875,-55.125,34.736,17.184,26.904001,concentric,4,3.0,19992.0,299346.0,272516.0,324709.0,289457.0
2026-04-07 17:51:09.487746,246188,1339851117,1339851745,-0.987712,0.001952,0.011712,13.11625,20.44,-54.6525,34.144,17.76,25.768002,concentric,4,3.0,19992.0,299346.0,272516.0,324709.0,289457.0
2026-04-07 17:51:09.489390,246189,1339860349,1339862516,-0.987712,0.001952,0.011712,9.72125,21.7175,-52.87625,34.144,17.76,25.768002,concentric,4,3.0,19992.0,299346.0,272516.0,324709.0,289457.0
2026-04-07 17:51:09.493658,246190,1339874901,1339875380,-1.04432,0.08784,-0.091744,2.8,20.3875,-49.735,33.168003,17.264,24.568,concentric,4,3.0,19992.0,299346.0,272516.0,324709.0,289457.0
2026-04-07 17:51:09.495132,246191,1339884290,1339886184,-0.94672,0.091744,-0.179584,-2.835,19.2675,-46.585,32.616,17.152,26.624,concentric,4,3.0,19992.0,299346.0,272516.0,324709.0,289457.0
2026-04-07 17:51:09.500973,246192,1339893237,1339894966,-0.94672,0.091744,-0.179584,-6.36125,17.9725,-44.51125,32.616,17.152,26.624,concentric,4,3.0,19992.0,299346.0,272516.0,324709.0,289457.0
2026-04-07 17:51:09.529464,246193,1339902175,1339903660,-0.94672,0.091744,-0.226432,-3.80625,16.44125,-44.0125,32.616,17.152,26.624,concentric,4,3.0,19992.0,299346.0,272516.0,324709.0,289457.0
2026-04-07 17:51:09.533999,246194,1339916637,1339918588,-0.921344,-0.011712,-0.222528,3.14125,14.84,-43.14625,32.184002,17.68,24.856,concentric,4,3.0,19992.0,299346.0,272516.0,324709.0,289457.0
2026-04-07 17:51:09.535547,246195,1339925548,1339927268,-0.847168,-0.046848,-0.052704,9.6075,13.64125,-39.87375,31.848001,17.480001,26.336,concentric,4,3.0,19992.0,299346.0,272516.0,324709.0,289457.0
2026-04-07 17:51:09.562359,246205,1339934607,1339936084,-0.847168,-0.046848,-0.052704,8.9775,12.11875,-36.3825,31.848001,17.480001,26.336,concentric,4,3.0,20000.0,300295.0,273708.0,326543.0,291089.0
2026-04-07 17:51:09.564015,246206,1339949244,1339951061,-0.874496,-0.031232,-0.060512,2.37125,10.045,-30.94875,31.712002,17.752,27.168001,concentric,4,3.0,20000.0,300295.0,273708.0,326543.0,291089.0
2026-04-07 17:51:09.565606,246207,1339958176,1339959775,-0.874496,-0.031232,-0.060512,-9.275,6.9825,-26.01375,31.712002,17.752,27.168001,concentric,4,3.0,20000.0,300295.0,273708.0,326543.0,291089.0
2026-04-07 17:51:09.596696,246208,1339967206,1339968466,-0.77104,-0.003904,-0.152256,-15.93375,3.40375,-23.52,31.000002,17.560001,26.792002,concentric,4,3.0,20000.0,300295.0,273708.0,326543.0,291089.0
2026-04-07 17:51:09.599024,246209,1339981647,1339983370,-0.77104,-0.003904,-0.152256,-14.455,2.94,-20.44875,31.000002,17.560001,26.792002,concentric,4,3.0,20000.0,300295.0,273708.0,326543.0,291089.0
2026-04-07 17:51:09.603545,246210,1339990572,1339992089,-0.689056,-0.093696,-0.132736,-12.99375,3.14125,-19.46875,31.400002,18.184,25.880001,concentric,4,3.0,20000.0,300295.0,273708.0,326543.0,291089.0
2026-04-07 17:51:09.607234,246211,1339999522,1340000797,-0.689056,-0.093696,-0.132736,-14.04375,0.00875,-19.3725,31.400002,18.184,25.880001,concentric,4,3.0,20000.0,300295.0,273708.0,326543.0,291089.0
2026-04-07 17:51:09.667966,246212,1340013985,1340015735,-0.698816,-0.083936,-0.124928,-12.43375,-3.36875,-16.6075,31.424002,18.2,25.480001,concentric,4,3.0,20000.0,300295.0,273708.0,326543.0,291089.0
2026-04-07 17:51:09.670237,246213,1340022935,1340024441,-0.698816,-0.115168,-0.115168,-9.5025,-5.48625,-14.04375,31.424002,18.2,25.480001,concentric,4,3.0,20000.0,300295.0,273708.0,326543.0,291089.0
2026-04-07 17:51:09.699057,246224,1340032083,1340033591,-0.642208,-0.111264,-0.115168,-13.11625,-8.8025,-11.99625,31.112001,18.072,24.872002,concentric,4,3.0,19415.0,296657.0,270457.0,324666.0,290951.0
2026-04-07 17:51:09.700785,246225,1340041112,1340042379,-0.642208,-0.111264,-0.115168,-22.4175,-13.2125,-11.06875,31.112001,18.072,24.872002,concentric,4,3.0,19415.0,296657.0,270457.0,324666.0,290951.0
2026-04-07 17:51:09.705143,246226,1340055583,1340057304,-0.558272,-0.171776,-0.189344,-26.4075,-15.68875,-8.925,30.872002,18.112001,25.584002,concentric,4,3.0,19415.0,296657.0,270457.0,324666.0,290951.0
2026-04-07 17:51:09.708344,246227,1340064481,1340065999,-0.54656,-0.152256,-0.177632,-22.0675,-16.1525,-6.41375,30.632002,17.376001,25.688002,concentric,4,3.0,19415.0,296657.0,270457.0,324666.0,290951.0
2026-04-07 17:51:09.712836,246228,1340073466,1340074707,-0.54656,-0.152256,-0.177632,-14.1225,-15.88125,-3.22,30.632002,17.376001,25.688002,concentric,4,3.0,19415.0,296657.0,270457.0,324666.0,290951.0
2026-04-07 17:51:09.715210,246229,1340087994,1340089769,-0.558272,-0.142496,-0.10736,-7.37625,-15.3125,-0.20125,30.256,17.408,27.416,concentric,4,3.0,19415.0,296657.0,270457.0,324666.0,290951.0
2026-04-07 17:51:09.715248,246230,1340096946,1340098485,-0.558272,-0.142496,-0.10736,-5.31125,-15.1375,2.065,30.256,17.408,27.416,concentric,4,3.0,19415.0,296657.0,270457.0,324666.0,290951.0
2026-04-07 17:51:09.719872,246231,1340105890,1340107206,-0.64416,-0.152256,-0.121024,-9.415,-16.3275,3.045,30.096,17.256,26.536001,concentric,4,3.0,19415.0,296657.0,270457.0,324666.0,290951.0
2026-04-07 17:51:09.748255,246232,1340120485,1340122107,-0.64416,-0.152256,-0.121024,-12.285,-19.43375,5.425,30.096,17.256,26.536001,concentric,4,3.0,19415.0,296657.0,270457.0,324666.0,290951.0
2026-04-07 17:51:09.752850,246233,1340129396,1340130855,-0.525088,-0.177632,-0.189344,-10.85875,-19.90625,8.77625,31.312002,17.480001,24.912,concentric,4,3.0,19415.0,296657.0,270457.0,324666.0,290951.0
2026-04-07 17:51:09.776833,246243,1340138363,1340139617,-0.525088,-0.177632,-0.189344,-7.945,-18.34875,9.03875,31.312002,17.480001,24.912,concentric,4,3.0,19581.0,297795.0,271951.0,326266.0,292182.0
2026-04-07 17:51:09.781239,246244,1340147279,1340148359,-0.558272,-0.212768,-0.064416,-4.12125,-15.42625,9.4675,31.664001,17.888,25.088001,concentric,4,3.0,19581.0,297795.0,271951.0,326266.0,292182.0
2026-04-07 17:51:09.782830,246245,1340161970,1340163285,-0.558272,-0.212768,-0.064416,0.11375,-12.10125,12.71375,31.664001,17.888,25.088001,concentric,4,3.0,19581.0,297795.0,271951.0,326266.0,292182.0
2026-04-07 17:51:09.784387,246246,1340170958,1340172058,-0.669536,-0.103456,-0.085888,2.2225,-10.0975,18.76875,31.520002,17.088001,24.128,concentric,4,3.0,19581.0,297795.0,271951.0,326266.0,292182.0
2026-04-07 17:51:09.786915,246247,1340179981,1340180772,-0.669536,-0.103456,-0.085888,0.28875,-8.75875,21.77875,31.520002,17.088001,24.128,concentric,4,3.0,19581.0,297795.0,271951.0,326266.0,292182.0
2026-04-07 17:51:09.817998,246248,1340194946,1340195680,-0.6344,-0.109312,-0.169824,-5.46,-6.90375,22.23375,32.152,16.800001,24.984001,concentric,4,3.0,19581.0,297795.0,271951.0,326266.0,292182.0
2026-04-07 17:51:09.822375,246249,1340204365,1340206440,-0.609024,-0.203008,-0.124928,-6.27375,-4.3225,21.0175,34.2,17.032001,24.544,concentric,4,3.0,19581.0,297795.0,271951.0,326266.0,292182.0
2026-04-07 17:51:09.823959,246250,1340213295,1340215121,-0.609024,-0.203008,-0.124928,-4.17375,-0.84,20.67625,32.968002,17.032001,24.544,concentric,4,3.0,19581.0,297795.0,271951.0,326266.0,292182.0
2026-04-07 17:51:09.829700,246251,1340222252,1340223908,-0.609024,-0.203008,-0.124928,-1.2075,1.91625,22.05,32.968002,17.032001,24.544,concentric,4,3.0,19581.0,297795.0,271951.0,326266.0,292182.0
2026-04-07 17:51:09.887806,246261,1340236940,1340238862,-0.728096,-0.06832,-0.10736,4.9525,3.71,23.86125,32.760002,16.44,25.6,concentric,4,3.0,19769.0,299493.0,273220.0,328007.0,293504.0
2026-04-07 17:51:09.889382,246262,1340245857,1340247571,-0.743712,-0.062464,-0.093696,9.91375,5.145,25.6025,33.216003,17.320002,25.368002,concentric,4,3.0,19769.0,299493.0,273220.0,328007.0,293504.0
2026-04-07 17:51:09.892782,246263,1340254843,1340256265,-0.743712,-0.062464,-0.093696,8.1375,6.2125,26.13625,33.216003,17.320002,25.368002,concentric,4,3.0,19769.0,299493.0,273220.0,328007.0,293504.0
2026-04-07 17:51:09.894382,246264,1340269417,1340271179,-0.69296,-0.158112,-0.142496,1.11125,7.02625,24.2375,33.248,16.320002,25.752,concentric,4,3.0,19769.0,299493.0,273220.0,328007.0,293504.0
2026-04-07 17:51:09.901108,246265,1340278411,1340279912,-0.69296,-0.158112,-0.142496,-2.79125,9.21375,24.710001,33.248,16.320002,25.752,concentric,4,3.0,19769.0,299493.0,273220.0,328007.0,293504.0
2026-04-07 17:51:09.902768,246266,1340287488,1340288731,-0.827648,-0.06832,-0.091744,-1.11125,11.13875,26.0925,33.592003,16.544,25.936,concentric,4,3.0,19769.0,299493.0,273220.0,328007.0,293504.0
2026-04-07 17:51:09.904332,246267,1340296470,1340297427,-0.827648,-0.06832,-0.091744,3.22,12.41625,27.22125,33.592003,16.544,25.936,concentric,4,3.0,19769.0,299493.0,273220.0,328007.0,293504.0
