pc_time,serial_num,sensor_ts,host_ts,ax,ay,az,gx,gy,gz,mx,my,mz,phase,rpe,weight_kg,ppg_a,ppg_b,ppg_c,ppg_d,ppg_e
2026-04-07 17:51:09.967934,246268,1340311049,1340312389,-0.872544,0.025376,-0.121024,10.68375,12.18,28.93625,34.448,15.864,25.848001,eccentric,4,3.0,19769.0,299493.0,273220.0,328007.0,293504.0
2026-04-07 17:51:09.972383,246269,1340320063,1340321082,-0.872544,0.025376,-0.121024,10.03625,12.06625,28.9275,34.448,15.864,25.848001,eccentric,4,3.0,19769.0,299493.0,273220.0,328007.0,293504.0
2026-04-07 17:51:09.974182,246270,1340329057,1340329800,-0.81008,-0.054656,-0.21472,0.06125,10.255,24.5525,35.368,15.976001,24.728,eccentric,4,3.0,19769.0,299493.0,273220.0,328007.0,293504.0
2026-04-07 17:51:10.042418,246281,1340344024,1340344737,-0.81008,-0.054656,-0.21472,-2.7475,7.6475,20.265,35.368,15.976001,24.728,eccentric,4,3.0,19802.0,300214.0,274049.0,329700.0,294911.0
2026-04-07 17:51:10.044044,246282,1340353447,1340355515,-0.870592,-0.0488,-0.111264,2.0125,7.8575,20.4225,35.208,16.256,25.04,eccentric,4,3.0,19802.0,300214.0,274049.0,329700.0,294911.0
2026-04-07 17:51:10.045908,246283,1340362381,1340364215,-0.870592,-0.0488,-0.111264,8.40875,9.52875,21.3325,35.208,16.256,25.04,eccentric,4,3.0,19802.0,300214.0,274049.0,329700.0,294911.0
2026-04-07 17:51:10.057368,246284,1340371334,1340372918,-1.018944,0.031232,-0.095648,11.64625,8.67125,20.93,35.760002,16.128,24.816002,eccentric,4,3.0,19802.0,300214.0,274049.0,329700.0,294911.0
2026-04-07 17:51:10.059078,246285,1340385867,1340387862,-1.001376,0.011712,-0.171776,13.90375,8.58375,21.63,35.768,16.048,26.616001,eccentric,4,3.0,19802.0,300214.0,274049.0,329700.0,294911.0
2026-04-07 17:51:10.060633,246286,1340394823,1340396616,-1.001376,0.011712,-0.171776,10.28125,8.995,19.52125,35.768,16.048,26.616001,eccentric,4,3.0,19802.0,300214.0,274049.0,329700.0,294911.0
2026-04-07 17:51:10.064789,246287,1340403757,1340405324,-1.001376,0.011712,-0.171776,5.8625,9.26625,17.80625,35.768,16.048,26.616001,eccentric,4,3.0,19802.0,300214.0,274049.0,329700.0,294911.0
2026-04-07 17:51:10.066581,246288,1340418243,1340420228,-0.999424,-0.023424,-0.201056,3.96375,9.6425,17.6225,36.504,15.416,24.208002,eccentric,4,3.0,19802.0,300214.0,274049.0,329700.0,294911.0
2026-04-07 17:51:10.068115,246289,1340427248,1340428935,-1.108736,0.025376,-0.167872,2.3975,11.06,15.82875,37.472,16.04,24.928001,eccentric,4,3.0,19802.0,300214.0,274049.0,329700.0,294911.0
2026-04-07 17:51:10.095640,246299,1340436767,1340438037,-1.108736,0.025376,-0.167872,7.07875,12.32,16.415,37.472,16.04,24.928001,eccentric,4,3.0,19812.0,300703.0,274720.0,330633.0,295654.0
2026-04-07 17:51:10.099807,246300,1340446583,1340447596,-1.149728,0.062464,-0.163968,7.41125,13.60625,15.88125,37.088,15.192,25.048,eccentric,4,3.0,19812.0,300703.0,274720.0,330633.0,295654.0
2026-04-07 17:51:10.102455,246301,1340461276,1340462534,-1.149728,0.062464,-0.163968,5.985,14.21875,13.71125,37.088,15.192,25.048,eccentric,4,3.0,19812.0,300703.0,274720.0,330633.0,295654.0
2026-04-07 17:51:10.108625,246302,1340470212,1340471313,-1.1224,-0.007808,-0.238144,5.67,13.9125,11.66375,37.536003,15.456,24.912,eccentric,4,3.0,19812.0,300703.0,274720.0,330633.0,295654.0
2026-04-07 17:51:10.110707,246303,1340479267,1340480037,-1.1224,-0.007808,-0.238144,-0.5425,14.2275,9.61625,37.536003,15.456,24.912,eccentric,4,3.0,19812.0,300703.0,274720.0,330633.0,295654.0
2026-04-07 17:51:10.123702,246304,1340488658,1340490840,-1.091168,-0.033184,-0.218624,-5.0925,15.58375,8.6275,38.0,15.496,26.096,eccentric,4,3.0,19812.0,300703.0,274720.0,330633.0,295654.0
2026-04-07 17:51:10.125303,246305,1340503177,1340503710,-1.091168,-0.033184,-0.218624,-1.91625,15.56625,8.82,38.0,15.496,26.096,eccentric,4,3.0,19812.0,300703.0,274720.0,330633.0,295654.0
2026-04-07 17:51:10.126882,246306,1340512707,1340514492,-1.260992,0.08784,-0.242048,2.44125,13.41375,9.28375,38.232002,14.856001,25.984001,eccentric,4,3.0,19812.0,300703.0,274720.0,330633.0,295654.0
2026-04-07 17:51:10.130939,246307,1340521642,1340523184,-1.260992,0.08784,-0.242048,11.06875,9.8875,9.77375,38.232002,14.856001,25.984001,eccentric,4,3.0,19812.0,300703.0,274720.0,330633.0,295654.0
2026-04-07 17:51:10.159450,246308,1340530669,1340531895,-1.155584,0.060512,-0.257664,17.63125,6.34375,9.5025,37.608,15.136001,25.312,eccentric,4,3.0,19812.0,300703.0,274720.0,330633.0,295654.0
2026-04-07 17:51:10.195816,246318,1340545320,1340546871,-1.155584,0.060512,-0.257664,7.79625,1.8375,5.8975,37.608,15.136001,25.312,eccentric,4,3.0,19905.0,301997.0,276095.0,332490.0,297342.0
2026-04-07 17:51:10.198246,246319,1340554252,1340555578,-1.09312,-0.021472,-0.257664,0.69125,0.35875,2.00375,38.464,15.264001,22.688002,eccentric,4,3.0,19905.0,301997.0,276095.0,332490.0,297342.0
2026-04-07 17:51:10.202462,246320,1340563162,1340564230,-1.09312,-0.021472,-0.257664,2.91375,-1.32125,1.0325,38.464,15.264001,22.688002,eccentric,4,3.0,19905.0,301997.0,276095.0,332490.0,297342.0
2026-04-07 17:51:10.204174,246321,1340577690,1340579182,-1.13216,0.033184,-0.265472,8.085,-2.61625,2.00375,39.496002,15.576001,25.6,eccentric,4,3.0,19905.0,301997.0,276095.0,332490.0,297342.0
2026-04-07 17:51:10.205962,246322,1340586634,1340587892,-1.282464,0.06832,-0.169824,13.440001,-3.17625,2.9925,39.528004,15.160001,26.912,eccentric,4,3.0,19905.0,301997.0,276095.0,332490.0,297342.0
2026-04-07 17:51:10.213567,246323,1340595597,1340596633,-1.282464,0.06832,-0.169824,23.03875,-3.40375,3.92,39.528004,15.160001,26.912,eccentric,4,3.0,19905.0,301997.0,276095.0,332490.0,297342.0
2026-04-07 17:51:10.219787,246324,1340610102,1340611552,-1.100928,-0.007808,-0.203008,16.73875,-4.76,3.2725,38.848003,14.832001,27.648,eccentric,4,3.0,19905.0,301997.0,276095.0,332490.0,297342.0
2026-04-07 17:51:10.269064,246325,1340619040,1340620339,-1.100928,-0.007808,-0.203008,2.555,-4.19125,2.4675,38.848003,14.832001,27.648,eccentric,4,3.0,19905.0,301997.0,276095.0,332490.0,297342.0
2026-04-07 17:51:10.274916,246326,1340627978,1340629050,-1.15168,-0.031232,-0.191296,-1.19875,-0.81375,2.4325,39.792004,15.200001,23.952002,eccentric,4,3.0,19905.0,301997.0,276095.0,332490.0,297342.0
2026-04-07 17:51:10.304297,246337,1340642953,1340644020,-1.15168,-0.031232,-0.191296,-1.60125,1.02375,2.93125,39.792004,15.200001,23.952002,eccentric,4,3.0,20102.0,304338.0,278183.0,335100.0,299542.0
2026-04-07 17:51:10.306794,246338,1340651958,1340652703,-1.29808,0.089792,-0.220576,0.49,1.00625,3.465,40.08,14.384001,25.776001,eccentric,4,3.0,20102.0,304338.0,278183.0,335100.0,299542.0
2026-04-07 17:51:10.309295,246339,1340661305,1340663440,-1.29808,0.089792,-0.220576,11.61125,2.03875,4.19125,40.08,14.384001,25.776001,eccentric,4,3.0,20102.0,304338.0,278183.0,335100.0,299542.0
2026-04-07 17:51:10.311785,246340,1340670235,1340672144,-1.120448,-0.011712,-0.25376,13.1075,2.30125,3.2025,40.224003,14.576001,25.736002,eccentric,4,3.0,20102.0,304338.0,278183.0,335100.0,299542.0
2026-04-07 17:51:10.314354,246341,1340684828,1340687087,-1.120448,-0.011712,-0.25376,1.1375,0.385,0.67375,40.224003,14.576001,25.736002,eccentric,4,3.0,20102.0,304338.0,278183.0,335100.0,299542.0
2026-04-07 17:51:10.316771,246342,1340693759,1340695791,-1.227808,-0.052704,-0.22448,-2.07375,-2.065,0.11375,39.472,14.056001,26.912,eccentric,4,3.0,20102.0,304338.0,278183.0,335100.0,299542.0
2026-04-07 17:51:10.319331,246343,1340702724,1340704511,-1.227808,-0.052704,-0.22448,2.03875,-5.20625,3.75375,39.472,14.056001,26.912,eccentric,4,3.0,20102.0,304338.0,278183.0,335100.0,299542.0
2026-04-07 17:51:10.321838,246344,1340711773,1340713241,-1.155584,0.052704,-0.20496,1.9075,-8.42625,5.9675,40.2,14.024001,27.624,eccentric,4,3.0,20102.0,304338.0,278183.0,335100.0,299542.0
2026-04-07 17:51:10.352154,246345,1340726254,1340728172,-1.155584,0.054656,-0.150304,3.96375,-10.0275,5.215,40.2,14.024001,27.624,eccentric,4,3.0,20102.0,304338.0,278183.0,335100.0,299542.0
2026-04-07 17:51:10.378105,246355,1340735195,1340737324,-1.186816,0.054656,-0.150304,7.0875,-10.59625,5.11875,40.160004,13.848001,27.976002,eccentric,4,3.0,20217.0,305487.0,279232.0,336078.0,300448.0
2026-04-07 17:51:10.380541,246356,1340744179,1340746051,-1.186816,0.054656,-0.150304,6.58875,-10.0275,6.5625,40.160004,13.848001,27.976002,eccentric,4,3.0,20217.0,305487.0,279232.0,336078.0,300448.0
2026-04-07 17:51:10.383096,246357,1340758755,1340761044,-1.286368,0.001952,-0.162016,8.30375,-9.695,6.72875,39.920002,13.768001,27.928001,eccentric,4,3.0,20217.0,305487.0,279232.0,336078.0,300448.0
2026-04-07 17:51:10.385495,246358,1340767750,1340769806,-1.14192,-0.023424,-0.181536,8.1025,-9.3625,7.595,40.712,13.552001,28.000002,eccentric,4,3.0,20217.0,305487.0,279232.0,336078.0,300448.0
2026-04-07 17:51:10.388041,246359,1340776705,1340778513,-1.14192,-0.023424,-0.181536,3.71875,-7.60375,8.47875,40.712,13.552001,28.000002,eccentric,4,3.0,20217.0,305487.0,279232.0,336078.0,300448.0
2026-04-07 17:51:10.419526,246360,1340791186,1340793455,-1.184864,-0.013664,-0.10736,1.16375,-5.01375,8.30375,41.048,13.64,28.792002,eccentric,4,3.0,20217.0,305487.0,279232.0,336078.0,300448.0
2026-04-07 17:51:10.423208,246361,1340800176,1340802194,-1.184864,-0.013664,-0.10736,1.295,-2.26625,10.4825,41.048,13.64,28.792002,eccentric,4,3.0,20217.0,305487.0,279232.0,336078.0,300448.0
2026-04-07 17:51:10.425566,246362,1340809079,1340810900,-1.260992,0.035136,-0.181536,-4.1475,-2.6075,14.1575,41.344,12.608001,29.480001,eccentric,4,3.0,20217.0,305487.0,279232.0,336078.0,300448.0
2026-04-07 17:51:10.431951,246363,1340823547,1340825808,-1.260992,0.035136,-0.181536,-6.685,-5.29375,17.5,41.344,12.608001,29.480001,eccentric,4,3.0,20217.0,305487.0,279232.0,336078.0,300448.0
2026-04-07 17:51:10.462066,246364,1340832476,1340834553,-1.274656,0.044896,-0.210816,1.3475,-9.54625,20.9825,41.528004,12.336,28.288002,eccentric,4,3.0,20217.0,305487.0,279232.0,336078.0,300448.0
2026-04-07 17:51:10.488066,246374,1340841445,1340843329,-1.274656,0.044896,-0.210816,13.685,-9.6425,23.33625,41.528004,12.336,28.288002,eccentric,4,3.0,20586.0,309182.0,282423.0,338768.0,302207.0
2026-04-07 17:51:10.490543,246375,1340850461,1340852010,-1.124352,-0.005856,-0.173728,11.7775,-8.365,20.825,41.256,12.576,30.672,eccentric,4,3.0,20586.0,309182.0,282423.0,338768.0,302207.0
2026-04-07 17:51:10.493060,246376,1340864992,1340866993,-1.124352,-0.005856,-0.173728,7.07,-8.7325,15.015,41.256,12.576,30.672,eccentric,4,3.0,20586.0,309182.0,282423.0,338768.0,302207.0
2026-04-07 17:51:10.495562,246377,1340874137,1340875756,-1.192672,0.015616,-0.16592,2.2925,-8.505,15.33875,42.312,11.920001,28.496002,eccentric,4,3.0,20586.0,309182.0,282423.0,338768.0,302207.0
2026-04-07 17:51:10.498066,246378,1340883185,1340884503,-1.192672,0.015616,-0.16592,-4.0425,-9.63375,15.93375,42.312,11.920001,28.496002,eccentric,4,3.0,20586.0,309182.0,282423.0,338768.0,302207.0
2026-04-07 17:51:10.528339,246379,1340897687,1340899498,-1.179008,0.001952,-0.12688,-4.69,-10.29875,14.44625,42.224003,11.408001,28.696001,eccentric,4,3.0,20586.0,309182.0,282423.0,338768.0,302207.0
2026-04-07 17:51:10.531923,246380,1340906655,1340908215,-1.179008,0.001952,-0.187392,-3.03625,-12.075,14.62125,42.224003,11.408001,28.696001,eccentric,4,3.0,20586.0,309182.0,282423.0,338768.0,302207.0
2026-04-07 17:51:10.534387,246381,1340915575,1340916912,-1.214144,0.033184,-0.187392,1.67125,-14.315001,17.22875,43.480003,11.456,26.864002,eccentric,4,3.0,20586.0,309182.0,282423.0,338768.0,302207.0
2026-04-07 17:51:10.569155,246382,1340930074,1340931847,-1.1712,0.027328,-0.13664,5.355,-15.0325,19.71375,43.424004,11.232,27.2,eccentric,4,3.0,20586.0,309182.0,282423.0,338768.0,302207.0
2026-04-07 17:51:10.601921,246393,1340939543,1340940776,-1.1712,0.027328,-0.13664,5.27625,-15.33,18.48,43.424004,11.232,27.2,eccentric,4,3.0,21938.0,321569.0,292380.0,347059.0,307153.0
2026-04-07 17:51:10.605685,246394,1340948532,1340949502,-1.184864,0.023424,-0.142496,2.31,-18.4275,15.89875,43.224003,10.592001,31.224,eccentric,4,3.0,21938.0,321569.0,292380.0,347059.0,307153.0
2026-04-07 17:51:10.608033,246395,1340957440,1340958200,-1.184864,0.023424,-0.142496,2.02125,-20.772501,15.49625,43.224003,10.592001,31.224,eccentric,4,3.0,21938.0,321569.0,292380.0,347059.0,307153.0
2026-04-07 17:51:10.612321,246396,1340972544,1340973114,-1.218048,-0.00976,-0.138592,4.69875,-22.39125,14.9275,43.368004,10.304001,31.304,eccentric,4,3.0,21938.0,321569.0,292380.0,347059.0,307153.0
2026-04-07 17:51:10.614048,246397,1340981782,1340983919,-1.218048,-0.00976,-0.138592,8.67125,-24.9375,13.51,43.368004,10.304001,31.304,eccentric,4,3.0,21938.0,321569.0,292380.0,347059.0,307153.0
2026-04-07 17:51:10.615629,246398,1340990798,1340992679,-1.149728,0.003904,-0.144448,10.675,-27.7375,15.5225,43.608,9.696,29.776001,eccentric,4,3.0,21938.0,321569.0,292380.0,347059.0,307153.0
2026-04-07 17:51:10.619769,246399,1340999785,1341001406,-1.149728,0.003904,-0.144448,13.545,-28.7525,18.0075,43.608,9.696,29.776001,eccentric,4,3.0,21938.0,321569.0,292380.0,347059.0,307153.0
2026-04-07 17:51:10.624662,246400,1341014321,1341016315,-1.18096,0.037088,-0.113216,17.98125,-29.93375,18.4975,44.128002,9.568001,30.272001,eccentric,4,3.0,21938.0,321569.0,292380.0,347059.0,307153.0
2026-04-07 17:51:10.653217,246401,1341023319,1341025049,-1.18096,0.037088,-0.113216,22.05,-31.68375,18.7425,44.128002,9.568001,30.272001,eccentric,4,3.0,21938.0,321569.0,292380.0,347059.0,307153.0
2026-04-07 17:51:10.657818,246402,1341032256,1341033734,-1.202432,0.052704,-0.062464,27.2475,-34.2825,19.43375,44.032,9.256001,29.032001,eccentric,4,3.0,21938.0,321569.0,292380.0,347059.0,307153.0
2026-04-07 17:51:10.682062,246412,1341046788,1341048688,-1.202432,0.052704,-0.062464,33.25,-35.55125,20.23875,44.032,9.256001,29.032001,eccentric,4,3.0,23595.0,334821.0,302164.0,356130.0,313749.0
2026-04-07 17:51:10.686036,246413,1341055688,1341057431,-1.175104,0.027328,-0.037088,36.785,-35.9625,20.125,44.864002,8.96,31.384,eccentric,4,3.0,23595.0,334821.0,302164.0,356130.0,313749.0
2026-04-07 17:51:10.687795,246414,1341064677,1341066192,-1.175104,0.027328,-0.037088,31.57875,-33.87125,19.1625,44.864002,8.96,31.384,eccentric,4,3.0,23595.0,334821.0,302164.0,356130.0,313749.0
2026-04-07 17:51:10.690053,246415,1341079245,1341081124,-1.108736,-0.003904,-0.083936,20.3525,-30.7475,16.52,44.640003,8.8,30.408,eccentric,4,3.0,23595.0,334821.0,302164.0,356130.0,313749.0
2026-04-07 17:51:10.697243,246416,1341088197,1341089823,-1.130208,-0.003904,-0.12688,9.4675,-28.56875,13.195,44.640003,8.408,29.288002,eccentric,4,3.0,23595.0,334821.0,302164.0,356130.0,313749.0
2026-04-07 17:51:10.725723,246417,1341097127,1341098552,-1.130208,-0.003904,-0.12688,2.77375,-25.90875,12.41625,44.920002,8.408,29.288002,eccentric,4,3.0,23595.0,334821.0,302164.0,356130.0,313749.0
2026-04-07 17:51:10.730237,246418,1341106086,1341107245,-1.130208,-0.003904,-0.12688,-1.91625,-23.98375,13.55375,44.920002,8.408,29.288002,eccentric,4,3.0,23595.0,334821.0,302164.0,356130.0,313749.0
2026-04-07 17:51:10.731822,246419,1341120618,1341122145,-1.157536,-0.021472,-0.101504,-4.27,-24.255,14.761251,45.632004,8.544001,29.512001,eccentric,4,3.0,23595.0,334821.0,302164.0,356130.0,313749.0
2026-04-07 17:51:10.738489,246420,1341129538,1341130851,-1.157536,0.054656,-0.015616,-2.30125,-24.15,16.415,45.528004,8.328,31.464,eccentric,4,3.0,23595.0,334821.0,302164.0,356130.0,313749.0
2026-04-07 17:51:10.766082,246430,1341138540,1341139870,-1.157536,0.054656,-0.015616,3.12375,-23.66875,17.70125,45.528004,8.328,31.464,eccentric,4,3.0,24111.0,339680.0,305987.0,360563.0,317227.0
2026-04-07 17:51:10.767759,246431,1341153255,1341154863,-1.208288,0.042944,-0.023424,4.48,-24.31625,15.56625,45.832,8.320001,30.072,eccentric,4,3.0,24111.0,339680.0,305987.0,360563.0,317227.0
2026-04-07 17:51:10.769332,246432,1341162261,1341163589,-1.208288,0.042944,-0.023424,2.02125,-26.775,14.1225,45.832,8.320001,30.072,eccentric,4,3.0,24111.0,339680.0,305987.0,360563.0,317227.0
2026-04-07 17:51:10.800388,246433,1341171235,1341172289,-1.143872,-0.007808,-0.089792,-2.0475,-27.64125,14.0,45.648003,8.248,30.784002,eccentric,4,3.0,24111.0,339680.0,305987.0,360563.0,317227.0
2026-04-07 17:51:10.801873,246434,1341185731,1341187232,-1.143872,-0.007808,-0.089792,-5.7225,-25.803751,11.90875,45.648003,8.248,30.784002,eccentric,4,3.0,24111.0,339680.0,305987.0,360563.0,317227.0
2026-04-07 17:51:10.805534,246435,1341194652,1341195917,-1.145824,-0.025376,-0.12688,-8.54,-23.765,9.205,45.664,7.584001,31.128002,eccentric,4,3.0,24111.0,339680.0,305987.0,360563.0,317227.0
2026-04-07 17:51:10.810512,246436,1341203582,1341204678,-1.145824,-0.025376,-0.12688,-8.23375,-22.4,8.37375,45.664,7.584001,31.128002,eccentric,4,3.0,24111.0,339680.0,305987.0,360563.0,317227.0
2026-04-07 17:51:10.869593,246437,1341212522,1341213367,-1.128256,-0.050752,-0.132736,-6.58875,-21.7175,9.275,45.424004,7.624001,32.808002,eccentric,4,3.0,24111.0,339680.0,305987.0,360563.0,317227.0
2026-04-07 17:51:10.873143,246438,1341227018,1341228282,-1.128256,-0.050752,-0.132736,-5.60875,-20.20375,11.52375,45.424004,7.624001,32.808002,eccentric,4,3.0,24111.0,339680.0,305987.0,360563.0,317227.0
2026-04-07 17:51:10.875532,246439,1341235927,1341237017,-1.126304,-0.027328,-0.044896,-5.4775,-17.17625,12.565,45.544003,7.016,30.512001,eccentric,4,3.0,24111.0,339680.0,305987.0,360563.0,317227.0
2026-04-07 17:51:10.903201,246450,1341244906,1341245763,-1.126304,-0.027328,-0.044896,-3.325,-13.57125,12.45125,45.544003,7.016,30.512001,eccentric,4,3.0,24437.0,342963.0,308792.0,363937.0,320048.0
2026-04-07 17:51:10.905722,246451,1341259399,1341260660,-1.175104,0.0488,0.031232,-1.8025,-10.815,12.04,45.768,7.192,31.520002,eccentric,4,3.0,24437.0,342963.0,308792.0,363937.0,320048.0
2026-04-07 17:51:10.908707,246452,1341268314,1341269391,-1.175104,0.0488,0.021472,-4.05125,-9.87,11.4625,45.768,7.192,31.520002,eccentric,4,3.0,24437.0,342963.0,308792.0,363937.0,320048.0
2026-04-07 17:51:10.910994,246453,1341277274,1341278101,-1.173152,0.08784,0.021472,-11.1125,-9.14375,9.91375,45.256,6.824,32.128002,eccentric,4,3.0,24437.0,342963.0,308792.0,363937.0,320048.0
2026-04-07 17:51:10.913293,246454,1341291910,1341293070,-1.155584,0.027328,-0.033184,-19.83625,-8.51375,8.77625,45.184002,6.896,32.424,eccentric,4,3.0,24437.0,342963.0,308792.0,363937.0,320048.0
2026-04-07 17:51:10.915525,246455,1341300905,1341301782,-1.155584,0.027328,-0.033184,-26.075,-8.33,8.89875,45.184002,6.896,32.424,eccentric,4,3.0,24437.0,342963.0,308792.0,363937.0,320048.0
2026-04-07 17:51:10.918023,246456,1341309891,1341310517,-1.079456,-0.109312,-0.105408,-29.645,-8.23375,10.12375,45.664,6.480001,31.688002,eccentric,4,3.0,24437.0,342963.0,308792.0,363937.0,320048.0
2026-04-07 17:51:10.948224,246457,1341319168,1341321267,-1.079456,-0.109312,-0.105408,-29.58375,-7.14875,10.2025,45.664,6.480001,31.688002,eccentric,4,3.0,24437.0,342963.0,308792.0,363937.0,320048.0
2026-04-07 17:51:10.951850,246458,1341333725,1341334116,-1.089216,-0.06832,-0.10736,-22.68875,-4.76875,10.24625,46.280003,6.336,31.776001,eccentric,4,3.0,24437.0,342963.0,308792.0,363937.0,320048.0
2026-04-07 17:51:10.980686,246468,1341343315,1341345014,-1.089216,-0.06832,-0.10736,-13.7025,-3.045,10.7275,46.280003,6.336,31.776001,eccentric,4,3.0,24415.0,343132.0,309082.0,364580.0,320690.0
2026-04-07 17:51:10.983075,246469,1341352226,1341353704,-1.09312,0.037088,-0.099552,-9.2575,-2.59875,9.5725,45.704002,5.960001,32.664,eccentric,4,3.0,24415.0,343132.0,309082.0,364580.0,320690.0
2026-04-07 17:51:10.985623,246470,1341366759,1341368646,-1.09312,0.037088,-0.099552,-9.56375,-2.17,8.05875,45.704002,5.960001,32.664,eccentric,4,3.0,24415.0,343132.0,309082.0,364580.0,320690.0
2026-04-07 17:51:10.988462,246471,1341375719,1341377461,-1.159488,0.080032,-0.07808,-13.13375,-2.2225,6.3875,45.832,6.056,31.552002,eccentric,4,3.0,24415.0,343132.0,309082.0,364580.0,320690.0
2026-04-07 17:51:10.992129,246472,1341384649,1341386157,-1.159488,0.080032,-0.07808,-17.71875,-2.98375,5.4425,45.832,6.056,31.552002,eccentric,4,3.0,24415.0,343132.0,309082.0,364580.0,320690.0
2026-04-07 17:51:11.025397,246473,1341393582,1341394903,-1.126304,0.011712,-0.060512,-20.92125,-4.0075,5.3025,46.504,6.168,31.008001,eccentric,4,3.0,24415.0,343132.0,309082.0,364580.0,320690.0
2026-04-07 17:51:11.027731,246474,1341408074,1341409886,-1.126304,0.011712,-0.060512,-20.1775,-3.49125,4.55875,46.504,6.168,31.008001,eccentric,4,3.0,24415.0,343132.0,309082.0,364580.0,320690.0
2026-04-07 17:51:11.032394,246475,1341416974,1341418603,-1.118496,-0.052704,-0.005856,-15.61,-2.4325,3.35125,45.648003,6.448,33.768,eccentric,4,3.0,24415.0,343132.0,309082.0,364580.0,320690.0
2026-04-07 17:51:11.034792,246476,1341425892,1341427283,-1.118496,-0.052704,-0.005856,-8.4525,-1.8375,3.47375,45.648003,6.448,33.768,eccentric,4,3.0,24415.0,343132.0,309082.0,364580.0,320690.0
2026-04-07 17:51:11.086979,246486,1341440869,1341442309,-1.097024,-0.025376,-0.027328,-1.8725,-0.9975,3.07125,45.920002,6.056,31.048002,eccentric,4,3.0,24578.0,344314.0,309978.0,365446.0,321361.0
2026-04-07 17:51:11.091076,246487,1341449860,1341451017,-1.095072,0.044896,-0.060512,1.30375,0.7175,2.065,45.920002,6.152,30.496002,eccentric,4,3.0,24578.0,344314.0,309978.0,365446.0,321361.0
2026-04-07 17:51:11.092730,246488,1341458821,1341459690,-1.095072,0.044896,-0.060512,1.2075,2.84375,-0.665,46.424004,6.152,30.496002,eccentric,4,3.0,24578.0,344314.0,309978.0,365446.0,321361.0
2026-04-07 17:51:11.094411,246489,1341473314,1341474600,-1.120448,0.054656,-0.056608,-2.765,5.0925,-2.07375,45.640003,6.112001,33.512,eccentric,4,3.0,24578.0,344314.0,309978.0,365446.0,321361.0
2026-04-07 17:51:11.098627,246490,1341482317,1341483310,-1.120448,0.054656,-0.056608,-9.975,5.6525,-3.78,45.640003,6.112001,33.512,eccentric,4,3.0,24578.0,344314.0,309978.0,365446.0,321361.0
2026-04-07 17:51:11.100119,246491,1341491244,1341492029,-1.116544,-0.01952,-0.070272,-15.47,6.16,-5.6175,45.688004,5.2,33.384003,eccentric,4,3.0,24578.0,344314.0,309978.0,365446.0,321361.0
2026-04-07 17:51:11.107245,246492,1341500192,1341500774,-1.116544,-0.01952,-0.070272,-16.94875,6.48375,-6.2125,45.688004,5.2,33.384003,eccentric,4,3.0,24578.0,344314.0,309978.0,365446.0,321361.0
2026-04-07 17:51:11.167936,246493,1341515024,1341515677,-1.130208,-0.023424,-0.052704,-13.79875,7.4375,-6.4925,46.336002,6.344,30.816002,eccentric,4,3.0,24578.0,344314.0,309978.0,365446.0,321361.0
2026-04-07 17:51:11.172391,246494,1341524288,1341526420,-1.130208,-0.023424,-0.052704,-7.4375,7.25375,-6.9125,46.336002,6.344,30.816002,eccentric,4,3.0,24578.0,344314.0,309978.0,365446.0,321361.0
2026-04-07 17:51:11.174107,246495,1341533226,1341535174,-1.13216,0.013664,-0.103456,-0.7875,6.79875,-7.84,45.872,6.256001,31.152002,eccentric,4,3.0,24578.0,344314.0,309978.0,365446.0,321361.0
2026-04-07 17:51:11.204005,246506,1341548262,1341550291,-1.13216,0.013664,-0.103456,4.1125,6.755,-9.09125,45.872,6.256001,31.152002,eccentric,4,3.0,24203.0,340564.0,306705.0,361622.0,318245.0
2026-04-07 17:51:11.205604,246507,1341557184,1341558992,-1.091168,0.00976,-0.115168,6.55375,7.7175,-9.91375,46.304,6.736001,30.448002,eccentric,4,3.0,24203.0,340564.0,306705.0,361622.0,318245.0
2026-04-07 17:51:11.209813,246508,1341566083,1341567665,-1.091168,0.00976,-0.115168,7.3675,9.61625,-10.40375,46.304,6.736001,30.448002,eccentric,4,3.0,24203.0,340564.0,306705.0,361622.0,318245.0
2026-04-07 17:51:11.211541,246509,1341575016,1341576411,-1.128256,-0.00976,-0.046848,8.82875,10.9025,-11.08625,46.512,6.128,30.808,eccentric,4,3.0,24203.0,340564.0,306705.0,361622.0,318245.0
2026-04-07 17:51:11.213116,246510,1341589519,1341591363,-1.128256,-0.00976,-0.046848,12.0575,11.24375,-11.66375,46.512,6.128,30.808,eccentric,4,3.0,24203.0,340564.0,306705.0,361622.0,318245.0
2026-04-07 17:51:11.219043,246511,1341598506,1341600204,-1.116544,0.015616,-0.056608,14.6825,12.285,-13.04625,46.288002,6.672,30.208002,eccentric,4,3.0,24203.0,340564.0,306705.0,361622.0,318245.0
2026-04-07 17:51:11.220908,246512,1341607442,1341608919,-1.116544,0.015616,-0.056608,14.90125,14.07,-14.8925,46.288002,6.672,30.208002,eccentric,4,3.0,24203.0,340564.0,306705.0,361622.0,318245.0
2026-04-07 17:51:11.251704,246513,1341621966,1341623809,-1.124352,0.02928,-0.085888,13.6325,15.89,-17.43875,45.784,7.552001,31.752,eccentric,4,3.0,24203.0,340564.0,306705.0,361622.0,318245.0
2026-04-07 17:51:11.253950,246514,1341630894,1341632577,-1.126304,0.023424,-0.06832,13.1425,17.0625,-20.37875,45.728,6.576,30.632002,eccentric,4,3.0,24203.0,340564.0,306705.0,361622.0,318245.0
2026-04-07 17:51:11.322790,246524,1341640249,1341641315,-1.126304,0.023424,-0.06832,13.58875,17.605,-22.93375,45.728,6.576,30.632002,eccentric,4,3.0,23497.0,333274.0,300265.0,354025.0,311953.0
2026-04-07 17:51:11.324297,246525,1341649301,1341650035,-1.126304,0.023424,-0.06832,14.533751,18.03375,-24.325,45.728,6.576,30.632002,eccentric,4,3.0,23497.0,333274.0,300265.0,354025.0,311953.0
2026-04-07 17:51:11.328665,246526,1341664241,1341665000,-1.118496,-0.013664,-0.07808,15.785,18.3925,-24.29,45.264004,7.064,29.224,eccentric,4,3.0,23497.0,333274.0,300265.0,354025.0,311953.0
2026-04-07 17:51:11.330279,246527,1341673667,1341675778,-1.079456,0.025376,-0.062464,18.78625,18.45375,-24.535,45.640003,7.016,30.320002,eccentric,4,3.0,23497.0,333274.0,300265.0,354025.0,311953.0
2026-04-07 17:51:11.331884,246528,1341682665,1341684487,-1.079456,0.025376,-0.062464,20.32625,19.285,-27.3875,45.640003,7.016,30.320002,concentric,4,3.0,23497.0,333274.0,300265.0,354025.0,311953.0
2026-04-07 17:51:11.336069,246529,1341697118,1341699347,-1.116544,0.062464,-0.05856,19.29375,20.58875,-29.67125,45.488003,7.688,30.424002,concentric,4,3.0,23497.0,333274.0,300265.0,354025.0,311953.0
2026-04-07 17:51:11.337762,246530,1341706081,1341708103,-1.116544,0.062464,-0.05856,15.53125,21.48125,-30.7475,45.488003,7.688,30.424002,concentric,4,3.0,23497.0,333274.0,300265.0,354025.0,311953.0
2026-04-07 17:51:11.339410,246531,1341715052,1341716833,-1.134112,0.0,-0.089792,9.6775,21.65625,-31.115,45.272003,7.648,29.944002,concentric,4,3.0,23497.0,333274.0,300265.0,354025.0,311953.0
2026-04-07 17:51:11.343432,246532,1341723999,1341725553,-1.134112,0.0,-0.089792,3.50875,21.1575,-29.9775,45.272003,7.648,29.944002,concentric,4,3.0,23497.0,333274.0,300265.0,354025.0,311953.0
2026-04-07 17:51:11.348671,246533,1341738603,1341740493,-1.118496,-0.07808,-0.101504,2.52,21.30625,-29.785,45.56,7.888001,29.896002,concentric,4,3.0,23497.0,333274.0,300265.0,354025.0,311953.0
2026-04-07 17:51:11.372825,246543,1341747532,1341749265,-1.118496,-0.07808,-0.101504,5.425,21.39375,-30.37125,45.56,7.888001,29.896002,concentric,4,3.0,22663.0,325031.0,292985.0,345265.0,304809.0
2026-04-07 17:51:11.374371,246544,1341756625,1341757963,-1.136064,-0.033184,-0.085888,11.01625,21.647501,-30.397501,45.776,8.96,29.760002,concentric,4,3.0,22663.0,325031.0,292985.0,345265.0,304809.0
2026-04-07 17:51:11.379800,246545,1341771180,1341772918,-1.165344,0.044896,-0.105408,17.815,21.7525,-29.942501,45.776,8.96,29.792002,concentric,4,3.0,22663.0,325031.0,292985.0,345265.0,304809.0
2026-04-07 17:51:11.408267,246546,1341780141,1341781680,-1.165344,0.044896,-0.105408,22.9425,21.49,-28.67375,45.024002,8.472,29.792002,concentric,4,3.0,22663.0,325031.0,292985.0,345265.0,304809.0
2026-04-07 17:51:11.412756,246547,1341789100,1341790384,-1.165344,0.044896,-0.105408,22.19,21.37625,-28.0525,45.024002,8.472,29.792002,concentric,4,3.0,22663.0,325031.0,292985.0,345265.0,304809.0
2026-04-07 17:51:11.415188,246548,1341803570,1341805318,-1.18096,0.035136,-0.130784,16.65125,20.30875,-28.11375,44.864002,8.952001,28.672,concentric,4,3.0,22663.0,325031.0,292985.0,345265.0,304809.0
2026-04-07 17:51:11.422255,246549,1341812488,1341814047,-1.19072,0.017568,-0.060512,13.09,19.87125,-26.15375,44.448,8.864,29.488,concentric,4,3.0,22663.0,325031.0,292985.0,345265.0,304809.0
2026-04-07 17:51:11.469383,246550,1341821449,1341822844,-1.19072,0.017568,-0.060512,14.11375,19.83625,-24.89375,44.448,8.864,29.488,concentric,4,3.0,22663.0,325031.0,292985.0,345265.0,304809.0
2026-04-07 17:51:11.471815,246551,1341830380,1341831563,-1.19072,0.017568,-0.060512,17.56125,20.72875,-26.15375,44.448,8.864,29.488,concentric,4,3.0,22663.0,325031.0,292985.0,345265.0,304809.0
2026-04-07 17:51:11.500309,246562,1341845155,1341846472,-1.196576,-0.001952,-0.03904,16.485,21.60375,-24.08,44.624,9.584001,30.224,concentric,4,3.0,21817.0,316300.0,285214.0,335975.0,296901.0
2026-04-07 17:51:11.501885,246563,1341854129,1341855197,-1.22,-0.021472,-0.081984,13.825,21.37625,-22.37375,44.664,9.56,29.408,concentric,4,3.0,21817.0,316300.0,285214.0,335975.0,296901.0
2026-04-07 17:51:11.506119,246564,1341863037,1341863906,-1.22,-0.021472,-0.081984,13.4225,22.2075,-21.1575,44.664,9.56,29.408,concentric,4,3.0,21817.0,316300.0,285214.0,335975.0,296901.0
2026-04-07 17:51:11.507794,246565,1341877621,1341878833,-1.227808,0.0488,-0.085888,13.85125,22.21625,-20.553751,44.4,10.008,30.44,concentric,4,3.0,21817.0,316300.0,285214.0,335975.0,296901.0
2026-04-07 17:51:11.510293,246566,1341886543,1341887563,-1.227808,0.0488,-0.085888,15.93375,22.82875,-21.0525,44.4,10.008,30.44,concentric,4,3.0,21817.0,316300.0,285214.0,335975.0,296901.0
2026-04-07 17:51:11.511815,246567,1341895456,1341896290,-1.227808,0.076128,-0.091744,16.51125,22.40875,-20.86,44.440002,10.112,30.128002,concentric,4,3.0,21817.0,316300.0,285214.0,335975.0,296901.0
2026-04-07 17:51:11.519750,246568,1341909993,1341911281,-1.227808,0.076128,-0.091744,15.5575,20.965,-21.07875,44.440002,10.112,30.128002,concentric,4,3.0,21817.0,316300.0,285214.0,335975.0,296901.0
2026-04-07 17:51:11.527676,246569,1341919003,1341920043,-1.204384,0.080032,-0.109312,14.63875,20.65,-21.665,43.688004,10.144,30.352001,concentric,4,3.0,21817.0,316300.0,285214.0,335975.0,296901.0
2026-04-07 17:51:11.557949,246570,1341927909,1341928748,-1.204384,0.080032,-0.109312,10.85,21.21875,-22.6975,43.688004,10.144,30.352001,concentric,4,3.0,21817.0,316300.0,285214.0,335975.0,296901.0
2026-04-07 17:51:11.560305,246571,1341936843,1341937449,-1.25904,0.056608,-0.095648,8.5575,21.95375,-23.98375,43.176003,10.312,29.152002,concentric,4,3.0,21817.0,316300.0,285214.0,335975.0,296901.0
2026-04-07 17:51:11.585556,246581,1341951715,1341952804,-1.25904,-0.017568,-0.089792,7.55125,22.63625,-22.63625,43.176003,10.312,29.152002,concentric,4,3.0,21513.0,313108.0,282422.0,332652.0,294027.0
2026-04-07 17:51:11.589869,246582,1341960638,1341961525,-1.272704,-0.017568,-0.089792,7.69125,22.47,-20.8775,43.68,11.024,29.760002,concentric,4,3.0,21513.0,313108.0,282422.0,332652.0,294027.0
2026-04-07 17:51:11.591518,246583,1341969710,1341970351,-1.272704,-0.017568,-0.089792,7.105,20.65,-19.915,43.68,11.024,29.760002,concentric,4,3.0,21513.0,313108.0,282422.0,332652.0,294027.0
2026-04-07 17:51:11.593082,246584,1341984745,1341985319,-1.270752,-0.023424,-0.091744,10.325,18.17375,-17.9375,43.480003,10.704,28.824001,concentric,4,3.0,21513.0,313108.0,282422.0,332652.0,294027.0
2026-04-07 17:51:11.625537,246585,1341994026,1341996125,-1.216096,0.025376,-0.142496,18.795,15.75875,-15.190001,42.776,10.984,28.840002,concentric,4,3.0,21513.0,313108.0,282422.0,332652.0,294027.0
2026-04-07 17:51:11.629093,246586,1342003014,1342004817,-1.216096,0.025376,-0.142496,27.965,13.9475,-13.886251,42.776,10.984,28.840002,concentric,4,3.0,21513.0,313108.0,282422.0,332652.0,294027.0
2026-04-07 17:51:11.631158,246587,1342011988,1342013542,-1.216096,0.099552,-0.072224,32.5675,13.545,-13.95625,42.776,10.984,28.840002,concentric,4,3.0,21513.0,313108.0,282422.0,332652.0,294027.0
2026-04-07 17:51:11.633845,246588,1342026484,1342028446,-1.134112,0.099552,-0.072224,30.58125,12.0225,-16.10875,43.264004,11.464001,29.008001,concentric,4,3.0,21513.0,313108.0,282422.0,332652.0,294027.0
2026-04-07 17:51:11.664142,246589,1342035401,1342037138,-1.169248,0.099552,-0.06832,26.8625,11.97875,-17.4475,43.352,11.536,29.088001,concentric,4,3.0,21513.0,313108.0,282422.0,332652.0,294027.0
2026-04-07 17:51:11.693237,246599,1342044795,1342045908,-1.169248,0.099552,-0.06832,22.3825,11.06875,-17.01875,43.352,11.536,29.088001,concentric,4,3.0,21504.0,312071.0,281361.0,331109.0,292682.0
2026-04-07 17:51:11.697331,246600,1342059406,1342060828,-1.089216,0.060512,-0.081984,15.1025,9.695,-17.0625,43.504,11.464001,29.576002,concentric,4,3.0,21504.0,312071.0,281361.0,331109.0,292682.0
2026-04-07 17:51:11.699028,246601,1342068496,1342069584,-1.089216,0.060512,-0.081984,6.3175,8.74125,-18.83875,43.504,11.464001,29.576002,concentric,4,3.0,21504.0,312071.0,281361.0,331109.0,292682.0
2026-04-07 17:51:11.701650,246602,1342077446,1342078278,-1.147776,0.072224,-0.083936,1.68,9.89625,-20.772501,41.616,11.616,30.112001,concentric,4,3.0,21504.0,312071.0,281361.0,331109.0,292682.0
2026-04-07 17:51:11.703201,246603,1342086462,1342086964,-1.147776,0.072224,-0.083936,3.43,10.89375,-22.0675,41.616,11.616,30.112001,concentric,4,3.0,21504.0,312071.0,281361.0,331109.0,292682.0
2026-04-07 17:51:11.707477,246604,1342101427,1342101945,-1.167296,0.076128,-0.052704,6.5975,12.25875,-22.2425,42.264004,12.424001,29.288002,concentric,4,3.0,21504.0,312071.0,281361.0,331109.0,292682.0
2026-04-07 17:51:11.769918,246605,1342110851,1342112718,-1.167296,0.076128,-0.052704,6.51,12.88,-21.315,42.264004,12.424001,29.288002,concentric,4,3.0,21504.0,312071.0,281361.0,331109.0,292682.0
2026-04-07 17:51:11.771512,246606,1342119821,1342121410,-1.09312,0.060512,-0.02928,1.98625,13.08125,-20.772501,42.112003,12.376,28.320002,concentric,4,3.0,21504.0,312071.0,281361.0,331109.0,292682.0
2026-04-07 17:51:11.773087,246607,1342128706,1342130125,-1.09312,0.060512,-0.02928,-4.71625,12.3725,-23.3625,42.112003,12.376,28.320002,concentric,4,3.0,21504.0,312071.0,281361.0,331109.0,292682.0
2026-04-07 17:51:11.811072,246618,1342143370,1342145070,-1.116544,0.06832,-0.091744,-10.8325,11.7075,-26.705,42.464,13.128,28.840002,concentric,4,3.0,21632.0,313261.0,282379.0,332216.0,293488.0
2026-04-07 17:51:11.812763,246619,1342152418,1342153778,-1.116544,0.06832,-0.15616,-10.56125,13.230001,-29.303751,42.464,13.128,28.840002,concentric,4,3.0,21632.0,313261.0,282379.0,332216.0,293488.0
2026-04-07 17:51:11.815401,246620,1342161335,1342162460,-1.186816,0.115168,-0.15616,-5.88,13.965,-30.52875,41.096,13.048,29.688002,concentric,4,3.0,21632.0,313261.0,282379.0,332216.0,293488.0
2026-04-07 17:51:11.816892,246621,1342175923,1342177432,-1.177056,0.056608,-0.11712,-3.5525,14.14875,-29.575,41.336002,12.864,29.536001,concentric,4,3.0,21632.0,313261.0,282379.0,332216.0,293488.0
2026-04-07 17:51:11.821082,246622,1342184912,1342186269,-1.177056,0.056608,-0.11712,-4.235,14.4725,-28.49875,41.336002,12.864,29.536001,concentric,4,3.0,21632.0,313261.0,282379.0,332216.0,293488.0
2026-04-07 17:51:11.822807,246623,1342193969,1342194999,-1.138016,-0.05856,-0.0488,-7.30625,13.448751,-27.44,39.84,13.192,29.304,concentric,4,3.0,21632.0,313261.0,282379.0,332216.0,293488.0
2026-04-07 17:51:11.824345,246624,1342208504,1342209904,-1.138016,-0.05856,-0.0488,-13.25625,12.08375,-27.3875,39.84,13.192,29.304,concentric,4,3.0,21632.0,313261.0,282379.0,332216.0,293488.0
2026-04-07 17:51:11.828482,246625,1342217489,1342218658,-1.223904,-0.001952,-0.109312,-18.68125,10.2025,-27.4575,40.264004,13.688001,27.608002,concentric,4,3.0,21632.0,313261.0,282379.0,332216.0,293488.0
2026-04-07 17:51:11.833407,246626,1342226412,1342227373,-1.223904,-0.001952,-0.109312,-16.10875,9.94,-27.65875,40.264004,13.688001,27.608002,concentric,4,3.0,21632.0,313261.0,282379.0,332216.0,293488.0
2026-04-07 17:51:11.862210,246627,1342235393,1342236095,-1.192672,0.121024,-0.15616,-10.115,8.93375,-27.67625,40.304,14.216001,28.056002,concentric,4,3.0,21632.0,313261.0,282379.0,332216.0,293488.0
2026-04-07 17:51:11.889134,246637,1342250374,1342251117,-1.192672,0.121024,-0.15616,-7.14875,8.37375,-28.3675,40.304,14.216001,28.056002,concentric,4,3.0,21339.0,310880.0,280545.0,330341.0,291981.0
2026-04-07 17:51:11.890654,246638,1342259724,1342261871,-1.175104,0.0976,-0.154208,-4.78625,8.8725,-30.0825,39.936,14.280001,28.024002,concentric,4,3.0,21339.0,310880.0,280545.0,330341.0,291981.0
2026-04-07 17:51:11.894836,246639,1342268735,1342270598,-1.175104,0.0976,-0.154208,-5.915,8.75875,-30.1525,39.936,14.280001,28.024002,concentric,4,3.0,21339.0,310880.0,280545.0,330341.0,291981.0
2026-04-07 17:51:11.896487,246640,1342283284,1342285588,-1.206336,0.00976,-0.05856,-7.49875,9.30125,-30.42375,38.904003,13.840001,29.448002,concentric,4,3.0,21339.0,310880.0,280545.0,330341.0,291981.0
2026-04-07 17:51:11.900982,246641,1342292364,1342294293,-1.206336,0.00976,-0.05856,-4.97875,10.21125,-30.98375,38.904003,13.840001,29.448002,concentric,4,3.0,21339.0,310880.0,280545.0,330341.0,291981.0
2026-04-07 17:51:11.929446,246642,1342301315,1342302996,-1.235616,-0.046848,-0.111264,-7.70875,8.295,-30.31,38.640003,14.864,29.736002,concentric,4,3.0,21339.0,310880.0,280545.0,330341.0,291981.0
2026-04-07 17:51:11.933980,246643,1342310263,1342311666,-1.235616,-0.046848,-0.111264,-13.685,6.01125,-28.97125,38.640003,14.864,29.736002,concentric,4,3.0,21339.0,310880.0,280545.0,330341.0,291981.0
2026-04-07 17:51:11.936341,246644,1342324725,1342326576,-1.19072,0.017568,-0.187392,-11.7425,5.32875,-28.8925,38.920002,15.048,27.824001,concentric,4,3.0,21339.0,310880.0,280545.0,330341.0,291981.0
2026-04-07 17:51:11.941547,246645,1342333720,1342335295,-1.136064,0.105408,-0.181536,-4.5675,5.425,-29.79375,38.920002,15.048,28.264002,concentric,4,3.0,21339.0,310880.0,280545.0,330341.0,291981.0
2026-04-07 17:51:11.972280,246646,1342342674,1342344038,-1.136064,0.105408,-0.181536,-0.93625,5.64375,-32.4975,37.496002,14.888001,28.264002,concentric,4,3.0,21339.0,310880.0,280545.0,330341.0,291981.0
2026-04-07 17:51:12.001125,246656,1342357188,1342358963,-1.260992,0.089792,-0.163968,1.855,5.9675,-34.08125,38.24,15.864,27.36,concentric,4,3.0,21120.0,309157.0,279151.0,328980.0,290802.0
2026-04-07 17:51:12.002761,246657,1342366113,1342367642,-1.260992,0.089792,-0.163968,7.245,5.59125,-32.40125,38.24,15.864,27.36,concentric,4,3.0,21120.0,309157.0,279151.0,328980.0,290802.0
2026-04-07 17:51:12.004311,246658,1342375055,1342376312,-1.169248,-0.064416,-0.132736,5.20625,5.04,-31.053751,37.328003,15.52,27.432001,concentric,4,3.0,21120.0,309157.0,279151.0,328980.0,290802.0
2026-04-07 17:51:12.008519,246659,1342389553,1342391207,-1.169248,-0.064416,-0.132736,-2.42375,2.19625,-32.83,37.328003,15.52,27.432001,concentric,4,3.0,21120.0,309157.0,279151.0,328980.0,290802.0
2026-04-07 17:51:12.011026,246660,1342398517,1342399956,-1.274656,0.017568,-0.20496,-5.11875,-2.07375,-31.66625,36.904003,15.216001,27.552002,concentric,4,3.0,21120.0,309157.0,279151.0,328980.0,290802.0
2026-04-07 17:51:12.015148,246661,1342407424,1342408684,-1.274656,0.017568,-0.20496,2.61625,-4.06875,-27.60625,36.904003,15.216001,27.552002,concentric,4,3.0,21120.0,309157.0,279151.0,328980.0,290802.0
2026-04-07 17:51:12.070429,246662,1342416341,1342417416,-1.1224,0.072224,-0.203008,11.865,-7.035,-26.495,36.464,16.064001,28.272001,concentric,4,3.0,21120.0,309157.0,279151.0,328980.0,290802.0
2026-04-07 17:51:12.074871,246663,1342430814,1342432312,-1.1224,0.072224,-0.203008,14.971251,-11.34,-27.4575,36.464,16.064001,28.272001,concentric,4,3.0,21120.0,309157.0,279151.0,328980.0,290802.0
2026-04-07 17:51:12.076624,246664,1342439740,1342441016,-1.08336,0.017568,-0.113216,12.1625,-14.5075,-29.42625,36.048,15.968,27.632002,concentric,4,3.0,21120.0,309157.0,279151.0,328980.0,290802.0
2026-04-07 17:51:12.101676,246674,1342448753,1342449763,-1.08336,0.017568,-0.113216,7.72625,-17.115,-29.19,36.048,15.968,27.632002,concentric,4,3.0,21270.0,310329.0,280137.0,329989.0,291698.0
2026-04-07 17:51:12.104104,246675,1342463273,1342464721,-1.036512,0.052704,-0.121024,7.875,-19.94125,-28.7175,35.768,15.712001,27.816002,concentric,4,3.0,21270.0,310329.0,280137.0,329989.0,291698.0
2026-04-07 17:51:12.105718,246676,1342472185,1342473437,-1.036512,0.052704,-0.121024,8.23375,-22.47875,-30.91375,35.768,15.712001,27.816002,concentric,4,3.0,21270.0,310329.0,280137.0,329989.0,291698.0
2026-04-07 17:51:12.109867,246677,1342481201,1342482167,-0.872544,0.072224,-0.085888,5.18,-22.3125,-35.7525,35.832,16.744001,27.696001,concentric,4,3.0,21270.0,310329.0,280137.0,329989.0,291698.0
2026-04-07 17:51:12.111629,246678,1342495723,1342497118,-0.864736,0.023424,-0.011712,1.8725,-20.34375,-40.495,34.768,16.856,26.112001,concentric,4,3.0,21270.0,310329.0,280137.0,329989.0,291698.0
2026-04-07 17:51:12.113489,246679,1342504645,1342505821,-0.864736,0.023424,-0.011712,-2.31875,-16.24875,-40.31125,34.768,16.856,26.112001,concentric,4,3.0,21270.0,310329.0,280137.0,329989.0,291698.0
2026-04-07 17:51:12.143275,246680,1342513550,1342514538,-0.864736,0.023424,-0.011712,-6.02875,-13.5625,-38.77125,34.768,16.856,26.112001,concentric,4,3.0,21270.0,310329.0,280137.0,329989.0,291698.0
2026-04-07 17:51:12.147812,246681,1342528039,1342529580,-0.88816,-0.0488,0.03904,-7.2975,-11.06875,-37.89625,34.392002,16.712,27.904001,concentric,4,3.0,21270.0,310329.0,280137.0,329989.0,291698.0
2026-04-07 17:51:12.149352,246682,1342536936,1342538282,-0.77104,-0.07808,0.0488,-3.5,-7.1225,-35.72625,33.792,16.832,27.792002,concentric,4,3.0,21270.0,310329.0,280137.0,329989.0,291698.0
2026-04-07 17:51:12.180477,246693,1342545864,1342547049,-0.77104,-0.07808,0.0488,0.32375,-4.235,-33.34625,33.792,16.832,27.792002,concentric,4,3.0,20996.0,307907.0,278113.0,327799.0,289811.0
2026-04-07 17:51:12.181920,246694,1342554907,1342555813,-0.685152,-0.080032,0.007808,-4.55,-1.32125,-33.55625,33.792,16.768002,27.304,concentric,4,3.0,20996.0,307907.0,278113.0,327799.0,289811.0
2026-04-07 17:51:12.186425,246695,1342569421,1342570841,-0.685152,-0.080032,0.007808,-13.46625,0.7875,-32.41,33.072002,16.768002,27.304,concentric,4,3.0,20996.0,307907.0,278113.0,327799.0,289811.0
2026-04-07 17:51:12.188556,246696,1342578354,1342579550,-0.718336,-0.013664,-0.091744,-16.12625,3.24625,-30.91375,32.568,16.688002,29.696001,concentric,4,3.0,20996.0,307907.0,278113.0,327799.0,289811.0
2026-04-07 17:51:12.217048,246697,1342587279,1342588259,-0.718336,-0.013664,-0.091744,-13.755,5.04875,-29.715,32.568,16.688002,29.696001,concentric,4,3.0,20996.0,307907.0,278113.0,327799.0,289811.0
2026-04-07 17:51:12.221510,246698,1342601784,1342603248,-0.696864,-0.007808,-0.042944,-7.21,5.55625,-28.1575,33.096,16.888,27.640001,concentric,4,3.0,20996.0,307907.0,278113.0,327799.0,289811.0
2026-04-07 17:51:12.223152,246699,1342610699,1342611939,-0.696864,-0.007808,-0.042944,0.21875,5.45125,-28.035,33.096,16.888,27.640001,concentric,4,3.0,20996.0,307907.0,278113.0,327799.0,289811.0
2026-04-07 17:51:12.227207,246700,1342619578,1342620719,-0.65392,-0.140544,-0.003904,1.645,3.535,-28.0525,32.952,17.28,27.424002,concentric,4,3.0,20996.0,307907.0,278113.0,327799.0,289811.0
2026-04-07 17:51:12.255725,246701,1342634081,1342635652,-0.65392,-0.140544,-0.003904,-2.9225,1.53125,-25.83875,32.952,17.28,27.424002,concentric,4,3.0,20996.0,307907.0,278113.0,327799.0,289811.0
2026-04-07 17:51:12.259425,246702,1342643006,1342644330,-0.607072,-0.177632,-0.042944,-8.636251,-0.6125,-23.38875,32.808002,17.856,27.856,concentric,4,3.0,20996.0,307907.0,278113.0,327799.0,289811.0
2026-04-07 17:51:12.284336,246712,1342651961,1342653050,-0.607072,-0.177632,-0.042944,-8.7325,-2.24,-20.755,32.808002,17.856,27.856,concentric,4,3.0,20910.0,307682.0,278162.0,328137.0,290347.0
2026-04-07 17:51:12.286915,246713,1342666461,1342668074,-0.562176,-0.089792,-0.03904,-3.96375,-1.75,-17.745,32.36,16.912,27.480001,concentric,4,3.0,20910.0,307682.0,278162.0,328137.0,290347.0
2026-04-07 17:51:12.289326,246714,1342675382,1342676818,-0.669536,-0.03904,0.031232,0.90125,-1.42625,-14.9975,32.36,16.736,28.944002,concentric,4,3.0,20910.0,307682.0,278162.0,328137.0,290347.0
2026-04-07 17:51:12.291781,246715,1342684316,1342685515,-0.669536,-0.03904,0.031232,4.47125,-2.2575,-11.59375,31.696001,16.736,28.944002,concentric,4,3.0,20910.0,307682.0,278162.0,328137.0,290347.0
2026-04-07 17:51:12.321965,246716,1342693265,1342694219,-0.669536,-0.03904,0.031232,3.75375,-3.87625,-7.0,31.696001,16.736,28.944002,concentric,4,3.0,20910.0,307682.0,278162.0,328137.0,290347.0
2026-04-07 17:51:12.325575,246717,1342707756,1342709066,-0.67344,-0.083936,-0.050752,-2.695,-5.73125,-1.33875,32.104,17.008001,27.384,concentric,4,3.0,20910.0,307682.0,278162.0,328137.0,290347.0
2026-04-07 17:51:12.328048,246718,1342716665,1342717738,-0.640256,-0.183488,-0.099552,-7.83125,-5.88,4.27,32.856003,16.784,27.2,concentric,4,3.0,20910.0,307682.0,278162.0,328137.0,290347.0
2026-04-07 17:51:12.331805,246719,1342725579,1342726439,-0.640256,-0.183488,-0.099552,-11.8825,-3.96375,11.3225,32.856003,16.784,27.2,concentric,4,3.0,20910.0,307682.0,278162.0,328137.0,290347.0
2026-04-07 17:51:12.373364,246720,1342740058,1342741319,-0.689056,-0.12688,-0.054656,-17.77125,-4.06,16.07375,32.312,16.744001,28.272001,concentric,4,3.0,20910.0,307682.0,278162.0,328137.0,290347.0
2026-04-07 17:51:12.399369,246730,1342749590,1342750251,-0.689056,-0.12688,-0.054656,-16.5025,-4.31375,17.87625,32.312,16.744001,28.272001,concentric,4,3.0,20557.0,304964.0,275996.0,327956.0,291216.0
2026-04-07 17:51:12.401815,246731,1342758904,1342761096,-0.79056,-0.040992,-0.124928,-6.11625,-3.8325,16.87875,33.368,17.0,27.256,concentric,4,3.0,20557.0,304964.0,275996.0,327956.0,291216.0
2026-04-07 17:51:12.404283,246732,1342767821,1342769789,-0.79056,-0.040992,-0.124928,1.9425,-4.13,19.11,33.368,17.0,27.256,concentric,4,3.0,20557.0,304964.0,275996.0,327956.0,291216.0
2026-04-07 17:51:12.406767,246733,1342782444,1342784713,-0.7808,-0.07808,-0.095648,-2.28375,-5.4425,26.25875,33.68,16.776001,26.816002,concentric,4,3.0,20557.0,304964.0,275996.0,327956.0,291216.0
2026-04-07 17:51:12.409252,246734,1342791392,1342793495,-0.7808,-0.07808,-0.095648,-5.9325,-5.99375,29.6975,33.68,16.776001,26.816002,concentric,4,3.0,20557.0,304964.0,275996.0,327956.0,291216.0
2026-04-07 17:51:12.411745,246735,1342800362,1342802241,-0.735904,-0.122976,-0.033184,-7.0175,-6.37,31.94625,33.752003,16.272001,27.28,concentric,4,3.0,20557.0,304964.0,275996.0,327956.0,291216.0
2026-04-07 17:51:12.442067,246736,1342814876,1342817143,-0.735904,-0.122976,-0.033184,-5.71375,-4.57625,35.25375,33.752003,16.272001,27.28,concentric,4,3.0,20557.0,304964.0,275996.0,327956.0,291216.0
2026-04-07 17:51:12.445637,246737,1342823867,1342825827,-0.808128,-0.066368,-0.054656,-1.54875,-2.9925,37.44125,34.464,15.992001,26.792002,concentric,4,3.0,20557.0,304964.0,275996.0,327956.0,291216.0
2026-04-07 17:51:12.448108,246738,1342832804,1342834510,-0.808128,-0.066368,-0.054656,-1.1375,-1.81125,38.885,34.464,15.992001,26.792002,concentric,4,3.0,20557.0,304964.0,275996.0,327956.0,291216.0
