pc_time,serial_num,sensor_ts,host_ts,ax,ay,az,gx,gy,gz,mx,my,mz,phase,rpe,weight_kg,ppg_a,ppg_b,ppg_c,ppg_d,ppg_e
2026-04-09 22:38:47.816005,548061,3257714703,3257716050,-1.282464,-0.021472,-0.08784,7.5075,6.13375,-7.0875,24.728,-28.728,39.120003,eccentric,7,5.0,20164.0,403431.0,215308.0,71813.0,4843.0
2026-04-09 22:38:47.845636,548062,3257729264,3257731051,-1.25904,-0.007808,-0.046848,9.91375,5.69625,-6.02,24.832,-28.384,39.2,eccentric,7,5.0,20164.0,403431.0,215308.0,71813.0,4843.0
2026-04-09 22:38:47.849255,548063,3257738166,3257739741,-1.25904,-0.007808,-0.046848,9.17,5.6525,-5.88875,24.832,-28.384,39.2,eccentric,7,5.0,20164.0,403431.0,215308.0,71813.0,4843.0
2026-04-09 22:38:47.851748,548064,3257747086,3257748424,-1.25904,-0.031232,-0.046848,9.02125,5.59125,-5.5825,24.832,-28.384,37.152,eccentric,7,5.0,20164.0,403431.0,215308.0,71813.0,4843.0
2026-04-09 22:38:47.886212,548074,3257761655,3257763427,-1.225856,-0.031232,-0.046848,9.17,6.18625,-5.0575,25.136002,-28.320002,38.160004,eccentric,7,5.0,20183.0,403431.0,215389.0,72076.0,4937.0
2026-04-09 22:38:47.888219,548075,3257770613,3257772188,-1.292224,-0.013664,-0.076128,5.1625,6.53625,-4.8475,25.296001,-27.720001,38.472,eccentric,7,5.0,20183.0,403431.0,215389.0,72076.0,4937.0
2026-04-09 22:38:47.890409,548076,3257779687,3257780899,-1.292224,-0.013664,-0.076128,2.4325,7.55125,-4.3575,25.296001,-27.720001,38.472,eccentric,7,5.0,20183.0,403431.0,215389.0,72076.0,4937.0
2026-04-09 22:38:47.892950,548077,3257788730,3257789614,-1.28832,-0.017568,-0.093696,2.1,8.1025,-3.92875,24.664001,-28.352001,41.264004,eccentric,7,5.0,20183.0,403431.0,215389.0,72076.0,4937.0
2026-04-09 22:38:47.899247,548078,3257803269,3257804530,-1.28832,-0.017568,-0.093696,2.19625,7.5075,-4.305,24.664001,-28.352001,41.264004,eccentric,7,5.0,20183.0,403431.0,215389.0,72076.0,4937.0
2026-04-09 22:38:47.929465,548079,3257812295,3257813268,-1.204384,-0.02928,-0.07808,3.08875,6.7725,-4.05125,24.472002,-28.432001,38.864002,eccentric,7,5.0,20183.0,403431.0,215389.0,72076.0,4937.0
2026-04-09 22:38:47.933013,548080,3257821245,3257822013,-1.204384,-0.02928,-0.07808,8.25125,5.5125,-3.8675,24.472002,-28.432001,38.864002,eccentric,7,5.0,20183.0,403431.0,215389.0,72076.0,4937.0
2026-04-09 22:38:47.935435,548081,3257830856,3257832760,-1.227808,-0.013664,-0.072224,9.49375,5.11875,-4.34875,24.928001,-28.576002,38.176003,eccentric,7,5.0,20183.0,403431.0,215389.0,72076.0,4937.0
2026-04-09 22:38:47.967057,548082,3257845355,3257847670,-1.227808,-0.013664,-0.072224,10.0975,4.99625,-3.535,24.928001,-28.576002,38.176003,eccentric,7,5.0,20183.0,403431.0,215389.0,72076.0,4937.0
2026-04-09 22:38:47.999236,548092,3257855043,3257856413,-1.221952,0.0,-0.074176,10.325,4.76,-3.1675,25.344002,-28.288002,37.416,eccentric,7,5.0,20132.0,403431.0,215696.0,72518.0,5053.0
2026-04-09 22:38:48.003468,548093,3257863992,3257865157,-1.221952,0.0,-0.074176,9.52875,4.69875,-3.00125,25.344002,-28.288002,37.416,eccentric,7,5.0,20132.0,403431.0,215696.0,72518.0,5053.0
2026-04-09 22:38:48.005149,548094,3257878521,3257880126,-1.218048,-0.003904,-0.083936,7.77,5.22375,-3.38625,25.000002,-28.648,38.208,eccentric,7,5.0,20132.0,403431.0,215696.0,72518.0,5053.0
2026-04-09 22:38:48.006869,548095,3257887486,3257888870,-1.218048,-0.003904,-0.091744,5.46875,5.01375,-2.94,25.000002,-28.648,38.208,eccentric,7,5.0,20132.0,403431.0,215696.0,72518.0,5053.0
2026-04-09 22:38:48.011167,548096,3257896452,3257897574,-1.214144,-0.013664,-0.091744,3.70125,5.04875,-2.3625,24.552002,-28.304,39.440002,eccentric,7,5.0,20132.0,403431.0,215696.0,72518.0,5053.0
2026-04-09 22:38:48.017234,548097,3257905364,3257906297,-1.214144,-0.013664,-0.091744,4.48,4.305,-2.05625,24.552002,-28.304,39.440002,eccentric,7,5.0,20132.0,403431.0,215696.0,72518.0,5053.0
2026-04-09 22:38:48.018753,548098,3257919933,3257921216,-1.143872,-0.023424,-0.05856,8.12,3.47375,-2.44125,23.704,-28.760002,40.176003,eccentric,7,5.0,20132.0,403431.0,215696.0,72518.0,5053.0
2026-04-09 22:38:48.026130,548099,3257928870,3257929954,-1.182912,0.015616,-0.07808,9.49375,3.63125,-2.02125,24.560001,-28.064001,37.104,eccentric,7,5.0,20132.0,403431.0,215696.0,72518.0,5053.0
2026-04-09 22:38:48.065400,548100,3257937823,3257938742,-1.182912,0.015616,-0.07808,9.44125,4.87375,-1.19875,24.560001,-28.064001,37.104,eccentric,7,5.0,20132.0,403431.0,215696.0,72518.0,5053.0
2026-04-09 22:38:48.094700,548111,3257952607,3257953717,-1.167296,0.0,-0.07808,7.69125,5.985,-1.18125,24.376001,-28.744001,38.04,eccentric,7,5.0,20088.0,403431.0,215951.0,72646.0,5135.0
2026-04-09 22:38:48.096438,548112,3257961566,3257962518,-1.167296,0.0,-0.07808,5.43375,5.67,-1.07625,24.376001,-28.744001,38.04,eccentric,7,5.0,20088.0,403431.0,215951.0,72646.0,5135.0
2026-04-09 22:38:48.097994,548113,3257970517,3257971235,-1.139968,-0.023424,-0.109312,2.45875,5.31125,-0.9275,24.384,-28.528002,37.960003,eccentric,7,5.0,20088.0,403431.0,215951.0,72646.0,5135.0
2026-04-09 22:38:48.102210,548114,3257985403,3257986194,-1.139968,-0.023424,-0.109312,1.855,5.285,0.5775,24.384,-28.528002,37.960003,eccentric,7,5.0,20088.0,403431.0,215951.0,72646.0,5135.0
2026-04-09 22:38:48.104656,548115,3257994985,3257997009,-1.139968,0.011712,-0.103456,4.34,5.495,0.945,24.000002,-28.424002,37.952003,eccentric,7,5.0,20088.0,403431.0,215951.0,72646.0,5135.0
2026-04-09 22:38:48.123672,548116,3258004087,3258005736,-1.139968,0.011712,-0.103456,7.4725,5.4075,0.84,24.000002,-28.424002,37.952003,eccentric,7,5.0,20088.0,403431.0,215951.0,72646.0,5135.0
2026-04-09 22:38:48.127687,548117,3258013119,3258014461,-1.116544,0.015616,-0.08784,9.8,4.55875,0.48125,24.048,-28.760002,37.864002,eccentric,7,5.0,20088.0,403431.0,215951.0,72646.0,5135.0
2026-04-09 22:38:48.128644,548118,3258027681,3258029399,-1.116544,0.015616,-0.08784,9.292501,3.5525,-0.70875,24.048,-28.760002,37.864002,eccentric,7,5.0,20088.0,403431.0,215951.0,72646.0,5135.0
2026-04-09 22:38:48.156652,548119,3258036620,3258038117,-1.095072,-0.013664,-0.083936,7.8225,3.94625,-0.21875,23.864,-28.560001,36.096,eccentric,7,5.0,20088.0,403431.0,215951.0,72646.0,5135.0
2026-04-09 22:38:48.161058,548120,3258045539,3258046800,-1.095072,-0.013664,-0.083936,5.69625,4.54125,-0.2625,23.864,-28.560001,36.096,eccentric,7,5.0,20088.0,403431.0,215951.0,72646.0,5135.0
2026-04-09 22:38:48.186053,548130,3258054856,3258055725,-1.100928,0.015616,-0.08784,4.8475,5.03125,-0.7525,23.664001,-28.592001,37.904003,eccentric,7,5.0,20056.0,403431.0,216358.0,72812.0,5162.0
2026-04-09 22:38:48.187739,548131,3258069344,3258070760,-1.067744,0.025376,-0.085888,7.0525,5.24125,-1.2775,22.52,-29.288002,39.184002,eccentric,7,5.0,20056.0,403431.0,216358.0,72812.0,5162.0
2026-04-09 22:38:48.189279,548132,3258078300,3258079484,-1.067744,0.025376,-0.085888,5.52125,5.11875,-2.17,22.52,-29.288002,39.184002,eccentric,7,5.0,20056.0,403431.0,216358.0,72812.0,5162.0
2026-04-09 22:38:48.191802,548133,3258087229,3258088200,-1.067744,0.025376,-0.085888,7.42,5.1275,-2.59,22.52,-29.288002,39.184002,eccentric,7,5.0,20056.0,403431.0,216358.0,72812.0,5162.0
2026-04-09 22:38:48.198559,548134,3258101763,3258103130,-1.056032,-0.003904,-0.074176,8.44375,5.17125,-3.325,22.792002,-28.504002,36.36,eccentric,7,5.0,20056.0,403431.0,216358.0,72812.0,5162.0
2026-04-09 22:38:48.226945,548135,3258110714,3258111846,-1.026752,-0.001952,-0.070272,6.86,5.80125,-2.30125,22.344002,-28.504002,40.296,eccentric,7,5.0,20056.0,403431.0,216358.0,72812.0,5162.0
2026-04-09 22:38:48.231404,548136,3258119627,3258120526,-1.026752,-0.001952,-0.070272,4.6025,6.16,-1.2075,22.344002,-28.504002,40.296,eccentric,7,5.0,20056.0,403431.0,216358.0,72812.0,5162.0
2026-04-09 22:38:48.232941,548137,3258134104,3258135439,-1.026752,-0.017568,-0.105408,4.27875,6.62375,-1.82875,23.368002,-28.456001,37.976,eccentric,7,5.0,20056.0,403431.0,216358.0,72812.0,5162.0
2026-04-09 22:38:48.239559,548138,3258143117,3258144127,-1.026752,-0.017568,-0.105408,2.30125,6.475,-2.02125,23.368002,-28.456001,37.976,eccentric,7,5.0,20056.0,403431.0,216358.0,72812.0,5162.0
2026-04-09 22:38:48.268190,548139,3258152098,3258152831,-1.04432,-0.021472,-0.115168,1.3825,5.8275,-0.455,22.328001,-28.696001,38.976,eccentric,7,5.0,20056.0,403431.0,216358.0,72812.0,5162.0
2026-04-09 22:38:48.299839,548149,3258161475,3258163641,-1.04432,-0.021472,-0.115168,3.71,4.9875,0.16625,22.328001,-28.696001,38.976,eccentric,7,5.0,20036.0,403431.0,216753.0,73029.0,5199.0
2026-04-09 22:38:48.301433,548150,3258176048,3258176509,-1.013088,-0.015616,-0.070272,7.28875,4.2175,0.805,22.768002,-28.968002,38.056004,eccentric,7,5.0,20036.0,403431.0,216753.0,73029.0,5199.0
2026-04-09 22:38:48.303021,548151,3258185381,3258187287,-1.013088,-0.015616,-0.070272,8.54,3.605,1.8725,22.768002,-28.968002,38.056004,eccentric,7,5.0,20036.0,403431.0,216753.0,73029.0,5199.0
2026-04-09 22:38:48.307252,548152,3258194383,3258196049,-0.970144,0.035136,0.003904,7.2625,3.89375,2.24875,22.336,-28.920002,37.576,eccentric,7,5.0,20036.0,403431.0,216753.0,73029.0,5199.0
2026-04-09 22:38:48.308798,548153,3258209037,3258210975,-0.999424,0.02928,-0.07808,5.71375,4.34875,1.96875,22.336,-28.920002,39.640003,eccentric,7,5.0,20036.0,403431.0,216753.0,73029.0,5199.0
2026-04-09 22:38:48.315905,548154,3258217970,3258219715,-0.999424,0.02928,-0.07808,-0.315,5.215,-0.07,21.576,-28.680002,39.640003,eccentric,7,5.0,20036.0,403431.0,216753.0,73029.0,5199.0
2026-04-09 22:38:48.366065,548155,3258226902,3258228395,-0.999424,0.02928,-0.07808,-2.45,5.81875,-1.12875,21.576,-28.680002,39.640003,eccentric,7,5.0,20036.0,403431.0,216753.0,73029.0,5199.0
2026-04-09 22:38:48.368119,548156,3258235814,3258237113,-1.018944,-0.035136,-0.158112,-2.09125,4.935,-1.42625,22.656,-28.472002,38.992,eccentric,7,5.0,20036.0,403431.0,216753.0,73029.0,5199.0
2026-04-09 22:38:48.372369,548157,3258250279,3258252018,-1.018944,0.001952,-0.173728,1.61875,3.40375,-0.34125,22.176,-28.816002,38.072002,eccentric,7,5.0,20036.0,403431.0,216753.0,73029.0,5199.0
2026-04-09 22:38:48.430255,548167,3258259338,3258260846,-1.018944,0.001952,-0.173728,7.49875,1.91625,1.6975,22.176,-28.816002,38.072002,eccentric,7,5.0,19871.0,403431.0,219794.0,74949.0,5779.0
2026-04-09 22:38:48.431888,548168,3258268247,3258269523,-1.018944,0.001952,-0.173728,12.34625,0.6125,2.33625,22.176,-28.816002,38.072002,eccentric,7,5.0,19871.0,403431.0,219794.0,74949.0,5779.0
2026-04-09 22:38:48.435976,548169,3258282805,3258284489,-0.942816,0.017568,-0.027328,8.23375,0.42,0.72625,22.256,-28.28,38.752003,eccentric,7,5.0,19871.0,403431.0,219794.0,74949.0,5779.0
2026-04-09 22:38:48.437651,548170,3258291913,3258293221,-0.940864,0.046848,-0.005856,7.51625,0.62125,-0.2625,20.736,-28.224,39.120003,eccentric,7,5.0,19871.0,403431.0,219794.0,74949.0,5779.0
2026-04-09 22:38:48.439258,548171,3258300838,3258301964,-0.940864,0.046848,-0.005856,9.12625,2.275,-1.645,20.736,-28.224,39.120003,eccentric,7,5.0,19871.0,403431.0,219794.0,74949.0,5779.0
2026-04-09 22:38:48.443759,548172,3258315397,3258316860,-1.018944,0.001952,-0.148352,3.745,3.9375,-2.03875,22.024,-28.992,37.952003,eccentric,7,5.0,19871.0,403431.0,219794.0,74949.0,5779.0
2026-04-09 22:38:48.447104,548173,3258324317,3258325538,-1.018944,0.001952,-0.148352,1.19875,4.865,-1.1375,22.024,-28.992,37.952003,eccentric,7,5.0,19871.0,403431.0,219794.0,74949.0,5779.0
2026-04-09 22:38:48.448003,548174,3258333226,3258334283,-1.00528,-0.017568,-0.158112,1.68,4.27,-0.175,22.408,-29.096,37.688004,eccentric,7,5.0,19871.0,403431.0,219794.0,74949.0,5779.0
2026-04-09 22:38:48.450976,548175,3258342184,3258343000,-1.00528,-0.017568,-0.158112,5.50375,2.52875,0.98,22.408,-29.096,37.688004,eccentric,7,5.0,19871.0,403431.0,219794.0,74949.0,5779.0
2026-04-09 22:38:48.476909,548186,3258356922,3258358015,-0.925248,0.013664,-0.021472,10.91125,1.05,1.91625,21.976002,-29.12,37.960003,eccentric,7,5.0,19908.0,403431.0,220336.0,74911.0,5771.0
2026-04-09 22:38:48.480980,548187,3258365896,3258366760,-0.925248,0.013664,-0.021472,11.75125,1.72375,-0.42875,21.976002,-29.12,37.960003,eccentric,7,5.0,19908.0,403431.0,220336.0,74911.0,5771.0
2026-04-09 22:38:48.482489,548188,3258374820,3258375486,-0.960384,0.113216,0.013664,11.9525,4.20875,-2.14375,21.592001,-28.864002,38.712,eccentric,7,5.0,19908.0,403431.0,220336.0,74911.0,5771.0
2026-04-09 22:38:48.486250,548189,3258389695,3258390526,-0.960384,0.035136,-0.142496,8.79375,5.88,-3.31625,21.592001,-28.864002,38.712,eccentric,7,5.0,19908.0,403431.0,220336.0,74911.0,5771.0
2026-04-09 22:38:48.516662,548190,3258398612,3258399256,-0.974048,0.035136,-0.142496,2.1525,6.60625,-5.4775,21.984001,-28.336,38.544003,eccentric,7,5.0,19908.0,403431.0,220336.0,74911.0,5771.0
2026-04-09 22:38:48.519865,548191,3258407844,3258410040,-0.974048,0.035136,-0.142496,-3.6225,6.55375,-6.16,21.984001,-28.336,38.544003,eccentric,7,5.0,19908.0,403431.0,220336.0,74911.0,5771.0
2026-04-09 22:38:48.524831,548192,3258416768,3258418847,-0.989664,-0.052704,-0.177632,-4.59375,4.90875,-4.40125,21.656,-29.256,37.352,eccentric,7,5.0,19908.0,403431.0,220336.0,74911.0,5771.0
2026-04-09 22:38:48.528575,548193,3258431269,3258431696,-0.96624,-0.005856,-0.081984,2.58125,2.17875,-4.2,20.800001,-28.624,38.456,eccentric,7,5.0,19908.0,403431.0,220336.0,74911.0,5771.0
2026-04-09 22:38:48.559155,548194,3258440577,3258442467,-0.96624,-0.005856,-0.081984,9.695,0.14875,-4.94375,20.800001,-28.624,38.456,eccentric,7,5.0,19908.0,403431.0,220336.0,74911.0,5771.0
2026-04-09 22:38:48.563603,548195,3258449504,3258451192,-0.96624,-0.005856,-0.035136,12.81875,-0.455,-5.85375,20.800001,-28.624,38.456,eccentric,7,5.0,19908.0,403431.0,220336.0,74911.0,5771.0
2026-04-09 22:38:48.592253,548205,3258464398,3258466214,-0.976,0.08784,-0.035136,11.9875,0.53375,-7.21875,20.904001,-28.880001,37.280003,eccentric,7,5.0,20041.0,403431.0,218839.0,73457.0,5355.0
2026-04-09 22:38:48.593955,548206,3258473434,3258474977,-0.96624,0.031232,-0.066368,8.60125,2.03,-7.84,20.736,-29.112001,38.664,eccentric,7,5.0,20041.0,403431.0,218839.0,73457.0,5355.0
2026-04-09 22:38:48.595536,548207,3258482363,3258483695,-0.96624,0.031232,-0.066368,2.51125,2.3275,-6.72875,20.736,-29.112001,38.664,eccentric,7,5.0,20041.0,403431.0,218839.0,73457.0,5355.0
2026-04-09 22:38:48.599102,548208,3258491318,3258492413,-0.983808,-0.035136,-0.132736,-0.8925,3.185,-5.04,21.28,-28.696001,37.432003,eccentric,7,5.0,20041.0,403431.0,218839.0,73457.0,5355.0
2026-04-09 22:38:48.604884,548209,3258505821,3258507316,-0.983808,-0.035136,-0.132736,0.32375,2.66875,-4.34875,21.28,-28.696001,37.432003,eccentric,7,5.0,20041.0,403431.0,218839.0,73457.0,5355.0
2026-04-09 22:38:48.664400,548210,3258514828,3258516057,-1.03456,-0.001952,-0.128832,3.9725,1.5225,-4.38375,20.872002,-28.264002,37.600002,eccentric,7,5.0,20041.0,403431.0,218839.0,73457.0,5355.0
2026-04-09 22:38:48.667939,548211,3258523732,3258524759,-1.03456,-0.001952,-0.128832,10.26375,1.51375,-4.06875,20.872002,-28.264002,37.600002,eccentric,7,5.0,20041.0,403431.0,218839.0,73457.0,5355.0
2026-04-09 22:38:48.670403,548212,3258538218,3258539639,-0.979904,0.062464,-0.03904,14.175,1.60125,-4.27,21.416,-28.376001,37.376003,eccentric,7,5.0,20041.0,403431.0,218839.0,73457.0,5355.0
2026-04-09 22:38:48.672932,548213,3258547141,3258548344,-0.979904,0.062464,-0.03904,13.3875,2.30125,-5.0925,21.416,-28.376001,37.376003,eccentric,7,5.0,20041.0,403431.0,218839.0,73457.0,5355.0
2026-04-09 22:38:48.697909,548223,3258556139,3258557155,-0.935008,0.064416,-0.013664,8.3475,3.61375,-5.46875,20.976002,-28.720001,37.536003,eccentric,7,5.0,20098.0,403431.0,218479.0,73026.0,5253.0
2026-04-09 22:38:48.700422,548224,3258570672,3258572142,-0.976,-0.005856,-0.085888,3.3425,4.50625,-5.38125,20.976002,-28.528002,39.288002,eccentric,7,5.0,20098.0,403431.0,218479.0,73026.0,5253.0
2026-04-09 22:38:48.702895,548225,3258579696,3258580872,-0.976,-0.005856,-0.085888,1.88125,5.59125,-6.18625,21.36,-28.528002,39.288002,eccentric,7,5.0,20098.0,403431.0,218479.0,73026.0,5253.0
2026-04-09 22:38:48.705446,548226,3258588717,3258589586,-0.976,-0.005856,-0.085888,1.7675,4.97,-6.72875,21.36,-28.528002,39.288002,eccentric,7,5.0,20098.0,403431.0,218479.0,73026.0,5253.0
2026-04-09 22:38:48.707843,548227,3258603252,3258604552,-1.00528,-0.005856,-0.109312,6.64125,4.585,-6.23875,20.584002,-28.624,37.424004,eccentric,7,5.0,20098.0,403431.0,218479.0,73026.0,5253.0
2026-04-09 22:38:48.710358,548228,3258612216,3258613300,-1.0248,0.060512,-0.08784,10.01,4.7775,-6.46625,20.936,-29.2,37.432003,eccentric,7,5.0,20098.0,403431.0,218479.0,73026.0,5253.0
2026-04-09 22:38:48.716657,548229,3258621165,3258622009,-1.0248,0.060512,-0.08784,10.43875,4.83875,-7.3675,20.936,-29.2,37.432003,eccentric,7,5.0,20098.0,403431.0,218479.0,73026.0,5253.0
2026-04-09 22:38:48.746914,548230,3258630128,3258630718,-1.0248,0.060512,-0.040992,8.505,5.48625,-7.665,20.936,-29.2,37.432003,eccentric,7,5.0,20098.0,403431.0,218479.0,73026.0,5253.0
2026-04-09 22:38:48.749279,548231,3258644963,3258645644,-0.979904,0.035136,-0.044896,5.03125,5.53,-7.60375,21.256,-28.544,37.376003,eccentric,7,5.0,20098.0,403431.0,218479.0,73026.0,5253.0
2026-04-09 22:38:48.781681,548242,3258654250,3258656740,-0.960384,-0.005856,-0.042944,1.96875,5.39,-7.06125,21.880001,-28.208002,37.448,eccentric,7,5.0,20154.0,403431.0,217491.0,72061.0,4981.0
2026-04-09 22:38:48.784179,548243,3258663229,3258665523,-0.960384,-0.005856,-0.042944,1.44375,5.22375,-6.9475,21.880001,-28.208002,37.448,eccentric,7,5.0,20154.0,403431.0,217491.0,72061.0,4981.0
2026-04-09 22:38:48.786738,548244,3258677823,3258678416,-1.038464,0.037088,-0.072224,3.91125,5.985,-6.72875,21.216002,-28.136002,39.04,eccentric,7,5.0,20154.0,403431.0,217491.0,72061.0,4981.0
2026-04-09 22:38:48.791703,548245,3258687072,3258689283,-1.038464,0.037088,-0.072224,3.29875,6.27375,-6.60625,21.216002,-28.136002,39.04,eccentric,7,5.0,20154.0,403431.0,217491.0,72061.0,4981.0
2026-04-09 22:38:48.794186,548246,3258696215,3258698002,-1.0248,0.042944,-0.081984,0.8225,6.43125,-7.00875,20.616001,-28.488,38.328003,eccentric,7,5.0,20154.0,403431.0,217491.0,72061.0,4981.0
2026-04-09 22:38:48.824517,548247,3258705198,3258706709,-1.0248,0.042944,-0.081984,-0.1575,6.2475,-7.7,20.616001,-28.488,38.328003,eccentric,7,5.0,20154.0,403431.0,217491.0,72061.0,4981.0
2026-04-09 22:38:48.827983,548248,3258719707,3258721625,-0.96624,0.046848,-0.033184,-0.315,5.2675,-8.5925,21.288,-28.736002,38.504,eccentric,7,5.0,20154.0,403431.0,217491.0,72061.0,4981.0
2026-04-09 22:38:48.830769,548249,3258728649,3258730327,-0.96624,0.046848,-0.033184,0.9275,4.61125,-9.2225,21.288,-28.736002,38.504,eccentric,7,5.0,20154.0,403431.0,217491.0,72061.0,4981.0
2026-04-09 22:38:48.832970,548250,3258737592,3258739061,-1.013088,0.064416,-0.070272,0.105,5.38125,-9.9575,21.632002,-28.904001,37.608,eccentric,7,5.0,20154.0,403431.0,217491.0,72061.0,4981.0
2026-04-09 22:38:48.863121,548251,3258752106,3258753972,-1.05408,0.013664,-0.124928,-1.015,5.95,-10.21125,21.472,-28.528002,38.096,eccentric,7,5.0,20154.0,403431.0,217491.0,72061.0,4981.0
2026-04-09 22:38:48.889177,548261,3258761226,3258762689,-1.05408,0.013664,-0.124928,-4.22625,5.43375,-10.45625,21.472,-28.528002,38.096,eccentric,7,5.0,20157.0,403431.0,217517.0,72012.0,4915.0
2026-04-09 22:38:48.891676,548262,3258770160,3258771420,-1.05408,0.013664,-0.124928,-8.4525,5.53,-10.535,21.472,-28.528002,38.096,eccentric,7,5.0,20157.0,403431.0,217517.0,72012.0,4915.0
2026-04-09 22:38:48.894164,548263,3258779128,3258780275,-1.028704,-0.003904,-0.05856,-8.0325,4.73375,-10.56125,21.736002,-28.536001,37.216003,eccentric,7,5.0,20157.0,403431.0,217517.0,72012.0,4915.0
2026-04-09 22:38:48.896673,548264,3258793650,3258795365,-0.987712,0.0488,-0.005856,-5.64375,4.025,-10.54375,21.328001,-28.328001,37.248,eccentric,7,5.0,20157.0,403431.0,217517.0,72012.0,4915.0
2026-04-09 22:38:48.899223,548265,3258802600,3258804088,-0.987712,0.0488,-0.005856,-5.95,4.0075,-10.40375,21.328001,-28.328001,37.248,eccentric,7,5.0,20157.0,403431.0,217517.0,72012.0,4915.0
2026-04-09 22:38:48.930485,548266,3258811556,3258812801,-1.030656,0.050752,-0.109312,-7.1225,5.22375,-9.26625,21.328001,-28.232002,37.616,eccentric,7,5.0,20157.0,403431.0,217517.0,72012.0,4915.0
2026-04-09 22:38:48.933008,548267,3258826054,3258827737,-1.030656,0.050752,-0.109312,-10.49125,7.49875,-8.5575,21.152,-28.232002,37.616,eccentric,7,5.0,20157.0,403431.0,217517.0,72012.0,4915.0
2026-04-09 22:38:48.966842,548268,3258834996,3258836409,-1.065792,-0.007808,-0.1464,-14.93625,8.9425,-8.30375,21.320002,-28.2,38.088,eccentric,7,5.0,20157.0,403431.0,217517.0,72012.0,4915.0
2026-04-09 22:38:48.970442,548269,3258843933,3258845105,-1.065792,-0.007808,-0.1464,-15.26,8.88125,-7.28875,21.320002,-28.2,38.088,eccentric,7,5.0,20157.0,403431.0,217517.0,72012.0,4915.0
2026-04-09 22:38:48.998314,548279,3258858714,3258860123,-1.011136,0.033184,-0.050752,-11.698751,7.8925,-7.90125,21.664001,-27.992,35.304,eccentric,7,5.0,20062.0,403431.0,219115.0,73390.0,5297.0
2026-04-09 22:38:49.001425,548280,3258867717,3258868853,-1.011136,0.033184,-0.050752,-7.77875,6.125,-8.645,21.664001,-27.992,35.304,eccentric,7,5.0,20062.0,403431.0,219115.0,73390.0,5297.0
2026-04-09 22:38:49.003749,548281,3258876678,3258877538,-1.007232,0.023424,-0.054656,-7.27125,5.95,-8.9775,21.488,-28.072,38.096,eccentric,7,5.0,20062.0,403431.0,219115.0,73390.0,5297.0
2026-04-09 22:38:49.005403,548282,3258885602,3258886294,-1.007232,0.023424,-0.054656,-10.80625,7.14875,-8.44375,21.488,-28.072,38.096,eccentric,7,5.0,20062.0,403431.0,219115.0,73390.0,5297.0
2026-04-09 22:38:49.007897,548283,3258900589,3258901280,-1.059936,0.03904,-0.132736,-13.67625,8.575,-7.48125,20.84,-27.984001,40.168003,concentric,7,5.0,20062.0,403431.0,219115.0,73390.0,5297.0
2026-04-09 22:38:49.010435,548284,3258910172,3258912066,-1.059936,0.03904,-0.132736,-14.65625,10.185,-7.56,20.84,-27.984001,40.168003,concentric,7,5.0,20062.0,403431.0,219115.0,73390.0,5297.0
2026-04-09 22:38:49.016741,548285,3258919100,3258920747,-1.104832,0.017568,-0.183488,-13.5275,10.66625,-8.47875,20.536001,-28.28,39.800003,concentric,7,5.0,20062.0,403431.0,219115.0,73390.0,5297.0
2026-04-09 22:38:49.046859,548286,3258928025,3258929451,-1.104832,0.017568,-0.183488,-12.11875,9.765,-9.1175,20.536001,-28.28,39.800003,concentric,7,5.0,20062.0,403431.0,219115.0,73390.0,5297.0
2026-04-09 22:38:49.050483,548287,3258942515,3258944353,-1.052128,0.005856,-0.037088,-9.2225,8.015,-9.66875,21.584002,-27.752,37.392002,concentric,7,5.0,20062.0,403431.0,219115.0,73390.0,5297.0
2026-04-09 22:38:49.052951,548288,3258951403,3258953033,-1.052128,0.005856,-0.06832,-4.06,7.8225,-10.21125,21.584002,-27.752,37.392002,concentric,7,5.0,20062.0,403431.0,219115.0,73390.0,5297.0
2026-04-09 22:38:49.080459,548299,3258960904,3258961804,-1.087264,0.044896,-0.072224,-4.7775,8.54,-9.42375,22.792002,-27.768002,36.328003,concentric,7,5.0,20028.0,403431.0,219371.0,73545.0,5345.0
2026-04-09 22:38:49.084032,548300,3258975438,3258976842,-1.11264,-0.031232,-0.124928,-10.8325,9.24875,-7.525,21.376001,-28.224,39.168003,concentric,7,5.0,20028.0,403431.0,219371.0,73545.0,5345.0
2026-04-09 22:38:49.089224,548301,3258984371,3258985566,-1.11264,-0.031232,-0.124928,-15.75,10.22875,-5.36375,21.376001,-28.224,39.168003,concentric,7,5.0,20028.0,403431.0,219371.0,73545.0,5345.0
2026-04-09 22:38:49.091746,548302,3258993302,3258994353,-1.09312,0.042944,-0.12688,-14.096251,9.905,-5.03125,21.176,-28.080002,39.704002,concentric,7,5.0,20028.0,403431.0,219371.0,73545.0,5345.0
2026-04-09 22:38:49.121860,548303,3259007792,3259009272,-1.09312,0.042944,-0.12688,-9.065,8.91625,-5.67,21.176,-28.080002,39.704002,concentric,7,5.0,20028.0,403431.0,219371.0,73545.0,5345.0
2026-04-09 22:38:49.125443,548304,3259016707,3259017956,-1.081408,0.033184,-0.11712,-4.4625,7.65625,-7.0875,21.6,-27.904001,37.320004,concentric,7,5.0,20028.0,403431.0,219371.0,73545.0,5345.0
2026-04-09 22:38:49.128017,548305,3259025605,3259026682,-1.081408,0.033184,-0.11712,-5.8975,6.78125,-7.79625,21.6,-27.904001,37.320004,concentric,7,5.0,20028.0,403431.0,219371.0,73545.0,5345.0
2026-04-09 22:38:49.130470,548306,3259034490,3259035361,-1.071648,-0.013664,-0.064416,-7.28,5.97625,-7.035,21.920002,-28.04,38.336002,concentric,7,5.0,20028.0,403431.0,219371.0,73545.0,5345.0
2026-04-09 22:38:49.160656,548307,3259048964,3259050293,-1.071648,-0.013664,-0.064416,-6.30875,5.64375,-6.85125,21.920002,-28.04,38.336002,concentric,7,5.0,20028.0,403431.0,219371.0,73545.0,5345.0
2026-04-09 22:38:49.186833,548317,3259057852,3259058953,-1.079456,0.005856,-0.10736,-3.6575,5.31125,-6.265,22.176,-28.192001,37.888,concentric,7,5.0,19999.0,403431.0,219686.0,73913.0,5438.0
2026-04-09 22:38:49.189233,548318,3259067516,3259069760,-1.079456,0.005856,-0.10736,-2.9925,5.6875,-6.18625,22.176,-28.192001,37.888,concentric,7,5.0,19999.0,403431.0,219686.0,73913.0,5438.0
2026-04-09 22:38:49.191778,548319,3259082065,3259082665,-1.09312,0.021472,-0.124928,-2.3975,5.38125,-6.0375,21.312,-27.608002,39.128002,concentric,7,5.0,19999.0,403431.0,219686.0,73913.0,5438.0
2026-04-09 22:38:49.194209,548320,3259091587,3259093451,-1.09312,0.021472,-0.124928,-1.04125,3.87625,-6.965,21.312,-27.608002,39.128002,concentric,7,5.0,19999.0,403431.0,219686.0,73913.0,5438.0
2026-04-09 22:38:49.199683,548321,3259100604,3259102196,-1.04432,0.001952,-0.089792,-0.63,2.38,-7.105,21.552002,-27.048,36.688004,concentric,7,5.0,19999.0,403431.0,219686.0,73913.0,5438.0
2026-04-09 22:38:49.228207,548322,3259109543,3259110966,-1.04432,0.001952,-0.089792,0.63,1.58375,-5.78375,21.552002,-27.048,36.688004,concentric,7,5.0,19999.0,403431.0,219686.0,73913.0,5438.0
2026-04-09 22:38:49.265936,548323,3259124008,3259125865,-1.016992,-0.005856,-0.085888,1.295,1.82,-5.22375,22.376001,-27.640001,37.856003,concentric,7,5.0,19999.0,403431.0,219686.0,73913.0,5438.0
2026-04-09 22:38:49.283126,548324,3259132914,3259134544,-1.01504,0.025376,-0.080032,0.62125,1.86375,-4.76,22.376001,-27.328001,37.872,concentric,7,5.0,19999.0,403431.0,219686.0,73913.0,5438.0
2026-04-09 22:38:49.285413,548325,3259141886,3259143279,-1.01504,0.025376,-0.080032,1.3825,2.19625,-4.48,22.368002,-27.328001,37.872,concentric,7,5.0,19999.0,403431.0,219686.0,73913.0,5438.0
2026-04-09 22:38:49.287949,548326,3259156357,3259158207,-0.99552,0.050752,-0.080032,3.54375,2.21375,-5.38125,22.096,-27.928001,38.432003,concentric,7,5.0,19999.0,403431.0,219686.0,73913.0,5438.0
2026-04-09 22:38:49.317962,548336,3259165306,3259166924,-0.99552,0.050752,-0.080032,4.34,2.1525,-7.16625,22.096,-27.928001,38.432003,concentric,7,5.0,20061.0,403431.0,218840.0,73337.0,5300.0
2026-04-09 22:38:49.320524,548337,3259174233,3259175617,-0.99552,0.005856,-0.083936,3.24625,1.61875,-9.0125,22.776001,-27.368002,38.048,concentric,7,5.0,20061.0,403431.0,218840.0,73337.0,5300.0
2026-04-09 22:38:49.324142,548338,3259188760,3259189283,-0.99552,0.005856,-0.083936,1.18125,1.33,-9.5025,22.776001,-27.368002,38.048,concentric,7,5.0,20061.0,403431.0,218840.0,73337.0,5300.0
2026-04-09 22:38:49.327554,548339,3259198157,3259200102,-0.952576,-0.02928,-0.074176,0.105,0.91875,-8.82,22.36,-27.696001,38.536003,concentric,7,5.0,20061.0,403431.0,218840.0,73337.0,5300.0
2026-04-09 22:38:49.328150,548340,3259207174,3259208888,-0.952576,-0.02928,-0.074176,2.3625,-0.595,-8.05,22.36,-27.696001,38.536003,concentric,7,5.0,20061.0,403431.0,218840.0,73337.0,5300.0
2026-04-09 22:38:49.334217,548341,3259216189,3259217679,-0.950624,0.001952,-0.074176,4.97875,-1.4875,-7.49875,22.096,-27.816002,38.24,concentric,7,5.0,20061.0,403431.0,218840.0,73337.0,5300.0
2026-04-09 22:38:49.336747,548342,3259230688,3259232653,-0.950624,0.001952,-0.074176,4.795,-1.05875,-8.715,22.096,-27.816002,38.24,concentric,7,5.0,20061.0,403431.0,218840.0,73337.0,5300.0
2026-04-09 22:38:49.339188,548343,3259239644,3259241369,-0.989664,0.07808,-0.083936,7.95375,-0.77875,-11.1825,21.904001,-27.680002,37.960003,concentric,7,5.0,20061.0,403431.0,218840.0,73337.0,5300.0
2026-04-09 22:38:49.345494,548344,3259248603,3259250176,-0.989664,0.07808,-0.083936,9.511251,-0.9625,-14.37625,21.904001,-27.680002,37.960003,concentric,7,5.0,20061.0,403431.0,218840.0,73337.0,5300.0
2026-04-09 22:38:49.404087,548355,3259263325,3259265105,-1.016992,0.007808,-0.10736,5.6175,-1.575,-15.28625,21.976002,-27.312002,38.192,concentric,7,5.0,19990.0,403431.0,219215.0,73784.0,5413.0
2026-04-09 22:38:49.407420,548356,3259272258,3259273954,-1.016992,0.007808,-0.10736,2.45875,-2.37125,-14.455,21.976002,-27.312002,38.192,concentric,7,5.0,19990.0,403431.0,219215.0,73784.0,5413.0
2026-04-09 22:38:49.408060,548357,3259281192,3259282690,-1.018944,-0.046848,-0.0488,2.5725,-2.75625,-14.27125,21.072,-27.736002,38.192,concentric,7,5.0,19990.0,403431.0,219215.0,73784.0,5413.0
2026-04-09 22:38:49.410436,548358,3259295645,3259297668,-1.030656,0.013664,-0.00976,5.81875,-2.70375,-14.1225,22.36,-27.952002,38.616,concentric,7,5.0,19990.0,403431.0,219215.0,73784.0,5413.0
2026-04-09 22:38:49.412946,548359,3259304656,3259306382,-1.030656,0.013664,-0.00976,9.8875,-2.5025,-13.93875,22.36,-27.952002,38.616,concentric,7,5.0,19990.0,403431.0,219215.0,73784.0,5413.0
2026-04-09 22:38:49.415449,548360,3259313634,3259315126,-1.050176,0.00976,-0.081984,8.435,-1.79375,-14.20125,22.36,-27.808,39.248,concentric,7,5.0,19990.0,403431.0,219215.0,73784.0,5413.0
2026-04-09 22:38:49.417929,548361,3259322607,3259323865,-1.050176,0.00976,-0.081984,4.4625,-0.91875,-12.8275,21.376001,-27.808,39.248,concentric,7,5.0,19990.0,403431.0,219215.0,73784.0,5413.0
2026-04-09 22:38:49.449140,548362,3259337090,3259338834,-1.04432,-0.03904,-0.13664,-0.5075,-0.595,-10.9025,21.456001,-27.560001,39.216003,concentric,7,5.0,19990.0,403431.0,219215.0,73784.0,5413.0
2026-04-09 22:38:49.454817,548363,3259346034,3259347544,-1.04432,-0.03904,-0.13664,-2.84375,-1.365,-9.275,21.456001,-27.560001,39.216003,concentric,7,5.0,19990.0,403431.0,219215.0,73784.0,5413.0
2026-04-09 22:38:49.456503,548364,3259354955,3259356249,-1.022848,-0.02928,-0.083936,-0.44625,-3.4825,-7.7875,21.872002,-27.608002,39.248,concentric,7,5.0,19990.0,403431.0,219215.0,73784.0,5413.0
2026-04-09 22:38:49.481489,548374,3259369625,3259371268,-1.022848,-0.02928,-0.083936,5.0575,-5.36375,-7.06125,21.872002,-27.608002,39.248,concentric,7,5.0,19963.0,403431.0,219633.0,74145.0,5491.0
2026-04-09 22:38:49.484273,548375,3259378700,3259379995,-1.032608,-0.001952,-0.074176,9.65125,-6.7725,-7.07,22.024,-27.184002,39.384003,concentric,7,5.0,19963.0,403431.0,219633.0,74145.0,5491.0
2026-04-09 22:38:49.487633,548376,3259387668,3259388752,-1.032608,-0.001952,-0.074176,9.91375,-6.85125,-6.16875,22.024,-27.184002,39.384003,concentric,7,5.0,19963.0,403431.0,219633.0,74145.0,5491.0
2026-04-09 22:38:49.515773,548377,3259402163,3259403637,-1.01504,-0.001952,-0.035136,6.58875,-6.53625,-4.54125,22.52,-28.080002,38.864002,concentric,7,5.0,19963.0,403431.0,219633.0,74145.0,5491.0
2026-04-09 22:38:49.520215,548378,3259411099,3259412416,-1.01504,-0.001952,-0.035136,4.01625,-6.0375,-4.6375,22.52,-28.080002,38.864002,concentric,7,5.0,19963.0,403431.0,219633.0,74145.0,5491.0
2026-04-09 22:38:49.521781,548379,3259420041,3259421105,-1.026752,-0.025376,-0.081984,3.6925,-6.1425,-6.055,20.824001,-27.216002,41.584003,concentric,7,5.0,19963.0,403431.0,219633.0,74145.0,5491.0
2026-04-09 22:38:49.524260,548380,3259428960,3259429825,-1.026752,-0.025376,-0.081984,4.1125,-6.8425,-6.1775,20.824001,-27.216002,41.584003,concentric,7,5.0,19963.0,403431.0,219633.0,74145.0,5491.0
2026-04-09 22:38:49.567244,548381,3259443483,3259444745,-1.003328,-0.03904,-0.081984,5.60875,-7.65625,-5.78375,21.720001,-27.272001,40.184002,concentric,7,5.0,19963.0,403431.0,219633.0,74145.0,5491.0
2026-04-09 22:38:49.570453,548382,3259452387,3259453457,-1.003328,-0.03904,-0.081984,8.56625,-7.525,-5.0925,21.720001,-27.272001,40.184002,concentric,7,5.0,19963.0,403431.0,219633.0,74145.0,5491.0
2026-04-09 22:38:49.595409,548392,3259461706,3259462177,-0.950624,-0.015616,-0.046848,9.1175,-7.74375,-4.96125,20.744001,-27.888,40.712,concentric,7,5.0,20052.0,403431.0,218422.0,73311.0,5242.0
2026-04-09 22:38:49.597947,548393,3259476717,3259477124,-0.9272,0.003904,-0.033184,10.12375,-7.28,-5.01375,20.392,-27.784,41.536003,concentric,7,5.0,20052.0,403431.0,218422.0,73311.0,5242.0
2026-04-09 22:38:49.600466,548394,3259485994,3259487904,-0.9272,0.003904,-0.033184,9.625,-5.8625,-4.165,20.392,-27.784,41.536003,concentric,7,5.0,20052.0,403431.0,218422.0,73311.0,5242.0
2026-04-09 22:38:49.602932,548395,3259494919,3259496646,-0.968192,-0.017568,-0.111264,6.48375,-5.075,-4.025,22.408,-27.992,40.4,concentric,7,5.0,20052.0,403431.0,218422.0,73311.0,5242.0
2026-04-09 22:38:49.605485,548396,3259503893,3259505397,-0.968192,-0.017568,-0.111264,2.8,-3.9725,-4.69,22.408,-27.992,40.4,concentric,7,5.0,20052.0,403431.0,218422.0,73311.0,5242.0
2026-04-09 22:38:49.636966,548397,3259518444,3259520372,-0.991616,-0.02928,-0.11712,2.835,-4.06875,-5.55625,22.424002,-27.656002,40.36,concentric,7,5.0,20052.0,403431.0,218422.0,73311.0,5242.0
2026-04-09 22:38:49.640522,548398,3259527358,3259529075,-0.991616,-0.02928,-0.11712,4.12125,-4.97,-6.34375,22.424002,-27.656002,40.36,concentric,7,5.0,20052.0,403431.0,218422.0,73311.0,5242.0
2026-04-09 22:38:49.644084,548399,3259536289,3259537763,-0.95648,-0.00976,-0.042944,5.285,-4.92625,-6.7025,22.696001,-27.784,38.272003,concentric,7,5.0,20052.0,403431.0,218422.0,73311.0,5242.0
2026-04-09 22:38:49.648001,548400,3259550777,3259552687,-0.95648,-0.00976,-0.042944,4.40125,-5.0925,-7.7875,22.696001,-27.784,38.272003,concentric,7,5.0,20052.0,403431.0,218422.0,73311.0,5242.0
2026-04-09 22:38:49.718558,548411,3259559695,3259561764,-1.007232,-0.0488,-0.070272,3.325,-4.55,-8.60125,21.624,-28.336,39.984,concentric,7,5.0,20049.0,403431.0,217848.0,72785.0,5123.0
2026-04-09 22:38:49.720465,548412,3259568773,3259570461,-1.007232,-0.0488,-0.070272,1.75875,-3.64,-7.09625,21.624,-28.336,39.984,concentric,7,5.0,20049.0,403431.0,217848.0,72785.0,5123.0
2026-04-09 22:38:49.723288,548413,3259577806,3259579166,-1.038464,-0.054656,-0.111264,1.82,-2.75625,-5.11,21.552002,-28.312002,41.976,concentric,7,5.0,20049.0,403431.0,217848.0,72785.0,5123.0
2026-04-09 22:38:49.727255,548414,3259592301,3259594045,-1.038464,-0.054656,-0.111264,4.41875,-3.6925,-4.08625,21.552002,-28.312002,41.976,concentric,7,5.0,20049.0,403431.0,217848.0,72785.0,5123.0
2026-04-09 22:38:49.728162,548415,3259601235,3259602737,-1.00528,-0.02928,-0.095648,6.01125,-4.82125,-4.8125,21.128,-27.968,41.592003,concentric,7,5.0,20049.0,403431.0,217848.0,72785.0,5123.0
2026-04-09 22:38:49.733119,548416,3259610121,3259611497,-1.00528,-0.02928,-0.095648,7.035,-4.41875,-5.34625,21.128,-27.968,41.592003,concentric,7,5.0,20049.0,403431.0,217848.0,72785.0,5123.0
2026-04-09 22:38:49.735448,548417,3259624705,3259626431,-1.065792,-0.00976,-0.072224,6.125,-3.395,-5.6875,22.624,-28.736002,40.064003,concentric,7,5.0,20049.0,403431.0,217848.0,72785.0,5123.0
2026-04-09 22:38:49.737973,548418,3259633736,3259635183,-1.065792,-0.00976,-0.072224,2.24,-2.59,-5.74875,22.624,-28.736002,40.064003,concentric,7,5.0,20049.0,403431.0,217848.0,72785.0,5123.0
2026-04-09 22:38:49.740420,548419,3259642685,3259643877,-1.056032,-0.031232,-0.138592,-1.96875,-1.68,-5.29375,23.032001,-28.192001,37.712,concentric,7,5.0,20049.0,403431.0,217848.0,72785.0,5123.0
2026-04-09 22:38:49.770761,548420,3259657280,3259658809,-1.030656,-0.050752,-0.05856,-4.22625,-1.47875,-6.16,22.44,-28.696001,39.568,concentric,7,5.0,20049.0,403431.0,217848.0,72785.0,5123.0
2026-04-09 22:38:49.796795,548430,3259666450,3259667577,-1.030656,-0.050752,-0.05856,-4.89125,-2.1175,-8.4,22.44,-28.696001,39.568,concentric,7,5.0,20106.0,403431.0,216740.0,71954.0,4854.0
2026-04-09 22:38:49.799609,548431,3259675456,3259676275,-1.03456,0.007808,-0.035136,-0.25375,-3.26375,-9.45,22.976002,-28.408,39.968002,concentric,7,5.0,20106.0,403431.0,216740.0,71954.0,4854.0
2026-04-09 22:38:49.801725,548432,3259684359,3259684973,-1.03456,0.007808,-0.035136,4.935,-3.36875,-10.45625,22.976002,-28.408,39.968002,concentric,7,5.0,20106.0,403431.0,216740.0,71954.0,4854.0
2026-04-09 22:38:49.804425,548433,3259699480,3259699926,-1.153632,-0.023424,-0.160064,5.705,-1.6275,-10.75375,23.320002,-28.04,39.912003,concentric,7,5.0,20106.0,403431.0,216740.0,71954.0,4854.0
2026-04-09 22:38:49.807785,548434,3259709053,3259710759,-1.153632,-0.023424,-0.160064,-0.1225,0.58625,-11.917501,23.320002,-28.04,39.912003,concentric,7,5.0,20106.0,403431.0,216740.0,71954.0,4854.0
2026-04-09 22:38:49.813041,548435,3259717988,3259719516,-1.157536,-0.08784,-0.13664,-5.41625,-0.14875,-11.3925,23.728,-28.216002,40.128002,concentric,7,5.0,20106.0,403431.0,216740.0,71954.0,4854.0
2026-04-09 22:38:49.868219,548436,3259726923,3259728228,-1.157536,-0.08784,-0.13664,-4.59375,-1.68,-10.885,23.728,-28.216002,40.128002,concentric,7,5.0,20106.0,403431.0,216740.0,71954.0,4854.0
2026-04-09 22:38:49.871790,548437,3259741407,3259743123,-1.08336,-0.023424,-0.033184,-1.30375,-2.38,-11.55875,22.072,-27.904001,42.168003,concentric,7,5.0,20106.0,403431.0,216740.0,71954.0,4854.0
2026-04-09 22:38:49.874227,548438,3259750342,3259751809,-1.08336,-0.023424,-0.033184,2.51125,-2.35375,-11.82125,22.072,-27.904001,42.168003,concentric,7,5.0,20106.0,403431.0,216740.0,71954.0,4854.0
2026-04-09 22:38:49.899273,548448,3259760845,3259762901,-1.057984,-0.01952,-0.06832,3.36,-0.525,-12.845,24.624,-28.568,38.976,concentric,7,5.0,20183.0,403431.0,216047.0,71272.0,4689.0
2026-04-09 22:38:49.901719,548449,3259769772,3259771639,-1.057984,-0.01952,-0.06832,-0.525,0.70875,-13.7375,24.624,-28.568,38.976,concentric,7,5.0,20183.0,403431.0,216047.0,71272.0,4689.0
2026-04-09 22:38:49.904242,548450,3259784409,3259786557,-1.155584,-0.062464,-0.140544,-5.215,1.6975,-13.86875,24.976002,-28.424002,38.744003,concentric,7,5.0,20183.0,403431.0,216047.0,71272.0,4689.0
2026-04-09 22:38:49.906735,548451,3259793397,3259795306,-1.155584,-0.062464,-0.140544,-5.45125,2.1,-12.11875,24.976002,-28.424002,38.744003,concentric,7,5.0,20183.0,403431.0,216047.0,71272.0,4689.0
2026-04-09 22:38:49.909253,548452,3259802405,3259804008,-1.147776,-0.007808,-0.128832,-4.03375,2.24,-11.2525,23.928001,-27.848001,40.528004,concentric,7,5.0,20183.0,403431.0,216047.0,71272.0,4689.0
2026-04-09 22:38:49.918072,548453,3259816920,3259818952,-1.04432,0.005856,-0.015616,-1.19875,2.625,-12.8625,24.232,-27.480001,40.488003,concentric,7,5.0,20183.0,403431.0,216047.0,71272.0,4689.0
2026-04-09 22:38:49.923016,548454,3259825862,3259827672,-1.04432,0.005856,-0.015616,2.12625,1.61,-16.40625,24.232,-27.480001,40.488003,concentric,7,5.0,20183.0,403431.0,216047.0,71272.0,4689.0
2026-04-09 22:38:49.953156,548455,3259834798,3259836385,-1.04432,0.005856,-0.062464,2.975,1.19875,-20.055,24.232,-27.480001,40.488003,concentric,7,5.0,20183.0,403431.0,216047.0,71272.0,4689.0
2026-04-09 22:38:49.956752,548456,3259849280,3259851345,-1.10288,-0.040992,-0.05856,0.0,2.82625,-20.545,25.576002,-27.28,37.72,concentric,7,5.0,20183.0,403431.0,216047.0,71272.0,4689.0
2026-04-09 22:38:49.959161,548457,3259858196,3259860070,-1.227808,-0.044896,-0.109312,-1.715,5.45125,-19.74875,25.320002,-28.080002,39.136,concentric,7,5.0,20183.0,403431.0,216047.0,71272.0,4689.0
2026-04-09 22:38:49.986752,548468,3259867317,3259868828,-1.227808,-0.044896,-0.109312,-4.54125,7.525,-20.2825,25.320002,-28.080002,39.136,concentric,7,5.0,20245.0,403431.0,215462.0,70736.0,4509.0
2026-04-09 22:38:49.989291,548469,3259876254,3259877537,-1.153632,-0.054656,-0.111264,-14.34125,6.8775,-18.305,24.000002,-27.760002,40.480003,concentric,7,5.0,20245.0,403431.0,215462.0,70736.0,4509.0
2026-04-09 22:38:49.991822,548470,3259890998,3259892557,-1.153632,-0.054656,-0.111264,-17.26375,5.9675,-15.54875,24.000002,-27.760002,40.480003,concentric,7,5.0,20245.0,403431.0,215462.0,70736.0,4509.0
2026-04-09 22:38:49.996762,548471,3259899951,3259901301,-1.20048,-0.031232,-0.066368,-12.6175,5.285,-15.93375,24.368002,-27.024002,39.760002,concentric,7,5.0,20245.0,403431.0,215462.0,70736.0,4509.0
2026-04-09 22:38:50.027122,548472,3259908849,3259910042,-1.20048,-0.031232,-0.066368,-8.3825,5.005,-16.0125,24.368002,-27.024002,39.760002,concentric,7,5.0,20245.0,403431.0,215462.0,70736.0,4509.0
2026-04-09 22:38:50.030635,548473,3259923371,3259924984,-1.227808,-0.054656,-0.138592,-7.88375,3.605,-14.07,25.952002,-27.52,39.104,concentric,7,5.0,20245.0,403431.0,215462.0,70736.0,4509.0
2026-04-09 22:38:50.033001,548474,3259932270,3259933680,-1.227808,-0.054656,-0.138592,-7.90125,2.05625,-14.56,25.952002,-27.52,39.104,concentric,7,5.0,20245.0,403431.0,215462.0,70736.0,4509.0
2026-04-09 22:38:50.039008,548475,3259941170,3259942367,-1.196576,-0.07808,-0.083936,-4.75125,0.7,-14.06125,25.592001,-27.128002,38.88,concentric,7,5.0,20245.0,403431.0,215462.0,70736.0,4509.0
2026-04-09 22:38:50.068240,548476,3259955699,3259957266,-1.196576,-0.031232,-0.081984,-3.31625,-0.735,-12.4775,25.592001,-27.128002,38.88,concentric,7,5.0,20245.0,403431.0,215462.0,70736.0,4509.0
2026-04-09 22:38:50.096772,548486,3259964807,3259966167,-1.196576,-0.031232,-0.081984,-2.6075,-0.8925,-10.5875,26.336,-27.384,39.52,concentric,7,5.0,20178.0,403431.0,216463.0,71635.0,4752.0
2026-04-09 22:38:50.099247,548487,3259973746,3259974900,-1.196576,-0.031232,-0.081984,-0.14,-0.46375,-10.395,26.336,-27.384,39.52,concentric,7,5.0,20178.0,403431.0,216463.0,71635.0,4752.0
2026-04-09 22:38:50.101781,548488,3259982672,3259983609,-1.241472,-0.025376,-0.08784,1.28625,-0.09625,-10.75375,26.176,-26.728,40.584003,concentric,7,5.0,20178.0,403431.0,216463.0,71635.0,4752.0
2026-04-09 22:38:50.107262,548489,3259997198,3259998619,-1.22976,-0.01952,-0.070272,-2.31875,-0.27125,-10.5525,25.696001,-27.456001,40.960003,concentric,7,5.0,20178.0,403431.0,216463.0,71635.0,4752.0
2026-04-09 22:38:50.109230,548490,3260006137,3260007364,-1.22976,-0.01952,-0.070272,-6.86875,0.105,-8.155,25.696001,-27.456001,40.960003,concentric,7,5.0,20178.0,403431.0,216463.0,71635.0,4752.0
2026-04-09 22:38:50.111748,548491,3260015088,3260016098,-1.22976,-0.01952,-0.070272,-4.1825,-0.00875,-9.835,25.696001,-27.456001,40.960003,concentric,7,5.0,20178.0,403431.0,216463.0,71635.0,4752.0
2026-04-09 22:38:50.165768,548492,3260029544,3260031036,-1.237568,-0.02928,-0.03904,-3.92,0.21,-12.25875,25.808,-26.824001,39.912003,concentric,7,5.0,20178.0,403431.0,216463.0,71635.0,4752.0
2026-04-09 22:38:50.169336,548493,3260038465,3260039742,-1.245376,-0.025376,-0.070272,-1.7675,1.25125,-10.94625,26.552002,-26.856,39.192,concentric,7,5.0,20178.0,403431.0,216463.0,71635.0,4752.0
2026-04-09 22:38:50.171818,548494,3260047369,3260048449,-1.245376,-0.025376,-0.070272,-3.2725,1.9775,-10.00125,26.552002,-26.856,39.192,concentric,7,5.0,20178.0,403431.0,216463.0,71635.0,4752.0
2026-04-09 22:38:50.174238,548495,3260061827,3260063387,-1.243424,-0.085888,-0.128832,-8.8375,2.0825,-9.765,26.384,-27.080002,39.592003,concentric,7,5.0,20178.0,403431.0,216463.0,71635.0,4752.0
2026-04-09 22:38:50.203018,548505,3260070775,3260072097,-1.243424,-0.085888,-0.128832,-10.68375,3.21125,-8.91625,26.384,-27.080002,39.592003,concentric,7,5.0,20090.0,403431.0,217720.0,72561.0,5018.0
2026-04-09 22:38:50.207016,548506,3260079745,3260080786,-1.276608,-0.124928,-0.1464,-10.87625,2.47625,-6.5275,26.856,-27.296001,39.464,concentric,7,5.0,20090.0,403431.0,217720.0,72561.0,5018.0
2026-04-09 22:38:50.209166,548507,3260094286,3260095817,-1.276608,-0.124928,-0.1464,-8.855001,-0.07875,-1.91625,26.856,-27.296001,39.464,concentric,7,5.0,20090.0,403431.0,217720.0,72561.0,5018.0
2026-04-09 22:38:50.210587,548508,3260103349,3260104547,-1.196576,-0.08784,-0.015616,-3.045,-2.135,1.2075,26.496002,-26.536001,41.432003,concentric,7,5.0,20090.0,403431.0,217720.0,72561.0,5018.0
2026-04-09 22:38:50.213717,548509,3260112376,3260113252,-1.196576,-0.08784,-0.015616,4.515,-2.89625,0.18375,26.496002,-26.536001,41.432003,concentric,7,5.0,20090.0,403431.0,217720.0,72561.0,5018.0
2026-04-09 22:38:50.219230,548510,3260121314,3260121974,-1.270752,0.033184,-0.007808,10.395,-1.28625,0.1575,25.52,-26.456001,40.448,concentric,7,5.0,20090.0,403431.0,217720.0,72561.0,5018.0
2026-04-09 22:38:50.249522,548511,3260136179,3260136931,-1.270752,0.021472,-0.105408,7.23625,1.0325,1.28625,25.52,-26.456001,40.448,concentric,7,5.0,20090.0,403431.0,217720.0,72561.0,5018.0
2026-04-09 22:38:50.253008,548512,3260145504,3260147688,-1.292224,0.021472,-0.105408,-3.08,3.1675,2.19625,26.464,-26.784,38.968002,concentric,7,5.0,20090.0,403431.0,217720.0,72561.0,5018.0
2026-04-09 22:38:50.255519,548513,3260154415,3260156370,-1.292224,0.021472,-0.105408,-12.69625,2.77375,0.34125,26.464,-26.784,38.968002,concentric,7,5.0,20090.0,403431.0,217720.0,72561.0,5018.0
2026-04-09 22:38:50.285813,548524,3260169054,3260169392,-1.233664,-0.101504,-0.130784,-17.71875,1.84625,-1.82875,26.664001,-26.568,40.616,concentric,7,5.0,19869.0,403431.0,221358.0,75348.0,5856.0
2026-04-09 22:38:50.287997,548525,3260178260,3260180233,-1.33712,-0.07808,-0.076128,-13.67625,1.925,-1.785,25.104002,-27.176,42.280003,concentric,7,5.0,19869.0,403431.0,221358.0,75348.0,5856.0
2026-04-09 22:38:50.290478,548526,3260187237,3260188948,-1.33712,-0.07808,-0.076128,-7.945,1.58375,-0.39375,25.104002,-27.176,42.280003,concentric,7,5.0,19869.0,403431.0,221358.0,75348.0,5856.0
2026-04-09 22:38:50.293063,548527,3260196195,3260197654,-1.33712,-0.07808,-0.033184,-0.42,0.55125,1.88125,25.104002,-27.176,42.280003,concentric,7,5.0,19869.0,403431.0,221358.0,75348.0,5856.0
2026-04-09 22:38:50.324539,548528,3260210687,3260212548,-1.25904,-0.054656,-0.033184,0.49875,-0.00875,2.37125,24.648,-26.864002,42.184002,concentric,7,5.0,19869.0,403431.0,221358.0,75348.0,5856.0
2026-04-09 22:38:50.328035,548529,3260219647,3260221286,-1.296128,-0.085888,-0.076128,-3.0275,1.6975,2.19625,26.344002,-26.592001,39.904003,concentric,7,5.0,19869.0,403431.0,221358.0,75348.0,5856.0
2026-04-09 22:38:50.330554,548530,3260228601,3260229993,-1.296128,-0.085888,-0.076128,-2.8525,2.205,3.77125,26.344002,-26.592001,39.904003,concentric,7,5.0,19869.0,403431.0,221358.0,75348.0,5856.0
2026-04-09 22:38:50.360716,548531,3260243202,3260244934,-1.29808,-0.023424,-0.062464,0.13125,2.205,4.20875,24.432001,-26.816002,40.888,concentric,7,5.0,19869.0,403431.0,221358.0,75348.0,5856.0
2026-04-09 22:38:50.365867,548532,3260252149,3260253625,-1.29808,-0.023424,-0.062464,3.28125,2.80875,4.1475,24.432001,-26.816002,40.888,concentric,7,5.0,19869.0,403431.0,221358.0,75348.0,5856.0
2026-04-09 22:38:50.367453,548533,3260261075,3260262321,-1.25904,-0.023424,-0.046848,4.515,2.59,4.08625,26.192001,-27.008001,39.376003,concentric,7,5.0,19869.0,403431.0,221358.0,75348.0,5856.0
2026-04-09 22:38:50.391795,548543,3260275623,3260277316,-1.25904,-0.023424,-0.046848,2.09125,2.52,3.78875,26.192001,-27.008001,39.376003,concentric,7,5.0,19816.0,403431.0,222201.0,75978.0,6055.0
2026-04-09 22:38:50.394354,548544,3260284549,3260286058,-1.264896,-0.052704,-0.076128,-1.645,3.01,3.9725,25.272001,-27.024002,38.992,concentric,7,5.0,19816.0,403431.0,222201.0,75978.0,6055.0
2026-04-09 22:38:50.396758,548545,3260293582,3260294792,-1.264896,-0.052704,-0.076128,-4.17375,3.57,4.73375,25.272001,-27.024002,38.992,concentric,7,5.0,19816.0,403431.0,222201.0,75978.0,6055.0
2026-04-09 22:38:50.399290,548546,3260302486,3260303572,-1.243424,-0.031232,-0.033184,-4.15625,4.01625,4.9,24.976002,-27.720001,39.952003,concentric,7,5.0,19816.0,403431.0,222201.0,75978.0,6055.0
