pc_time,serial_num,sensor_ts,host_ts,ax,ay,az,gx,gy,gz,mx,my,mz,phase,rpe,weight_kg,ppg_a,ppg_b,ppg_c,ppg_d,ppg_e
2026-04-09 22:38:28.174692,544396,3238042034,3238043698,-1.143872,-0.023424,-0.050752,-14.42,8.715,-8.33,23.056002,-29.888,40.704002,eccentric,7,5.0,20946.0,403431.0,207925.0,65458.0,3418.0
2026-04-09 22:38:28.177207,544397,3238051080,3238052475,-1.143872,-0.023424,-0.050752,-14.971251,8.00625,-7.8225,23.056002,-29.888,40.704002,eccentric,7,5.0,20946.0,403431.0,207925.0,65458.0,3418.0
2026-04-09 22:38:28.179699,544398,3238060145,3238061196,-1.124352,-0.035136,0.011712,-13.69375,6.32625,-5.87125,23.272001,-29.760002,39.0,eccentric,7,5.0,20946.0,403431.0,207925.0,65458.0,3418.0
2026-04-09 22:38:28.182189,544399,3238074744,3238076109,-1.159488,0.064416,0.013664,-11.261251,4.85625,-4.2175,21.872002,-29.632002,40.576,eccentric,7,5.0,20946.0,403431.0,207925.0,65458.0,3418.0
2026-04-09 22:38:28.184674,544400,3238083736,3238084905,-1.159488,0.064416,0.013664,-7.7875,4.9525,-5.27625,21.872002,-29.632002,40.576,eccentric,7,5.0,20946.0,403431.0,207925.0,65458.0,3418.0
2026-04-09 22:38:28.187183,544401,3238092804,3238093617,-1.21024,0.050752,-0.02928,-7.8225,5.53,-7.315,21.872002,-29.936,40.048,eccentric,7,5.0,20946.0,403431.0,207925.0,65458.0,3418.0
2026-04-09 22:38:28.242507,544402,3238107328,3238108517,-1.21024,0.050752,-0.02928,-14.81375,6.3175,-8.42625,22.080002,-29.936,40.048,eccentric,7,5.0,20946.0,403431.0,207925.0,65458.0,3418.0
2026-04-09 22:38:28.246009,544403,3238116182,3238117272,-1.139968,-0.011712,-0.017568,-21.9275,6.44,-8.39125,23.232,-29.376001,39.112003,eccentric,7,5.0,20946.0,403431.0,207925.0,65458.0,3418.0
2026-04-09 22:38:28.248517,544404,3238125086,3238125959,-1.139968,-0.011712,-0.017568,-24.99875,5.03125,-8.37375,23.232,-29.376001,39.112003,eccentric,7,5.0,20946.0,403431.0,207925.0,65458.0,3418.0
2026-04-09 22:38:28.251009,544405,3238139567,3238140884,-1.126304,0.013664,-0.007808,-22.9775,3.4125,-10.185,23.528002,-29.544,38.832,eccentric,7,5.0,20946.0,403431.0,207925.0,65458.0,3418.0
2026-04-09 22:38:28.275927,544415,3238148477,3238149611,-1.126304,0.013664,-0.007808,-18.33125,2.79125,-11.7075,23.528002,-29.544,38.832,eccentric,7,5.0,20873.0,403431.0,209317.0,66657.0,3688.0
2026-04-09 22:38:28.278707,544416,3238157454,3238158449,-1.182912,0.064416,-0.007808,-15.26875,3.29,-13.0375,23.792002,-29.248001,39.152,eccentric,7,5.0,20873.0,403431.0,209317.0,66657.0,3688.0
2026-04-09 22:38:28.280909,544417,3238166454,3238167172,-1.182912,0.064416,-0.007808,-13.39625,4.41875,-13.65,23.792002,-29.248001,39.152,eccentric,7,5.0,20873.0,403431.0,209317.0,66657.0,3688.0
2026-04-09 22:38:28.284738,544418,3238181376,3238182110,-1.163392,0.035136,-0.035136,-13.667501,4.7775,-14.385,23.504002,-29.248001,40.144,eccentric,7,5.0,20873.0,403431.0,209317.0,66657.0,3688.0
2026-04-09 22:38:28.286645,544419,3238190797,3238192926,-1.163392,0.035136,-0.035136,-18.4275,4.935,-15.26875,23.504002,-29.248001,40.144,eccentric,7,5.0,20873.0,403431.0,209317.0,66657.0,3688.0
2026-04-09 22:38:28.316285,544420,3238199758,3238201666,-1.1712,-0.023424,-0.070272,-21.63,4.3925,-14.761251,24.000002,-29.272001,40.584003,eccentric,7,5.0,20873.0,403431.0,209317.0,66657.0,3688.0
2026-04-09 22:38:28.319710,544421,3238214258,3238214566,-1.179008,-0.021472,-0.05856,-21.04375,3.115,-14.41125,24.008001,-29.456001,39.856003,eccentric,7,5.0,20873.0,403431.0,209317.0,66657.0,3688.0
2026-04-09 22:38:28.322190,544422,3238223432,3238225331,-1.179008,-0.021472,-0.05856,-19.145,2.275,-14.761251,24.008001,-29.456001,39.856003,eccentric,7,5.0,20873.0,403431.0,209317.0,66657.0,3688.0
2026-04-09 22:38:28.328538,544423,3238232385,3238234029,-1.179008,-0.021472,-0.05856,-14.02625,1.65375,-14.65625,24.008001,-29.456001,39.856003,eccentric,7,5.0,20873.0,403431.0,209317.0,66657.0,3688.0
2026-04-09 22:38:28.363776,544433,3238241354,3238242761,-1.182912,0.015616,0.025376,-9.0475,1.28625,-13.1775,23.064001,-28.632002,40.224003,eccentric,7,5.0,20792.0,403431.0,210686.0,67811.0,3972.0
2026-04-09 22:38:28.365443,544434,3238256992,3238257732,-1.214144,-0.00976,-0.052704,-8.18125,0.455,-13.405,22.968,-28.648,39.784,eccentric,7,5.0,20792.0,403431.0,210686.0,67811.0,3972.0
2026-04-09 22:38:28.367431,544435,3238266396,3238268592,-1.214144,-0.00976,-0.052704,-10.386251,0.6475,-11.655,22.968,-28.648,39.784,eccentric,7,5.0,20792.0,403431.0,210686.0,67811.0,3972.0
2026-04-09 22:38:28.369669,544436,3238275321,3238277303,-1.253184,-0.044896,-0.060512,-13.60625,-0.02625,-8.65375,24.136002,-28.960001,40.104,eccentric,7,5.0,20792.0,403431.0,210686.0,67811.0,3972.0
2026-04-09 22:38:28.400952,544437,3238284288,3238286007,-1.253184,-0.044896,-0.060512,-17.0975,0.4025,-6.6675,24.136002,-28.960001,40.104,eccentric,7,5.0,20792.0,403431.0,210686.0,67811.0,3972.0
2026-04-09 22:38:28.405288,544438,3238298875,3238300875,-1.245376,-0.007808,-0.01952,-16.09125,0.0,-5.90625,23.928001,-28.216002,40.24,eccentric,7,5.0,20792.0,403431.0,210686.0,67811.0,3972.0
2026-04-09 22:38:28.406887,544439,3238307795,3238309601,-1.245376,-0.007808,-0.01952,-12.005,-0.14875,-5.15375,23.928001,-28.216002,40.24,eccentric,7,5.0,20792.0,403431.0,210686.0,67811.0,3972.0
2026-04-09 22:38:28.412642,544440,3238316804,3238318363,-1.22,-0.013664,-0.011712,-7.28875,-0.035,-4.2525,22.712002,-28.608002,41.192,eccentric,7,5.0,20792.0,403431.0,210686.0,67811.0,3972.0
2026-04-09 22:38:28.441137,544441,3238331312,3238333268,-1.22,-0.013664,-0.011712,-5.81875,0.14875,-3.3425,22.712002,-28.608002,41.192,eccentric,7,5.0,20792.0,403431.0,210686.0,67811.0,3972.0
2026-04-09 22:38:28.445619,544442,3238340247,3238341967,-1.24928,0.02928,-0.052704,-4.76875,0.42875,-2.2225,23.336,-28.176,39.832,eccentric,7,5.0,20792.0,403431.0,210686.0,67811.0,3972.0
2026-04-09 22:38:28.472175,544453,3238349200,3238350710,-1.24928,0.02928,-0.052704,-3.28125,0.28,-2.10875,23.336,-28.176,39.832,eccentric,7,5.0,20645.0,403431.0,214085.0,70321.0,4586.0
2026-04-09 22:38:28.474685,544454,3238358150,3238359479,-1.262944,0.031232,-0.072224,-4.26125,0.13125,-3.10625,23.544,-28.296001,40.88,eccentric,7,5.0,20645.0,403431.0,214085.0,70321.0,4586.0
2026-04-09 22:38:28.477214,544455,3238372751,3238374416,-1.262944,0.031232,-0.072224,-6.0375,0.3675,-3.3075,23.544,-28.296001,40.88,eccentric,7,5.0,20645.0,403431.0,214085.0,70321.0,4586.0
2026-04-09 22:38:28.479733,544456,3238381839,3238383128,-1.221952,-0.015616,-0.031232,-9.7825,0.21875,-3.325,23.504002,-28.136002,40.704002,eccentric,7,5.0,20645.0,403431.0,214085.0,70321.0,4586.0
2026-04-09 22:38:28.484727,544457,3238390822,3238391907,-1.221952,-0.015616,-0.031232,-9.948751,-0.04375,-2.7125,23.504002,-28.136002,40.704002,eccentric,7,5.0,20645.0,403431.0,214085.0,70321.0,4586.0
2026-04-09 22:38:28.544963,544458,3238405314,3238406814,-1.19072,-0.031232,-0.035136,-8.015,-1.32125,-2.10875,22.976002,-28.216002,40.608,eccentric,7,5.0,20645.0,403431.0,214085.0,70321.0,4586.0
2026-04-09 22:38:28.548494,544459,3238414226,3238415504,-1.243424,0.001952,-0.052704,-4.9,-0.95375,-1.14625,22.84,-28.568,39.976,eccentric,7,5.0,20645.0,403431.0,214085.0,70321.0,4586.0
2026-04-09 22:38:28.550938,544460,3238423176,3238424229,-1.243424,0.001952,-0.052704,-0.95375,-0.28,1.0325,22.84,-28.568,39.976,eccentric,7,5.0,20645.0,403431.0,214085.0,70321.0,4586.0
2026-04-09 22:38:28.553432,544461,3238437665,3238439119,-1.212192,-0.001952,-0.03904,-1.7325,-0.70875,2.42375,23.072,-27.640001,40.728,eccentric,7,5.0,20645.0,403431.0,214085.0,70321.0,4586.0
2026-04-09 22:38:28.578463,544471,3238446730,3238447838,-1.212192,-0.001952,-0.03904,-2.58125,-0.25375,3.045,23.072,-27.640001,40.728,eccentric,7,5.0,20573.0,403431.0,215764.0,71605.0,4932.0
2026-04-09 22:38:28.580950,544472,3238455729,3238456536,-1.186816,0.015616,-0.044896,-2.19625,0.3325,4.235,22.944,-28.184002,41.008003,eccentric,7,5.0,20573.0,403431.0,215764.0,71605.0,4932.0
2026-04-09 22:38:28.583428,544473,3238464693,3238465311,-1.186816,0.015616,-0.044896,-1.61,1.225,4.9175,22.944,-28.184002,41.008003,eccentric,7,5.0,20573.0,403431.0,215764.0,71605.0,4932.0
2026-04-09 22:38:28.586009,544474,3238479788,3238480279,-1.167296,0.044896,-0.044896,0.14,0.9275,4.83,21.704,-28.264002,42.000004,eccentric,7,5.0,20573.0,403431.0,215764.0,71605.0,4932.0
2026-04-09 22:38:28.588493,544475,3238489224,3238491056,-1.167296,0.044896,-0.044896,2.51125,0.7175,4.2175,21.704,-28.264002,42.000004,eccentric,7,5.0,20573.0,403431.0,215764.0,71605.0,4932.0
2026-04-09 22:38:28.592329,544476,3238498185,3238499740,-1.159488,0.056608,-0.033184,2.8875,1.2075,2.8525,21.544,-28.336,42.064003,eccentric,7,5.0,20573.0,403431.0,215764.0,71605.0,4932.0
2026-04-09 22:38:28.622368,544477,3238507108,3238508457,-1.159488,0.056608,-0.033184,3.4125,1.95125,2.0125,21.544,-28.336,42.064003,eccentric,7,5.0,20573.0,403431.0,215764.0,71605.0,4932.0
2026-04-09 22:38:28.625993,544478,3238521566,3238523348,-1.163392,0.015616,-0.046848,0.79625,3.4825,1.5225,22.68,-28.832,40.688004,eccentric,7,5.0,20573.0,403431.0,215764.0,71605.0,4932.0
2026-04-09 22:38:28.628454,544479,3238530496,3238532052,-1.163392,0.015616,-0.046848,-2.135,3.96375,2.17875,22.68,-28.832,40.688004,eccentric,7,5.0,20573.0,403431.0,215764.0,71605.0,4932.0
2026-04-09 22:38:28.633544,544480,3238539453,3238540822,-1.165344,-0.00976,-0.07808,-3.00125,4.06875,2.94,21.984001,-28.936,41.08,eccentric,7,5.0,20573.0,403431.0,215764.0,71605.0,4932.0
2026-04-09 22:38:28.660897,544490,3238554172,3238555797,-1.165344,-0.00976,-0.060512,1.0675,3.605,3.885,21.984001,-28.936,41.08,eccentric,7,5.0,20471.0,403431.0,217312.0,72722.0,5284.0
2026-04-09 22:38:28.663452,544491,3238563294,3238564629,-1.173152,0.0488,-0.060512,8.4,2.0125,4.3225,21.080002,-28.432001,40.608,eccentric,7,5.0,20471.0,403431.0,217312.0,72722.0,5284.0
2026-04-09 22:38:28.667195,544492,3238572229,3238573406,-1.173152,0.0488,-0.060512,11.445,1.9075,4.7425,21.080002,-28.432001,40.608,eccentric,7,5.0,20471.0,403431.0,217312.0,72722.0,5284.0
2026-04-09 22:38:28.697479,544493,3238586710,3238588373,-1.1712,0.056608,-0.015616,10.35125,2.10875,5.005,21.408,-28.640001,40.760002,eccentric,7,5.0,20471.0,403431.0,217312.0,72722.0,5284.0
2026-04-09 22:38:28.701135,544494,3238595736,3238597087,-1.106784,0.01952,-0.013664,8.19,2.5725,4.80375,21.672,-27.752,39.328003,eccentric,7,5.0,20471.0,403431.0,217312.0,72722.0,5284.0
2026-04-09 22:38:28.712290,544495,3238604641,3238605776,-1.106784,0.01952,-0.013664,5.145,3.59625,4.62875,21.672,-27.752,39.328003,eccentric,7,5.0,20471.0,403431.0,217312.0,72722.0,5284.0
2026-04-09 22:38:28.714704,544496,3238619108,3238620705,-1.147776,0.035136,-0.07808,4.71625,3.47375,5.10125,21.584002,-28.960001,40.832,eccentric,7,5.0,20471.0,403431.0,217312.0,72722.0,5284.0
2026-04-09 22:38:28.744941,544497,3238628072,3238629402,-1.147776,0.035136,-0.07808,7.105,3.6575,6.51,21.584002,-28.960001,40.832,eccentric,7,5.0,20471.0,403431.0,217312.0,72722.0,5284.0
2026-04-09 22:38:28.749503,544498,3238636976,3238638077,-1.110688,0.03904,-0.081984,7.1225,3.15875,7.2275,20.752,-28.672,40.976,eccentric,7,5.0,20471.0,403431.0,217312.0,72722.0,5284.0
2026-04-09 22:38:28.777743,544509,3238646206,3238646828,-1.110688,0.03904,-0.081984,8.75875,2.24,7.735,20.752,-28.672,40.976,eccentric,7,5.0,20496.0,403431.0,217814.0,72951.0,5347.0
2026-04-09 22:38:28.779421,544510,3238661056,3238661796,-1.04432,0.064416,-0.021472,9.56375,1.00625,8.225,21.480001,-28.800001,41.288002,eccentric,7,5.0,20496.0,403431.0,217814.0,72951.0,5347.0
2026-04-09 22:38:28.781015,544511,3238670408,3238672570,-1.04432,0.064416,-0.021472,9.1875,1.33875,8.35625,21.480001,-28.800001,41.288002,eccentric,7,5.0,20496.0,403431.0,217814.0,72951.0,5347.0
2026-04-09 22:38:28.785325,544512,3238679351,3238681313,-1.059936,0.046848,-0.015616,7.9625,2.31,7.8575,20.352001,-29.128002,40.496002,eccentric,7,5.0,20496.0,403431.0,217814.0,72951.0,5347.0
2026-04-09 22:38:28.786816,544513,3238688289,3238690083,-1.059936,0.046848,-0.015616,5.39875,3.07125,7.7,20.352001,-29.128002,40.496002,eccentric,7,5.0,20496.0,403431.0,217814.0,72951.0,5347.0
2026-04-09 22:38:28.844542,544514,3238702765,3238705000,-1.05408,0.03904,-0.044896,6.13375,3.22875,7.63875,20.784,-28.728,41.088,eccentric,7,5.0,20496.0,403431.0,217814.0,72951.0,5347.0
2026-04-09 22:38:28.846910,544515,3238711698,3238713690,-1.05408,0.03904,-0.044896,7.65625,2.26625,7.21,20.784,-28.728,41.088,eccentric,7,5.0,20496.0,403431.0,217814.0,72951.0,5347.0
2026-04-09 22:38:28.851460,544516,3238720625,3238722407,-1.022848,0.054656,-0.074176,9.72125,0.7525,7.16625,19.968,-29.52,41.048,eccentric,7,5.0,20496.0,403431.0,217814.0,72951.0,5347.0
2026-04-09 22:38:28.853195,544517,3238735118,3238737333,-1.001376,0.046848,-0.040992,12.18875,0.105,7.97125,19.968,-29.52,40.856003,eccentric,7,5.0,20496.0,403431.0,217814.0,72951.0,5347.0
2026-04-09 22:38:28.877337,544527,3238744031,3238746078,-1.001376,0.046848,-0.040992,10.99,-0.41125,7.83125,20.0,-28.880001,40.856003,eccentric,7,5.0,20654.0,403431.0,215699.0,71107.0,4817.0
2026-04-09 22:38:28.888836,544528,3238753500,3238754797,-1.001376,0.046848,-0.040992,10.395,-0.28875,7.14875,20.0,-28.880001,40.856003,eccentric,7,5.0,20654.0,403431.0,215699.0,71107.0,4817.0
2026-04-09 22:38:28.907816,544529,3238768108,3238769859,-0.989664,0.08784,0.027328,11.62875,0.9275,6.23,19.416,-29.400002,40.440002,eccentric,7,5.0,20654.0,403431.0,215699.0,71107.0,4817.0
2026-04-09 22:38:28.909449,544530,3238777036,3238778693,-0.968192,0.0976,0.005856,12.39,2.03875,3.99875,18.784,-29.176,41.920002,eccentric,7,5.0,20654.0,403431.0,215699.0,71107.0,4817.0
2026-04-09 22:38:28.911079,544531,3238786016,3238787413,-0.968192,0.0976,0.005856,11.480001,2.59,2.7475,18.784,-29.176,41.920002,eccentric,7,5.0,20654.0,403431.0,215699.0,71107.0,4817.0
2026-04-09 22:38:28.915240,544532,3238794953,3238796099,-0.968192,0.0976,-0.037088,9.8525,3.15,1.09375,18.784,-29.176,41.920002,eccentric,7,5.0,20654.0,403431.0,215699.0,71107.0,4817.0
2026-04-09 22:38:28.916945,544533,3238809413,3238811027,-0.952576,0.046848,-0.037088,10.955,2.5375,-0.18375,19.656,-29.096,36.448,eccentric,7,5.0,20654.0,403431.0,215699.0,71107.0,4817.0
2026-04-09 22:38:28.919277,544534,3238818320,3238819711,-0.94672,0.044896,-0.052704,14.9275,1.54875,-1.19875,19.496,-29.160002,41.512,eccentric,7,5.0,20654.0,403431.0,215699.0,71107.0,4817.0
2026-04-09 22:38:28.923951,544535,3238827346,3238828423,-0.94672,0.044896,-0.052704,17.928751,0.90125,-1.9075,19.496,-29.160002,41.512,eccentric,7,5.0,20654.0,403431.0,215699.0,71107.0,4817.0
2026-04-09 22:38:28.954894,544536,3238841807,3238843376,-0.93696,0.060512,0.005856,16.52875,1.37375,-1.77625,18.232,-29.016,41.624,eccentric,7,5.0,20654.0,403431.0,215699.0,71107.0,4817.0
2026-04-09 22:38:28.980908,544546,3238850819,3238852147,-0.93696,0.060512,0.005856,12.635,2.31,-1.09375,18.232,-29.016,41.624,eccentric,7,5.0,20804.0,403431.0,213340.0,68981.0,4314.0
2026-04-09 22:38:28.983484,544547,3238859787,3238860852,-0.93696,0.089792,0.025376,8.28625,3.4825,-0.4725,18.872002,-29.792002,40.224003,eccentric,7,5.0,20804.0,403431.0,213340.0,68981.0,4314.0
2026-04-09 22:38:28.985897,544548,3238874300,3238875788,-0.93696,0.089792,0.025376,5.4075,4.025,0.07875,18.872002,-29.792002,40.224003,eccentric,7,5.0,20804.0,403431.0,213340.0,68981.0,4314.0
2026-04-09 22:38:28.988503,544549,3238883242,3238884568,-0.935008,0.0976,-0.040992,5.01375,4.48875,-0.9275,18.024,-29.224,41.592003,eccentric,7,5.0,20804.0,403431.0,213340.0,68981.0,4314.0
2026-04-09 22:38:28.990998,544550,3238892311,3238893313,-0.935008,0.0976,-0.040992,6.48375,4.3575,-2.05625,18.024,-29.224,41.592003,eccentric,7,5.0,20804.0,403431.0,213340.0,68981.0,4314.0
2026-04-09 22:38:29.021187,544551,3238906783,3238908265,-0.958432,0.060512,-0.06832,7.63875,3.57875,-1.435,18.048,-29.008001,41.576,eccentric,7,5.0,20804.0,403431.0,213340.0,68981.0,4314.0
2026-04-09 22:38:29.024693,544552,3238915681,3238916949,-0.958432,0.050752,-0.052704,8.30375,2.625,-1.63625,18.048,-29.008001,40.632004,eccentric,7,5.0,20804.0,403431.0,213340.0,68981.0,4314.0
2026-04-09 22:38:29.027219,544553,3238924633,3238925683,-0.964288,0.050752,-0.052704,10.2025,1.785,-1.98625,18.352001,-29.2,40.632004,eccentric,7,5.0,20804.0,403431.0,213340.0,68981.0,4314.0
2026-04-09 22:38:29.029789,544554,3238933581,3238934335,-0.964288,0.050752,-0.052704,11.40125,0.6125,-1.74125,18.352001,-29.2,40.632004,eccentric,7,5.0,20804.0,403431.0,213340.0,68981.0,4314.0
2026-04-09 22:38:29.085947,544565,3238949203,3238951353,-0.931104,0.0976,0.005856,11.66375,0.07875,-2.765,18.624,-29.496002,40.36,eccentric,7,5.0,21016.0,403431.0,210352.0,66353.0,3709.0
2026-04-09 22:38:29.088753,544566,3238958125,3238960125,-0.931104,0.122976,0.003904,10.08875,0.3675,-4.05125,18.832,-29.056002,40.696003,eccentric,7,5.0,21016.0,403431.0,210352.0,66353.0,3709.0
2026-04-09 22:38:29.090992,544567,3238967046,3238968768,-0.931104,0.122976,0.003904,8.575,0.77875,-5.43375,18.832,-29.056002,40.696003,eccentric,7,5.0,21016.0,403431.0,210352.0,66353.0,3709.0
2026-04-09 22:38:29.093445,544568,3238975961,3238977469,-1.009184,0.138592,-0.060512,8.95125,0.97125,-6.85125,18.832,-29.056002,41.504,eccentric,7,5.0,21016.0,403431.0,210352.0,66353.0,3709.0
2026-04-09 22:38:29.095943,544569,3238990481,3238992415,-1.011136,0.138592,-0.060512,10.94625,0.62125,-9.23125,17.512001,-28.976002,41.504,eccentric,7,5.0,21016.0,403431.0,210352.0,66353.0,3709.0
2026-04-09 22:38:29.098498,544570,3238999451,3239001115,-1.040416,0.113216,-0.037088,12.87125,0.455,-11.76,17.224,-29.048002,42.600002,eccentric,7,5.0,21016.0,403431.0,210352.0,66353.0,3709.0
2026-04-09 22:38:29.102223,544571,3239008416,3239009832,-1.040416,0.113216,-0.037088,13.895,0.8225,-13.7725,17.224,-29.048002,42.600002,eccentric,7,5.0,21016.0,403431.0,210352.0,66353.0,3709.0
2026-04-09 22:38:29.146198,544572,3239022928,3239024789,-0.964288,0.05856,0.033184,13.32625,-0.28,-14.525,18.728,-28.616001,40.128002,eccentric,7,5.0,21016.0,403431.0,210352.0,66353.0,3709.0
2026-04-09 22:38:29.149822,544573,3239031836,3239033494,-0.964288,0.05856,0.033184,10.84125,-2.2575,-14.84,18.728,-28.616001,40.128002,eccentric,7,5.0,21016.0,403431.0,210352.0,66353.0,3709.0
2026-04-09 22:38:29.152316,544574,3239040773,3239042182,-0.964288,0.054656,0.021472,11.7075,-3.08,-13.90375,18.552,-29.016,40.168003,eccentric,7,5.0,21016.0,403431.0,210352.0,66353.0,3709.0
2026-04-09 22:38:29.186541,544584,3239055403,3239057137,-0.964288,0.054656,0.021472,15.98625,-3.115,-13.0025,18.552,-29.016,40.168003,eccentric,7,5.0,21097.0,403431.0,209162.0,65189.0,3463.0
2026-04-09 22:38:29.189055,544585,3239064369,3239065849,-1.020896,0.060512,-0.017568,15.25125,-2.73,-10.9025,18.496,-29.12,41.408,eccentric,7,5.0,21097.0,403431.0,209162.0,65189.0,3463.0
2026-04-09 22:38:29.223402,544586,3239073308,3239074564,-1.020896,0.060512,-0.017568,13.83375,-2.84375,-7.20125,18.496,-29.12,41.408,eccentric,7,5.0,21097.0,403431.0,209162.0,65189.0,3463.0
2026-04-09 22:38:29.227804,544587,3239087865,3239089494,-1.003328,0.076128,-0.046848,11.68125,-2.59875,-4.99625,16.968,-29.2,41.376003,eccentric,7,5.0,21097.0,403431.0,209162.0,65189.0,3463.0
2026-04-09 22:38:29.229480,544588,3239096826,3239098262,-0.964288,0.044896,-0.021472,8.5575,-1.8375,-2.38,18.184,-29.304,37.648003,eccentric,7,5.0,21097.0,403431.0,209162.0,65189.0,3463.0
2026-04-09 22:38:29.231064,544589,3239105863,3239106981,-0.964288,0.044896,-0.021472,4.9,-1.3125,0.02625,18.184,-29.304,37.648003,eccentric,7,5.0,21097.0,403431.0,209162.0,65189.0,3463.0
2026-04-09 22:38:29.235274,544590,3239114779,3239115673,-0.964288,0.044896,-0.021472,4.66375,-1.4175,1.65375,18.184,-29.304,37.648003,eccentric,7,5.0,21097.0,403431.0,209162.0,65189.0,3463.0
2026-04-09 22:38:29.236986,544591,3239129310,3239130589,-0.94672,0.072224,0.040992,8.435,-1.8725,0.91,17.832,-29.008001,39.992,eccentric,7,5.0,21097.0,403431.0,209162.0,65189.0,3463.0
2026-04-09 22:38:29.238701,544592,3239138229,3239139305,-0.942816,0.085888,0.062464,14.16625,-2.72125,-0.56,17.392,-29.384,40.656002,eccentric,7,5.0,21097.0,403431.0,209162.0,65189.0,3463.0
2026-04-09 22:38:29.265291,544602,3239147718,3239148045,-0.942816,0.085888,0.062464,20.1075,-3.08,-1.61875,17.392,-29.384,40.656002,eccentric,7,5.0,21112.0,403431.0,209088.0,65109.0,3436.0
2026-04-09 22:38:29.266987,544603,3239157161,3239158917,-0.977952,0.085888,0.011712,17.115,-2.415,-0.8575,17.36,-28.560001,40.208,eccentric,7,5.0,21112.0,403431.0,209088.0,65109.0,3436.0
2026-04-09 22:38:29.269377,544604,3239171785,3239173928,-0.977952,0.085888,0.011712,10.7275,-1.09375,-0.20125,17.36,-28.560001,40.208,eccentric,7,5.0,21112.0,403431.0,209088.0,65109.0,3436.0
2026-04-09 22:38:29.299629,544605,3239180687,3239182637,-0.991616,0.076128,0.03904,5.8275,0.2975,-1.6625,17.384,-29.192001,40.784,eccentric,7,5.0,21112.0,403431.0,209088.0,65109.0,3436.0
2026-04-09 22:38:29.304060,544606,3239189665,3239191331,-0.991616,0.076128,0.03904,3.73625,0.385,-2.4325,17.384,-29.192001,40.784,eccentric,7,5.0,21112.0,403431.0,209088.0,65109.0,3436.0
2026-04-09 22:38:29.305701,544607,3239204189,3239206210,-0.942816,0.113216,0.099552,4.17375,0.28875,-3.5875,18.08,-29.352001,37.88,eccentric,7,5.0,21112.0,403431.0,209088.0,65109.0,3436.0
2026-04-09 22:38:29.307408,544608,3239213144,3239214983,-0.942816,0.113216,0.099552,3.42125,-0.7525,-4.36625,18.08,-29.352001,37.88,eccentric,7,5.0,21112.0,403431.0,209088.0,65109.0,3436.0
2026-04-09 22:38:29.338451,544609,3239222166,3239223699,-0.993568,0.0976,0.044896,1.295,-0.63,-5.5125,17.248001,-29.696001,41.128002,eccentric,7,5.0,21112.0,403431.0,209088.0,65109.0,3436.0
2026-04-09 22:38:29.342851,544610,3239236666,3239238608,-0.993568,0.066368,0.013664,-4.2,0.58625,-5.67875,17.248001,-29.696001,41.128002,eccentric,7,5.0,21112.0,403431.0,209088.0,65109.0,3436.0
2026-04-09 22:38:29.369435,544621,3239245597,3239247732,-1.052128,0.062464,0.013664,-9.065,0.3325,-5.1625,17.68,-28.968002,39.872,eccentric,7,5.0,21074.0,403431.0,209263.0,65098.0,3438.0
2026-04-09 22:38:29.371021,544622,3239254736,3239256577,-1.052128,0.062464,0.013664,-9.87,0.315,-5.145,17.68,-28.968002,39.872,eccentric,7,5.0,21074.0,403431.0,209263.0,65098.0,3438.0
2026-04-09 22:38:29.375221,544623,3239263695,3239265288,-1.0248,0.07808,0.052704,-9.87875,0.16625,-5.88,18.208,-29.000002,41.2,eccentric,7,5.0,21074.0,403431.0,209263.0,65098.0,3438.0
2026-04-09 22:38:29.377585,544624,3239278189,3239280231,-1.030656,0.121024,0.062464,-9.1175,-0.56,-6.09,18.152,-29.160002,39.472,eccentric,7,5.0,21074.0,403431.0,209263.0,65098.0,3438.0
2026-04-09 22:38:29.383845,544625,3239287206,3239288957,-1.030656,0.121024,0.062464,-9.31875,-0.91,-5.76625,18.152,-29.160002,39.472,eccentric,7,5.0,21074.0,403431.0,209263.0,65098.0,3438.0
2026-04-09 22:38:29.448498,544626,3239296130,3239297668,-1.030656,0.121024,0.062464,-11.095,-0.14875,-5.6175,18.152,-29.160002,39.472,eccentric,7,5.0,21074.0,403431.0,209263.0,65098.0,3438.0
2026-04-09 22:38:29.449906,544627,3239310628,3239312564,-1.106784,0.085888,-0.015616,-13.9475,0.35875,-5.4775,18.328001,-29.328001,41.448,eccentric,7,5.0,21074.0,403431.0,209263.0,65098.0,3438.0
2026-04-09 22:38:29.454541,544628,3239319579,3239321267,-1.089216,0.062464,-0.015616,-14.51625,-0.07,-4.50625,18.016,-28.880001,40.512,eccentric,7,5.0,21074.0,403431.0,209263.0,65098.0,3438.0
2026-04-09 22:38:29.456023,544629,3239328498,3239329948,-1.089216,0.062464,-0.015616,-13.85125,-0.0525,-2.75625,18.016,-28.880001,40.512,eccentric,7,5.0,21074.0,403431.0,209263.0,65098.0,3438.0
2026-04-09 22:38:29.460414,544630,3239343039,3239344851,-1.052128,0.113216,0.01952,-11.7775,0.0525,-2.00375,17.592001,-28.808,40.688004,eccentric,7,5.0,21074.0,403431.0,209263.0,65098.0,3438.0
2026-04-09 22:38:29.486044,544640,3239352053,3239353596,-1.052128,0.113216,0.01952,-9.2575,-0.41125,-1.5575,17.592001,-28.808,40.688004,eccentric,7,5.0,20952.0,403431.0,210919.0,66382.0,3703.0
2026-04-09 22:38:29.490744,544641,3239361008,3239362288,-1.057984,0.121024,0.025376,-8.96,-0.6125,-0.67375,18.592001,-28.912,40.808002,eccentric,7,5.0,20952.0,403431.0,210919.0,66382.0,3703.0
2026-04-09 22:38:29.492230,544642,3239375614,3239377197,-1.057984,0.121024,0.025376,-11.13875,-0.04375,-0.42875,18.592001,-28.912,40.808002,eccentric,7,5.0,20952.0,403431.0,210919.0,66382.0,3703.0
2026-04-09 22:38:29.494415,544643,3239384577,3239386001,-1.061888,0.103456,0.005856,-10.9725,0.90125,-1.12,17.768002,-29.456001,41.048,eccentric,7,5.0,20952.0,403431.0,210919.0,66382.0,3703.0
2026-04-09 22:38:29.495995,544644,3239393530,3239394734,-1.061888,0.103456,0.005856,-9.02125,1.16375,-0.98,17.768002,-29.456001,41.048,eccentric,7,5.0,20952.0,403431.0,210919.0,66382.0,3703.0
2026-04-09 22:38:29.500187,544645,3239402461,3239403422,-1.059936,0.095648,-0.01952,-8.4,1.58375,-0.69125,17.936,-29.136002,39.944,eccentric,7,5.0,20952.0,403431.0,210919.0,66382.0,3703.0
2026-04-09 22:38:29.528710,544646,3239416961,3239418381,-1.059936,0.095648,-0.01952,-7.875,1.72375,-0.67375,17.936,-29.136002,39.944,eccentric,7,5.0,20952.0,403431.0,210919.0,66382.0,3703.0
2026-04-09 22:38:29.533242,544647,3239425913,3239427072,-1.036512,0.08784,0.01952,-6.43125,1.86375,-0.175,17.808,-29.184002,41.496002,eccentric,7,5.0,20952.0,403431.0,210919.0,66382.0,3703.0
2026-04-09 22:38:29.535584,544648,3239434806,3239435755,-1.036512,0.08784,0.01952,-4.50625,1.96,0.0175,17.808,-29.184002,41.496002,eccentric,7,5.0,20952.0,403431.0,210919.0,66382.0,3703.0
2026-04-09 22:38:29.589542,544658,3239449739,3239451069,-1.030656,0.111264,0.031232,-2.47625,2.87,0.14875,17.312,-28.664001,41.312,eccentric,7,5.0,20912.0,403431.0,211545.0,66924.0,3815.0
2026-04-09 22:38:29.591100,544659,3239458812,3239459802,-1.03456,0.101504,-0.001952,-2.2225,3.57,-0.53375,17.480001,-28.848001,41.616,eccentric,7,5.0,20912.0,403431.0,211545.0,66924.0,3815.0
2026-04-09 22:38:29.595260,544660,3239467728,3239468507,-1.03456,0.101504,-0.001952,-1.4875,4.2,-0.735,17.480001,-28.848001,41.616,eccentric,7,5.0,20912.0,403431.0,211545.0,66924.0,3815.0
2026-04-09 22:38:29.597000,544661,3239477154,3239479288,-1.03456,0.101504,-0.001952,-1.82875,4.08625,-0.74375,17.480001,-28.848001,41.616,eccentric,7,5.0,20912.0,403431.0,211545.0,66924.0,3815.0
2026-04-09 22:38:29.598595,544662,3239491813,3239492149,-1.0248,0.081984,0.003904,-1.6275,4.47125,-0.595,16.928001,-28.872002,42.368004,eccentric,7,5.0,20912.0,403431.0,211545.0,66924.0,3815.0
2026-04-09 22:38:29.602640,544663,3239501035,3239502913,-1.042368,0.093696,0.011712,0.02625,4.41875,-0.25375,16.344,-28.904001,42.072002,eccentric,7,5.0,20912.0,403431.0,211545.0,66924.0,3815.0
2026-04-09 22:38:29.606401,544664,3239509953,3239511681,-1.042368,0.093696,0.011712,0.8925,4.55,-1.12875,16.344,-28.904001,42.072002,eccentric,7,5.0,20912.0,403431.0,211545.0,66924.0,3815.0
2026-04-09 22:38:29.635039,544665,3239524470,3239526590,-1.056032,0.08784,-0.005856,0.76125,4.97,-1.35625,17.416,-28.952002,41.376003,eccentric,7,5.0,20912.0,403431.0,211545.0,66924.0,3815.0
2026-04-09 22:38:29.639542,544666,3239533387,3239535264,-1.056032,0.08784,-0.005856,1.7325,4.4625,-1.96875,17.416,-28.952002,41.376003,eccentric,7,5.0,20912.0,403431.0,211545.0,66924.0,3815.0
2026-04-09 22:38:29.641047,544667,3239542312,3239544020,-1.052128,0.074176,0.00976,3.47375,3.815,-2.75625,17.544,-28.992,41.384003,eccentric,7,5.0,20912.0,403431.0,211545.0,66924.0,3815.0
2026-04-09 22:38:29.675284,544678,3239551334,3239552797,-1.052128,0.074176,0.00976,4.45375,3.47375,-3.17625,17.544,-28.992,41.384003,eccentric,7,5.0,20916.0,403431.0,211859.0,67243.0,3873.0
2026-04-09 22:38:29.677040,544679,3239565903,3239567780,-1.069696,0.095648,0.01952,5.25875,3.87625,-3.52625,16.872002,-29.192001,41.528004,eccentric,7,5.0,20916.0,403431.0,211859.0,67243.0,3873.0
2026-04-09 22:38:29.678598,544680,3239574983,3239576524,-1.069696,0.095648,0.01952,6.18625,4.41,-3.9375,16.872002,-29.192001,41.528004,eccentric,7,5.0,20916.0,403431.0,211859.0,67243.0,3873.0
2026-04-09 22:38:29.682598,544681,3239583996,3239585282,-1.077504,0.0976,0.031232,5.565,4.865,-4.19125,16.44,-28.960001,42.032,eccentric,7,5.0,20916.0,403431.0,211859.0,67243.0,3873.0
2026-04-09 22:38:29.747191,544682,3239598485,3239600249,-1.09312,0.111264,0.021472,5.915,5.74,-6.01125,16.44,-28.960001,41.808002,concentric,7,5.0,20916.0,403431.0,211859.0,67243.0,3873.0
2026-04-09 22:38:29.751538,544683,3239607396,3239609003,-1.09312,0.111264,0.021472,4.80375,5.81875,-7.0525,17.28,-28.800001,41.808002,concentric,7,5.0,20916.0,403431.0,211859.0,67243.0,3873.0
2026-04-09 22:38:29.753223,544684,3239616271,3239617688,-1.09312,0.111264,0.021472,3.5175,6.08125,-7.14,17.28,-28.800001,41.808002,concentric,7,5.0,20916.0,403431.0,211859.0,67243.0,3873.0
2026-04-09 22:38:29.754779,544685,3239630762,3239632607,-1.116544,0.085888,-0.00976,2.2575,5.67,-7.81375,17.400002,-28.952002,42.904003,concentric,7,5.0,20916.0,403431.0,211859.0,67243.0,3873.0
2026-04-09 22:38:29.758233,544686,3239639662,3239641330,-1.106784,0.089792,0.007808,0.93625,4.97875,-8.09375,17.464,-29.192001,41.624,concentric,7,5.0,20916.0,403431.0,211859.0,67243.0,3873.0
2026-04-09 22:38:29.783178,544696,3239648588,3239649981,-1.106784,0.089792,0.007808,2.58125,3.78,-8.645,17.464,-29.192001,41.624,concentric,7,5.0,20870.0,403431.0,212891.0,68020.0,4050.0
2026-04-09 22:38:29.784771,544697,3239663161,3239664955,-1.087264,0.11712,0.027328,5.2325,2.61625,-10.2025,17.312,-29.168001,41.112003,concentric,7,5.0,20870.0,403431.0,212891.0,68020.0,4050.0
2026-04-09 22:38:29.788982,544698,3239672199,3239673734,-1.087264,0.11712,0.027328,5.74875,2.1,-10.70125,17.312,-29.168001,41.112003,concentric,7,5.0,20870.0,403431.0,212891.0,68020.0,4050.0
2026-04-09 22:38:29.790769,544699,3239681237,3239682490,-1.087264,0.0976,0.02928,3.92,2.1525,-10.47375,17.792002,-28.856,40.336002,concentric,7,5.0,20870.0,403431.0,212891.0,68020.0,4050.0
2026-04-09 22:38:29.792590,544700,3239690389,3239691252,-1.087264,0.0976,0.02928,0.3325,2.30125,-9.72125,17.792002,-28.856,40.336002,concentric,7,5.0,20870.0,403431.0,212891.0,68020.0,4050.0
2026-04-09 22:38:29.823380,544701,3239704892,3239706210,-1.087264,0.070272,0.005856,-1.47875,2.345,-9.065,16.968,-28.776001,41.24,concentric,7,5.0,20870.0,403431.0,212891.0,68020.0,4050.0
2026-04-09 22:38:29.826433,544702,3239713794,3239714915,-1.087264,0.070272,0.005856,0.105,1.74125,-8.88125,16.968,-28.776001,41.24,concentric,7,5.0,20870.0,403431.0,212891.0,68020.0,4050.0
2026-04-09 22:38:29.830269,544703,3239722774,3239723612,-1.067744,0.083936,0.015616,2.135,1.16375,-7.4375,17.728,-28.816002,40.968002,concentric,7,5.0,20870.0,403431.0,212891.0,68020.0,4050.0
2026-04-09 22:38:29.832649,544704,3239737247,3239738589,-1.067744,0.083936,0.015616,4.36625,0.98875,-6.3525,17.728,-28.816002,40.968002,concentric,7,5.0,20870.0,403431.0,212891.0,68020.0,4050.0
2026-04-09 22:38:29.861146,544705,3239746148,3239747304,-1.048224,0.10736,0.035136,6.7025,0.385,-6.8425,17.368,-28.824001,42.824,concentric,7,5.0,20870.0,403431.0,212891.0,68020.0,4050.0
2026-04-09 22:38:29.891053,544715,3239755163,3239756086,-1.048224,0.10736,0.035136,7.7175,0.14875,-6.86875,17.368,-28.824001,42.824,concentric,7,5.0,20840.0,403431.0,213171.0,68293.0,4118.0
2026-04-09 22:38:29.895284,544716,3239769623,3239771020,-1.04432,0.11712,0.040992,7.56,0.315,-7.0875,17.616001,-28.920002,40.904003,concentric,7,5.0,20840.0,403431.0,213171.0,68293.0,4118.0
2026-04-09 22:38:29.896998,544717,3239778542,3239779702,-1.04432,0.11712,0.025376,5.46,1.3125,-7.98875,17.616001,-28.920002,40.904003,concentric,7,5.0,20840.0,403431.0,213171.0,68293.0,4118.0
2026-04-09 22:38:29.898797,544718,3239787491,3239788473,-1.057984,0.0976,0.021472,5.0575,1.53125,-9.31,17.616001,-29.12,40.936,concentric,7,5.0,20840.0,403431.0,213171.0,68293.0,4118.0
2026-04-09 22:38:29.902633,544719,3239796653,3239797238,-1.057984,0.0976,0.021472,5.80125,1.715,-10.28125,17.616001,-29.12,40.936,concentric,7,5.0,20840.0,403431.0,213171.0,68293.0,4118.0
2026-04-09 22:38:29.906782,544720,3239811481,3239812164,-1.022848,0.080032,0.01952,6.2125,1.02375,-10.12375,16.872002,-28.912,42.384003,concentric,7,5.0,20840.0,403431.0,213171.0,68293.0,4118.0
2026-04-09 22:38:29.937084,544721,3239820783,3239822980,-1.016992,0.081984,0.011712,7.00875,1.5225,-10.01,16.824001,-29.096,40.352,concentric,7,5.0,20840.0,403431.0,213171.0,68293.0,4118.0
2026-04-09 22:38:29.941551,544722,3239829695,3239831677,-1.016992,0.081984,0.011712,7.98875,1.81125,-9.94,16.824001,-29.096,40.352,concentric,7,5.0,20840.0,403431.0,213171.0,68293.0,4118.0
2026-04-09 22:38:29.943273,544723,3239838762,3239840360,-1.016992,0.081984,0.011712,8.72375,1.63625,-9.35375,16.824001,-29.096,40.352,concentric,7,5.0,20840.0,403431.0,213171.0,68293.0,4118.0
2026-04-09 22:38:29.973141,544734,3239853896,3239855372,-0.997472,0.07808,0.031232,8.89875,1.4525,-8.96,17.544,-28.968002,42.176003,concentric,7,5.0,20818.0,403431.0,213921.0,69003.0,4292.0
2026-04-09 22:38:29.984090,544735,3239863045,3239864139,-0.977952,0.070272,0.021472,10.5525,1.435,-9.03,17.12,-29.376001,42.016003,concentric,7,5.0,20818.0,403431.0,213921.0,69003.0,4292.0
2026-04-09 22:38:29.985738,544736,3239872085,3239872891,-0.977952,0.070272,0.021472,11.27,1.37375,-8.4,17.12,-29.376001,42.016003,concentric,7,5.0,20818.0,403431.0,213921.0,69003.0,4292.0
2026-04-09 22:38:29.987366,544737,3239886631,3239887804,-0.94672,0.062464,0.021472,10.96375,1.19875,-7.86625,17.856,-29.056002,40.920002,concentric,7,5.0,20818.0,403431.0,213921.0,69003.0,4292.0
2026-04-09 22:38:29.997769,544738,3239895605,3239896518,-0.94672,0.062464,0.021472,11.261251,0.76125,-7.1225,17.856,-29.056002,40.920002,concentric,7,5.0,20818.0,403431.0,213921.0,69003.0,4292.0
2026-04-09 22:38:30.000225,544739,3239904554,3239905267,-0.911584,0.06832,0.023424,12.495,0.6125,-6.51,16.688002,-28.656002,41.696003,concentric,7,5.0,20818.0,403431.0,213921.0,69003.0,4292.0
2026-04-09 22:38:30.044514,544740,3239913955,3239916036,-0.911584,0.06832,0.023424,13.76375,0.90125,-6.08125,16.688002,-28.656002,41.696003,concentric,7,5.0,20818.0,403431.0,213921.0,69003.0,4292.0
2026-04-09 22:38:30.046263,544741,3239928533,3239928881,-0.86864,0.05856,0.042944,14.323751,1.49625,-6.0725,17.728,-29.424002,40.576,concentric,7,5.0,20818.0,403431.0,213921.0,69003.0,4292.0
2026-04-09 22:38:30.052882,544742,3239937758,3239939663,-0.86864,0.05856,0.042944,13.11625,2.58125,-5.52125,17.728,-29.424002,40.576,concentric,7,5.0,20818.0,403431.0,213921.0,69003.0,4292.0
2026-04-09 22:38:30.054570,544743,3239946712,3239948373,-0.8296,0.070272,0.064416,12.53875,3.6225,-5.03125,17.824001,-29.840002,38.320004,concentric,7,5.0,20818.0,403431.0,213921.0,69003.0,4292.0
2026-04-09 22:38:30.083309,544753,3239961290,3239963318,-0.85888,0.08784,0.003904,11.54125,4.8475,-4.96125,17.992,-29.384,38.120003,concentric,7,5.0,21017.0,403431.0,211880.0,67604.0,3941.0
2026-04-09 22:38:30.084796,544754,3239970267,3239972028,-0.85888,0.08784,0.003904,10.9025,5.62625,-6.18625,17.992,-29.384,38.120003,concentric,7,5.0,21017.0,403431.0,211880.0,67604.0,3941.0
2026-04-09 22:38:30.089203,544755,3239979246,3239980740,-0.85888,0.08784,0.003904,9.135,6.86875,-7.5775,17.992,-29.384,38.120003,concentric,7,5.0,21017.0,403431.0,211880.0,67604.0,3941.0
2026-04-09 22:38:30.091532,544756,3239988245,3239989428,-0.933056,0.06832,-0.023424,6.97375,8.365,-8.8725,17.712,-29.584002,40.312,concentric,7,5.0,21017.0,403431.0,211880.0,67604.0,3941.0
2026-04-09 22:38:30.124041,544757,3240002829,3240004344,-0.919392,0.099552,0.064416,6.4225,8.65375,-10.56125,16.92,-29.448002,41.328003,concentric,7,5.0,21017.0,403431.0,211880.0,67604.0,3941.0
2026-04-09 22:38:30.127073,544758,3240011772,3240013054,-0.919392,0.099552,0.064416,7.69125,9.14375,-12.20625,16.92,-29.448002,41.328003,concentric,7,5.0,21017.0,403431.0,211880.0,67604.0,3941.0
2026-04-09 22:38:30.127971,544759,3240020702,3240021775,-0.909632,0.08784,0.095648,5.76625,9.02125,-14.07,18.616001,-28.784002,40.168003,concentric,7,5.0,21017.0,403431.0,211880.0,67604.0,3941.0
2026-04-09 22:38:30.130151,544760,3240035210,3240036711,-0.909632,0.08784,0.095648,2.02125,9.7825,-15.35625,18.616001,-28.784002,40.168003,concentric,7,5.0,21017.0,403431.0,211880.0,67604.0,3941.0
2026-04-09 22:38:30.158872,544761,3240044208,3240045439,-1.011136,0.035136,0.003904,-2.8525,11.82125,-15.155,18.960001,-29.208002,39.736,concentric,7,5.0,21017.0,403431.0,211880.0,67604.0,3941.0
2026-04-09 22:38:30.185786,544771,3240053220,3240054448,-1.011136,0.035136,0.003904,-5.41625,12.83625,-14.69125,18.960001,-29.208002,39.736,concentric,7,5.0,21010.0,403431.0,210890.0,66621.0,3735.0
2026-04-09 22:38:30.187331,544772,3240067875,3240069387,-1.118496,0.017568,-0.06832,-3.14125,13.67625,-13.53625,19.216002,-29.320002,39.856003,concentric,7,5.0,21010.0,403431.0,210890.0,66621.0,3735.0
2026-04-09 22:38:30.191597,544773,3240076840,3240078139,-1.118496,0.017568,-0.06832,-1.42625,13.1425,-11.8125,19.216002,-29.320002,39.856003,concentric,7,5.0,21010.0,403431.0,210890.0,66621.0,3735.0
2026-04-09 22:38:30.193253,544774,3240086137,3240086936,-1.09312,-0.001952,-0.01952,-0.91,11.03375,-9.93125,18.152,-29.208002,41.072002,concentric,7,5.0,21010.0,403431.0,210890.0,66621.0,3735.0
2026-04-09 22:38:30.194810,544775,3240095943,3240097728,-1.09312,-0.001952,-0.01952,1.295,7.735,-8.05,18.152,-29.208002,41.072002,concentric,7,5.0,21010.0,403431.0,210890.0,66621.0,3735.0
2026-04-09 22:38:30.225981,544776,3240110471,3240112630,-0.997472,0.056608,0.08784,5.39,4.89125,-7.65625,18.216002,-29.552002,41.160004,concentric,7,5.0,21010.0,403431.0,210890.0,66621.0,3735.0
2026-04-09 22:38:30.228187,544777,3240119406,3240121324,-0.997472,0.056608,0.08784,11.64625,2.05625,-8.07625,18.216002,-29.552002,41.160004,concentric,7,5.0,21010.0,403431.0,210890.0,66621.0,3735.0
2026-04-09 22:38:30.232808,544778,3240128375,3240130108,-1.038464,0.093696,0.017568,15.7325,1.11125,-7.315,18.832,-29.528002,39.728,concentric,7,5.0,21010.0,403431.0,210890.0,66621.0,3735.0
2026-04-09 22:38:30.235239,544779,3240137292,3240138799,-1.038464,0.093696,0.017568,14.7,1.84625,-7.60375,18.832,-29.528002,39.728,concentric,7,5.0,21010.0,403431.0,210890.0,66621.0,3735.0
2026-04-09 22:38:30.298908,544790,3240151800,3240153749,-1.067744,0.10736,-0.03904,6.5975,3.885,-8.365,18.320002,-29.824001,40.792004,concentric,7,5.0,20970.0,403431.0,211382.0,67016.0,3832.0
2026-04-09 22:38:30.301079,544791,3240161146,3240162628,-1.059936,0.0488,-0.062464,-1.25125,5.215,-11.165,19.52,-29.168001,39.056004,concentric,7,5.0,20970.0,403431.0,211382.0,67016.0,3832.0
2026-04-09 22:38:30.303522,544792,3240170067,3240171321,-1.059936,0.0488,-0.062464,-1.6625,5.18875,-14.07875,19.52,-29.168001,39.056004,concentric,7,5.0,20970.0,403431.0,211382.0,67016.0,3832.0
2026-04-09 22:38:30.306012,544793,3240184573,3240186311,-1.03456,0.05856,0.027328,3.70125,4.6725,-15.51375,19.04,-28.960001,39.456,concentric,7,5.0,20970.0,403431.0,211382.0,67016.0,3832.0
2026-04-09 22:38:30.308490,544794,3240193526,3240195019,-1.03456,0.05856,0.027328,9.19625,4.1475,-16.89625,19.04,-28.960001,39.456,concentric,7,5.0,20970.0,403431.0,211382.0,67016.0,3832.0
2026-04-09 22:38:30.311057,544795,3240202476,3240203755,-1.028704,0.085888,0.046848,15.1025,3.6225,-18.366251,19.416,-29.608002,40.568,concentric,7,5.0,20970.0,403431.0,211382.0,67016.0,3832.0
2026-04-09 22:38:30.344977,544796,3240211516,3240212502,-1.028704,0.085888,0.046848,15.05,2.89625,-19.022501,19.416,-29.608002,40.568,concentric,7,5.0,20970.0,403431.0,211382.0,67016.0,3832.0
2026-04-09 22:38:30.348558,544797,3240225997,3240227430,-1.089216,0.062464,-0.02928,10.91125,3.1675,-18.76,19.552,-29.52,40.432003,concentric,7,5.0,20970.0,403431.0,211382.0,67016.0,3832.0
2026-04-09 22:38:30.351041,544798,3240234906,3240236109,-1.089216,0.062464,-0.02928,6.335,4.725,-17.77125,19.552,-29.52,40.432003,concentric,7,5.0,20970.0,403431.0,211382.0,67016.0,3832.0
2026-04-09 22:38:30.353561,544799,3240243819,3240244778,-1.104832,0.040992,-0.03904,4.7425,5.1275,-18.13,20.68,-29.664001,39.536003,concentric,7,5.0,20970.0,403431.0,211382.0,67016.0,3832.0
2026-04-09 22:38:30.382338,544809,3240258359,3240259783,-1.104832,0.040992,-0.03904,6.29125,4.375,-18.87375,20.68,-29.664001,39.536003,concentric,7,5.0,20889.0,403431.0,212191.0,67659.0,3984.0
2026-04-09 22:38:30.384755,544810,3240267281,3240268513,-1.077504,0.017568,0.003904,10.5525,3.49125,-18.7425,19.136002,-29.664001,40.992,concentric,7,5.0,20889.0,403431.0,212191.0,67659.0,3984.0
2026-04-09 22:38:30.387267,544811,3240276260,3240277307,-1.077504,0.017568,0.003904,13.1425,1.07625,-17.6575,19.136002,-29.664001,40.992,concentric,7,5.0,20889.0,403431.0,212191.0,67659.0,3984.0
2026-04-09 22:38:30.389793,544812,3240290753,3240292192,-1.071648,0.066368,-0.013664,13.60625,-0.7875,-14.8925,19.232,-29.424002,41.384003,concentric,7,5.0,20889.0,403431.0,212191.0,67659.0,3984.0
2026-04-09 22:38:30.393511,544813,3240299732,3240300905,-1.071648,0.066368,-0.013664,11.445,-1.2775,-12.9675,19.232,-29.424002,41.384003,concentric,7,5.0,20889.0,403431.0,212191.0,67659.0,3984.0
2026-04-09 22:38:30.423810,544814,3240308671,3240309613,-1.095072,0.003904,-0.056608,10.7275,-1.33875,-12.69625,21.448002,-29.184002,39.624,concentric,7,5.0,20889.0,403431.0,212191.0,67659.0,3984.0
2026-04-09 22:38:30.427348,544815,3240323150,3240324500,-1.095072,0.03904,-0.011712,12.27625,-1.89875,-13.825,20.912,-29.144001,38.904003,concentric,7,5.0,20889.0,403431.0,212191.0,67659.0,3984.0
2026-04-09 22:38:30.432315,544816,3240332094,3240333176,-1.095072,0.03904,-0.011712,17.2375,-2.66875,-14.55125,20.912,-29.144001,38.904003,concentric,7,5.0,20889.0,403431.0,212191.0,67659.0,3984.0
2026-04-09 22:38:30.434770,544817,3240341038,3240341935,-1.095072,0.074176,0.021472,21.23625,-2.8,-13.5275,20.912,-29.144001,38.904003,concentric,7,5.0,20889.0,403431.0,212191.0,67659.0,3984.0
2026-04-09 22:38:30.512401,544827,3240355770,3240356877,-1.046272,0.074176,0.021472,17.71875,-1.79375,-11.52375,21.400002,-29.680002,39.584003,concentric,7,5.0,20768.0,403431.0,213933.0,69181.0,4336.0
2026-04-09 22:38:30.514896,544828,3240364730,3240365562,-1.059936,0.015616,-0.05856,12.355001,-0.9625,-9.87875,21.768002,-29.920002,38.936,concentric,7,5.0,20768.0,403431.0,213933.0,69181.0,4336.0
2026-04-09 22:38:30.517268,544829,3240373654,3240374328,-1.059936,0.015616,-0.05856,9.40625,-0.00875,-9.73875,21.768002,-29.920002,38.936,concentric,7,5.0,20768.0,403431.0,213933.0,69181.0,4336.0
2026-04-09 22:38:30.519842,544830,3240382914,3240385082,-1.091168,0.033184,-0.054656,9.09125,0.84,-11.01625,21.328001,-29.672,38.552002,concentric,7,5.0,20768.0,403431.0,213933.0,69181.0,4336.0
2026-04-09 22:38:30.522307,544831,3240397403,3240397916,-1.091168,0.033184,-0.054656,12.0225,0.595,-11.27875,21.328001,-29.672,38.552002,concentric,7,5.0,20768.0,403431.0,213933.0,69181.0,4336.0
2026-04-09 22:38:30.526195,544832,3240406832,3240408733,-1.06384,0.06832,-0.007808,13.16,0.595,-12.9675,21.752,-29.680002,38.528004,concentric,7,5.0,20768.0,403431.0,213933.0,69181.0,4336.0
2026-04-09 22:38:30.527841,544833,3240415835,3240417512,-1.06384,0.06832,-0.007808,14.21875,1.2075,-13.965,21.752,-29.680002,38.528004,concentric,7,5.0,20768.0,403431.0,213933.0,69181.0,4336.0
2026-04-09 22:38:30.530127,544834,3240424772,3240426247,-1.0248,0.072224,0.007808,9.58125,2.1875,-14.1575,21.832,-29.52,39.04,concentric,7,5.0,20768.0,403431.0,213933.0,69181.0,4336.0
2026-04-09 22:38:30.534788,544835,3240439258,3240441159,-1.0248,0.072224,0.007808,2.87,3.24625,-13.04625,21.832,-29.52,39.04,concentric,7,5.0,20768.0,403431.0,213933.0,69181.0,4336.0
2026-04-09 22:38:30.565040,544836,3240448179,3240449833,-1.042368,-0.027328,-0.040992,1.93375,4.24375,-13.265,22.088001,-29.328001,39.696003,concentric,7,5.0,20768.0,403431.0,213933.0,69181.0,4336.0
2026-04-09 22:38:30.593541,544847,3240457594,3240458808,-1.042368,-0.027328,-0.040992,2.5375,5.18875,-13.3175,22.088001,-29.328001,39.696003,concentric,7,5.0,20782.0,403431.0,213794.0,69334.0,4335.0
2026-04-09 22:38:30.596093,544848,3240472052,3240473775,-1.08336,0.017568,-0.095648,1.74125,6.37875,-12.6175,21.752,-29.352001,38.168003,concentric,7,5.0,20782.0,403431.0,213794.0,69334.0,4335.0
2026-04-09 22:38:30.598557,544849,3240480988,3240482500,-1.08336,0.017568,-0.095648,4.0425,5.99375,-12.87125,21.752,-29.352001,38.168003,concentric,7,5.0,20782.0,403431.0,213794.0,69334.0,4335.0
2026-04-09 22:38:30.603426,544850,3240489958,3240491242,-1.067744,0.015616,-0.027328,5.76625,5.64375,-12.7225,21.152,-29.128002,39.408,concentric,7,5.0,20782.0,403431.0,213794.0,69334.0,4335.0
2026-04-09 22:38:30.605522,544851,3240504595,3240506206,-1.048224,0.013664,0.031232,9.1,5.88875,-13.27375,21.272001,-29.632002,38.84,concentric,7,5.0,20782.0,403431.0,213794.0,69334.0,4335.0
2026-04-09 22:38:30.608836,544852,3240513577,3240514942,-1.048224,0.013664,0.031232,13.62375,5.73125,-13.69375,21.272001,-29.632002,38.84,concentric,7,5.0,20782.0,403431.0,213794.0,69334.0,4335.0
2026-04-09 22:38:30.647298,544853,3240522494,3240523643,-1.057984,0.00976,-0.060512,15.32125,5.53875,-12.7575,22.240002,-29.336,37.408,concentric,7,5.0,20782.0,403431.0,213794.0,69334.0,4335.0
2026-04-09 22:38:30.649636,544854,3240531411,3240532370,-1.057984,0.00976,-0.060512,11.78625,6.265,-11.66375,22.240002,-29.336,37.408,concentric,7,5.0,20782.0,403431.0,213794.0,69334.0,4335.0
2026-04-09 22:38:30.654061,544855,3240545879,3240547255,-1.08336,0.023424,-0.05856,9.65125,6.58875,-13.02875,22.320002,-29.712002,38.024002,concentric,7,5.0,20782.0,403431.0,213794.0,69334.0,4335.0
2026-04-09 22:38:30.681068,544865,3240554950,3240555984,-1.08336,0.023424,-0.05856,13.475,6.405,-15.28625,22.320002,-29.712002,38.024002,concentric,7,5.0,20873.0,403431.0,212429.0,68609.0,4108.0
2026-04-09 22:38:30.686126,544866,3240563960,3240564804,-1.091168,0.015616,-0.05856,14.805,5.50375,-15.636251,21.992,-29.592001,38.528004,concentric,7,5.0,20873.0,403431.0,212429.0,68609.0,4108.0
2026-04-09 22:38:30.687491,544867,3240579056,3240579793,-1.091168,0.015616,-0.05856,13.4575,4.8125,-15.37375,21.992,-29.592001,38.528004,concentric,7,5.0,20873.0,403431.0,212429.0,68609.0,4108.0
2026-04-09 22:38:30.688592,544868,3240588499,3240590604,-1.05408,0.013664,0.00976,11.3225,4.71625,-14.21875,22.856,-29.648,38.008003,concentric,7,5.0,20873.0,403431.0,212429.0,68609.0,4108.0
2026-04-09 22:38:30.696473,544869,3240597491,3240599308,-1.05408,0.013664,0.00976,7.20125,5.4775,-13.3175,22.856,-29.648,38.008003,concentric,7,5.0,20873.0,403431.0,212429.0,68609.0,4108.0
2026-04-09 22:38:30.702746,544870,3240606458,3240608022,-1.081408,0.01952,-0.015616,0.98875,7.34125,-11.97,23.104002,-29.088001,38.064003,concentric,7,5.0,20873.0,403431.0,212429.0,68609.0,4108.0
2026-04-09 22:38:30.731312,544871,3240620950,3240622979,-1.081408,0.01952,-0.015616,-5.11875,8.11125,-11.4975,23.104002,-29.088001,38.064003,concentric,7,5.0,20873.0,403431.0,212429.0,68609.0,4108.0
2026-04-09 22:38:30.735767,544872,3240629845,3240631672,-1.110688,0.033184,-0.005856,-6.57125,8.085,-13.48375,23.472002,-29.28,37.904003,concentric,7,5.0,20873.0,403431.0,212429.0,68609.0,4108.0
2026-04-09 22:38:30.737275,544873,3240638777,3240640355,-1.110688,0.033184,-0.005856,-3.52625,7.2975,-13.62375,23.472002,-29.28,37.904003,concentric,7,5.0,20873.0,403431.0,212429.0,68609.0,4108.0
2026-04-09 22:38:30.791114,544883,3240653302,3240655705,-1.104832,-0.007808,-0.015616,-3.50875,6.34375,-12.3025,23.216002,-29.400002,38.152,concentric,7,5.0,20914.0,403431.0,211153.0,67905.0,3929.0
2026-04-09 22:38:30.795412,544884,3240662313,3240664441,-1.104832,-0.021472,-0.060512,-3.92,4.6375,-9.7475,23.216002,-29.400002,38.152,concentric,7,5.0,20914.0,403431.0,211153.0,67905.0,3929.0
2026-04-09 22:38:30.797054,544885,3240671347,3240673144,-1.089216,-0.021472,-0.060512,-8.23375,3.92,-8.0325,24.000002,-29.672,35.016003,concentric,7,5.0,20914.0,403431.0,211153.0,67905.0,3929.0
2026-04-09 22:38:30.798685,544886,3240680273,3240681843,-1.089216,-0.021472,-0.060512,-7.2625,4.795,-8.7675,24.000002,-29.672,35.016003,concentric,7,5.0,20914.0,403431.0,211153.0,67905.0,3929.0
2026-04-09 22:38:30.803047,544887,3240694856,3240696779,-1.139968,-0.03904,-0.046848,-1.19,5.46875,-8.72375,23.28,-29.344002,37.960003,concentric,7,5.0,20914.0,403431.0,211153.0,67905.0,3929.0
2026-04-09 22:38:30.807006,544888,3240703838,3240705542,-1.09312,0.00976,0.001952,5.43375,5.08375,-8.05875,23.240002,-29.696001,38.0,concentric,7,5.0,20914.0,403431.0,211153.0,67905.0,3929.0
2026-04-09 22:38:30.808505,544889,3240712773,3240714252,-1.09312,0.00976,0.001952,9.52,3.2025,-7.67375,23.240002,-29.696001,38.0,concentric,7,5.0,20914.0,403431.0,211153.0,67905.0,3929.0
2026-04-09 22:38:30.842243,544890,3240727276,3240729154,-1.143872,0.031232,0.007808,7.84,3.10625,-7.35,23.936,-29.720001,37.608,concentric,7,5.0,20914.0,403431.0,211153.0,67905.0,3929.0
2026-04-09 22:38:30.846030,544891,3240736187,3240737840,-1.143872,0.031232,0.007808,0.0525,4.45375,-6.18625,23.936,-29.720001,37.608,concentric,7,5.0,20914.0,403431.0,211153.0,67905.0,3929.0
2026-04-09 22:38:30.849322,544892,3240745098,3240746544,-1.157536,-0.005856,0.001952,-4.92625,4.0425,-4.43625,23.856,-29.568,37.984,concentric,7,5.0,20914.0,403431.0,211153.0,67905.0,3929.0
2026-04-09 22:38:30.872251,544902,3240759868,3240761555,-1.157536,-0.005856,0.001952,-7.58625,2.94,-5.46,23.856,-29.568,37.984,concentric,7,5.0,20549.0,403431.0,215609.0,71214.0,4794.0
2026-04-09 22:38:30.878566,544903,3240768821,3240770333,-1.13216,-0.007808,0.00976,-10.52625,2.44125,-7.74375,23.992,-29.080002,38.84,concentric,7,5.0,20549.0,403431.0,215609.0,71214.0,4794.0
2026-04-09 22:38:30.881044,544904,3240777774,3240779090,-1.13216,-0.007808,0.00976,-7.0175,1.6975,-9.205,23.992,-29.080002,38.84,concentric,7,5.0,20549.0,403431.0,215609.0,71214.0,4794.0
2026-04-09 22:38:30.887334,544905,3240792293,3240794038,-1.167296,-0.013664,0.015616,-5.7225,1.3825,-10.185,23.824001,-29.272001,39.416,concentric,7,5.0,20549.0,403431.0,215609.0,71214.0,4794.0
2026-04-09 22:38:30.943867,544906,3240801228,3240802741,-1.167296,-0.013664,0.015616,-8.435,1.6625,-10.535,23.824001,-29.272001,39.416,concentric,7,5.0,20549.0,403431.0,215609.0,71214.0,4794.0
2026-04-09 22:38:30.947349,544907,3240810163,3240811436,-1.15168,0.033184,0.035136,-11.52375,2.47625,-10.4475,23.344002,-29.256,39.064003,concentric,7,5.0,20549.0,403431.0,215609.0,71214.0,4794.0
2026-04-09 22:38:30.950009,544908,3240819098,3240820218,-1.15168,0.033184,0.035136,-17.01875,3.33375,-10.395,23.344002,-29.256,39.064003,concentric,7,5.0,20549.0,403431.0,215609.0,71214.0,4794.0
2026-04-09 22:38:30.952360,544909,3240833621,3240835129,-1.173152,-0.025376,-0.054656,-24.47375,3.07125,-10.3075,24.392002,-28.664001,38.392002,concentric,7,5.0,20549.0,403431.0,215609.0,71214.0,4794.0
2026-04-09 22:38:30.954824,544910,3240842554,3240843834,-1.173152,-0.025376,-0.101504,-29.68875,2.8875,-10.92875,24.392002,-28.664001,38.392002,concentric,7,5.0,20549.0,403431.0,215609.0,71214.0,4794.0
2026-04-09 22:38:30.957359,544911,3240851523,3240852560,-1.245376,-0.076128,-0.109312,-27.48375,2.09125,-11.3925,24.256,-29.008001,38.68,concentric,7,5.0,20549.0,403431.0,215609.0,71214.0,4794.0
2026-04-09 22:38:30.991081,544922,3240866194,3240867544,-1.20048,-0.042944,0.005856,-21.7175,-0.13125,-10.605001,24.744001,-28.888,38.704002,concentric,7,5.0,20614.0,403431.0,216014.0,71444.0,4832.0
2026-04-09 22:38:30.993542,544923,3240875377,3240876308,-1.20048,-0.042944,0.005856,-15.225,-1.91625,-9.8175,24.744001,-28.888,38.704002,concentric,7,5.0,20614.0,403431.0,216014.0,71444.0,4832.0
2026-04-09 22:38:30.996040,544924,3240884397,3240885069,-1.235616,-0.003904,0.037088,-7.0525,-2.72125,-10.115,24.408,-28.184002,38.048,concentric,7,5.0,20614.0,403431.0,216014.0,71444.0,4832.0
2026-04-09 22:38:30.998541,544925,3240893906,3240895889,-1.235616,-0.003904,0.037088,-2.44125,-2.065,-9.59875,24.408,-28.184002,38.048,concentric,7,5.0,20614.0,403431.0,216014.0,71444.0,4832.0
2026-04-09 22:38:31.003363,544926,3240908444,3240908774,-1.272704,0.044896,-0.060512,-0.7525,-1.32125,-9.1875,23.928001,-28.912,40.152,concentric,7,5.0,20614.0,403431.0,216014.0,71444.0,4832.0
2026-04-09 22:38:31.032521,544927,3240917648,3240919492,-1.272704,0.044896,-0.060512,-4.80375,-0.0875,-9.9925,23.928001,-28.912,40.152,concentric,7,5.0,20614.0,403431.0,216014.0,71444.0,4832.0
2026-04-09 22:38:31.036064,544928,3240926596,3240928208,-1.3176,-0.013664,-0.070272,-8.86375,0.0875,-10.36,24.576,-28.792002,38.864002,concentric,7,5.0,20614.0,403431.0,216014.0,71444.0,4832.0
2026-04-09 22:38:31.038529,544929,3240941099,3240943095,-1.3176,-0.013664,-0.070272,-13.09875,0.56,-10.7975,24.576,-28.792002,38.864002,concentric,7,5.0,20614.0,403431.0,216014.0,71444.0,4832.0
2026-04-09 22:38:31.068709,544930,3240950055,3240951791,-1.251232,-0.054656,0.013664,-13.3525,0.35875,-9.59,24.344002,-29.072,40.848003,concentric,7,5.0,20614.0,403431.0,216014.0,71444.0,4832.0
2026-04-09 22:38:31.098590,544940,3240959206,3240960751,-1.251232,-0.054656,0.013664,-9.00375,-1.16375,-7.88375,24.344002,-29.072,40.848003,concentric,7,5.0,20662.0,403431.0,215867.0,71350.0,4821.0
2026-04-09 22:38:31.101074,544941,3240968168,3240969444,-1.292224,-0.031232,-0.02928,-5.0225,-1.1375,-7.60375,25.232,-28.936,39.504,concentric,7,5.0,20662.0,403431.0,215867.0,71350.0,4821.0
2026-04-09 22:38:31.103534,544942,3240982658,3240984379,-1.292224,-0.031232,-0.02928,-3.28125,0.53375,-6.72875,25.232,-28.936,39.504,concentric,7,5.0,20662.0,403431.0,215867.0,71350.0,4821.0
2026-04-09 22:38:31.109773,544943,3240991614,3240993100,-1.323456,0.0,-0.021472,-3.745,1.26875,-4.85625,24.488,-28.52,37.192,concentric,7,5.0,20662.0,403431.0,215867.0,71350.0,4821.0
2026-04-09 22:38:31.112270,544944,3241000583,3241001874,-1.323456,0.0,-0.021472,-6.72,1.6975,-4.19125,24.488,-28.52,37.192,concentric,7,5.0,20662.0,403431.0,215867.0,71350.0,4821.0
2026-04-09 22:38:31.114814,544945,3241015146,3241016816,-1.257088,0.007808,-0.00976,-9.2225,1.8725,-4.1125,24.408,-28.640001,39.280003,concentric,7,5.0,20662.0,403431.0,215867.0,71350.0,4821.0
2026-04-09 22:38:31.119782,544946,3241024125,3241025623,-1.251232,-0.011712,0.005856,-8.9425,2.14375,-4.4625,24.608002,-28.424002,38.944,concentric,7,5.0,20662.0,403431.0,215867.0,71350.0,4821.0
2026-04-09 22:38:31.149986,544947,3241033091,3241034339,-1.251232,-0.011712,0.005856,-8.37375,2.26625,-5.08375,24.608002,-28.424002,38.944,concentric,7,5.0,20662.0,403431.0,215867.0,71350.0,4821.0
2026-04-09 22:38:31.153595,544948,3241047669,3241049272,-1.241472,-0.00976,-0.005856,-6.615,1.72375,-5.11875,25.008001,-28.640001,39.304,concentric,7,5.0,20662.0,403431.0,215867.0,71350.0,4821.0
2026-04-09 22:38:31.181003,544958,3241056610,3241057997,-1.241472,-0.00976,-0.005856,-4.47125,2.19625,-5.215,25.008001,-28.640001,39.304,concentric,7,5.0,20645.0,403431.0,216098.0,71664.0,4889.0
2026-04-09 22:38:31.183600,544959,3241065562,3241066700,-1.264896,-0.015616,-0.025376,-3.59625,2.77375,-5.01375,23.864,-28.192001,41.072002,concentric,7,5.0,20645.0,403431.0,216098.0,71664.0,4889.0
2026-04-09 22:38:31.186052,544960,3241074494,3241075451,-1.264896,-0.015616,-0.025376,-4.515,4.57625,-3.1325,23.864,-28.192001,41.072002,concentric,7,5.0,20645.0,403431.0,216098.0,71664.0,4889.0
2026-04-09 22:38:31.188518,544961,3241088990,3241090402,-1.22976,-0.005856,-0.013664,-5.85375,4.865,-1.75875,23.536001,-28.208002,40.552002,concentric,7,5.0,20645.0,403431.0,216098.0,71664.0,4889.0
2026-04-09 22:38:31.194009,544962,3241097952,3241099087,-1.22976,-0.005856,-0.013664,-5.60875,4.34875,-1.5925,23.536001,-28.208002,40.552002,concentric,7,5.0,20645.0,403431.0,216098.0,71664.0,4889.0
2026-04-09 22:38:31.243866,544963,3241106879,3241107797,-1.212192,0.021472,0.01952,-1.37375,3.75375,-2.45875,23.888,-28.560001,40.888,concentric,7,5.0,20645.0,403431.0,216098.0,71664.0,4889.0
