pc_time,serial_num,sensor_ts,host_ts,ax,ay,az,gx,gy,gz,mx,my,mz,phase,rpe,weight_kg,ppg_a,ppg_b,ppg_c,ppg_d,ppg_e
2026-04-09 22:38:33.728791,545431,3243611890,3243613087,-1.27856,-0.06832,-0.093696,3.54375,3.08,-5.73125,23.784,-27.904001,42.664,eccentric,7,5.0,20278.0,403431.0,216961.0,72610.0,5153.0
2026-04-09 22:38:33.732464,545432,3243620809,3243621808,-1.272704,-0.003904,-0.054656,9.2575,1.96875,-5.60875,24.76,-28.256,43.632004,eccentric,7,5.0,20278.0,403431.0,216961.0,72610.0,5153.0
2026-04-09 22:38:33.734905,545433,3243635277,3243636713,-1.241472,0.050752,0.0,12.1625,1.575,-4.96125,24.704,-27.448002,41.88,eccentric,7,5.0,20278.0,403431.0,216961.0,72610.0,5153.0
2026-04-09 22:38:33.739906,545434,3243644198,3243645405,-1.241472,0.050752,0.0,12.43375,2.14375,-5.6,24.704,-27.448002,41.88,eccentric,7,5.0,20278.0,403431.0,216961.0,72610.0,5153.0
2026-04-09 22:38:33.770055,545435,3243653143,3243654090,-1.241472,0.050752,-0.015616,9.70375,3.28125,-7.2625,24.704,-27.448002,41.88,eccentric,7,5.0,20278.0,403431.0,216961.0,72610.0,5153.0
2026-04-09 22:38:33.773648,545436,3243667607,3243669084,-1.28832,0.027328,-0.015616,4.515,5.6875,-7.525,24.888,-27.304,41.496002,eccentric,7,5.0,20278.0,403431.0,216961.0,72610.0,5153.0
2026-04-09 22:38:33.801588,545447,3243676632,3243677790,-1.34688,-0.0488,-0.095648,0.4725,6.6325,-7.525,24.976002,-27.896002,41.872,eccentric,7,5.0,20174.0,403431.0,218953.0,74081.0,5572.0
2026-04-09 22:38:33.806106,545448,3243685562,3243686561,-1.34688,-0.0488,-0.095648,-1.75,7.2625,-7.7875,24.976002,-27.896002,41.872,eccentric,7,5.0,20174.0,403431.0,218953.0,74081.0,5572.0
2026-04-09 22:38:33.808608,545449,3243700093,3243701519,-1.296128,-0.072224,-0.064416,-1.02375,6.755,-5.90625,23.6,-27.448002,43.312,eccentric,7,5.0,20174.0,403431.0,218953.0,74081.0,5572.0
2026-04-09 22:38:33.811031,545450,3243709129,3243710254,-1.296128,-0.072224,-0.064416,1.3825,4.03375,-3.1325,23.6,-27.448002,43.312,eccentric,7,5.0,20174.0,403431.0,218953.0,74081.0,5572.0
2026-04-09 22:38:33.813640,545451,3243718051,3243719014,-1.20048,-0.025376,-0.027328,2.765,2.415,-1.68,23.480001,-27.528002,43.224003,eccentric,7,5.0,20174.0,403431.0,218953.0,74081.0,5572.0
2026-04-09 22:38:33.843816,545452,3243726971,3243727753,-1.20048,-0.025376,-0.027328,5.985,2.38875,-0.53375,23.480001,-27.528002,43.224003,eccentric,7,5.0,20174.0,403431.0,218953.0,74081.0,5572.0
2026-04-09 22:38:33.847395,545453,3243741498,3243742680,-1.282464,0.013664,-0.056608,8.4875,3.7275,0.595,24.752,-27.480001,41.84,eccentric,7,5.0,20174.0,403431.0,218953.0,74081.0,5572.0
2026-04-09 22:38:33.849850,545454,3243750415,3243751385,-1.282464,0.013664,-0.056608,6.0375,4.92625,1.96875,24.752,-27.480001,41.84,eccentric,7,5.0,20174.0,403431.0,218953.0,74081.0,5572.0
2026-04-09 22:38:33.853652,545455,3243759321,3243760127,-1.257088,0.017568,-0.066368,4.1825,4.40125,2.0125,24.712002,-27.832,41.552002,eccentric,7,5.0,20174.0,403431.0,218953.0,74081.0,5572.0
2026-04-09 22:38:33.945076,545465,3243774755,3243775131,-1.208288,-0.003904,-0.040992,5.145,3.4125,-0.37625,24.664001,-27.256,40.656002,eccentric,7,5.0,20223.0,403431.0,218901.0,74183.0,5597.0
2026-04-09 22:38:33.948639,545466,3243784033,3243785991,-1.208288,-0.003904,-0.040992,6.2825,2.835,-1.0675,24.664001,-27.256,40.656002,eccentric,7,5.0,20223.0,403431.0,218901.0,74183.0,5597.0
2026-04-09 22:38:33.951141,545467,3243792965,3243794707,-1.208288,-0.003904,-0.040992,9.17875,2.16125,-0.84,24.664001,-27.256,40.656002,eccentric,7,5.0,20223.0,403431.0,218901.0,74183.0,5597.0
2026-04-09 22:38:33.953614,545468,3243801877,3243803381,-1.241472,0.00976,-0.040992,10.92,2.12625,-2.0125,25.168001,-28.232002,42.312,eccentric,7,5.0,20223.0,403431.0,218901.0,74183.0,5597.0
2026-04-09 22:38:33.956157,545469,3243816393,3243818342,-1.23952,0.023424,-0.060512,12.145,2.65125,-2.77375,23.536001,-27.656002,42.656002,eccentric,7,5.0,20223.0,403431.0,218901.0,74183.0,5597.0
2026-04-09 22:38:33.959002,545470,3243825314,3243827086,-1.23952,0.023424,-0.060512,10.15,3.54375,-2.3625,23.536001,-27.656002,42.656002,eccentric,7,5.0,20223.0,403431.0,218901.0,74183.0,5597.0
2026-04-09 22:38:33.961397,545471,3243834226,3243835769,-1.216096,0.007808,-0.03904,8.18125,4.095,-2.555,23.536001,-27.656002,41.512,eccentric,7,5.0,20223.0,403431.0,218901.0,74183.0,5597.0
2026-04-09 22:38:33.963822,545472,3243848718,3243850739,-1.216096,0.007808,-0.03904,7.9625,4.64625,-2.89625,24.320002,-27.712002,41.512,eccentric,7,5.0,20223.0,403431.0,218901.0,74183.0,5597.0
2026-04-09 22:38:33.969859,545473,3243857619,3243859444,-1.227808,-0.00976,-0.062464,6.09875,5.29375,-1.68875,24.232,-28.096,41.944,eccentric,7,5.0,20223.0,403431.0,218901.0,74183.0,5597.0
2026-04-09 22:38:33.972404,545474,3243866557,3243868170,-1.227808,-0.00976,-0.062464,3.2375,5.08375,0.8925,24.232,-28.096,41.944,eccentric,7,5.0,20223.0,403431.0,218901.0,74183.0,5597.0
2026-04-09 22:38:34.001129,545484,3243881093,3243883132,-1.196576,-0.011712,-0.072224,5.27625,3.92875,2.33625,23.664001,-28.152,41.632004,eccentric,7,5.0,20152.0,403431.0,219994.0,75014.0,5856.0
2026-04-09 22:38:34.003626,545485,3243890151,3243891846,-1.196576,-0.011712,-0.072224,9.72125,2.23125,2.09125,23.664001,-28.152,41.632004,eccentric,7,5.0,20152.0,403431.0,219994.0,75014.0,5856.0
2026-04-09 22:38:34.006123,545486,3243899108,3243900556,-1.19072,0.023424,-0.070272,13.93,1.82,2.94,23.184002,-27.928001,42.344,eccentric,7,5.0,20152.0,403431.0,219994.0,75014.0,5856.0
2026-04-09 22:38:34.008602,545487,3243908078,3243909314,-1.19072,0.023424,-0.070272,16.6075,2.52875,3.29875,23.184002,-27.928001,42.344,eccentric,7,5.0,20152.0,403431.0,219994.0,75014.0,5856.0
2026-04-09 22:38:34.026202,545488,3243922555,3243924212,-1.177056,0.03904,-0.056608,18.59375,2.84375,1.95125,23.592001,-28.168001,41.328003,eccentric,7,5.0,20152.0,403431.0,219994.0,75014.0,5856.0
2026-04-09 22:38:34.028616,545489,3243931481,3243932930,-1.177056,0.03904,-0.056608,16.70375,3.325,1.37375,23.592001,-28.168001,41.328003,eccentric,7,5.0,20152.0,403431.0,219994.0,75014.0,5856.0
2026-04-09 22:38:34.034879,545490,3243940408,3243941634,-1.147776,0.013664,-0.046848,11.480001,3.5525,3.0275,23.44,-27.312002,41.024002,eccentric,7,5.0,20152.0,403431.0,219994.0,75014.0,5856.0
2026-04-09 22:38:34.065052,545491,3243954877,3243956625,-1.110688,-0.033184,-0.0488,7.7525,3.1325,4.2875,23.44,-28.144001,42.128002,eccentric,7,5.0,20152.0,403431.0,219994.0,75014.0,5856.0
2026-04-09 22:38:34.068724,545492,3243963790,3243965329,-1.110688,-0.033184,-0.0488,8.11125,2.94875,5.03125,23.368002,-28.144001,42.128002,eccentric,7,5.0,20152.0,403431.0,219994.0,75014.0,5856.0
2026-04-09 22:38:34.096088,545503,3243972743,3243974095,-1.110688,-0.033184,-0.0488,12.18,3.01875,6.43125,23.368002,-28.144001,42.128002,eccentric,7,5.0,20166.0,403431.0,220274.0,75340.0,6000.0
2026-04-09 22:38:34.098674,545504,3243987329,3243989070,-1.116544,0.062464,-0.060512,16.3625,4.85625,7.1225,23.184002,-28.168001,41.048,eccentric,7,5.0,20166.0,403431.0,220274.0,75340.0,6000.0
2026-04-09 22:38:34.101160,545505,3243996383,3243997801,-1.098976,0.037088,-0.040992,17.08875,6.72875,7.06125,23.112001,-28.352001,41.192,eccentric,7,5.0,20166.0,403431.0,220274.0,75340.0,6000.0
2026-04-09 22:38:34.103611,545506,3244005314,3244006521,-1.098976,0.037088,-0.040992,12.88,8.00625,6.43125,23.112001,-28.352001,41.192,eccentric,7,5.0,20166.0,403431.0,220274.0,75340.0,6000.0
2026-04-09 22:38:34.133907,545507,3244019824,3244021431,-1.06384,-0.050752,-0.064416,4.82125,8.9775,6.41375,22.536001,-28.856,40.976,eccentric,7,5.0,20166.0,403431.0,220274.0,75340.0,6000.0
2026-04-09 22:38:34.141229,545508,3244028764,3244030193,-1.06384,-0.050752,-0.064416,1.58375,8.575,7.8575,22.536001,-28.856,40.976,eccentric,7,5.0,20166.0,403431.0,220274.0,75340.0,6000.0
2026-04-09 22:38:34.143698,545509,3244037684,3244038885,-1.091168,0.03904,-0.08784,8.68875,7.98,9.1175,21.992,-28.696001,39.576,eccentric,7,5.0,20166.0,403431.0,220274.0,75340.0,6000.0
2026-04-09 22:38:34.146169,545510,3244046582,3244047581,-1.091168,0.03904,-0.08784,15.91625,7.16625,9.415,21.992,-28.696001,39.576,eccentric,7,5.0,20166.0,403431.0,220274.0,75340.0,6000.0
2026-04-09 22:38:34.176377,545511,3244061096,3244062497,-1.059936,0.076128,-0.070272,17.36,7.13125,9.135,22.728,-29.016,40.760002,eccentric,7,5.0,20166.0,403431.0,220274.0,75340.0,6000.0
2026-04-09 22:38:34.180029,545512,3244070061,3244071225,-1.059936,0.076128,-0.070272,14.21875,6.9475,7.805,22.728,-29.016,40.760002,eccentric,7,5.0,20166.0,403431.0,220274.0,75340.0,6000.0
2026-04-09 22:38:34.205517,545522,3244079145,3244079956,-1.009184,0.02928,-0.031232,11.41875,7.63,5.7925,22.392,-28.256,40.440002,eccentric,7,5.0,20261.0,403431.0,219180.0,74419.0,5697.0
2026-04-09 22:38:34.207424,545523,3244093684,3244094919,-1.009184,0.02928,-0.031232,10.4475,8.5575,4.33125,22.392,-28.256,40.440002,eccentric,7,5.0,20261.0,403431.0,219180.0,74419.0,5697.0
2026-04-09 22:38:34.209918,545524,3244102664,3244103658,-0.997472,0.003904,-0.081984,11.235,8.8375,4.235,20.76,-28.872002,42.056004,eccentric,7,5.0,20261.0,403431.0,219180.0,74419.0,5697.0
2026-04-09 22:38:34.212699,545525,3244111606,3244112386,-0.997472,0.003904,-0.081984,11.87375,8.74125,3.33375,20.76,-28.872002,42.056004,eccentric,7,5.0,20261.0,403431.0,219180.0,74419.0,5697.0
2026-04-09 22:38:34.246444,545526,3244121058,3244123175,-0.993568,0.037088,-0.06832,13.2125,8.18125,3.45625,20.552,-28.952002,41.544003,eccentric,7,5.0,20261.0,403431.0,219180.0,74419.0,5697.0
2026-04-09 22:38:34.249941,545527,3244135613,3244136007,-0.977952,0.02928,-0.062464,16.555,8.417501,3.8675,20.552,-28.888,39.216003,eccentric,7,5.0,20261.0,403431.0,219180.0,74419.0,5697.0
2026-04-09 22:38:34.252440,545528,3244144850,3244146750,-0.977952,0.02928,-0.062464,16.37125,8.75875,2.89625,21.376001,-28.888,39.216003,eccentric,7,5.0,20261.0,403431.0,219180.0,74419.0,5697.0
2026-04-09 22:38:34.254989,545529,3244153915,3244155501,-0.977952,0.02928,-0.062464,12.8975,9.1,2.5725,21.376001,-28.888,39.216003,eccentric,7,5.0,20261.0,403431.0,219180.0,74419.0,5697.0
2026-04-09 22:38:34.285440,545530,3244168448,3244170420,-0.950624,0.021472,-0.035136,9.66,9.2225,3.42125,21.048,-28.904001,41.304,eccentric,7,5.0,20261.0,403431.0,219180.0,74419.0,5697.0
2026-04-09 22:38:34.344963,545540,3244177985,3244179454,-0.96624,0.037088,-0.072224,10.45625,8.68,3.115,20.912,-28.872002,40.088,eccentric,7,5.0,20405.0,403431.0,217092.0,72769.0,5196.0
2026-04-09 22:38:34.347520,545541,3244186958,3244188165,-0.96624,0.037088,-0.072224,11.83,9.1525,2.07375,20.912,-28.872002,40.088,eccentric,7,5.0,20405.0,403431.0,217092.0,72769.0,5196.0
2026-04-09 22:38:34.349967,545542,3244195892,3244196846,-1.01504,0.074176,-0.093696,12.32875,10.29875,1.33875,20.912,-28.992,39.416,eccentric,7,5.0,20405.0,403431.0,217092.0,72769.0,5196.0
2026-04-09 22:38:34.352508,545543,3244210535,3244211759,-1.01504,0.074176,-0.093696,14.48125,10.395,0.91,21.112001,-28.992,39.416,eccentric,7,5.0,20405.0,403431.0,217092.0,72769.0,5196.0
2026-04-09 22:38:34.354925,545544,3244219486,3244220546,-0.987712,0.056608,-0.0488,15.085,9.9575,-0.0525,20.272001,-28.448002,40.72,eccentric,7,5.0,20405.0,403431.0,217092.0,72769.0,5196.0
2026-04-09 22:38:34.359923,545545,3244228442,3244229212,-0.987712,0.056608,-0.0488,12.03125,9.835,-0.93625,20.272001,-28.448002,40.72,eccentric,7,5.0,20405.0,403431.0,217092.0,72769.0,5196.0
2026-04-09 22:38:34.363598,545546,3244243514,3244244137,-0.952576,0.01952,-0.02928,9.42375,10.19375,-1.61875,20.136002,-29.136002,39.640003,eccentric,7,5.0,20405.0,403431.0,217092.0,72769.0,5196.0
2026-04-09 22:38:34.365331,545547,3244252730,3244254892,-0.952576,0.01952,-0.02928,8.07625,10.5,-1.56625,20.136002,-29.136002,39.640003,eccentric,7,5.0,20405.0,403431.0,217092.0,72769.0,5196.0
2026-04-09 22:38:34.367568,545548,3244261825,3244263641,-0.979904,0.021472,-0.054656,8.3825,11.27,-1.33875,20.880001,-28.728,39.792004,eccentric,7,5.0,20405.0,403431.0,217092.0,72769.0,5196.0
2026-04-09 22:38:34.369840,545549,3244270832,3244272354,-0.979904,0.021472,-0.054656,9.28375,11.8125,-0.875,20.880001,-28.728,39.792004,eccentric,7,5.0,20405.0,403431.0,217092.0,72769.0,5196.0
2026-04-09 22:38:34.397393,545560,3244285428,3244287359,-1.013088,0.064416,-0.085888,10.8675,11.87375,-0.42875,20.880001,-28.800001,39.744003,eccentric,7,5.0,20460.0,403431.0,216173.0,71900.0,4974.0
2026-04-09 22:38:34.399905,545561,3244294375,3244296082,-1.013088,0.064416,-0.085888,12.915,11.655,-0.875,20.880001,-28.800001,39.744003,eccentric,7,5.0,20460.0,403431.0,216173.0,71900.0,4974.0
2026-04-09 22:38:34.402394,545562,3244303387,3244304817,-0.958432,0.05856,-0.076128,11.375,10.99875,-1.505,21.176,-29.408,39.856003,eccentric,7,5.0,20460.0,403431.0,216173.0,71900.0,4974.0
2026-04-09 22:38:34.435094,545563,3244317900,3244319731,-0.96624,0.027328,-0.060512,8.636251,10.59625,-2.31875,20.592001,-28.920002,39.08,eccentric,7,5.0,20460.0,403431.0,216173.0,71900.0,4974.0
2026-04-09 22:38:34.438662,545564,3244326839,3244328432,-0.96624,0.027328,-0.060512,8.30375,10.29,-2.70375,20.592001,-28.920002,39.08,eccentric,7,5.0,20460.0,403431.0,216173.0,71900.0,4974.0
2026-04-09 22:38:34.442570,545565,3244335771,3244337177,-0.96624,0.05856,-0.093696,10.535,9.2575,-2.1,20.592001,-28.920002,39.08,eccentric,7,5.0,20460.0,403431.0,216173.0,71900.0,4974.0
2026-04-09 22:38:34.444470,545566,3244344702,3244345863,-0.954528,0.050752,-0.093696,13.615,8.33,-1.02375,20.224,-28.704,39.408,eccentric,7,5.0,20460.0,403431.0,216173.0,71900.0,4974.0
2026-04-09 22:38:34.476456,545567,3244359246,3244360833,-0.972096,0.070272,-0.111264,14.72625,7.74375,-0.5425,19.784,-28.816002,39.960003,eccentric,7,5.0,20460.0,403431.0,216173.0,71900.0,4974.0
2026-04-09 22:38:34.479985,545568,3244368177,3244369554,-0.972096,0.070272,-0.111264,14.39375,6.62375,-0.81375,19.784,-28.816002,39.960003,eccentric,7,5.0,20460.0,403431.0,216173.0,71900.0,4974.0
2026-04-09 22:38:34.504870,545578,3244377145,3244378396,-0.979904,0.076128,-0.070272,14.42875,6.76375,-1.32125,20.544,-29.2,36.408,eccentric,7,5.0,20534.0,403431.0,215722.0,71380.0,4779.0
2026-04-09 22:38:34.507419,545579,3244391721,3244393432,-0.979904,0.076128,-0.070272,12.8975,6.92125,-2.68625,20.544,-29.2,36.408,eccentric,7,5.0,20534.0,403431.0,215722.0,71380.0,4779.0
2026-04-09 22:38:34.509917,545580,3244400770,3244402178,-0.938912,0.0976,-0.035136,11.62875,6.34375,-4.235,20.576,-29.072,38.896004,eccentric,7,5.0,20534.0,403431.0,215722.0,71380.0,4779.0
2026-04-09 22:38:34.512483,545581,3244409773,3244410925,-0.938912,0.0976,-0.035136,11.865,6.09875,-5.60875,20.576,-29.072,38.896004,eccentric,7,5.0,20534.0,403431.0,215722.0,71380.0,4779.0
2026-04-09 22:38:34.547703,545582,3244424311,3244425915,-0.952576,0.081984,-0.050752,11.9875,6.39625,-6.25625,20.44,-29.448002,39.608,eccentric,7,5.0,20534.0,403431.0,215722.0,71380.0,4779.0
2026-04-09 22:38:34.551200,545583,3244433251,3244434616,-0.952576,0.081984,-0.050752,11.5325,6.36125,-6.6675,20.44,-29.448002,39.608,eccentric,7,5.0,20534.0,403431.0,215722.0,71380.0,4779.0
2026-04-09 22:38:34.553620,545584,3244442182,3244443328,-0.977952,0.081984,-0.08784,10.99875,7.1225,-6.85125,20.088001,-29.264002,38.736,eccentric,7,5.0,20534.0,403431.0,215722.0,71380.0,4779.0
2026-04-09 22:38:34.556191,545585,3244456658,3244458234,-1.003328,0.064416,-0.119072,10.49125,7.30625,-7.20125,20.088001,-29.264002,38.784,eccentric,7,5.0,20534.0,403431.0,215722.0,71380.0,4779.0
2026-04-09 22:38:34.561131,545586,3244465597,3244466994,-1.003328,0.064416,-0.119072,8.4875,7.67375,-7.51625,19.672,-29.112001,38.784,eccentric,7,5.0,20534.0,403431.0,215722.0,71380.0,4779.0
2026-04-09 22:38:34.591427,545587,3244474512,3244475713,-1.003328,0.064416,-0.119072,7.315,6.65,-6.90375,19.672,-29.112001,38.784,eccentric,7,5.0,20534.0,403431.0,215722.0,71380.0,4779.0
2026-04-09 22:38:34.617420,545597,3244483439,3244484497,-0.981856,0.089792,-0.070272,9.730001,5.20625,-6.2125,19.352001,-29.024002,38.032,eccentric,7,5.0,20570.0,403431.0,215499.0,71028.0,4716.0
2026-04-09 22:38:34.619907,545598,3244497907,3244499391,-0.981856,0.095648,-0.060512,11.2,4.40125,-6.825,20.472,-28.576002,40.512,eccentric,7,5.0,20570.0,403431.0,215499.0,71028.0,4716.0
2026-04-09 22:38:34.622440,545599,3244506823,3244508083,-0.981856,0.095648,-0.060512,11.62,4.0425,-7.46375,20.472,-28.576002,40.512,eccentric,7,5.0,20570.0,403431.0,215499.0,71028.0,4716.0
2026-04-09 22:38:34.624919,545600,3244515811,3244516889,-0.981856,0.095648,-0.060512,8.9075,4.40125,-7.48125,20.472,-28.576002,40.512,eccentric,7,5.0,20570.0,403431.0,215499.0,71028.0,4716.0
2026-04-09 22:38:34.627434,545601,3244530373,3244531894,-1.036512,0.062464,-0.130784,7.1225,4.52375,-6.9475,19.624,-29.376001,37.248,eccentric,7,5.0,20570.0,403431.0,215499.0,71028.0,4716.0
2026-04-09 22:38:34.657655,545602,3244539331,3244540640,-1.020896,0.066368,-0.080032,9.10875,4.08625,-6.7375,19.536001,-29.248001,38.952003,eccentric,7,5.0,20570.0,403431.0,215499.0,71028.0,4716.0
2026-04-09 22:38:34.661161,545603,3244548255,3244549326,-1.020896,0.066368,-0.080032,12.81875,3.01,-6.2125,19.536001,-29.248001,38.952003,eccentric,7,5.0,20570.0,403431.0,215499.0,71028.0,4716.0
2026-04-09 22:38:34.663653,545604,3244562722,3244564248,-0.974048,0.093696,-0.017568,17.56125,1.82875,-5.8625,20.704,-29.2,38.4,eccentric,7,5.0,20570.0,403431.0,215499.0,71028.0,4716.0
2026-04-09 22:38:34.666136,545605,3244571687,3244572973,-0.974048,0.093696,-0.017568,19.7575,1.21625,-5.7225,20.704,-29.2,38.4,eccentric,7,5.0,20570.0,403431.0,215499.0,71028.0,4716.0
2026-04-09 22:38:34.699862,545616,3244580781,3244581705,-0.976,0.113216,-0.066368,17.64875,1.5925,-5.4425,20.536001,-29.216002,38.384003,eccentric,7,5.0,20606.0,403431.0,215176.0,70602.0,4596.0
2026-04-09 22:38:34.702413,545617,3244589812,3244590511,-0.976,0.113216,-0.066368,15.3825,3.29875,-5.67,20.536001,-29.216002,38.384003,eccentric,7,5.0,20606.0,403431.0,215176.0,70602.0,4596.0
2026-04-09 22:38:34.704963,545618,3244604850,3244605612,-1.011136,0.080032,-0.109312,10.64875,3.9375,-4.5325,20.656,-28.984001,37.952003,eccentric,7,5.0,20606.0,403431.0,215176.0,70602.0,4596.0
2026-04-09 22:38:34.709892,545619,3244614234,3244616432,-1.011136,0.080032,-0.109312,6.51875,3.98125,-3.535,20.656,-28.984001,37.952003,eccentric,7,5.0,20606.0,403431.0,215176.0,70602.0,4596.0
2026-04-09 22:38:34.740076,545620,3244623195,3244625173,-1.00528,0.07808,-0.083936,7.16625,4.06875,-3.8675,18.792002,-29.208002,39.872,eccentric,7,5.0,20606.0,403431.0,215176.0,70602.0,4596.0
2026-04-09 22:38:34.743745,545621,3244637673,3244638007,-0.98576,0.105408,-0.050752,9.52875,3.5,-5.1275,20.168001,-29.208002,38.128002,eccentric,7,5.0,20606.0,403431.0,215176.0,70602.0,4596.0
2026-04-09 22:38:34.746242,545622,3244646859,3244648776,-0.98576,0.105408,-0.050752,12.45125,3.15,-5.43375,20.168001,-29.208002,38.128002,eccentric,7,5.0,20606.0,403431.0,215176.0,70602.0,4596.0
2026-04-09 22:38:34.752832,545623,3244655780,3244657512,-0.98576,0.105408,-0.050752,13.74625,2.68625,-5.95,20.168001,-29.208002,38.128002,eccentric,7,5.0,20606.0,403431.0,215176.0,70602.0,4596.0
2026-04-09 22:38:34.781345,545624,3244664697,3244666208,-1.00528,0.091744,-0.093696,12.136251,3.24625,-5.78375,20.024,-29.240002,36.768,eccentric,7,5.0,20606.0,403431.0,215176.0,70602.0,4596.0
2026-04-09 22:38:34.809218,545634,3244679689,3244681164,-1.01504,0.08784,-0.07808,9.975,3.92875,-4.8475,20.416,-28.952002,37.248,eccentric,7,5.0,20550.0,403431.0,215877.0,71103.0,4718.0
2026-04-09 22:38:34.810991,545635,3244688686,3244689907,-1.01504,0.08784,-0.07808,8.14625,4.585,-4.5325,20.416,-28.952002,37.248,eccentric,7,5.0,20550.0,403431.0,215877.0,71103.0,4718.0
2026-04-09 22:38:34.812513,545636,3244697653,3244698685,-1.003328,0.074176,-0.062464,7.98875,4.43625,-4.1825,20.416,-28.952002,38.696003,eccentric,7,5.0,20550.0,403431.0,215877.0,71103.0,4718.0
2026-04-09 22:38:34.847762,545637,3244712252,3244713596,-1.003328,0.074176,-0.062464,6.65,4.83,-4.08625,19.312,-29.528002,38.696003,eccentric,7,5.0,20550.0,403431.0,215877.0,71103.0,4718.0
2026-04-09 22:38:34.849571,545638,3244721191,3244722318,-1.01504,0.095648,-0.074176,7.37625,5.94125,-3.28125,19.560001,-29.456001,38.752003,eccentric,7,5.0,20550.0,403431.0,215877.0,71103.0,4718.0
2026-04-09 22:38:34.854282,545639,3244730092,3244731058,-1.01504,0.095648,-0.074176,8.19,6.74625,-3.52625,19.560001,-29.456001,38.752003,eccentric,7,5.0,20550.0,403431.0,215877.0,71103.0,4718.0
2026-04-09 22:38:34.855963,545640,3244739080,3244739780,-1.030656,0.0976,-0.083936,7.98,6.93875,-3.87625,20.688002,-29.544,37.944,eccentric,7,5.0,20550.0,403431.0,215877.0,71103.0,4718.0
2026-04-09 22:38:34.857461,545641,3244753915,3244754707,-1.030656,0.0976,-0.083936,7.98875,7.18375,-3.78875,20.688002,-29.544,37.944,eccentric,7,5.0,20550.0,403431.0,215877.0,71103.0,4718.0
2026-04-09 22:38:34.861571,545642,3244762843,3244763419,-1.036512,0.095648,-0.08784,7.98875,7.58625,-3.84125,20.064001,-29.392002,37.352,eccentric,7,5.0,20550.0,403431.0,215877.0,71103.0,4718.0
2026-04-09 22:38:34.890212,545643,3244772053,3244774186,-1.036512,0.095648,-0.08784,7.55125,7.42,-4.5325,20.064001,-29.392002,37.352,eccentric,7,5.0,20550.0,403431.0,215877.0,71103.0,4718.0
2026-04-09 22:38:34.919731,545653,3244786965,3244789140,-1.050176,0.089792,-0.066368,7.4725,8.02375,-5.425,19.384,-29.024002,38.664,eccentric,7,5.0,20485.0,403431.0,216784.0,71814.0,4907.0
2026-04-09 22:38:34.921212,545654,3244795895,3244797842,-1.050176,0.089792,-0.066368,7.88375,7.65625,-5.92375,19.384,-29.024002,38.664,eccentric,7,5.0,20485.0,403431.0,216784.0,71814.0,4907.0
2026-04-09 22:38:34.926519,545655,3244804799,3244806567,-1.046272,0.081984,-0.072224,7.0175,8.0325,-5.60875,20.648,-28.816002,37.0,eccentric,7,5.0,20485.0,403431.0,216784.0,71814.0,4907.0
2026-04-09 22:38:34.927221,545656,3244813959,3244815351,-1.046272,0.081984,-0.072224,5.03125,7.98875,-4.94375,20.648,-28.816002,37.0,eccentric,7,5.0,20485.0,403431.0,216784.0,71814.0,4907.0
2026-04-09 22:38:34.928746,545657,3244828467,3244830342,-1.052128,0.070272,-0.080032,2.94,8.5225,-4.3225,20.240002,-29.792002,38.168003,eccentric,7,5.0,20485.0,403431.0,216784.0,71814.0,4907.0
2026-04-09 22:38:34.935336,545658,3244837366,3244839053,-1.052128,0.070272,-0.080032,1.085,9.23125,-4.06,20.240002,-29.792002,38.168003,eccentric,7,5.0,20485.0,403431.0,216784.0,71814.0,4907.0
2026-04-09 22:38:34.963898,545659,3244846308,3244847814,-1.071648,0.08784,-0.06832,-0.315,9.10875,-4.50625,19.784,-29.832,39.256,eccentric,7,5.0,20485.0,403431.0,216784.0,71814.0,4907.0
2026-04-09 22:38:34.968406,545660,3244860787,3244862742,-1.081408,0.07808,-0.095648,1.05,8.198751,-6.0025,20.12,-29.576002,37.296,concentric,7,5.0,20485.0,403431.0,216784.0,71814.0,4907.0
2026-04-09 22:38:34.969966,545661,3244869691,3244871435,-1.081408,0.07808,-0.095648,1.56625,7.175,-6.93,20.12,-29.576002,37.296,concentric,7,5.0,20485.0,403431.0,216784.0,71814.0,4907.0
2026-04-09 22:38:34.998568,545672,3244878803,3244880205,-1.069696,0.066368,-0.056608,-1.6275,7.32375,-6.8775,20.488,-29.312002,37.424004,concentric,7,5.0,20363.0,403431.0,218200.0,72934.0,5210.0
2026-04-09 22:38:35.002471,545673,3244893465,3244895201,-1.069696,0.066368,-0.056608,-6.39625,7.5425,-5.69625,20.488,-29.312002,37.424004,concentric,7,5.0,20363.0,403431.0,218200.0,72934.0,5210.0
2026-04-09 22:38:35.007992,545674,3244902417,3244903951,-1.081408,0.056608,-0.064416,-11.4275,8.015,-5.62625,20.432001,-29.472002,37.528,concentric,7,5.0,20363.0,403431.0,218200.0,72934.0,5210.0
2026-04-09 22:38:35.009565,545675,3244911343,3244912710,-1.081408,0.056608,-0.064416,-13.448751,8.0325,-5.48625,20.432001,-29.472002,37.528,concentric,7,5.0,20363.0,403431.0,218200.0,72934.0,5210.0
2026-04-09 22:38:35.016677,545676,3244920313,3244921410,-1.067744,0.060512,-0.109312,-14.14875,7.74375,-5.17125,19.888,-29.36,39.440002,concentric,7,5.0,20363.0,403431.0,218200.0,72934.0,5210.0
2026-04-09 22:38:35.045202,545677,3244934819,3244936301,-1.067744,0.060512,-0.109312,-13.877501,6.8075,-5.62625,19.888,-29.36,39.440002,concentric,7,5.0,20363.0,403431.0,218200.0,72934.0,5210.0
2026-04-09 22:38:35.049810,545678,3244943752,3244945086,-1.050176,0.050752,-0.101504,-13.6325,6.04625,-5.2675,20.424002,-28.952002,37.336002,concentric,7,5.0,20363.0,403431.0,218200.0,72934.0,5210.0
2026-04-09 22:38:35.051177,545679,3244952659,3244953787,-1.050176,0.050752,-0.101504,-14.18375,5.20625,-5.0575,20.424002,-28.952002,37.336002,concentric,7,5.0,20363.0,403431.0,218200.0,72934.0,5210.0
2026-04-09 22:38:35.083268,545680,3244967145,3244968681,-1.048224,0.060512,-0.076128,-15.46125,5.6,-5.2675,19.512001,-29.312002,39.368,concentric,7,5.0,20363.0,403431.0,218200.0,72934.0,5210.0
2026-04-09 22:38:35.095590,545681,3244976069,3244977379,-1.048224,0.060512,-0.076128,-15.408751,5.775,-6.1775,19.512001,-29.312002,39.368,concentric,7,5.0,20363.0,403431.0,218200.0,72934.0,5210.0
2026-04-09 22:38:35.154723,545691,3244985004,3244986097,-1.028704,0.06832,-0.085888,-13.36125,6.02,-7.6475,20.44,-29.096,36.72,concentric,7,5.0,20388.0,403431.0,218056.0,72951.0,5191.0
2026-04-09 22:38:35.157294,545692,3244999531,3245001086,-1.030656,0.07808,-0.10736,-13.4225,5.66125,-7.97125,21.000002,-29.048002,35.368,concentric,7,5.0,20388.0,403431.0,218056.0,72951.0,5191.0
2026-04-09 22:38:35.167026,545693,3245008541,3245009800,-1.030656,0.07808,-0.10736,-12.80125,5.76625,-8.4525,21.000002,-29.048002,35.368,concentric,7,5.0,20388.0,403431.0,218056.0,72951.0,5191.0
2026-04-09 22:38:35.168692,545694,3245017455,3245018588,-1.030656,0.07808,-0.10736,-11.55,6.02,-9.12625,21.000002,-29.048002,35.368,concentric,7,5.0,20388.0,403431.0,218056.0,72951.0,5191.0
2026-04-09 22:38:35.170000,545695,3245031968,3245033483,-1.036512,0.056608,-0.113216,-11.22625,6.2125,-10.01875,19.856,-29.296001,38.928,concentric,7,5.0,20388.0,403431.0,218056.0,72951.0,5191.0
2026-04-09 22:38:35.174254,545696,3245040927,3245042212,-1.001376,0.083936,-0.070272,-11.34875,5.285,-10.36875,20.056002,-29.328001,38.08,concentric,7,5.0,20388.0,403431.0,218056.0,72951.0,5191.0
2026-04-09 22:38:35.175966,545697,3245049842,3245050932,-1.001376,0.083936,-0.070272,-10.75375,5.6,-10.7275,20.056002,-29.328001,38.08,concentric,7,5.0,20388.0,403431.0,218056.0,72951.0,5191.0
2026-04-09 22:38:35.178416,545698,3245058779,3245059621,-1.016992,0.091744,-0.089792,-11.22625,6.06375,-11.865,20.056002,-29.328001,42.176003,concentric,7,5.0,20388.0,403431.0,218056.0,72951.0,5191.0
2026-04-09 22:38:35.179983,545699,3245073281,3245074516,-1.026752,0.091744,-0.089792,-13.2475,6.83375,-13.39625,19.84,-28.808,41.248,concentric,7,5.0,20388.0,403431.0,218056.0,72951.0,5191.0
2026-04-09 22:38:35.206775,545709,3245082797,3245083287,-1.050176,0.044896,-0.121024,-14.1225,6.99125,-14.0,20.856,-28.760002,38.736,concentric,7,5.0,20418.0,403431.0,217539.0,72616.0,5116.0
2026-04-09 22:38:35.208408,545710,3245092263,3245094121,-1.050176,0.044896,-0.121024,-14.980001,6.755,-14.323751,20.856,-28.760002,38.736,concentric,7,5.0,20418.0,403431.0,217539.0,72616.0,5116.0
2026-04-09 22:38:35.210012,545711,3245101237,3245102842,-1.0248,0.042944,-0.042944,-14.323751,6.335,-13.79,21.000002,-27.888,39.640003,concentric,7,5.0,20418.0,403431.0,217539.0,72616.0,5116.0
2026-04-09 22:38:35.214101,545712,3245115769,3245117691,-1.0248,0.042944,-0.042944,-12.52125,6.055,-13.405,21.000002,-27.888,39.640003,concentric,7,5.0,20418.0,403431.0,217539.0,72616.0,5116.0
2026-04-09 22:38:35.244029,545713,3245124878,3245126438,-1.003328,0.081984,-0.066368,-10.47375,6.53625,-13.4925,20.424002,-28.896002,39.496002,concentric,7,5.0,20418.0,403431.0,217539.0,72616.0,5116.0
2026-04-09 22:38:35.247592,545714,3245133858,3245135158,-1.003328,0.081984,-0.066368,-11.17375,7.2975,-12.775,20.424002,-28.896002,39.496002,concentric,7,5.0,20418.0,403431.0,217539.0,72616.0,5116.0
2026-04-09 22:38:35.248993,545715,3245148355,3245150097,-1.052128,0.01952,-0.163968,-14.51625,7.25375,-12.3725,21.2,-28.264002,38.472,concentric,7,5.0,20418.0,403431.0,217539.0,72616.0,5116.0
2026-04-09 22:38:35.255349,545716,3245157265,3245158789,-1.052128,0.01952,-0.163968,-16.44125,6.39625,-11.22625,21.2,-28.264002,38.472,concentric,7,5.0,20418.0,403431.0,217539.0,72616.0,5116.0
2026-04-09 22:38:35.287409,545717,3245166236,3245167539,-1.069696,0.017568,-0.171776,-12.71375,4.64625,-10.535,20.856,-28.664001,38.616,concentric,7,5.0,20418.0,403431.0,217539.0,72616.0,5116.0
2026-04-09 22:38:35.315966,545728,3245181228,3245182847,-1.013088,0.021472,-0.070272,-7.56,2.0125,-10.0975,21.168001,-28.848001,38.336002,concentric,7,5.0,20423.0,403431.0,217443.0,72450.0,5089.0
2026-04-09 22:38:35.318781,545729,3245190324,3245191594,-1.013088,0.021472,-0.070272,-6.685,0.06125,-7.805,21.168001,-28.848001,38.336002,concentric,7,5.0,20423.0,403431.0,217443.0,72450.0,5089.0
2026-04-09 22:38:35.321761,545730,3245199259,3245200345,-1.013088,0.040992,-0.066368,-7.42,-0.42,-5.29375,21.168001,-28.848001,40.384003,concentric,7,5.0,20423.0,403431.0,217443.0,72450.0,5089.0
2026-04-09 22:38:35.325118,545731,3245208199,3245209137,-1.013088,0.040992,-0.066368,-6.97375,-0.16625,-4.19125,19.912,-28.272001,39.528004,concentric,7,5.0,20423.0,403431.0,217443.0,72450.0,5089.0
2026-04-09 22:38:35.327526,545732,3245222939,3245224094,-1.065792,0.040992,-0.121024,-6.36125,0.5075,-4.38375,20.384,-28.376001,40.168003,concentric,7,5.0,20423.0,403431.0,217443.0,72450.0,5089.0
2026-04-09 22:38:35.332933,545733,3245231924,3245232802,-1.065792,0.040992,-0.121024,-6.265,1.2425,-4.095,20.384,-28.376001,40.168003,concentric,7,5.0,20423.0,403431.0,217443.0,72450.0,5089.0
2026-04-09 22:38:35.337020,545734,3245240918,3245241520,-1.020896,0.044896,-0.08784,-5.10125,1.07625,-3.85,21.168001,-28.504002,40.592003,concentric,7,5.0,20423.0,403431.0,217443.0,72450.0,5089.0
2026-04-09 22:38:35.367382,545735,3245250185,3245252324,-1.020896,0.044896,-0.08784,-2.485,1.33,-5.10125,21.168001,-28.504002,40.592003,concentric,7,5.0,20423.0,403431.0,217443.0,72450.0,5089.0
2026-04-09 22:38:35.369643,545736,3245264659,3245265174,-1.020896,0.072224,-0.07808,-0.7,1.68,-5.9675,21.168001,-28.864002,39.016003,concentric,7,5.0,20423.0,403431.0,217443.0,72450.0,5089.0
2026-04-09 22:38:35.374353,545737,3245274151,3245275944,-1.020896,0.072224,-0.07808,-1.6975,1.70625,-6.7375,21.168001,-28.864002,39.016003,concentric,7,5.0,20423.0,403431.0,217443.0,72450.0,5089.0
2026-04-09 22:38:35.399258,545747,3245283243,3245284706,-1.03456,0.033184,-0.150304,-1.015,1.74125,-7.07,20.016,-28.52,40.968002,concentric,7,5.0,20520.0,403431.0,216418.0,71741.0,4902.0
2026-04-09 22:38:35.400976,545748,3245297877,3245299772,-1.03456,0.033184,-0.150304,-1.68875,1.2425,-7.805,20.016,-28.52,40.968002,concentric,7,5.0,20520.0,403431.0,216418.0,71741.0,4902.0
2026-04-09 22:38:35.403929,545749,3245306825,3245308497,-1.018944,0.011712,-0.115168,-0.48125,0.0,-7.7525,19.968,-28.752,41.064003,concentric,7,5.0,20520.0,403431.0,216418.0,71741.0,4902.0
2026-04-09 22:38:35.444885,545750,3245315774,3245317197,-1.018944,0.011712,-0.115168,0.39375,-1.04125,-7.0175,19.968,-28.752,41.064003,concentric,7,5.0,20520.0,403431.0,216418.0,71741.0,4902.0
2026-04-09 22:38:35.449312,545751,3245330214,3245332103,-1.00528,0.03904,-0.052704,-0.84875,-0.3675,-6.7025,20.744001,-28.920002,39.008003,concentric,7,5.0,20520.0,403431.0,216418.0,71741.0,4902.0
2026-04-09 22:38:35.451114,545752,3245339170,3245340857,-1.00528,0.03904,-0.052704,0.8575,-0.70875,-6.72875,20.744001,-28.920002,39.008003,concentric,7,5.0,20520.0,403431.0,216418.0,71741.0,4902.0
2026-04-09 22:38:35.452679,545753,3245348097,3245349542,-1.032608,0.056608,-0.08784,2.205,-0.93625,-6.3875,21.392,-28.312002,40.704002,concentric,7,5.0,20520.0,403431.0,216418.0,71741.0,4902.0
2026-04-09 22:38:35.454963,545754,3245356992,3245358219,-1.032608,0.056608,-0.08784,2.3275,-1.75,-6.60625,21.392,-28.312002,40.704002,concentric,7,5.0,20520.0,403431.0,216418.0,71741.0,4902.0
2026-04-09 22:38:35.486762,545755,3245371469,3245373203,-1.057984,0.037088,-0.11712,2.94,-1.84625,-7.20125,21.064001,-28.28,39.944,concentric,7,5.0,20520.0,403431.0,216418.0,71741.0,4902.0
2026-04-09 22:38:35.515006,545765,3245380403,3245381874,-1.052128,0.054656,-0.07808,2.555,-1.95125,-8.72375,21.816002,-28.032001,39.144,concentric,7,5.0,20456.0,403431.0,217019.0,72305.0,5069.0
2026-04-09 22:38:35.517550,545766,3245389318,3245390589,-1.052128,0.054656,-0.07808,2.6775,-1.96875,-9.59875,21.816002,-28.032001,39.144,concentric,7,5.0,20456.0,403431.0,217019.0,72305.0,5069.0
2026-04-09 22:38:35.519987,545767,3245403852,3245405625,-1.018944,0.070272,-0.050752,4.96125,-2.05625,-11.2175,21.920002,-28.512001,39.096,concentric,7,5.0,20456.0,403431.0,217019.0,72305.0,5069.0
2026-04-09 22:38:35.522453,545768,3245412806,3245414372,-1.018944,0.070272,-0.050752,5.4425,-1.91625,-12.6,21.920002,-28.512001,39.096,concentric,7,5.0,20456.0,403431.0,217019.0,72305.0,5069.0
2026-04-09 22:38:35.524959,545769,3245421743,3245423089,-1.071648,0.037088,-0.115168,0.9975,-0.81375,-12.425,22.296001,-29.12,40.488003,concentric,7,5.0,20456.0,403431.0,217019.0,72305.0,5069.0
2026-04-09 22:38:35.531229,545770,3245436240,3245438081,-1.071648,0.037088,-0.115168,-1.54875,-0.14875,-11.34,22.296001,-29.12,40.488003,concentric,7,5.0,20456.0,403431.0,217019.0,72305.0,5069.0
2026-04-09 22:38:35.561446,545771,3245445197,3245446772,-1.071648,0.003904,-0.173728,-2.45,-1.995,-11.62,22.448002,-28.680002,39.920002,concentric,7,5.0,20456.0,403431.0,217019.0,72305.0,5069.0
2026-04-09 22:38:35.566472,545772,3245454102,3245455468,-1.071648,0.003904,-0.173728,-0.86625,-3.45625,-12.22375,22.448002,-28.680002,39.920002,concentric,7,5.0,20456.0,403431.0,217019.0,72305.0,5069.0
2026-04-09 22:38:35.568574,545773,3245468588,3245470352,-1.06384,0.023424,-0.121024,4.31375,-6.13375,-12.3025,21.84,-28.528002,39.160004,concentric,7,5.0,20456.0,403431.0,217019.0,72305.0,5069.0
2026-04-09 22:38:35.573740,545774,3245477559,3245479113,-1.06384,0.023424,-0.121024,8.91625,-8.225,-12.25875,21.84,-28.528002,39.160004,concentric,7,5.0,20456.0,403431.0,217019.0,72305.0,5069.0
2026-04-09 22:38:35.639394,545785,3245486564,3245487927,-1.030656,0.040992,-0.054656,10.15875,-10.29,-11.5675,21.080002,-28.232002,39.224003,concentric,7,5.0,20359.0,403431.0,218350.0,73379.0,5401.0
2026-04-09 22:38:35.641241,545786,3245495506,3245496687,-1.030656,0.040992,-0.054656,9.28375,-11.41,-9.87,21.080002,-28.232002,39.224003,concentric,7,5.0,20359.0,403431.0,218350.0,73379.0,5401.0
2026-04-09 22:38:35.644293,545787,3245509979,3245511657,-1.036512,0.050752,-0.052704,8.33,-10.71875,-9.28375,21.392,-28.592001,40.496002,concentric,7,5.0,20359.0,403431.0,218350.0,73379.0,5401.0
2026-04-09 22:38:35.647498,545788,3245518982,3245520381,-1.036512,0.050752,-0.052704,5.22375,-8.6975,-9.345,21.392,-28.592001,40.496002,concentric,7,5.0,20359.0,403431.0,218350.0,73379.0,5401.0
2026-04-09 22:38:35.648950,545789,3245527893,3245529104,-1.056032,0.037088,-0.091744,3.07125,-7.4725,-10.43,22.728,-28.368002,38.664,concentric,7,5.0,20359.0,403431.0,218350.0,73379.0,5401.0
2026-04-09 22:38:35.651185,545790,3245542364,3245544076,-1.057984,0.021472,-0.128832,5.31125,-8.16375,-11.05125,22.344002,-28.608002,39.384003,concentric,7,5.0,20359.0,403431.0,218350.0,73379.0,5401.0
2026-04-09 22:38:35.653715,545791,3245551340,3245552812,-1.057984,0.021472,-0.128832,5.6175,-9.12625,-11.17375,22.344002,-28.608002,39.384003,concentric,7,5.0,20359.0,403431.0,218350.0,73379.0,5401.0
2026-04-09 22:38:35.656236,545792,3245560344,3245561565,-1.057984,0.021472,-0.111264,6.20375,-10.99875,-10.5525,22.344002,-28.608002,39.384003,concentric,7,5.0,20359.0,403431.0,218350.0,73379.0,5401.0
2026-04-09 22:38:35.688974,545793,3245574780,3245576507,-1.038464,0.042944,-0.111264,9.35375,-12.635,-10.63125,21.392,-28.688002,40.68,concentric,7,5.0,20359.0,403431.0,218350.0,73379.0,5401.0
2026-04-09 22:38:35.746457,545803,3245583864,3245585315,-1.030656,0.02928,-0.074176,9.511251,-13.4575,-10.54375,22.056002,-28.616001,39.576,concentric,7,5.0,20423.0,403431.0,217106.0,72469.0,5097.0
2026-04-09 22:38:35.750041,545804,3245592820,3245594005,-1.030656,0.02928,-0.074176,7.84,-13.34375,-10.29875,22.056002,-28.616001,39.576,concentric,7,5.0,20423.0,403431.0,217106.0,72469.0,5097.0
2026-04-09 22:38:35.752661,545805,3245601757,3245602702,-1.077504,0.052704,-0.064416,5.67875,-12.3025,-11.29625,22.456001,-28.44,39.704002,concentric,7,5.0,20423.0,403431.0,217106.0,72469.0,5097.0
2026-04-09 22:38:35.755061,545806,3245616268,3245617686,-1.077504,0.052704,-0.064416,5.43375,-11.06,-11.9,22.456001,-28.44,39.704002,concentric,7,5.0,20423.0,403431.0,217106.0,72469.0,5097.0
2026-04-09 22:38:35.757523,545807,3245625299,3245626403,-1.075552,0.00976,-0.089792,5.18,-10.66625,-12.11,21.872002,-28.408,39.568,concentric,7,5.0,20423.0,403431.0,217106.0,72469.0,5097.0
2026-04-09 22:38:35.760016,545808,3245634230,3245635127,-1.075552,0.00976,-0.089792,3.9025,-11.3925,-11.64625,21.872002,-28.408,39.568,concentric,7,5.0,20423.0,403431.0,217106.0,72469.0,5097.0
2026-04-09 22:38:35.762458,545809,3245648708,3245650137,-1.046272,0.017568,-0.046848,4.41,-11.9525,-11.9,22.208,-28.592001,39.616,concentric,7,5.0,20423.0,403431.0,217106.0,72469.0,5097.0
2026-04-09 22:38:35.765034,545810,3245657606,3245658816,-1.046272,0.017568,-0.046848,7.98,-11.7775,-11.9,22.208,-28.592001,39.616,concentric,7,5.0,20423.0,403431.0,217106.0,72469.0,5097.0
2026-04-09 22:38:35.767503,545811,3245666543,3245667527,-1.067744,0.033184,-0.070272,8.47,-10.64,-10.70125,22.52,-28.368002,39.624,concentric,7,5.0,20423.0,403431.0,217106.0,72469.0,5097.0
2026-04-09 22:38:35.797694,545812,3245681016,3245682471,-1.067744,0.017568,-0.0976,5.18875,-9.21375,-9.8,22.52,-28.368002,39.624,concentric,7,5.0,20423.0,403431.0,217106.0,72469.0,5097.0
2026-04-09 22:38:35.823706,545822,3245689996,3245691255,-1.067744,0.017568,-0.0976,1.085,-7.69125,-9.38875,23.016,-28.416002,39.192,concentric,7,5.0,20506.0,403431.0,215937.0,71527.0,4845.0
2026-04-09 22:38:35.826196,545823,3245698891,3245699975,-1.067744,0.017568,-0.0976,-0.84,-7.44625,-9.30125,23.016,-28.416002,39.192,concentric,7,5.0,20506.0,403431.0,215937.0,71527.0,4845.0
2026-04-09 22:38:35.828658,545824,3245713373,3245714922,-0.997472,0.017568,-0.074176,1.79375,-8.82,-8.79375,22.352001,-28.704,40.36,concentric,7,5.0,20506.0,403431.0,215937.0,71527.0,4845.0
2026-04-09 22:38:35.831271,545825,3245722310,3245723698,-1.011136,-0.007808,-0.089792,3.0275,-10.0275,-8.68,21.312,-28.592001,41.792004,concentric,7,5.0,20506.0,403431.0,215937.0,71527.0,4845.0
2026-04-09 22:38:35.833740,545826,3245731356,3245732490,-1.011136,-0.007808,-0.089792,3.36,-10.19375,-8.37375,21.312,-28.592001,41.792004,concentric,7,5.0,20506.0,403431.0,215937.0,71527.0,4845.0
2026-04-09 22:38:35.836216,545827,3245740364,3245741205,-1.011136,-0.007808,-0.089792,4.73375,-10.325,-7.25375,21.312,-28.592001,41.792004,concentric,7,5.0,20506.0,403431.0,215937.0,71527.0,4845.0
2026-04-09 22:38:35.871431,545828,3245754848,3245756118,-1.069696,0.027328,-0.07808,5.0225,-10.6575,-8.505,22.016,-28.576002,42.472,concentric,7,5.0,20506.0,403431.0,215937.0,71527.0,4845.0
2026-04-09 22:38:35.874966,545829,3245763753,3245764827,-1.0248,0.013664,-0.07808,6.055,-10.64875,-8.6975,23.112001,-29.464,40.136,concentric,7,5.0,20506.0,403431.0,215937.0,71527.0,4845.0
2026-04-09 22:38:35.877442,545830,3245772679,3245773560,-1.0248,0.013664,-0.07808,2.72125,-10.5,-7.74375,23.112001,-29.464,40.136,concentric,7,5.0,20506.0,403431.0,215937.0,71527.0,4845.0
2026-04-09 22:38:35.904944,545841,3245787445,3245788512,-1.003328,-0.00976,-0.031232,-0.21,-10.885,-7.735,22.608002,-29.080002,40.376003,concentric,7,5.0,20546.0,403431.0,215421.0,71223.0,4764.0
2026-04-09 22:38:35.907495,545842,3245796453,3245797263,-1.003328,-0.00976,-0.031232,2.40625,-11.725,-7.79625,22.608002,-29.080002,40.376003,concentric,7,5.0,20546.0,403431.0,215421.0,71223.0,4764.0
2026-04-09 22:38:35.909956,545843,3245805866,3245808092,-1.065792,0.013664,-0.070272,6.02875,-10.70125,-7.5425,21.504002,-28.664001,41.216003,concentric,7,5.0,20546.0,403431.0,215421.0,71223.0,4764.0
2026-04-09 22:38:35.912451,545844,3245814827,3245816863,-1.065792,0.013664,-0.070272,7.20125,-9.292501,-6.79875,21.504002,-28.664001,41.216003,concentric,7,5.0,20546.0,403431.0,215421.0,71223.0,4764.0
2026-04-09 22:38:35.942746,545845,3245829442,3245829750,-1.069696,0.03904,-0.076128,5.9325,-8.28625,-7.18375,22.288,-29.088001,42.816,concentric,7,5.0,20546.0,403431.0,215421.0,71223.0,4764.0
2026-04-09 22:38:35.946262,545846,3245838595,3245840517,-1.069696,0.03904,-0.076128,4.31375,-8.05875,-9.2225,22.288,-29.088001,42.816,concentric,7,5.0,20546.0,403431.0,215421.0,71223.0,4764.0
2026-04-09 22:38:35.948753,545847,3245847656,3245849221,-1.040416,0.027328,-0.056608,2.625,-7.2975,-10.535,22.912,-28.992,40.552002,concentric,7,5.0,20546.0,403431.0,215421.0,71223.0,4764.0
2026-04-09 22:38:35.979047,545848,3245862242,3245864127,-1.091168,-0.005856,-0.050752,2.84375,-6.99125,-11.38375,22.504002,-28.976002,40.552002,concentric,7,5.0,20546.0,403431.0,215421.0,71223.0,4764.0
2026-04-09 22:38:35.984484,545849,3245871201,3245872913,-1.091168,-0.005856,-0.050752,3.35125,-5.83625,-11.92625,22.504002,-28.976002,40.552002,concentric,7,5.0,20546.0,403431.0,215421.0,71223.0,4764.0
2026-04-09 22:38:35.984946,545850,3245880120,3245881612,-1.091168,-0.005856,-0.050752,3.35125,-5.01375,-11.12125,22.504002,-28.976002,40.552002,concentric,7,5.0,20546.0,403431.0,215421.0,71223.0,4764.0
2026-04-09 22:38:36.043857,545860,3245894663,3245896587,-1.081408,0.005856,-0.011712,4.12125,-4.48875,-9.765,23.336,-28.536001,40.600002,concentric,7,5.0,20485.0,403431.0,215850.0,71475.0,4835.0
2026-04-09 22:38:36.051353,545861,3245903626,3245905309,-1.08336,0.035136,-0.035136,4.655,-3.465,-8.9425,22.368002,-29.144001,42.88,concentric,7,5.0,20485.0,403431.0,215850.0,71475.0,4835.0
2026-04-09 22:38:36.053670,545862,3245912591,3245913991,-1.08336,0.035136,-0.035136,3.01875,-2.2925,-9.065,22.368002,-29.144001,42.88,concentric,7,5.0,20485.0,403431.0,215850.0,71475.0,4835.0
2026-04-09 22:38:36.056234,545863,3245921550,3245922728,-1.08336,0.035136,-0.035136,-0.16625,-0.595,-8.95125,22.368002,-29.144001,42.88,concentric,7,5.0,20485.0,403431.0,215850.0,71475.0,4835.0
2026-04-09 22:38:36.058743,545864,3245936046,3245937605,-1.124352,0.017568,-0.083936,-1.28625,1.44375,-9.6425,23.208,-28.864002,40.416,concentric,7,5.0,20485.0,403431.0,215850.0,71475.0,4835.0
2026-04-09 22:38:36.061235,545865,3245944957,3245946297,-1.134112,0.0,-0.070272,-2.49375,1.54875,-9.47625,23.568,-28.776001,40.432003,concentric,7,5.0,20485.0,403431.0,215850.0,71475.0,4835.0
2026-04-09 22:38:36.063748,545866,3245953980,3245955015,-1.134112,0.0,-0.070272,-1.9425,1.61,-10.15875,23.568,-28.776001,40.432003,concentric,7,5.0,20485.0,403431.0,215850.0,71475.0,4835.0
2026-04-09 22:38:36.070037,545867,3245968544,3245969929,-1.106784,0.054656,-0.025376,2.17875,0.65625,-11.3225,23.512001,-28.640001,40.424004,concentric,7,5.0,20485.0,403431.0,215850.0,71475.0,4835.0
2026-04-09 22:38:36.072501,545868,3245977468,3245978673,-1.106784,0.054656,-0.025376,3.59625,0.8575,-13.405,23.512001,-28.640001,40.424004,concentric,7,5.0,20485.0,403431.0,215850.0,71475.0,4835.0
2026-04-09 22:38:36.101269,545878,3245986871,3245987774,-1.165344,0.07808,-0.017568,1.82,2.10875,-15.23375,23.176,-29.296001,41.992,concentric,7,5.0,20380.0,403431.0,217184.0,72376.0,5091.0
2026-04-09 22:38:36.103735,545879,3245996089,3245996539,-1.165344,0.07808,-0.017568,-0.9975,3.77125,-16.56375,23.176,-29.296001,41.992,concentric,7,5.0,20380.0,403431.0,217184.0,72376.0,5091.0
2026-04-09 22:38:36.106267,545880,3246011039,3246011474,-1.188768,-0.027328,-0.054656,-4.17375,4.20875,-17.19375,24.04,-28.480001,40.544003,concentric,7,5.0,20380.0,403431.0,217184.0,72376.0,5091.0
2026-04-09 22:38:36.136504,545881,3246020346,3246022244,-1.188768,-0.027328,-0.054656,-6.08125,4.76875,-15.9775,24.04,-28.480001,40.544003,concentric,7,5.0,20380.0,403431.0,217184.0,72376.0,5091.0
2026-04-09 22:38:36.140001,545882,3246029296,3246030970,-1.175104,-0.052704,-0.095648,-5.03125,4.62875,-12.9325,23.960001,-28.384,40.536003,concentric,7,5.0,20380.0,403431.0,217184.0,72376.0,5091.0
2026-04-09 22:38:36.142516,545883,3246043800,3246045869,-1.159488,-0.027328,-0.07808,-1.5925,3.5875,-9.7825,24.248001,-28.544,40.048,concentric,7,5.0,20380.0,403431.0,217184.0,72376.0,5091.0
2026-04-09 22:38:36.148953,545884,3246052741,3246054584,-1.159488,-0.027328,-0.07808,0.42,2.42375,-6.7725,24.248001,-28.544,40.048,concentric,7,5.0,20380.0,403431.0,217184.0,72376.0,5091.0
2026-04-09 22:38:36.178973,545885,3246061728,3246063293,-1.159488,-0.027328,-0.07808,-2.28375,1.8375,-3.89375,24.248001,-28.544,40.048,concentric,7,5.0,20380.0,403431.0,217184.0,72376.0,5091.0
2026-04-09 22:38:36.182487,545886,3246070667,3246071991,-1.159488,-0.037088,-0.011712,-5.145,1.47875,-1.1725,23.888,-28.752,40.488003,concentric,7,5.0,20380.0,403431.0,217184.0,72376.0,5091.0
2026-04-09 22:38:36.209953,545897,3246085680,3246086897,-1.130208,-0.001952,-0.001952,-3.1325,2.42375,-0.77875,24.224,-28.136002,40.760002,concentric,7,5.0,20425.0,403431.0,217035.0,72421.0,5098.0
2026-04-09 22:38:36.212585,545898,3246094665,3246095615,-1.130208,-0.001952,-0.001952,1.63625,3.605,-1.3125,24.224,-28.136002,40.760002,concentric,7,5.0,20425.0,403431.0,217035.0,72421.0,5098.0
2026-04-09 22:38:36.215092,545899,3246103636,3246104427,-1.16144,0.064416,-0.0488,2.8875,4.73375,-1.0675,23.832,-28.976002,40.608,concentric,7,5.0,20425.0,403431.0,217035.0,72421.0,5098.0
2026-04-09 22:38:36.217493,545900,3246113046,3246115306,-1.16144,0.064416,-0.0488,1.7675,5.55625,-1.56625,23.832,-28.976002,40.608,concentric,7,5.0,20425.0,403431.0,217035.0,72421.0,5098.0
2026-04-09 22:38:36.222576,545901,3246127566,3246128168,-1.175104,0.007808,-0.070272,-0.8925,5.7925,-2.58125,23.216002,-28.384,40.84,concentric,7,5.0,20425.0,403431.0,217035.0,72421.0,5098.0
2026-04-09 22:38:36.252765,545902,3246136896,3246139037,-1.175104,0.007808,-0.070272,-5.8625,5.67875,-4.1475,23.216002,-28.384,40.84,concentric,7,5.0,20425.0,403431.0,217035.0,72421.0,5098.0
2026-04-09 22:38:36.257201,545903,3246145812,3246147718,-1.130208,-0.0488,-0.025376,-8.30375,5.0575,-4.8125,23.800001,-28.480001,40.904003,concentric,7,5.0,20425.0,403431.0,217035.0,72421.0,5098.0
2026-04-09 22:38:36.258705,545904,3246160338,3246162611,-1.130208,-0.0488,-0.025376,-5.45125,4.20875,-4.69,23.800001,-28.480001,40.904003,concentric,7,5.0,20425.0,403431.0,217035.0,72421.0,5098.0
2026-04-09 22:38:36.289812,545905,3246169281,3246171319,-1.110688,-0.011712,0.021472,-1.61,4.0775,-4.47125,24.248001,-28.736002,40.952003,concentric,7,5.0,20425.0,403431.0,217035.0,72421.0,5098.0
2026-04-09 22:38:36.294305,545906,3246178202,3246180083,-1.110688,-0.011712,0.021472,2.49375,5.425,-3.56125,24.248001,-28.736002,40.952003,concentric,7,5.0,20425.0,403431.0,217035.0,72421.0,5098.0
2026-04-09 22:38:36.356003,545916,3246192952,3246195022,-1.147776,0.00976,-0.017568,5.15375,6.29125,-3.56125,24.12,-28.968002,40.944,concentric,7,5.0,20325.0,403431.0,218207.0,73400.0,5398.0
2026-04-09 22:38:36.357545,545917,3246201894,3246203727,-1.147776,0.00976,-0.017568,2.28375,6.72875,-4.5325,24.12,-28.968002,40.944,concentric,7,5.0,20325.0,403431.0,218207.0,73400.0,5398.0
2026-04-09 22:38:36.361868,545918,3246210831,3246212457,-1.159488,-0.03904,-0.060512,-1.72375,7.2275,-3.40375,24.288002,-28.808,41.152,concentric,7,5.0,20325.0,403431.0,218207.0,73400.0,5398.0
2026-04-09 22:38:36.365185,545919,3246219815,3246221230,-1.159488,-0.03904,-0.060512,-3.17625,6.29125,-2.625,24.288002,-28.808,41.152,concentric,7,5.0,20325.0,403431.0,218207.0,73400.0,5398.0
2026-04-09 22:38:36.367264,545920,3246234322,3246236175,-1.167296,-0.031232,-0.02928,-3.395,5.425,-2.87875,24.144001,-28.536001,40.800003,concentric,7,5.0,20325.0,403431.0,218207.0,73400.0,5398.0
2026-04-09 22:38:36.367660,545921,3246243254,3246244881,-1.167296,0.0,0.001952,0.70875,4.22625,-1.75,24.144001,-28.536001,40.800003,concentric,7,5.0,20325.0,403431.0,218207.0,73400.0,5398.0
2026-04-09 22:38:36.371780,545922,3246252184,3246253565,-1.145824,0.0,0.001952,3.605,2.94,-1.39125,24.296001,-28.728,39.848003,concentric,7,5.0,20325.0,403431.0,218207.0,73400.0,5398.0
2026-04-09 22:38:36.373527,545923,3246266779,3246268494,-1.206336,0.001952,-0.011712,1.98625,3.85875,-1.77625,24.792002,-28.944002,40.664,concentric,7,5.0,20325.0,403431.0,218207.0,73400.0,5398.0
2026-04-09 22:38:36.375054,545924,3246275760,3246277196,-1.206336,0.001952,-0.011712,-0.69125,5.39875,-2.02125,24.792002,-28.944002,40.664,concentric,7,5.0,20325.0,403431.0,218207.0,73400.0,5398.0
2026-04-09 22:38:36.381841,545925,3246284772,3246285953,-1.202432,-0.025376,-0.056608,-1.28625,5.5825,-2.96625,24.184002,-28.808,40.824,concentric,7,5.0,20325.0,403431.0,218207.0,73400.0,5398.0
2026-04-09 22:38:36.412170,545935,3246299292,3246301019,-1.202432,-0.025376,-0.056608,0.70875,4.10375,-3.57,24.184002,-28.808,40.824,concentric,7,5.0,20206.0,403431.0,219610.0,74515.0,5713.0
2026-04-09 22:38:36.413806,545936,3246308263,3246309727,-1.198528,-0.011712,-0.023424,4.29625,3.0625,-3.2025,24.592001,-29.272001,40.992,concentric,7,5.0,20206.0,403431.0,219610.0,74515.0,5713.0
2026-04-09 22:38:36.416229,545937,3246317198,3246318465,-1.198528,-0.011712,-0.023424,7.21,2.66875,-3.465,24.592001,-29.272001,40.992,concentric,7,5.0,20206.0,403431.0,219610.0,74515.0,5713.0
2026-04-09 22:38:36.422907,545938,3246326123,3246327212,-1.204384,0.011712,0.027328,8.085,2.66875,-3.5875,23.528002,-28.912,41.808002,concentric,7,5.0,20206.0,403431.0,219610.0,74515.0,5713.0
