pc_time,serial_num,sensor_ts,host_ts,ax,ay,az,gx,gy,gz,mx,my,mz,phase,rpe,weight_kg,ppg_a,ppg_b,ppg_c,ppg_d,ppg_e
2026-04-09 22:09:33.584418,230656,1503577720,1503579589,-0.813984,-0.337696,-0.056608,1.86375,6.65,-17.07125,13.928,-0.832,12.704,eccentric,6,5.0,42942.0,355602.0,101313.0,-64.0,-124.0
2026-04-09 22:09:33.588019,230657,1503586650,1503588279,-0.9272,-0.25376,-0.216672,-7.69125,3.50875,-11.52375,14.032001,-0.736,12.392,eccentric,6,5.0,42942.0,355602.0,101313.0,-64.0,-124.0
2026-04-09 22:09:33.590277,230658,1503595591,1503596929,-0.9272,-0.25376,-0.216672,-7.455,0.28,-6.43125,14.032001,-0.736,12.392,eccentric,6,5.0,42942.0,355602.0,101313.0,-64.0,-124.0
2026-04-09 22:09:33.592795,230659,1503610183,1503611825,-0.821792,-0.144448,0.040992,4.6025,-4.8475,-5.32875,14.224001,-0.888,12.648001,eccentric,6,5.0,42942.0,355602.0,101313.0,-64.0,-124.0
2026-04-09 22:09:33.621256,230670,1503619532,1503620552,-0.821792,-0.144448,0.040992,15.435,-7.67375,-5.97625,14.224001,-0.888,12.648001,eccentric,6,5.0,42984.0,354775.0,100711.0,-71.0,-116.0
2026-04-09 22:09:33.622964,230671,1503628649,1503629332,-0.724192,-0.216672,0.066368,17.5175,-7.7525,-7.91,13.080001,-0.664,14.256001,eccentric,6,5.0,42984.0,354775.0,100711.0,-71.0,-116.0
2026-04-09 22:09:33.626651,230672,1503638016,1503640149,-0.724192,-0.216672,0.066368,9.89625,-4.69875,-4.71625,13.080001,-0.664,14.256001,eccentric,6,5.0,42984.0,354775.0,100711.0,-71.0,-116.0
2026-04-09 22:09:33.627822,230673,1503652521,1503653063,-0.999424,-0.228384,-0.128832,-4.61125,2.9225,-0.2975,13.592001,-0.792,13.608001,eccentric,6,5.0,42984.0,354775.0,100711.0,-71.0,-116.0
2026-04-09 22:09:33.631543,230674,1503662042,1503663852,-0.999424,-0.228384,-0.128832,-11.795,5.46875,5.95,13.592001,-0.792,13.608001,eccentric,6,5.0,42984.0,354775.0,100711.0,-71.0,-116.0
2026-04-09 22:09:33.663098,230675,1503671027,1503672559,-0.77104,-0.238144,-0.085888,-9.59,1.05,8.28625,13.312,-1.048,13.896001,eccentric,6,5.0,42984.0,354775.0,100711.0,-71.0,-116.0
2026-04-09 22:09:33.666610,230676,1503679974,1503681333,-0.77104,-0.238144,-0.085888,-3.1675,-3.52625,3.745,13.312,-1.048,13.896001,eccentric,6,5.0,42984.0,354775.0,100711.0,-71.0,-116.0
2026-04-09 22:09:33.669013,230677,1503694452,1503696222,-0.931104,-0.21472,-0.11712,2.905,-5.7925,3.52625,14.176001,-1.072,12.920001,eccentric,6,5.0,42984.0,354775.0,100711.0,-71.0,-116.0
2026-04-09 22:09:33.672894,230678,1503703425,1503704938,-0.931104,-0.21472,-0.11712,4.935,-6.09,8.67125,14.176001,-1.072,12.920001,eccentric,6,5.0,42984.0,354775.0,100711.0,-71.0,-116.0
2026-04-09 22:09:33.703335,230679,1503712367,1503713636,-0.9272,-0.269376,-0.113216,4.89125,-5.6,13.448751,13.632001,-1.144,14.472001,eccentric,6,5.0,42984.0,354775.0,100711.0,-71.0,-116.0
2026-04-09 22:09:33.729023,230689,1503727066,1503728681,-0.837408,-0.22448,0.089792,4.2175,-6.3525,15.53125,15.68,-1.28,12.856001,eccentric,6,5.0,42963.0,353159.0,99585.0,-92.0,-136.0
2026-04-09 22:09:33.731530,230690,1503735995,1503737436,-0.837408,-0.22448,0.089792,1.18125,-4.69875,15.88125,14.6,-1.28,12.856001,eccentric,6,5.0,42963.0,353159.0,99585.0,-92.0,-136.0
2026-04-09 22:09:33.734028,230691,1503744980,1503746117,-0.837408,-0.22448,0.089792,-3.10625,-1.9425,17.15,14.6,-1.28,12.856001,eccentric,6,5.0,42963.0,353159.0,99585.0,-92.0,-136.0
2026-04-09 22:09:33.736570,230692,1503759505,1503761037,-0.931104,-0.074176,0.003904,-7.5775,0.385,19.022501,13.776001,-1.144,15.464001,eccentric,6,5.0,42963.0,353159.0,99585.0,-92.0,-136.0
2026-04-09 22:09:33.739033,230693,1503768521,1503769738,-0.948672,-0.261568,-0.257664,-13.755,3.22875,20.34375,14.088,-0.792,14.000001,eccentric,6,5.0,42963.0,353159.0,99585.0,-92.0,-136.0
2026-04-09 22:09:33.769348,230694,1503777471,1503778442,-0.948672,-0.261568,-0.257664,-20.48375,1.89875,20.20375,14.088,-0.792,14.000001,eccentric,6,5.0,42963.0,353159.0,99585.0,-92.0,-136.0
2026-04-09 22:09:33.772905,230695,1503786411,1503787153,-0.948672,-0.261568,-0.05856,-22.82,-0.42,19.4075,14.088,-0.792,14.000001,eccentric,6,5.0,42963.0,353159.0,99585.0,-92.0,-136.0
2026-04-09 22:09:33.775330,230696,1503801500,1503802097,-0.847168,-0.378688,-0.05856,-9.8175,-2.6775,22.79375,14.888001,-1.336,12.584001,eccentric,6,5.0,42963.0,353159.0,99585.0,-92.0,-136.0
2026-04-09 22:09:33.780555,230697,1503810777,1503812912,-0.86864,-0.040992,0.05856,7.46375,-3.045,27.1425,14.864,-1.752,13.288001,eccentric,6,5.0,42963.0,353159.0,99585.0,-92.0,-136.0
2026-04-09 22:09:33.833980,230707,1503819711,1503821593,-0.86864,-0.040992,0.05856,11.50625,-1.44375,28.56875,14.864,-1.752,13.288001,eccentric,6,5.0,42873.0,351974.0,98613.0,-101.0,-137.0
2026-04-09 22:09:33.836555,230708,1503829137,1503830321,-0.923296,-0.085888,-0.197152,0.97125,-0.4025,28.18375,15.552001,-2.136,13.400001,eccentric,6,5.0,42873.0,351974.0,98613.0,-101.0,-137.0
2026-04-09 22:09:33.839053,230709,1503843619,1503845339,-0.923296,-0.085888,-0.197152,-9.59875,-1.53125,27.74625,15.552001,-2.136,13.400001,eccentric,6,5.0,42873.0,351974.0,98613.0,-101.0,-137.0
2026-04-09 22:09:33.841538,230710,1503852708,1503854080,-0.882304,-0.339648,-0.11712,-15.54,-2.91375,23.3275,15.768001,-1.96,13.288001,eccentric,6,5.0,42873.0,351974.0,98613.0,-101.0,-137.0
2026-04-09 22:09:33.844052,230711,1503861639,1503862812,-0.882304,-0.339648,-0.11712,-10.12375,-4.13875,23.02125,15.768001,-1.96,13.288001,eccentric,6,5.0,42873.0,351974.0,98613.0,-101.0,-137.0
2026-04-09 22:09:33.846585,230712,1503876167,1503877693,-0.903776,-0.093696,0.02928,1.47,-4.025,30.4675,13.936001,-1.904,15.856001,eccentric,6,5.0,42873.0,351974.0,98613.0,-101.0,-137.0
2026-04-09 22:09:33.882984,230713,1503885110,1503886426,-0.903776,-0.093696,0.02928,5.3375,-3.54375,34.3875,13.936001,-1.904,15.856001,eccentric,6,5.0,42873.0,351974.0,98613.0,-101.0,-137.0
2026-04-09 22:09:33.886641,230714,1503894031,1503895141,-0.899872,-0.023424,-0.074176,-5.5475,-2.45,33.39875,14.776001,-2.216,13.456,eccentric,6,5.0,42873.0,351974.0,98613.0,-101.0,-137.0
2026-04-09 22:09:33.888945,230715,1503908518,1503910039,-0.944768,-0.138592,-0.103456,-15.7325,0.02625,30.87,15.624001,-2.608,13.176001,eccentric,6,5.0,42873.0,351974.0,98613.0,-101.0,-137.0
2026-04-09 22:09:33.891546,230716,1503917436,1503918720,-0.944768,-0.138592,-0.103456,-16.765,2.00375,26.241251,15.624001,-2.608,13.176001,eccentric,6,5.0,42873.0,351974.0,98613.0,-101.0,-137.0
2026-04-09 22:09:33.919025,230727,1503926500,1503927609,-0.944768,-0.138592,-0.103456,-10.12375,2.03875,26.15375,15.624001,-2.608,13.176001,eccentric,6,5.0,42182.0,351279.0,97573.0,-93.0,-132.0
2026-04-09 22:09:33.921574,230728,1503935452,1503936344,-0.938912,-0.212768,-0.085888,-6.3525,0.2625,27.4575,15.904,-2.016,14.896001,eccentric,6,5.0,42182.0,351279.0,97573.0,-93.0,-132.0
2026-04-09 22:09:33.924033,230729,1503949961,1503951228,-0.970144,-0.111264,-0.13664,-5.8625,-2.24875,30.80875,15.728001,-2.52,14.712001,eccentric,6,5.0,42182.0,351279.0,97573.0,-93.0,-132.0
2026-04-09 22:09:33.926557,230730,1503958900,1503960036,-0.970144,-0.111264,-0.13664,-3.00125,-3.47375,36.015,15.728001,-2.52,14.712001,eccentric,6,5.0,42182.0,351279.0,97573.0,-93.0,-132.0
2026-04-09 22:09:33.936534,230731,1503967823,1503968752,-0.98576,-0.027328,-0.017568,2.275,-3.17625,36.49625,17.776001,-3.008,14.144001,eccentric,6,5.0,42182.0,351279.0,97573.0,-93.0,-132.0
2026-04-09 22:09:33.966841,230732,1503982312,1503983636,-0.98576,-0.027328,-0.017568,4.17375,-1.81125,33.43375,16.528,-3.008,14.144001,eccentric,6,5.0,42182.0,351279.0,97573.0,-93.0,-132.0
2026-04-09 22:09:33.970313,230733,1503991226,1503992353,-0.95648,-0.10736,-0.142496,2.905,-3.31625,31.955,16.264,-2.96,13.64,eccentric,6,5.0,42182.0,351279.0,97573.0,-93.0,-132.0
2026-04-09 22:09:33.972799,230734,1504000143,1504001081,-0.95648,-0.10736,-0.142496,2.275,-5.41625,31.42125,16.264,-2.96,13.64,eccentric,6,5.0,42182.0,351279.0,97573.0,-93.0,-132.0
2026-04-09 22:09:34.002989,230735,1504014629,1504015995,-1.061888,-0.083936,-0.02928,1.11125,-4.7775,31.54375,16.656,-3.28,14.144001,eccentric,6,5.0,42182.0,351279.0,97573.0,-93.0,-132.0
2026-04-09 22:09:34.029163,230745,1504023857,1504024781,-1.061888,-0.083936,-0.02928,6.06375,-4.31375,37.3275,16.656,-3.28,14.144001,eccentric,6,5.0,41826.0,351596.0,97476.0,-102.0,-129.0
2026-04-09 22:09:34.035334,230746,1504032822,1504033526,-0.997472,-0.02928,-0.003904,6.86875,-2.63375,37.94875,17.04,-3.392,13.992001,eccentric,6,5.0,41826.0,351596.0,97476.0,-102.0,-129.0
2026-04-09 22:09:34.037864,230747,1504042214,1504044491,-0.997472,-0.02928,-0.003904,1.365,1.8725,36.4,17.04,-3.392,13.992001,eccentric,6,5.0,41826.0,351596.0,97476.0,-102.0,-129.0
2026-04-09 22:09:34.040339,230748,1504056717,1504057362,-1.03456,0.031232,0.033184,-3.73625,7.4025,33.31125,16.296001,-3.736,14.696001,eccentric,6,5.0,41826.0,351596.0,97476.0,-102.0,-129.0
2026-04-09 22:09:34.043068,230749,1504066012,1504068156,-1.03456,0.031232,0.033184,-10.63125,9.45,31.3425,16.296001,-3.736,14.696001,eccentric,6,5.0,41826.0,351596.0,97476.0,-102.0,-129.0
2026-04-09 22:09:34.045280,230750,1504074925,1504076870,-1.251232,-0.01952,-0.238144,-20.92125,9.28375,33.43375,17.208,-3.304,13.64,eccentric,6,5.0,41826.0,351596.0,97476.0,-102.0,-129.0
2026-04-09 22:09:34.075503,230751,1504089399,1504089782,-1.036512,-0.23424,-0.300608,-22.6975,2.905,37.03,17.336,-3.952,14.288001,eccentric,6,5.0,41826.0,351596.0,97476.0,-102.0,-129.0
2026-04-09 22:09:34.079259,230752,1504098707,1504100557,-1.036512,-0.23424,-0.300608,-19.0925,-6.44875,36.4,17.336,-3.952,14.288001,eccentric,6,5.0,41826.0,351596.0,97476.0,-102.0,-129.0
2026-04-09 22:09:34.082035,230753,1504107610,1504109262,-1.036512,-0.23424,0.11712,-12.18875,-12.25,34.79,17.336,-3.952,14.288001,eccentric,6,5.0,41826.0,351596.0,97476.0,-102.0,-129.0
2026-04-09 22:09:34.092057,230754,1504116632,1504117976,-1.00528,-0.083936,0.11712,3.89375,-12.573751,37.695,17.896,-4.08,15.992001,eccentric,6,5.0,41826.0,351596.0,97476.0,-102.0,-129.0
2026-04-09 22:09:34.111655,230764,1504131433,1504133204,-1.218048,0.259616,-0.095648,16.30125,-9.17875,41.8425,17.744001,-3.96,14.128,eccentric,6,5.0,41271.0,354448.0,99119.0,-78.0,-147.0
2026-04-09 22:09:34.114151,230765,1504140373,1504141922,-1.218048,0.259616,-0.095648,12.92375,-6.825,43.35625,17.744001,-3.96,14.128,eccentric,6,5.0,41271.0,354448.0,99119.0,-78.0,-147.0
2026-04-09 22:09:34.119064,230766,1504149357,1504150635,-1.056032,-0.212768,-0.160064,-4.31375,-8.19,40.13625,18.304,-4.64,14.464001,eccentric,6,5.0,41271.0,354448.0,99119.0,-78.0,-147.0
2026-04-09 22:09:34.182279,230767,1504163828,1504165567,-1.056032,-0.212768,-0.160064,-20.895,-10.78,35.3675,18.304,-4.64,14.464001,eccentric,6,5.0,41271.0,354448.0,99119.0,-78.0,-147.0
2026-04-09 22:09:34.186434,230768,1504172751,1504174277,-1.0248,-0.031232,-0.044896,-7.37625,-13.3525,38.85875,18.584002,-4.768,14.72,eccentric,6,5.0,41271.0,354448.0,99119.0,-78.0,-147.0
2026-04-09 22:09:34.187826,230769,1504181690,1504182988,-1.0248,-0.031232,-0.044896,11.20875,-14.0175,41.02,18.584002,-4.768,14.72,eccentric,6,5.0,41271.0,354448.0,99119.0,-78.0,-147.0
2026-04-09 22:09:34.190366,230770,1504196137,1504197885,-1.260992,0.230336,-0.21472,14.48125,-13.93875,43.26,18.944,-5.136,15.152,eccentric,6,5.0,41271.0,354448.0,99119.0,-78.0,-147.0
2026-04-09 22:09:34.192808,230771,1504205037,1504206582,-1.260992,0.230336,-0.21472,11.57625,-16.79125,47.985,18.944,-5.136,15.152,eccentric,6,5.0,41271.0,354448.0,99119.0,-78.0,-147.0
2026-04-09 22:09:34.195344,230772,1504214062,1504215329,-1.040416,-0.150304,-0.02928,-1.435,-19.7925,39.48,18.976002,-4.84,15.216001,eccentric,6,5.0,41271.0,354448.0,99119.0,-78.0,-147.0
2026-04-09 22:09:34.226638,230783,1504223119,1504224091,-1.040416,-0.150304,-0.02928,-3.1675,-19.897501,34.48375,18.976002,-4.84,15.216001,eccentric,6,5.0,41358.0,355682.0,100056.0,-54.0,-132.0
2026-04-09 22:09:34.229166,230784,1504237801,1504239099,-1.10288,0.111264,0.050752,13.93,-18.4275,36.86375,17.6,-4.848,16.072,eccentric,6,5.0,41358.0,355682.0,100056.0,-54.0,-132.0
2026-04-09 22:09:34.231569,230785,1504246738,1504247819,-1.10288,0.111264,0.050752,16.73,-13.65,36.61,17.6,-4.848,16.072,eccentric,6,5.0,41358.0,355682.0,100056.0,-54.0,-132.0
2026-04-09 22:09:34.234115,230786,1504255664,1504256555,-1.087264,0.197152,0.023424,10.50875,-5.9325,37.0825,19.368,-5.264,15.152,eccentric,6,5.0,41358.0,355682.0,100056.0,-54.0,-132.0
2026-04-09 22:09:34.240396,230787,1504270178,1504271461,-1.108736,0.076128,-0.080032,-3.40375,-1.3475,34.755,19.776001,-5.232,15.480001,eccentric,6,5.0,41358.0,355682.0,100056.0,-54.0,-132.0
2026-04-09 22:09:34.270577,230788,1504279064,1504280200,-1.108736,0.076128,-0.080032,-14.7175,0.35,30.695,19.776001,-5.232,15.480001,eccentric,6,5.0,41358.0,355682.0,100056.0,-54.0,-132.0
2026-04-09 22:09:34.274333,230789,1504287986,1504288907,-1.108736,0.076128,-0.080032,-8.7325,2.1175,25.43625,19.776001,-5.232,15.480001,eccentric,6,5.0,41358.0,355682.0,100056.0,-54.0,-132.0
2026-04-09 22:09:34.276566,230790,1504302495,1504303788,-1.057984,0.132736,0.0,-1.65375,4.0075,20.4225,19.896002,-5.392,15.968,eccentric,6,5.0,41358.0,355682.0,100056.0,-54.0,-132.0
2026-04-09 22:09:34.281642,230791,1504311405,1504312484,-1.212192,0.080032,-0.18544,-5.38125,4.29625,21.65625,20.344002,-5.552,15.400001,eccentric,6,5.0,41358.0,355682.0,100056.0,-54.0,-132.0
2026-04-09 22:09:34.287852,230792,1504320363,1504321246,-1.212192,0.080032,-0.18544,-12.1975,0.805,24.045,20.344002,-5.552,15.400001,eccentric,6,5.0,41358.0,355682.0,100056.0,-54.0,-132.0
2026-04-09 22:09:34.319083,230802,1504334923,1504336336,-1.089216,-0.08784,-0.152256,-9.8525,-4.76875,25.5675,19.800001,-5.224001,17.224,eccentric,6,5.0,41078.0,356027.0,100111.0,-33.0,-135.0
2026-04-09 22:09:34.321684,230803,1504343944,1504345039,-1.089216,-0.08784,-0.152256,-4.9525,-10.28125,26.60875,19.800001,-5.224001,17.224,eccentric,6,5.0,41078.0,356027.0,100111.0,-33.0,-135.0
2026-04-09 22:09:34.324063,230804,1504352894,1504353738,-1.05408,0.064416,-0.054656,6.195,-14.9975,30.19625,20.304,-5.376,16.992,eccentric,6,5.0,41078.0,356027.0,100111.0,-33.0,-135.0
2026-04-09 22:09:34.354336,230805,1504361830,1504362429,-1.05408,0.064416,-0.054656,19.41625,-18.2875,33.83625,20.304,-5.376,16.992,eccentric,6,5.0,41078.0,356027.0,100111.0,-33.0,-135.0
2026-04-09 22:09:34.357970,230806,1504376708,1504377367,-1.266848,0.228384,-0.158112,22.8025,-21.28,35.98875,21.968,-6.016,16.560001,eccentric,6,5.0,41078.0,356027.0,100111.0,-33.0,-135.0
2026-04-09 22:09:34.360368,230807,1504385978,1504388136,-1.266848,0.228384,-0.158112,20.97375,-24.9725,38.35125,21.968,-6.016,16.560001,eccentric,6,5.0,41078.0,356027.0,100111.0,-33.0,-135.0
2026-04-09 22:09:34.365381,230808,1504394899,1504396835,-1.089216,0.080032,-0.042944,23.21375,-28.18375,37.66,21.384,-6.408001,16.504002,eccentric,6,5.0,41078.0,356027.0,100111.0,-33.0,-135.0
2026-04-09 22:09:34.395617,230809,1504409401,1504409713,-1.130208,0.07808,0.021472,25.9875,-29.19875,33.06625,21.384,-6.088,17.056002,eccentric,6,5.0,41078.0,356027.0,100111.0,-33.0,-135.0
2026-04-09 22:09:34.399106,230810,1504418581,1504420476,-1.130208,0.07808,0.021472,26.66125,-29.84625,33.075,21.288,-6.088,17.056002,eccentric,6,5.0,41078.0,356027.0,100111.0,-33.0,-135.0
2026-04-09 22:09:34.424531,230820,1504427662,1504429255,-1.130208,0.07808,0.021472,24.491251,-29.47,34.9125,21.288,-6.088,17.056002,eccentric,6,5.0,40969.0,356839.0,100681.0,-20.0,-143.0
2026-04-09 22:09:34.428676,230821,1504436673,1504438041,-1.071648,0.130784,-0.005856,18.025,-27.51875,37.03875,22.192001,-6.68,18.92,eccentric,6,5.0,40969.0,356839.0,100681.0,-20.0,-143.0
2026-04-09 22:09:34.429121,230822,1504451288,1504452948,-1.27856,0.21472,-0.093696,12.41625,-25.655,37.835,21.688002,-6.28,18.456001,eccentric,6,5.0,40969.0,356839.0,100681.0,-20.0,-143.0
2026-04-09 22:09:34.431618,230823,1504460260,1504461668,-1.27856,0.21472,-0.093696,14.533751,-25.41,41.09875,21.688002,-6.28,18.456001,eccentric,6,5.0,40969.0,356839.0,100681.0,-20.0,-143.0
2026-04-09 22:09:34.437956,230824,1504469210,1504470435,-1.27856,0.093696,0.00976,16.8,-27.27375,43.79375,21.688002,-6.28,18.456001,eccentric,6,5.0,40969.0,356839.0,100681.0,-20.0,-143.0
2026-04-09 22:09:34.480587,230825,1504483679,1504485419,-1.087264,0.093696,0.00976,14.56,-28.411251,39.095,21.752,-6.288,19.648,eccentric,6,5.0,40969.0,356839.0,100681.0,-20.0,-143.0
2026-04-09 22:09:34.484220,230826,1504492598,1504494152,-1.089216,0.199104,0.05856,20.685,-26.9675,38.57,23.112001,-6.528,18.264,eccentric,6,5.0,40969.0,356839.0,100681.0,-20.0,-143.0
2026-04-09 22:09:34.490420,230827,1504501551,1504502860,-1.089216,0.199104,0.05856,23.05625,-24.64,36.77625,23.112001,-6.528,18.264,eccentric,6,5.0,40969.0,356839.0,100681.0,-20.0,-143.0
2026-04-09 22:09:34.492874,230828,1504516049,1504517768,-1.134112,0.183488,0.021472,15.05875,-22.02375,36.505,23.456001,-6.592001,18.152,eccentric,6,5.0,40969.0,356839.0,100681.0,-20.0,-143.0
2026-04-09 22:09:34.526643,230839,1504525568,1504527139,-1.134112,0.183488,0.021472,8.435,-18.87375,37.345,23.456001,-6.592001,18.152,eccentric,6,5.0,41318.0,357933.0,101782.0,14.0,-132.0
2026-04-09 22:09:34.529289,230840,1504534790,1504535995,-1.179008,0.247904,-0.044896,10.10625,-16.31,38.605,24.032001,-6.832,19.176,eccentric,6,5.0,41318.0,357933.0,101782.0,14.0,-132.0
2026-04-09 22:09:34.531645,230841,1504543885,1504544810,-1.179008,0.247904,-0.044896,9.65125,-17.64875,39.59375,24.032001,-6.832,19.176,eccentric,6,5.0,41318.0,357933.0,101782.0,14.0,-132.0
2026-04-09 22:09:34.534126,230842,1504558446,1504559735,-1.097024,0.0976,-0.050752,2.0825,-20.37875,36.89875,23.656002,-7.528,19.480001,eccentric,6,5.0,41318.0,357933.0,101782.0,14.0,-132.0
2026-04-09 22:09:34.536675,230843,1504567415,1504568504,-1.097024,0.0976,-0.050752,3.78,-22.26875,36.91625,23.656002,-7.528,19.480001,eccentric,6,5.0,41318.0,357933.0,101782.0,14.0,-132.0
2026-04-09 22:09:34.566884,230844,1504576381,1504577289,-1.114592,0.189344,0.0,12.94125,-23.0825,37.28375,22.272001,-7.672,20.784,eccentric,6,5.0,41318.0,357933.0,101782.0,14.0,-132.0
2026-04-09 22:09:34.579710,230845,1504585287,1504586023,-1.114592,0.189344,0.0,18.54125,-22.89875,38.96375,22.272001,-7.672,20.784,eccentric,6,5.0,41318.0,357933.0,101782.0,14.0,-132.0
2026-04-09 22:09:34.582734,230846,1504600228,1504600933,-1.100928,0.27328,0.06832,19.3375,-21.62125,39.025,24.592001,-7.72,19.864,eccentric,6,5.0,41318.0,357933.0,101782.0,14.0,-132.0
2026-04-09 22:09:34.584248,230847,1504609554,1504611709,-1.100928,0.27328,0.095648,16.86125,-19.005,37.24,24.592001,-7.72,19.864,eccentric,6,5.0,41318.0,357933.0,101782.0,14.0,-132.0
2026-04-09 22:09:34.587886,230848,1504618533,1504620355,-1.100928,0.298656,0.095648,10.745,-16.52875,33.9675,24.68,-7.752,19.632002,eccentric,6,5.0,41318.0,357933.0,101782.0,14.0,-132.0
2026-04-09 22:09:34.616580,230858,1504633191,1504635326,-1.118496,0.244,-0.037088,2.31875,-15.53125,30.65125,25.368002,-7.920001,20.944,eccentric,6,5.0,41420.0,360080.0,103456.0,74.0,-142.0
2026-04-09 22:09:34.619077,230859,1504642302,1504644107,-1.118496,0.244,-0.037088,-5.0225,-16.0475,28.595,25.368002,-7.920001,20.944,eccentric,6,5.0,41420.0,360080.0,103456.0,74.0,-142.0
2026-04-09 22:09:34.621616,230860,1504651293,1504652815,-1.134112,0.193248,-0.037088,-7.805,-17.26375,26.90625,23.928001,-7.728,21.856,eccentric,6,5.0,41420.0,360080.0,103456.0,74.0,-142.0
2026-04-09 22:09:34.651761,230861,1504660272,1504661584,-1.134112,0.193248,-0.037088,-3.535,-18.5325,25.90875,23.928001,-7.728,21.856,eccentric,6,5.0,41420.0,360080.0,103456.0,74.0,-142.0
2026-04-09 22:09:34.655343,230862,1504674757,1504676503,-1.16144,0.261568,0.035136,2.835,-20.39625,25.0425,25.248001,-8.312,21.320002,eccentric,6,5.0,41420.0,360080.0,103456.0,74.0,-142.0
2026-04-09 22:09:34.658936,230863,1504683692,1504685198,-1.16144,0.261568,0.035136,7.48125,-21.98,25.095,25.248001,-8.312,21.320002,eccentric,6,5.0,41420.0,360080.0,103456.0,74.0,-142.0
2026-04-09 22:09:34.663116,230864,1504692644,1504693943,-1.175104,0.21472,0.040992,8.00625,-22.28625,23.72125,25.640001,-8.528001,22.976002,eccentric,6,5.0,41420.0,360080.0,103456.0,74.0,-142.0
2026-04-09 22:09:34.693024,230865,1504707132,1504708850,-1.175104,0.21472,0.040992,6.88625,-23.135,22.19,25.640001,-8.528001,22.976002,eccentric,6,5.0,41420.0,360080.0,103456.0,74.0,-142.0
2026-04-09 22:09:34.696601,230866,1504716067,1504717592,-1.175104,0.240096,0.003904,9.38,-24.08,20.16,26.024002,-8.752001,21.936,eccentric,6,5.0,41420.0,360080.0,103456.0,74.0,-142.0
2026-04-09 22:09:34.721659,230876,1504724976,1504726293,-1.175104,0.240096,0.003904,12.3375,-25.15625,17.29,26.024002,-8.752001,21.936,eccentric,6,5.0,41877.0,361589.0,104875.0,101.0,-124.0
2026-04-09 22:09:34.768314,230877,1504734371,1504735064,-1.20048,0.242048,0.076128,14.39375,-24.71875,15.16375,26.248001,-8.480001,22.088001,eccentric,6,5.0,41877.0,361589.0,104875.0,101.0,-124.0
2026-04-09 22:09:34.795412,230878,1504749244,1504750026,-1.20048,0.242048,0.076128,16.135,-22.995,13.43125,26.248001,-8.480001,22.088001,eccentric,6,5.0,41877.0,361589.0,104875.0,101.0,-124.0
2026-04-09 22:09:34.797882,230879,1504758743,1504760829,-1.184864,0.269376,0.15616,15.58375,-20.27375,11.917501,26.240002,-8.808001,22.2,eccentric,6,5.0,41877.0,361589.0,104875.0,101.0,-124.0
2026-04-09 22:09:34.800310,230880,1504767698,1504769534,-1.184864,0.269376,0.15616,6.9475,-16.8175,9.948751,26.240002,-8.808001,22.2,eccentric,6,5.0,41877.0,361589.0,104875.0,101.0,-124.0
2026-04-09 22:09:34.802845,230881,1504782186,1504784422,-1.198528,0.18544,0.099552,-4.69875,-13.36125,8.61,27.232,-8.824,23.096,eccentric,6,5.0,41877.0,361589.0,104875.0,101.0,-124.0
2026-04-09 22:09:34.805321,230882,1504791097,1504793112,-1.192672,0.132736,0.066368,-10.89375,-11.47125,8.60125,26.936,-8.52,23.208,eccentric,6,5.0,41877.0,361589.0,104875.0,101.0,-124.0
2026-04-09 22:09:34.807868,230883,1504800043,1504801826,-1.192672,0.132736,0.066368,-10.36875,-9.3625,9.835,26.936,-8.52,23.208,eccentric,6,5.0,41877.0,361589.0,104875.0,101.0,-124.0
2026-04-09 22:09:34.810332,230884,1504808971,1504810552,-1.192672,0.132736,0.066368,-7.7,-7.93625,11.917501,26.936,-8.52,23.208,eccentric,6,5.0,41877.0,361589.0,104875.0,101.0,-124.0
2026-04-09 22:09:34.812746,230885,1504823476,1504825471,-1.182912,0.169824,0.12688,-5.22375,-5.8625,13.15125,26.856,-8.88,22.624,eccentric,6,5.0,41877.0,361589.0,104875.0,101.0,-124.0
2026-04-09 22:09:34.840272,230896,1504832475,1504834227,-1.177056,0.238144,0.11712,-7.67375,-3.8675,14.542501,27.240002,-9.080001,22.008001,eccentric,6,5.0,41998.0,362368.0,105526.0,139.0,-140.0
2026-04-09 22:09:34.842836,230897,1504841429,1504842978,-1.177056,0.238144,0.11712,-12.7225,-1.4175,15.015,27.240002,-9.080001,22.008001,eccentric,6,5.0,41998.0,362368.0,105526.0,139.0,-140.0
2026-04-09 22:09:34.845313,230898,1504855977,1504857977,-1.182912,0.158112,0.093696,-20.09875,0.65625,14.18375,25.696001,-9.136001,24.904001,eccentric,6,5.0,41998.0,362368.0,105526.0,139.0,-140.0
2026-04-09 22:09:34.847858,230899,1504864887,1504866704,-1.182912,0.158112,0.093696,-26.76625,2.73875,14.28,25.696001,-9.136001,24.904001,eccentric,6,5.0,41998.0,362368.0,105526.0,139.0,-140.0
2026-04-09 22:09:34.850308,230900,1504873813,1504875433,-1.153632,0.130784,0.089792,-28.56,3.9725,14.9625,25.736002,-9.440001,25.080002,eccentric,6,5.0,41998.0,362368.0,105526.0,139.0,-140.0
2026-04-09 22:09:34.880451,230901,1504888316,1504890393,-1.153632,0.130784,0.089792,-25.87375,4.4275,14.44625,25.736002,-9.440001,25.080002,eccentric,6,5.0,41998.0,362368.0,105526.0,139.0,-140.0
2026-04-09 22:09:34.884038,230902,1504897222,1504899100,-1.130208,0.15616,0.05856,-21.34125,5.25875,13.93875,27.192001,-9.736,23.744001,eccentric,6,5.0,41998.0,362368.0,105526.0,139.0,-140.0
2026-04-09 22:09:34.886580,230903,1504906103,1504907790,-1.130208,0.15616,0.05856,-15.91625,5.075,13.72,27.192001,-9.736,23.744001,eccentric,6,5.0,41998.0,362368.0,105526.0,139.0,-140.0
2026-04-09 22:09:34.891590,230904,1504920579,1504922721,-1.10288,0.183488,0.070272,-12.10125,4.94375,11.585,27.384,-9.976001,23.784,eccentric,6,5.0,41998.0,362368.0,105526.0,139.0,-140.0
2026-04-09 22:09:34.916563,230914,1504929647,1504930041,-1.10288,0.183488,0.070272,-9.135,4.48875,11.3575,27.384,-9.976001,23.784,eccentric,6,5.0,41906.0,363546.0,106287.0,160.0,-142.0
2026-04-09 22:09:34.919075,230915,1504939083,1504940923,-1.0736,0.163968,0.0976,-8.91625,4.7775,10.15,27.592001,-10.064,25.864,eccentric,6,5.0,41906.0,363546.0,106287.0,160.0,-142.0
2026-04-09 22:09:34.921569,230916,1504947993,1504949635,-1.0736,0.163968,0.0976,-8.16375,4.76,9.0475,27.592001,-10.064,25.864,eccentric,6,5.0,41906.0,363546.0,106287.0,160.0,-142.0
2026-04-09 22:09:34.951728,230917,1504962482,1504964526,-1.048224,0.162016,0.089792,-5.45125,4.9875,7.7875,27.144001,-9.52,24.864,eccentric,6,5.0,41906.0,363546.0,106287.0,160.0,-142.0
2026-04-09 22:09:34.955281,230918,1504971414,1504973216,-1.048224,0.197152,0.076128,-2.905,5.985,6.195,27.144001,-9.52,24.36,eccentric,6,5.0,41906.0,363546.0,106287.0,160.0,-142.0
2026-04-09 22:09:34.957821,230919,1504980350,1504981917,-1.052128,0.197152,0.076128,-1.33875,6.8425,6.51875,27.536001,-10.168,24.36,eccentric,6,5.0,41906.0,363546.0,106287.0,160.0,-142.0
2026-04-09 22:09:34.988051,230920,1504994835,1504996853,-1.026752,0.167872,0.103456,-1.75,7.5775,6.335,26.416,-10.376,23.848001,eccentric,6,5.0,41906.0,363546.0,106287.0,160.0,-142.0
2026-04-09 22:09:34.991637,230921,1505003768,1505005523,-1.026752,0.167872,0.103456,-4.12125,8.1375,6.16,26.416,-10.376,23.848001,eccentric,6,5.0,41906.0,363546.0,106287.0,160.0,-142.0
2026-04-09 22:09:34.994146,230922,1505012712,1505014240,-1.032608,0.15616,0.111264,-6.53625,9.135,6.0725,27.184002,-10.232,24.352001,eccentric,6,5.0,41906.0,363546.0,106287.0,160.0,-142.0
2026-04-09 22:09:35.019147,230932,1505027151,1505029211,-1.032608,0.15616,0.111264,-7.62125,10.7275,6.72,27.184002,-10.232,24.352001,eccentric,6,5.0,42184.0,363273.0,106298.0,160.0,-133.0
2026-04-09 22:09:35.021683,230933,1505036711,1505038099,-1.03456,0.203008,0.08784,-7.665,12.3375,6.7375,26.456001,-11.112,24.880001,eccentric,6,5.0,42184.0,363273.0,106298.0,160.0,-133.0
2026-04-09 22:09:35.024106,230934,1505045722,1505046823,-1.03456,0.203008,0.08784,-8.855001,13.125,6.475,26.456001,-11.112,24.880001,eccentric,6,5.0,42184.0,363273.0,106298.0,160.0,-133.0
2026-04-09 22:09:35.026605,230935,1505054680,1505055550,-1.057984,0.187392,0.052704,-11.08625,14.096251,5.66125,26.224,-10.544001,25.064001,eccentric,6,5.0,42184.0,363273.0,106298.0,160.0,-133.0
2026-04-09 22:09:35.084374,230936,1505069163,1505070445,-1.057984,0.187392,0.052704,-10.61375,14.735,4.03375,26.224,-10.544001,25.064001,concentric,6,5.0,42184.0,363273.0,106298.0,160.0,-133.0
2026-04-09 22:09:35.087890,230937,1505078070,1505079173,-1.075552,0.201056,0.035136,-8.81125,15.33,2.23125,27.624,-10.144,22.984001,concentric,6,5.0,42184.0,363273.0,106298.0,160.0,-133.0
2026-04-09 22:09:35.090357,230938,1505086968,1505087857,-1.075552,0.201056,0.035136,-8.37375,15.46125,0.56875,27.624,-10.144,22.984001,concentric,6,5.0,42184.0,363273.0,106298.0,160.0,-133.0
2026-04-09 22:09:35.092830,230939,1505101444,1505102765,-1.075552,0.13664,0.023424,-8.505,15.51375,-0.81375,27.384,-10.056001,22.872002,concentric,6,5.0,42184.0,363273.0,106298.0,160.0,-133.0
2026-04-09 22:09:35.095347,230940,1505110370,1505111452,-1.075552,0.13664,0.023424,-7.58625,15.2425,-2.86125,27.384,-10.056001,22.872002,concentric,6,5.0,42184.0,363273.0,106298.0,160.0,-133.0
2026-04-09 22:09:35.097845,230941,1505119294,1505120206,-1.079456,0.187392,0.089792,-0.4375,14.77,-4.57625,27.248001,-10.480001,22.784,concentric,6,5.0,42184.0,363273.0,106298.0,160.0,-133.0
2026-04-09 22:09:35.122809,230951,1505133868,1505135364,-1.075552,0.216672,0.054656,7.805,15.28625,-6.195,27.216002,-10.064,23.176,concentric,6,5.0,42357.0,364930.0,107636.0,217.0,-140.0
2026-04-09 22:09:35.125284,230952,1505142962,1505144144,-1.075552,0.216672,0.054656,9.485,15.636251,-8.5575,27.216002,-10.064,23.176,concentric,6,5.0,42357.0,364930.0,107636.0,217.0,-140.0
2026-04-09 22:09:35.127937,230953,1505151903,1505152886,-1.075552,0.167872,0.050752,7.1575,16.765,-9.59875,27.216002,-10.064,23.176,concentric,6,5.0,42357.0,364930.0,107636.0,217.0,-140.0
2026-04-09 22:09:35.130285,230954,1505160825,1505161595,-1.095072,0.167872,0.050752,4.57625,17.57875,-11.06,27.224,-10.120001,22.12,concentric,6,5.0,42357.0,364930.0,107636.0,217.0,-140.0
2026-04-09 22:09:35.160586,230955,1505175743,1505176545,-1.079456,0.16592,0.083936,5.25,18.935,-11.13,26.288002,-10.200001,22.104002,concentric,6,5.0,42357.0,364930.0,107636.0,217.0,-140.0
2026-04-09 22:09:35.164145,230956,1505184730,1505185286,-1.079456,0.16592,0.083936,6.7725,20.36125,-11.73375,26.288002,-10.200001,22.104002,concentric,6,5.0,42357.0,364930.0,107636.0,217.0,-140.0
2026-04-09 22:09:35.166684,230957,1505193901,1505196061,-1.071648,0.201056,0.060512,7.595,21.665,-11.935,27.272001,-10.448001,22.288,concentric,6,5.0,42357.0,364930.0,107636.0,217.0,-140.0
2026-04-09 22:09:35.196811,230958,1505208417,1505208907,-1.071648,0.201056,0.060512,8.44375,21.72625,-12.32875,27.272001,-10.448001,22.288,concentric,6,5.0,42357.0,364930.0,107636.0,217.0,-140.0
2026-04-09 22:09:35.200436,230959,1505217788,1505219652,-1.085312,0.203008,0.005856,8.68875,21.74375,-12.99375,26.960001,-9.84,21.528002,concentric,6,5.0,42357.0,364930.0,107636.0,217.0,-140.0
2026-04-09 22:09:35.202881,230960,1505226704,1505228360,-1.085312,0.203008,0.005856,7.7525,21.58625,-14.4725,26.960001,-9.84,21.528002,concentric,6,5.0,42357.0,364930.0,107636.0,217.0,-140.0
2026-04-09 22:09:35.230386,230971,1505235703,1505237139,-1.08336,0.201056,0.007808,9.87875,21.5075,-16.66,26.976002,-9.768001,21.152,concentric,6,5.0,42670.0,365263.0,108002.0,204.0,-146.0
2026-04-09 22:09:35.232866,230972,1505250372,1505252061,-1.08336,0.201056,0.007808,13.86,20.78125,-18.935,26.976002,-9.768001,21.152,concentric,6,5.0,42670.0,365263.0,108002.0,204.0,-146.0
2026-04-09 22:09:35.238007,230973,1505259315,1505260762,-1.091168,0.160064,0.02928,17.0975,20.39625,-20.64125,26.736002,-9.944,21.272001,concentric,6,5.0,42670.0,365263.0,108002.0,204.0,-146.0
2026-04-09 22:09:35.240380,230974,1505268477,1505269504,-1.091168,0.160064,0.02928,20.335001,20.02875,-22.18125,26.736002,-9.944,21.272001,concentric,6,5.0,42670.0,365263.0,108002.0,204.0,-146.0
2026-04-09 22:09:35.270558,230975,1505282985,1505284431,-1.079456,0.20496,0.06832,22.96875,20.4925,-21.83125,26.568,-9.608001,21.488,concentric,6,5.0,42670.0,365263.0,108002.0,204.0,-146.0
2026-04-09 22:09:35.274148,230976,1505291933,1505293131,-1.079456,0.20496,0.06832,24.491251,21.34125,-22.2775,26.568,-9.608001,21.488,concentric,6,5.0,42670.0,365263.0,108002.0,204.0,-146.0
2026-04-09 22:09:35.276613,230977,1505300823,1505301887,-1.128256,0.210816,0.033184,23.98375,21.76125,-23.9225,25.888,-9.224,20.616001,concentric,6,5.0,42670.0,365263.0,108002.0,204.0,-146.0
2026-04-09 22:09:35.279135,230978,1505309776,1505310564,-1.128256,0.210816,0.033184,22.522501,22.75875,-25.1125,25.888,-9.224,20.616001,concentric,6,5.0,42670.0,365263.0,108002.0,204.0,-146.0
2026-04-09 22:09:35.309362,230979,1505324307,1505325539,-1.136064,0.199104,0.003904,22.86375,23.09125,-24.08,25.152,-8.768001,21.28,concentric,6,5.0,42670.0,365263.0,108002.0,204.0,-146.0
2026-04-09 22:09:35.339173,230989,1505333398,1505334347,-1.196576,0.244,0.005856,22.89,23.16125,-24.7625,25.528002,-9.440001,20.024,concentric,6,5.0,42925.0,364263.0,107259.0,152.0,-131.0
2026-04-09 22:09:35.341599,230990,1505342389,1505343041,-1.196576,0.244,0.005856,22.0325,22.89875,-26.06625,25.528002,-9.440001,20.024,concentric,6,5.0,42925.0,364263.0,107259.0,152.0,-131.0
2026-04-09 22:09:35.344228,230991,1505357294,1505357946,-1.247328,0.244,0.03904,24.491251,23.00375,-28.07,24.648,-9.296001,20.504002,concentric,6,5.0,42925.0,364263.0,107259.0,152.0,-131.0
2026-04-09 22:09:35.346619,230992,1505366581,1505368748,-1.247328,0.244,0.03904,24.885,22.81125,-29.07625,24.648,-9.296001,20.504002,concentric,6,5.0,42925.0,364263.0,107259.0,152.0,-131.0
2026-04-09 22:09:35.349294,230993,1505375535,1505377463,-1.20048,0.22448,0.00976,24.2025,23.1525,-30.19625,25.408,-8.84,18.704,concentric,6,5.0,42925.0,364263.0,107259.0,152.0,-131.0
2026-04-09 22:09:35.384835,230994,1505384467,1505386172,-1.20048,0.22448,0.00976,24.57875,22.68,-31.89375,25.408,-8.84,18.704,concentric,6,5.0,42925.0,364263.0,107259.0,152.0,-131.0
2026-04-09 22:09:35.386635,230995,1505398978,1505401062,-1.227808,0.247904,0.007808,23.91375,23.1,-33.71375,25.400002,-8.296001,18.712002,concentric,6,5.0,42925.0,364263.0,107259.0,152.0,-131.0
2026-04-09 22:09:35.389170,230996,1505407907,1505409776,-1.227808,0.247904,0.007808,25.69,22.4525,-34.3175,25.400002,-8.296001,18.712002,concentric,6,5.0,42925.0,364263.0,107259.0,152.0,-131.0
2026-04-09 22:09:35.391633,230997,1505416819,1505418465,-1.202432,0.249856,-0.017568,26.8275,21.41125,-35.23625,25.376001,-8.160001,17.632,concentric,6,5.0,42925.0,364263.0,107259.0,152.0,-131.0
2026-04-09 22:09:35.440429,231007,1505431599,1505433394,-1.202432,0.249856,-0.017568,25.82125,20.615,-35.56,25.376001,-8.160001,17.632,concentric,6,5.0,43094.0,364854.0,107669.0,144.0,-134.0
2026-04-09 22:09:35.442871,231008,1505440767,1505442163,-1.179008,0.244,0.031232,26.5125,19.52125,-36.02375,24.296001,-8.112,17.656,concentric,6,5.0,43094.0,364854.0,107669.0,144.0,-134.0
2026-04-09 22:09:35.445380,231009,1505449717,1505450914,-1.179008,0.244,0.031232,28.4025,18.375,-36.715,24.296001,-8.112,17.656,concentric,6,5.0,43094.0,364854.0,107669.0,144.0,-134.0
2026-04-09 22:09:35.447975,231010,1505464217,1505465812,-1.157536,0.269376,0.027328,29.04125,17.8325,-37.24,23.376001,-8.056001,20.048,concentric,6,5.0,43094.0,364854.0,107669.0,144.0,-134.0
2026-04-09 22:09:35.450378,231011,1505473149,1505474503,-1.157536,0.236192,-0.01952,26.4075,16.87,-37.84375,23.376001,-8.056001,20.048,concentric,6,5.0,43094.0,364854.0,107669.0,144.0,-134.0
2026-04-09 22:09:35.452927,231012,1505482114,1505483261,-1.145824,0.236192,-0.01952,24.325,15.89875,-37.975,22.776001,-7.848001,20.776001,concentric,6,5.0,43094.0,364854.0,107669.0,144.0,-134.0
2026-04-09 22:09:35.483130,231013,1505491055,1505491967,-1.145824,0.236192,-0.01952,24.71875,14.84875,-37.695,22.776001,-7.848001,20.776001,concentric,6,5.0,43094.0,364854.0,107669.0,144.0,-134.0
2026-04-09 22:09:35.486701,231014,1505505553,1505506896,-1.14192,0.281088,-0.033184,26.1625,13.85125,-37.7125,22.936,-7.344,16.784,concentric,6,5.0,43094.0,364854.0,107669.0,144.0,-134.0
2026-04-09 22:09:35.489164,231015,1505514494,1505515589,-1.130208,0.284992,0.027328,28.00875,12.67875,-37.9575,23.68,-7.072001,17.536001,concentric,6,5.0,43094.0,364854.0,107669.0,144.0,-134.0
2026-04-09 22:09:35.491610,231016,1505523378,1505524334,-1.130208,0.284992,0.027328,27.90375,12.88,-38.68375,23.68,-7.072001,17.536001,concentric,6,5.0,43094.0,364854.0,107669.0,144.0,-134.0
2026-04-09 22:09:35.547888,231027,1505537910,1505539613,-1.138016,0.275232,0.027328,26.1275,13.475,-39.3225,22.888,-6.968,16.880001,concentric,6,5.0,43250.0,363013.0,106435.0,88.0,-130.0
2026-04-09 22:09:35.550387,231028,1505546850,1505548320,-1.138016,0.275232,0.027328,23.0825,14.2625,-40.46875,22.888,-6.968,16.880001,concentric,6,5.0,43250.0,363013.0,106435.0,88.0,-130.0
2026-04-09 22:09:35.552921,231029,1505555762,1505557014,-1.159488,0.271328,-0.001952,20.51,14.7875,-42.0525,23.272001,-6.656,16.792002,concentric,6,5.0,43250.0,363013.0,106435.0,88.0,-130.0
2026-04-09 22:09:35.555420,231030,1505570270,1505571924,-1.159488,0.271328,-0.001952,19.495,15.365,-42.0525,23.272001,-6.656,16.792002,concentric,6,5.0,43250.0,363013.0,106435.0,88.0,-130.0
2026-04-09 22:09:35.557981,231031,1505579258,1505580673,-1.143872,0.27328,-0.01952,18.3925,15.9425,-41.755,21.952002,-6.480001,17.728,concentric,6,5.0,43250.0,363013.0,106435.0,88.0,-130.0
2026-04-09 22:09:35.560432,231032,1505588200,1505589387,-1.143872,0.27328,-0.01952,16.8,15.9775,-41.88625,21.952002,-6.480001,17.728,concentric,6,5.0,43250.0,363013.0,106435.0,88.0,-130.0
2026-04-09 22:09:35.590642,231033,1505602781,1505604307,-1.163392,0.290848,-0.023424,14.23625,16.02125,-42.21875,21.768002,-6.288,17.36,concentric,6,5.0,43250.0,363013.0,106435.0,88.0,-130.0
2026-04-09 22:09:35.594250,231034,1505611814,1505613043,-1.163392,0.290848,-0.023424,13.16,15.9425,-42.39375,21.768002,-6.288,17.36,concentric,6,5.0,43250.0,363013.0,106435.0,88.0,-130.0
2026-04-09 22:09:35.596588,231035,1505620709,1505621776,-1.138016,0.236192,-0.066368,11.19125,15.33,-43.86375,22.560001,-6.904,16.384,concentric,6,5.0,43250.0,363013.0,106435.0,88.0,-130.0
2026-04-09 22:09:35.599227,231036,1505629611,1505630427,-1.138016,0.236192,-0.066368,7.5075,14.72625,-44.73875,22.560001,-6.904,16.384,concentric,6,5.0,43250.0,363013.0,106435.0,88.0,-130.0
2026-04-09 22:09:35.626904,231046,1505644161,1505645374,-1.130208,0.228384,-0.050752,6.44,14.23625,-44.28375,21.728,-5.968,17.176,concentric,6,5.0,43229.0,363776.0,106988.0,90.0,-135.0
2026-04-09 22:09:35.629196,231047,1505653059,1505654194,-1.130208,0.228384,-0.050752,8.2425,12.8975,-44.49375,21.728,-5.968,17.176,concentric,6,5.0,43229.0,363776.0,106988.0,90.0,-135.0
2026-04-09 22:09:35.631625,231048,1505662033,1505662888,-1.116544,0.245952,-0.031232,8.82875,12.0925,-44.6425,21.448002,-5.176,18.832,concentric,6,5.0,43229.0,363776.0,106988.0,90.0,-135.0
2026-04-09 22:09:35.681922,231049,1505676549,1505677832,-1.085312,0.212768,-0.023424,5.41625,12.285,-43.8375,21.136002,-5.44,15.6,concentric,6,5.0,43229.0,363776.0,106988.0,90.0,-135.0
2026-04-09 22:09:35.685449,231050,1505685448,1505686542,-1.085312,0.212768,-0.023424,0.14875,13.18625,-43.09375,21.136002,-5.44,15.6,concentric,6,5.0,43229.0,363776.0,106988.0,90.0,-135.0
2026-04-09 22:09:35.691755,231051,1505694353,1505695236,-1.11264,0.242048,-0.046848,-2.23125,13.86875,-42.93625,21.136002,-5.488,15.168001,concentric,6,5.0,43229.0,363776.0,106988.0,90.0,-135.0
2026-04-09 22:09:35.695188,231052,1505708866,1505710159,-1.11264,0.242048,-0.046848,-3.38625,13.1075,-42.84,20.928001,-5.488,15.168001,concentric,6,5.0,43229.0,363776.0,106988.0,90.0,-135.0
2026-04-09 22:09:35.696682,231053,1505717764,1505718896,-1.124352,0.181536,-0.074176,-3.84125,12.8975,-42.84,21.240002,-5.464,15.480001,concentric,6,5.0,43229.0,363776.0,106988.0,90.0,-135.0
2026-04-09 22:09:35.700224,231054,1505726684,1505727618,-1.124352,0.181536,-0.074176,-6.825,11.2175,-42.77,21.240002,-5.464,15.480001,concentric,6,5.0,43229.0,363776.0,106988.0,90.0,-135.0
2026-04-09 22:09:35.724165,231064,1505735772,1505736656,-1.118496,0.240096,-0.035136,-5.18875,10.2025,-41.5625,19.552,-5.792,16.592001,concentric,6,5.0,43308.0,362193.0,106083.0,79.0,-135.0
2026-04-09 22:09:35.726660,231065,1505750270,1505751627,-1.118496,0.240096,-0.035136,-8.1025,11.22625,-40.97625,19.552,-5.792,16.592001,concentric,6,5.0,43308.0,362193.0,106083.0,79.0,-135.0
2026-04-09 22:09:35.729255,231066,1505759206,1505760336,-1.091168,0.160064,-0.023424,-16.765,11.6375,-40.6175,19.304,-5.192,17.376001,concentric,6,5.0,43308.0,362193.0,106083.0,79.0,-135.0
2026-04-09 22:09:35.759442,231067,1505768129,1505769114,-1.091168,0.160064,-0.023424,-21.63,11.3575,-41.4575,19.304,-5.192,17.376001,concentric,6,5.0,43308.0,362193.0,106083.0,79.0,-135.0
2026-04-09 22:09:35.762916,231068,1505782617,1505784019,-1.10288,0.181536,-0.089792,-20.62375,11.68125,-41.23,20.608002,-5.464,15.248001,concentric,6,5.0,43308.0,362193.0,106083.0,79.0,-135.0
2026-04-09 22:09:35.765445,231069,1505791544,1505792714,-1.10288,0.181536,-0.089792,-17.38625,11.2875,-40.0925,20.608002,-5.464,15.248001,concentric,6,5.0,43308.0,362193.0,106083.0,79.0,-135.0
2026-04-09 22:09:35.770463,231070,1505800468,1505801426,-1.08336,0.181536,-0.089792,-14.41125,10.21125,-40.34625,20.336,-4.88,14.64,concentric,6,5.0,43308.0,362193.0,106083.0,79.0,-135.0
2026-04-09 22:09:35.787934,231071,1505814953,1505816304,-1.124352,0.140544,-0.07808,-16.135,9.03,-40.18,20.336,-4.64,12.864,concentric,6,5.0,43308.0,362193.0,106083.0,79.0,-135.0
2026-04-09 22:09:35.792942,231072,1505823865,1505825006,-1.124352,0.140544,-0.07808,-16.68625,8.636251,-39.26125,19.584002,-4.64,12.864,concentric,6,5.0,43308.0,362193.0,106083.0,79.0,-135.0
2026-04-09 22:09:35.825369,231083,1505832833,1505833775,-1.124352,0.140544,-0.07808,-13.55375,8.61,-38.605,19.584002,-4.64,12.864,concentric,6,5.0,43310.0,361681.0,105781.0,61.0,-131.0
2026-04-09 22:09:35.827952,231084,1505847446,1505848754,-1.065792,0.167872,-0.046848,-10.745,8.33875,-38.5,19.832,-5.24,14.272,concentric,6,5.0,43310.0,361681.0,105781.0,61.0,-131.0
2026-04-09 22:09:35.830413,231085,1505856423,1505857488,-1.095072,0.20496,-0.050752,-6.8425,7.595,-39.17375,19.944,-5.04,14.576001,concentric,6,5.0,43310.0,361681.0,105781.0,61.0,-131.0
2026-04-09 22:09:35.834161,231086,1505865394,1505866197,-1.095072,0.20496,-0.050752,-6.44,7.49875,-39.90875,19.944,-5.04,14.576001,concentric,6,5.0,43310.0,361681.0,105781.0,61.0,-131.0
2026-04-09 22:09:35.866259,231087,1505874377,1505874906,-1.095072,0.20496,-0.050752,-9.56375,7.315,-39.6375,19.944,-5.04,14.576001,concentric,6,5.0,43310.0,361681.0,105781.0,61.0,-131.0
2026-04-09 22:09:35.867888,231088,1505889310,1505889876,-1.085312,0.111264,-0.091744,-13.405,6.69375,-39.47125,19.416,-5.096,14.280001,concentric,6,5.0,43310.0,361681.0,105781.0,61.0,-131.0
2026-04-09 22:09:35.870435,231089,1505898469,1505900667,-1.05408,0.113216,-0.076128,-14.14,6.37875,-38.14125,19.072,-5.728,14.616001,concentric,6,5.0,43310.0,361681.0,105781.0,61.0,-131.0
2026-04-09 22:09:35.900689,231090,1505907496,1505909394,-1.05408,0.113216,-0.076128,-11.99625,6.48375,-37.3625,19.072,-5.728,14.616001,concentric,6,5.0,43310.0,361681.0,105781.0,61.0,-131.0
2026-04-09 22:09:35.904207,231091,1505922014,1505924278,-1.081408,0.148352,-0.025376,-11.47125,8.225,-37.1175,18.912,-4.96,14.408001,concentric,6,5.0,43310.0,361681.0,105781.0,61.0,-131.0
2026-04-09 22:09:35.932899,231101,1505930927,1505933434,-1.081408,0.148352,-0.025376,-14.525,10.26375,-35.70875,18.912,-4.96,14.408001,concentric,6,5.0,43266.0,362072.0,105693.0,44.0,-131.0
2026-04-09 22:09:35.935428,231102,1505939918,1505942195,-1.057984,0.093696,-0.173728,-17.70125,10.45625,-34.08125,19.096,-4.736,14.256001,concentric,6,5.0,43266.0,362072.0,105693.0,44.0,-131.0
2026-04-09 22:09:35.937937,231103,1505948938,1505951051,-1.057984,0.093696,-0.173728,-19.215,9.16125,-35.13125,19.096,-4.736,14.256001,concentric,6,5.0,43266.0,362072.0,105693.0,44.0,-131.0
2026-04-09 22:09:35.941459,231104,1505963491,1505963923,-1.155584,0.05856,-0.115168,-17.78875,8.39125,-35.201252,18.232,-4.752,15.504001,concentric,6,5.0,43266.0,362072.0,105693.0,44.0,-131.0
2026-04-09 22:09:35.943199,231105,1505972922,1505974701,-1.155584,0.05856,-0.115168,-11.61125,7.9625,-30.54625,18.232,-4.752,15.504001,concentric,6,5.0,43266.0,362072.0,105693.0,44.0,-131.0
2026-04-09 22:09:35.984144,231106,1505981949,1505983411,-1.046272,0.03904,-0.101504,-8.0325,7.79625,-27.475,17.392,-5.192,15.168001,concentric,6,5.0,43266.0,362072.0,105693.0,44.0,-131.0
2026-04-09 22:09:35.986757,231107,1505996421,1505998344,-1.08336,0.109312,-0.074176,-11.83875,8.16375,-28.875,17.936,-4.92,14.56,concentric,6,5.0,43266.0,362072.0,105693.0,44.0,-131.0
2026-04-09 22:09:35.993569,231108,1506005322,1506007061,-1.08336,0.109312,-0.074176,-9.6775,8.54875,-26.53875,17.936,-4.92,14.56,concentric,6,5.0,43266.0,362072.0,105693.0,44.0,-131.0
2026-04-09 22:09:35.994992,231109,1506014232,1506015763,-1.08336,0.109312,-0.074176,-3.3075,9.14375,-27.02,17.936,-4.92,14.56,concentric,6,5.0,43266.0,362072.0,105693.0,44.0,-131.0
2026-04-09 22:09:36.000800,231110,1506028744,1506030678,-1.057984,0.091744,-0.064416,-4.935,10.64875,-27.81625,18.136002,-4.992,13.712001,concentric,6,5.0,43266.0,362072.0,105693.0,44.0,-131.0
2026-04-09 22:09:36.057998,231120,1506037810,1506039522,-1.069696,0.056608,-0.132736,-10.395,12.145,-23.1875,17.408,-5.608,15.416,concentric,6,5.0,43385.0,360614.0,104586.0,-7.0,-143.0
2026-04-09 22:09:36.060469,231121,1506046798,1506048227,-1.069696,0.056608,-0.132736,-13.06375,14.0175,-21.3325,17.408,-5.608,15.416,concentric,6,5.0,43385.0,360614.0,104586.0,-7.0,-143.0
2026-04-09 22:09:36.062979,231122,1506055837,1506056914,-1.05408,0.091744,-0.160064,-11.3225,13.877501,-22.925,17.408,-5.608,13.016001,concentric,6,5.0,43385.0,360614.0,104586.0,-7.0,-143.0
2026-04-09 22:09:36.065487,231123,1506070337,1506071813,-1.061888,0.091744,-0.160064,-8.6975,12.87125,-22.365,17.344002,-5.056,13.016001,concentric,6,5.0,43385.0,360614.0,104586.0,-7.0,-143.0
2026-04-09 22:09:36.068026,231124,1506079293,1506080556,-1.016992,-0.03904,-0.105408,-8.35625,11.45375,-22.79375,15.288001,-5.32,16.128,concentric,6,5.0,43385.0,360614.0,104586.0,-7.0,-143.0
2026-04-09 22:09:36.070458,231125,1506088275,1506089305,-1.016992,-0.03904,-0.105408,-7.4025,9.9925,-22.925,15.288001,-5.32,16.128,concentric,6,5.0,43385.0,360614.0,104586.0,-7.0,-143.0
2026-04-09 22:09:36.072907,231126,1506102799,1506104284,-1.003328,0.070272,-0.099552,-0.4725,9.1875,-18.13,15.432001,-5.168,16.176,concentric,6,5.0,43385.0,360614.0,104586.0,-7.0,-143.0
2026-04-09 22:09:36.103435,231127,1506111748,1506113008,-1.003328,0.070272,-0.099552,2.87,8.7325,-15.68,15.432001,-5.168,16.176,concentric,6,5.0,43385.0,360614.0,104586.0,-7.0,-143.0
2026-04-09 22:09:36.106736,231128,1506120649,1506121743,-1.020896,0.035136,-0.113216,0.30625,9.28375,-14.63,15.424001,-5.112001,13.224001,concentric,6,5.0,43385.0,360614.0,104586.0,-7.0,-143.0
2026-04-09 22:09:36.140529,231139,1506135368,1506136723,-1.020896,0.035136,-0.113216,-0.13125,9.065,-13.4925,15.424001,-5.112001,13.224001,concentric,6,5.0,43650.0,358105.0,103043.0,-39.0,-138.0
2026-04-09 22:09:36.142939,231140,1506144396,1506145484,-0.989664,-0.00976,-0.128832,1.82,8.00625,-14.07875,16.856,-5.152,13.736001,concentric,6,5.0,43650.0,358105.0,103043.0,-39.0,-138.0
2026-04-09 22:09:36.145513,231141,1506153356,1506154312,-0.989664,-0.00976,-0.128832,3.07125,6.3875,-15.32125,16.856,-5.152,13.736001,concentric,6,5.0,43650.0,358105.0,103043.0,-39.0,-138.0
2026-04-09 22:09:36.148032,231142,1506162296,1506163090,-0.983808,-0.00976,-0.06832,1.56625,6.16875,-13.18625,16.640001,-5.168,13.488001,concentric,6,5.0,43650.0,358105.0,103043.0,-39.0,-138.0
2026-04-09 22:09:36.150379,231143,1506177309,1506178063,-0.997472,0.062464,-0.160064,3.745,6.37875,-9.4675,15.448001,-5.304,15.6,concentric,6,5.0,43650.0,358105.0,103043.0,-39.0,-138.0
2026-04-09 22:09:36.181213,231144,1506186702,1506188833,-0.997472,0.062464,-0.160064,4.66375,4.57625,-8.05875,15.448001,-5.304,15.6,concentric,6,5.0,43650.0,358105.0,103043.0,-39.0,-138.0
2026-04-09 22:09:36.184293,231145,1506195696,1506197583,-0.997472,0.062464,-0.081984,3.63125,2.10875,-9.87,15.448001,-5.304,15.6,concentric,6,5.0,43650.0,358105.0,103043.0,-39.0,-138.0
2026-04-09 22:09:36.187604,231146,1506204715,1506206302,-0.89792,-0.072224,-0.080032,4.76,-0.21875,-14.35875,16.608002,-5.456,13.632001,concentric,6,5.0,43650.0,358105.0,103043.0,-39.0,-138.0
2026-04-09 22:09:36.189133,231147,1506219245,1506221192,-0.851072,0.001952,-0.021472,6.7375,0.30625,-12.1275,16.808,-5.048,13.480001,concentric,6,5.0,43650.0,358105.0,103043.0,-39.0,-138.0
2026-04-09 22:09:36.219419,231148,1506228178,1506229893,-0.851072,0.001952,-0.021472,8.91625,0.8225,-9.28375,16.808,-5.048,13.480001,concentric,6,5.0,43650.0,358105.0,103043.0,-39.0,-138.0
2026-04-09 22:09:36.249203,231158,1506237633,1506238951,-0.938912,0.05856,-0.167872,4.92625,2.28375,-9.292501,16.872002,-5.136,13.072001,concentric,6,5.0,43984.0,354419.0,100799.0,-83.0,-126.0
2026-04-09 22:09:36.284432,231159,1506252188,1506253892,-0.938912,0.05856,-0.167872,2.73875,2.05625,-8.89,16.872002,-5.136,13.072001,concentric,6,5.0,43984.0,354419.0,100799.0,-83.0,-126.0
2026-04-09 22:09:36.287933,231160,1506261100,1506262680,-0.79056,-0.060512,-0.06832,2.98375,1.12,-10.14125,16.568,-5.464,12.896001,concentric,6,5.0,43984.0,354419.0,100799.0,-83.0,-126.0
2026-04-09 22:09:36.290432,231161,1506270068,1506271419,-0.79056,-0.060512,-0.06832,1.4175,1.3825,-14.81375,16.568,-5.464,12.896001,concentric,6,5.0,43984.0,354419.0,100799.0,-83.0,-126.0
2026-04-09 22:09:36.292915,231162,1506279044,1506280167,-0.860832,-0.091744,-0.037088,-2.61625,2.555,-13.43125,15.400001,-5.376,14.608001,concentric,6,5.0,43984.0,354419.0,100799.0,-83.0,-126.0
2026-04-09 22:09:36.295504,231163,1506293554,1506295114,-0.860832,-0.091744,-0.037088,-0.63875,3.49125,-7.42,15.400001,-5.376,14.608001,concentric,6,5.0,43984.0,354419.0,100799.0,-83.0,-126.0
2026-04-09 22:09:36.297942,231164,1506302499,1506303833,-0.901824,0.07808,-0.25376,5.5825,-0.6825,-1.81125,16.168001,-5.68,13.392,concentric,6,5.0,43984.0,354419.0,100799.0,-83.0,-126.0
2026-04-09 22:09:36.300413,231165,1506311409,1506312521,-0.901824,0.07808,-0.25376,7.3325,-6.8425,-3.29,16.168001,-5.68,13.392,concentric,6,5.0,43984.0,354419.0,100799.0,-83.0,-126.0
2026-04-09 22:09:36.302952,231166,1506325889,1506327408,-0.823744,-0.08784,-0.062464,2.24875,-11.2525,-9.02125,16.056002,-5.216,13.320001,concentric,6,5.0,43984.0,354419.0,100799.0,-83.0,-126.0
2026-04-09 22:09:36.327941,231176,1506334846,1506336320,-0.823744,-0.08784,-0.062464,-1.1375,-12.25875,-11.9525,16.056002,-5.216,13.320001,concentric,6,5.0,44223.0,351257.0,98879.0,-118.0,-120.0
2026-04-09 22:09:36.330432,231177,1506344242,1506345323,-0.872544,-0.00976,-0.001952,2.24,-10.7625,-9.66875,16.216002,-5.536,13.832001,concentric,6,5.0,44223.0,351257.0,98879.0,-118.0,-120.0
2026-04-09 22:09:36.332926,231178,1506358821,1506360338,-0.933056,-0.062464,-0.20496,4.7775,-8.72375,-7.41125,16.496,-5.16,13.576,concentric,6,5.0,44223.0,351257.0,98879.0,-118.0,-120.0
2026-04-09 22:09:36.337953,231179,1506367793,1506369051,-0.933056,-0.062464,-0.20496,4.515,-10.15,-5.8975,16.496,-5.16,13.576,concentric,6,5.0,44223.0,351257.0,98879.0,-118.0,-120.0
2026-04-09 22:09:36.368205,231180,1506376703,1506377785,-0.933056,-0.062464,-0.025376,7.11375,-11.75125,-6.67625,16.496,-5.16,13.576,concentric,6,5.0,44223.0,351257.0,98879.0,-118.0,-120.0
2026-04-09 22:09:36.371825,231181,1506385629,1506386519,-0.958432,-0.056608,-0.025376,15.645,-13.02,-6.02875,16.632,-5.408001,12.824,concentric,6,5.0,44223.0,351257.0,98879.0,-118.0,-120.0
2026-04-09 22:09:36.374229,231182,1506400404,1506401447,-0.894016,0.00976,0.060512,24.63125,-13.13375,-4.445,16.36,-5.256,13.360001,concentric,6,5.0,44223.0,351257.0,98879.0,-118.0,-120.0
2026-04-09 22:09:36.379257,231183,1506409475,1506410670,-0.894016,0.00976,0.060512,21.88375,-11.042501,-5.355,16.36,-5.256,13.360001,concentric,6,5.0,44223.0,351257.0,98879.0,-118.0,-120.0
