pc_time,serial_num,sensor_ts,host_ts,ax,ay,az,gx,gy,gz,mx,my,mz,phase,rpe,weight_kg,ppg_a,ppg_b,ppg_c,ppg_d,ppg_e
2026-04-09 21:58:38.803169,113591,848850565,848851374,0.8784,-0.37088,0.03904,13.0025,13.93,-18.55,-27.376001,12.576,14.936001,eccentric,5,3.0,35968.0,383901.0,111277.0,1310.0,-141.0
2026-04-09 21:58:38.805674,113592,848865248,848866382,0.8784,-0.37088,0.03904,15.53125,14.25375,-18.66375,-27.376001,12.576,14.936001,eccentric,5,3.0,35968.0,383901.0,111277.0,1310.0,-141.0
2026-04-09 21:58:38.808207,113593,848874207,848875106,0.89792,-0.35136,0.035136,17.0625,14.23625,-18.6025,-27.792002,12.448001,15.304001,eccentric,5,3.0,35968.0,383901.0,111277.0,1310.0,-141.0
2026-04-09 21:58:38.810635,113594,848883257,848883857,0.89792,-0.35136,0.035136,16.9925,14.23625,-17.59625,-27.792002,12.448001,15.304001,eccentric,5,3.0,35968.0,383901.0,111277.0,1310.0,-141.0
2026-04-09 21:58:38.816997,113595,848892469,848894665,0.921344,-0.366976,0.052704,15.56625,13.85125,-16.49375,-27.304,12.368001,15.808001,eccentric,5,3.0,35968.0,383901.0,111277.0,1310.0,-141.0
2026-04-09 21:58:38.847202,113596,848906969,848907566,0.921344,-0.366976,0.052704,15.645,12.9325,-15.51375,-27.304,12.368001,15.808001,eccentric,5,3.0,35968.0,383901.0,111277.0,1310.0,-141.0
2026-04-09 21:58:38.850718,113597,848916296,848918338,0.960384,-0.347456,0.044896,15.61875,11.76,-14.9975,-27.688002,12.432,18.288,eccentric,5,3.0,35968.0,383901.0,111277.0,1310.0,-141.0
2026-04-09 21:58:38.853162,113598,848925194,848927030,0.960384,-0.347456,0.044896,13.9125,10.465,-14.1925,-27.688002,12.432,18.288,eccentric,5,3.0,35968.0,383901.0,111277.0,1310.0,-141.0
2026-04-09 21:58:38.884662,113599,848939733,848941925,0.976,-0.392352,0.081984,12.41625,9.35375,-12.97625,-27.496002,12.408001,15.672001,eccentric,5,3.0,35968.0,383901.0,111277.0,1310.0,-141.0
2026-04-09 21:58:38.888308,113600,848948687,848950658,0.96624,-0.378688,0.081984,13.69375,8.12,-11.4625,-27.496002,12.408001,17.048,eccentric,5,3.0,35968.0,383901.0,111277.0,1310.0,-141.0
2026-04-09 21:58:38.913202,113610,848957618,848959446,0.96624,-0.378688,0.081984,15.30375,7.665,-10.5875,-27.512001,12.728001,17.048,eccentric,5,3.0,35987.0,384034.0,111448.0,1337.0,-151.0
2026-04-09 21:58:38.915772,113611,848966518,848968142,0.96624,-0.378688,0.081984,16.345,7.3675,-9.66,-27.512001,12.728001,17.048,eccentric,5,3.0,35987.0,384034.0,111448.0,1337.0,-151.0
2026-04-09 21:58:38.918154,113612,848981165,848983081,0.935008,-0.368928,0.101504,15.07625,6.50125,-8.3475,-27.136002,13.040001,16.240002,eccentric,5,3.0,35987.0,384034.0,111448.0,1337.0,-151.0
2026-04-09 21:58:38.920708,113613,848990084,848991784,0.929152,-0.3416,0.08784,14.07,5.71375,-7.49875,-27.712002,12.240001,15.696001,eccentric,5,3.0,35987.0,384034.0,111448.0,1337.0,-151.0
2026-04-09 21:58:38.923122,113614,848999051,849000578,0.929152,-0.3416,0.08784,12.565,5.0225,-6.90375,-27.712002,12.240001,15.696001,eccentric,5,3.0,35987.0,384034.0,111448.0,1337.0,-151.0
2026-04-09 21:58:38.954123,113615,849013565,849015511,0.909632,-0.374784,0.124928,10.89375,5.08375,-5.46875,-27.384,12.512001,16.6,eccentric,5,3.0,35987.0,384034.0,111448.0,1337.0,-151.0
2026-04-09 21:58:38.958036,113616,849022484,849024195,0.909632,-0.374784,0.124928,11.55875,4.2,-4.05125,-27.384,12.512001,16.6,eccentric,5,3.0,35987.0,384034.0,111448.0,1337.0,-151.0
2026-04-09 21:58:38.959437,113617,849031390,849032876,0.890112,-0.357216,0.130784,11.80375,3.91125,-2.26625,-27.056002,12.568001,16.728,eccentric,5,3.0,35987.0,384034.0,111448.0,1337.0,-151.0
2026-04-09 21:58:38.989734,113618,849045877,849047834,0.890112,-0.357216,0.130784,11.57625,3.78875,-2.80875,-27.056002,12.568001,16.728,eccentric,5,3.0,35987.0,384034.0,111448.0,1337.0,-151.0
2026-04-09 21:58:39.018074,113629,849055298,849056572,0.866688,-0.349408,0.13664,11.3225,3.0275,-2.7475,-27.424002,12.728001,16.416,eccentric,5,3.0,35845.0,383137.0,110632.0,1252.0,-152.0
2026-04-09 21:58:39.020687,113630,849064203,849065292,0.866688,-0.349408,0.13664,8.61875,2.52,-2.30125,-27.424002,12.728001,16.416,eccentric,5,3.0,35845.0,383137.0,110632.0,1252.0,-152.0
2026-04-09 21:58:39.023224,113631,849073104,849073978,0.853024,-0.324032,0.12688,6.25625,1.2775,-1.72375,-26.920002,12.880001,16.416,eccentric,5,3.0,35845.0,383137.0,110632.0,1252.0,-152.0
2026-04-09 21:58:39.025722,113632,849087630,849088897,0.853024,-0.324032,0.12688,1.6275,0.14875,-0.51625,-26.920002,12.880001,16.416,eccentric,5,3.0,35845.0,383137.0,110632.0,1252.0,-152.0
2026-04-09 21:58:39.028182,113633,849096566,849097625,0.853024,-0.3416,0.138592,-2.68625,-0.35,0.07875,-27.176,12.888001,16.352001,eccentric,5,3.0,35845.0,383137.0,110632.0,1252.0,-152.0
2026-04-09 21:58:39.032110,113634,849105473,849106366,0.853024,-0.3416,0.138592,-4.62,-2.12625,-0.32375,-27.176,12.888001,16.352001,eccentric,5,3.0,35845.0,383137.0,110632.0,1252.0,-152.0
2026-04-09 21:58:39.062209,113635,849119987,849121282,0.862784,-0.357216,0.128832,-5.55625,-3.36,-0.9275,-27.096,12.648001,16.272001,eccentric,5,3.0,35845.0,383137.0,110632.0,1252.0,-152.0
2026-04-09 21:58:39.065732,113636,849128912,849130030,0.862784,-0.404064,0.158112,-4.75125,-5.32,-1.4875,-27.096,12.648001,16.272001,eccentric,5,3.0,35845.0,383137.0,110632.0,1252.0,-152.0
2026-04-09 21:58:39.068196,113637,849137772,849138749,0.874496,-0.394304,0.158112,-7.48125,-6.44875,-1.05,-25.856,12.84,15.712001,eccentric,5,3.0,35845.0,383137.0,110632.0,1252.0,-152.0
2026-04-09 21:58:39.095696,113647,849152581,849153687,0.886208,-0.347456,0.152256,-8.02375,-7.2625,-0.28875,-26.584002,12.632001,17.248001,eccentric,5,3.0,35862.0,385580.0,112227.0,1427.0,-148.0
2026-04-09 21:58:39.098201,113648,849161593,849162663,0.886208,-0.347456,0.152256,-9.44125,-7.69125,0.70875,-26.584002,12.632001,17.248001,eccentric,5,3.0,35862.0,385580.0,112227.0,1427.0,-148.0
2026-04-09 21:58:39.100695,113649,849170510,849171363,0.899872,-0.365024,0.115168,-10.7975,-8.0675,-0.28,-27.032001,13.184001,16.928001,eccentric,5,3.0,35862.0,385580.0,112227.0,1427.0,-148.0
2026-04-09 21:58:39.107446,113650,849179476,849180132,0.899872,-0.365024,0.115168,-7.7525,-9.80875,-1.505,-27.032001,13.184001,16.928001,eccentric,5,3.0,35862.0,385580.0,112227.0,1427.0,-148.0
2026-04-09 21:58:39.137206,113651,849194315,849195102,0.899872,-0.404064,0.148352,-0.8225,-11.261251,-2.79125,-27.112001,12.768001,15.896001,eccentric,5,3.0,35862.0,385580.0,112227.0,1427.0,-148.0
2026-04-09 21:58:39.140741,113652,849203210,849203846,0.899872,-0.404064,0.148352,5.60875,-12.92375,-2.905,-27.112001,12.768001,15.896001,eccentric,5,3.0,35862.0,385580.0,112227.0,1427.0,-148.0
2026-04-09 21:58:39.143202,113653,849212455,849214602,0.89792,-0.384544,0.1464,2.00375,-13.825,-1.6625,-26.088001,12.736001,15.864,eccentric,5,3.0,35862.0,385580.0,112227.0,1427.0,-148.0
2026-04-09 21:58:39.149458,113654,849226965,849227442,0.89792,-0.384544,0.1464,-3.91125,-14.105001,-1.93375,-26.088001,12.736001,15.864,eccentric,5,3.0,35862.0,385580.0,112227.0,1427.0,-148.0
2026-04-09 21:58:39.180600,113655,849236338,849238201,0.899872,-0.355264,0.148352,-4.3225,-13.16875,-2.24875,-25.848001,13.168,16.096,eccentric,5,3.0,35862.0,385580.0,112227.0,1427.0,-148.0
2026-04-09 21:58:39.183032,113656,849245264,849246911,0.899872,-0.355264,0.148352,-5.18,-12.8275,-3.255,-25.848001,13.168,16.096,eccentric,5,3.0,35862.0,385580.0,112227.0,1427.0,-148.0
2026-04-09 21:58:39.208269,113666,849254859,849255692,0.905728,-0.363072,0.128832,-2.07375,-12.1625,-5.075,-25.944002,13.080001,15.672001,eccentric,5,3.0,35853.0,386204.0,112702.0,1503.0,-136.0
2026-04-09 21:58:39.211692,113667,849269978,849270673,0.89792,-0.337696,0.144448,1.1725,-12.985,-6.02,-25.944002,12.8,16.616001,eccentric,5,3.0,35853.0,386204.0,112702.0,1503.0,-136.0
2026-04-09 21:58:39.213201,113668,849279286,849281482,0.89792,-0.337696,0.144448,4.01625,-13.36125,-6.0725,-26.256,12.8,16.616001,eccentric,5,3.0,35853.0,386204.0,112702.0,1503.0,-136.0
2026-04-09 21:58:39.215658,113669,849288223,849290219,0.89792,-0.337696,0.144448,-0.7,-12.915,-5.46875,-26.256,12.8,16.616001,eccentric,5,3.0,35853.0,386204.0,112702.0,1503.0,-136.0
2026-04-09 21:58:39.220722,113670,849297172,849298944,0.882304,-0.349408,0.122976,-6.1775,-13.06375,-4.92625,-26.208002,12.912001,17.312,eccentric,5,3.0,35853.0,386204.0,112702.0,1503.0,-136.0
2026-04-09 21:58:39.253442,113671,849311707,849313826,0.874496,-0.275232,0.101504,-7.49875,-13.39625,-5.15375,-25.536001,12.824,14.808001,eccentric,5,3.0,35853.0,386204.0,112702.0,1503.0,-136.0
2026-04-09 21:58:39.257041,113672,849320619,849322568,0.874496,-0.275232,0.101504,-8.4875,-13.1075,-5.635,-25.536001,12.824,14.808001,eccentric,5,3.0,35853.0,386204.0,112702.0,1503.0,-136.0
2026-04-09 21:58:39.263197,113673,849329537,849331278,0.874496,-0.275232,0.085888,-11.3575,-12.565,-6.8075,-25.536001,12.824,14.808001,eccentric,5,3.0,35853.0,386204.0,112702.0,1503.0,-136.0
2026-04-09 21:58:39.268215,113674,849344056,849346176,0.872544,-0.333792,0.085888,-9.9925,-12.78375,-7.7175,-25.248001,12.536,14.328001,eccentric,5,3.0,35853.0,386204.0,112702.0,1503.0,-136.0
2026-04-09 21:58:39.299434,113685,849352980,849354921,0.860832,-0.333792,0.0976,-5.9675,-13.405,-8.7325,-26.032001,12.768001,15.352001,eccentric,5,3.0,35880.0,385968.0,112530.0,1457.0,-152.0
2026-04-09 21:58:39.301943,113686,849362408,849363716,0.860832,-0.333792,0.0976,-6.01125,-13.20375,-9.87875,-26.032001,12.768001,15.352001,eccentric,5,3.0,35880.0,385968.0,112530.0,1457.0,-152.0
2026-04-09 21:58:39.304429,113687,849371412,849372494,0.862784,-0.333792,0.042944,-7.63875,-12.67875,-9.59,-25.232,11.944,16.128,eccentric,5,3.0,35880.0,385968.0,112530.0,1457.0,-152.0
2026-04-09 21:58:39.309444,113688,849385920,849387400,0.862784,-0.333792,0.042944,-8.44375,-12.11,-8.96,-25.232,11.944,16.128,eccentric,5,3.0,35880.0,385968.0,112530.0,1457.0,-152.0
2026-04-09 21:58:39.363378,113689,849394888,849396098,0.872544,-0.294752,0.056608,-8.74125,-11.4275,-7.91,-24.648,12.488001,14.432001,eccentric,5,3.0,35880.0,385968.0,112530.0,1457.0,-152.0
2026-04-09 21:58:39.366964,113690,849403820,849404784,0.872544,-0.294752,0.056608,-8.07625,-10.64875,-7.90125,-24.648,12.488001,14.432001,eccentric,5,3.0,35880.0,385968.0,112530.0,1457.0,-152.0
2026-04-09 21:58:39.369519,113691,849418309,849419740,0.872544,-0.32208,0.042944,-6.9125,-9.073751,-8.68875,-24.344002,12.136001,14.824,eccentric,5,3.0,35880.0,385968.0,112530.0,1457.0,-152.0
2026-04-09 21:58:39.371931,113692,849428136,849428789,0.872544,-0.32208,0.042944,-5.88875,-9.02125,-9.31,-24.344002,12.136001,14.824,eccentric,5,3.0,35880.0,385968.0,112530.0,1457.0,-152.0
2026-04-09 21:58:39.374472,113693,849437402,849439601,0.88816,-0.298656,0.01952,-3.7275,-9.23125,-10.5875,-24.36,12.584001,15.720001,eccentric,5,3.0,35880.0,385968.0,112530.0,1457.0,-152.0
2026-04-09 21:58:39.376973,113694,849446344,849448316,0.88816,-0.298656,0.01952,-2.4325,-8.86375,-9.77375,-24.36,12.584001,15.720001,eccentric,5,3.0,35880.0,385968.0,112530.0,1457.0,-152.0
2026-04-09 21:58:39.405669,113704,849460923,849461296,0.84912,-0.347456,0.080032,-3.08875,-8.0675,-8.0325,-24.840002,12.392,16.008001,eccentric,5,3.0,35946.0,386526.0,112944.0,1519.0,-144.0
2026-04-09 21:58:39.408158,113705,849470200,849472061,0.84912,-0.347456,0.017568,0.32375,-7.13125,-7.07,-24.840002,12.392,16.008001,eccentric,5,3.0,35946.0,386526.0,112944.0,1519.0,-144.0
2026-04-09 21:58:39.410656,113706,849479278,849480833,0.835456,-0.251808,0.017568,2.37125,-6.04625,-6.825,-24.168001,12.136001,15.312,eccentric,5,3.0,35946.0,386526.0,112944.0,1519.0,-144.0
2026-04-09 21:58:39.413100,113707,849488266,849489588,0.835456,-0.251808,0.017568,-1.2775,-4.69,-7.77875,-24.168001,12.136001,15.312,eccentric,5,3.0,35946.0,386526.0,112944.0,1519.0,-144.0
2026-04-09 21:58:39.444370,113708,849502793,849504508,0.851072,-0.27328,-0.027328,-1.98625,-4.83875,-10.535,-24.896002,12.272,15.64,eccentric,5,3.0,35946.0,386526.0,112944.0,1519.0,-144.0
2026-04-09 21:58:39.446596,113709,849511728,849513196,0.854976,-0.2928,0.03904,-1.19,-6.44,-13.30875,-24.048,12.424001,15.632001,eccentric,5,3.0,35946.0,386526.0,112944.0,1519.0,-144.0
2026-04-09 21:58:39.451224,113710,849520677,849521927,0.854976,-0.2928,0.03904,-0.49875,-6.755,-13.78125,-24.048,12.424001,15.632001,eccentric,5,3.0,35946.0,386526.0,112944.0,1519.0,-144.0
2026-04-09 21:58:39.479559,113711,849535212,849536913,0.812032,-0.314272,0.042944,0.30625,-6.27375,-12.792501,-24.496,12.152,15.872001,eccentric,5,3.0,35946.0,386526.0,112944.0,1519.0,-144.0
2026-04-09 21:58:39.484177,113712,849544139,849545606,0.812032,-0.314272,0.042944,-2.10875,-4.585,-11.4975,-24.496,12.152,15.872001,eccentric,5,3.0,35946.0,386526.0,112944.0,1519.0,-144.0
2026-04-09 21:58:39.485693,113713,849553094,849554322,0.80032,-0.226432,-0.033184,-1.365,-2.98375,-10.80625,-23.952002,12.056001,14.696001,eccentric,5,3.0,35946.0,386526.0,112944.0,1519.0,-144.0
2026-04-09 21:58:39.516203,113723,849567768,849569320,0.80032,-0.226432,-0.033184,-1.54,-2.1875,-12.635,-23.952002,12.056001,14.696001,eccentric,5,3.0,35864.0,386285.0,112707.0,1493.0,-146.0
2026-04-09 21:58:39.517961,113724,849576757,849578060,0.835456,-0.286944,-0.040992,-1.645,-2.79125,-15.18125,-23.672,12.016001,14.856001,eccentric,5,3.0,35864.0,386285.0,112707.0,1493.0,-146.0
2026-04-09 21:58:39.519462,113725,849585711,849586831,0.835456,-0.286944,-0.040992,3.4475,-4.83875,-17.35125,-23.672,12.016001,14.856001,eccentric,5,3.0,35864.0,386285.0,112707.0,1493.0,-146.0
2026-04-09 21:58:39.524836,113726,849600251,849601788,0.813984,-0.2928,0.066368,8.51375,-5.36375,-17.78,-24.560001,11.76,15.800001,eccentric,5,3.0,35864.0,386285.0,112707.0,1493.0,-146.0
2026-04-09 21:58:39.553359,113727,849609248,849610518,0.813984,-0.2928,0.066368,8.9775,-4.76,-17.10625,-24.560001,11.76,15.800001,eccentric,5,3.0,35864.0,386285.0,112707.0,1493.0,-146.0
2026-04-09 21:58:39.557014,113728,849618166,849619262,0.786656,-0.265472,0.007808,5.43375,-3.87625,-16.65125,-23.160002,11.936001,13.68,eccentric,5,3.0,35864.0,386285.0,112707.0,1493.0,-146.0
2026-04-09 21:58:39.559484,113729,849627080,849627983,0.786656,-0.265472,0.007808,2.59875,-2.6075,-16.178751,-23.160002,11.936001,13.68,eccentric,5,3.0,35864.0,386285.0,112707.0,1493.0,-146.0
2026-04-09 21:58:39.564451,113730,849641576,849642927,0.794464,-0.259616,-0.054656,2.0825,-1.75,-17.03625,-23.136002,11.960001,15.032001,eccentric,5,3.0,35864.0,386285.0,112707.0,1493.0,-146.0
2026-04-09 21:58:39.596953,113731,849650545,849651659,0.794464,-0.259616,-0.054656,3.99,-3.045,-19.215,-23.136002,11.960001,15.032001,eccentric,5,3.0,35864.0,386285.0,112707.0,1493.0,-146.0
2026-04-09 21:58:39.624419,113742,849659633,849660387,0.81008,-0.269376,0.025376,9.345,-3.70125,-21.00875,-23.768002,12.016001,16.008001,eccentric,5,3.0,35768.0,384956.0,111728.0,1372.0,-159.0
2026-04-09 21:58:39.626950,113743,849674619,849675331,0.823744,-0.269376,0.040992,13.011251,-3.01,-22.8025,-23.36,12.240001,15.024001,eccentric,5,3.0,35768.0,384956.0,111728.0,1372.0,-159.0
2026-04-09 21:58:39.629416,113744,849684035,849686230,0.823744,-0.269376,0.040992,12.41625,-1.5925,-23.1875,-23.36,12.240001,15.024001,eccentric,5,3.0,35768.0,384956.0,111728.0,1372.0,-159.0
2026-04-09 21:58:39.635739,113745,849693067,849694992,0.837408,-0.281088,-0.025376,7.67375,0.48125,-22.015,-24.688002,11.848001,16.696001,eccentric,5,3.0,35768.0,384956.0,111728.0,1372.0,-159.0
2026-04-09 21:58:39.638185,113746,849702013,849703701,0.837408,-0.281088,-0.025376,6.9125,1.2775,-20.60625,-24.688002,11.848001,16.696001,eccentric,5,3.0,35768.0,384956.0,111728.0,1372.0,-159.0
2026-04-09 21:58:39.640731,113747,849716520,849718611,0.813984,-0.191296,0.00976,7.875,0.93625,-20.43125,-24.728,11.792001,16.392,eccentric,5,3.0,35768.0,384956.0,111728.0,1372.0,-159.0
2026-04-09 21:58:39.671184,113748,849725478,849727374,0.813984,-0.191296,0.00976,12.285,1.085,-19.7225,-24.728,11.792001,16.392,eccentric,5,3.0,35768.0,384956.0,111728.0,1372.0,-159.0
2026-04-09 21:58:39.674903,113749,849734387,849736064,0.808128,-0.28304,0.044896,15.23375,1.5925,-22.925,-23.712002,11.488001,15.976001,eccentric,5,3.0,35768.0,384956.0,111728.0,1372.0,-159.0
2026-04-09 21:58:39.678277,113750,849748873,849750968,0.808128,-0.28304,0.044896,16.72125,2.12625,-24.38625,-23.712002,11.488001,15.976001,eccentric,5,3.0,35768.0,384956.0,111728.0,1372.0,-159.0
2026-04-09 21:58:39.715833,113760,849758012,849759697,0.81008,-0.275232,-0.00976,15.8725,2.84375,-22.72375,-24.112001,11.408001,16.024,eccentric,5,3.0,35800.0,386791.0,112977.0,1546.0,-144.0
2026-04-09 21:58:39.718142,113761,849767025,849768493,0.81008,-0.275232,-0.00976,13.50125,2.835,-21.09625,-24.112001,11.408001,16.024,eccentric,5,3.0,35800.0,386791.0,112977.0,1546.0,-144.0
2026-04-09 21:58:39.720745,113762,849775975,849777223,0.825696,-0.177632,0.0,11.24375,3.57875,-18.8475,-24.424002,11.528001,16.712,eccentric,5,3.0,35800.0,386791.0,112977.0,1546.0,-144.0
2026-04-09 21:58:39.723215,113763,849790537,849792189,0.825696,-0.177632,0.0,11.96125,4.445,-17.52625,-24.424002,11.528001,16.712,eccentric,5,3.0,35800.0,386791.0,112977.0,1546.0,-144.0
2026-04-09 21:58:39.725740,113764,849799462,849800890,0.804224,-0.238144,0.015616,10.9725,5.67875,-19.20625,-24.912,11.288,15.656001,eccentric,5,3.0,35800.0,386791.0,112977.0,1546.0,-144.0
2026-04-09 21:58:39.730699,113765,849808395,849809621,0.804224,-0.238144,0.015616,11.7075,5.04,-21.4025,-24.912,11.288,15.656001,eccentric,5,3.0,35800.0,386791.0,112977.0,1546.0,-144.0
2026-04-09 21:58:39.761989,113766,849822854,849824551,0.767136,-0.23424,0.001952,14.2275,4.27,-21.7175,-23.872002,10.896001,16.888,eccentric,5,3.0,35800.0,386791.0,112977.0,1546.0,-144.0
2026-04-09 21:58:39.764163,113767,849831766,849833240,0.767136,-0.242048,-0.027328,15.05875,2.9575,-21.81375,-23.872002,10.896001,16.888,eccentric,5,3.0,35800.0,386791.0,112977.0,1546.0,-144.0
2026-04-09 21:58:39.768743,113768,849840673,849841911,0.792512,-0.242048,-0.027328,13.9125,1.82875,-20.58875,-24.136002,11.584001,16.384,eccentric,5,3.0,35800.0,386791.0,112977.0,1546.0,-144.0
2026-04-09 21:58:39.826163,113778,849855225,849856825,0.794464,-0.138592,0.025376,12.635,2.09125,-19.18,-24.408,11.072001,16.784,eccentric,5,3.0,35708.0,383595.0,110842.0,1295.0,-135.0
2026-04-09 21:58:39.833338,113779,849864173,849865572,0.794464,-0.138592,0.025376,14.37625,2.26625,-18.9875,-24.408,11.072001,16.784,eccentric,5,3.0,35708.0,383595.0,110842.0,1295.0,-135.0
2026-04-09 21:58:39.834737,113780,849873244,849874310,0.774944,-0.26352,0.023424,15.75,3.56125,-21.385,-23.720001,10.936001,15.472001,eccentric,5,3.0,35708.0,383595.0,110842.0,1295.0,-135.0
2026-04-09 21:58:39.835911,113781,849887972,849889293,0.774944,-0.26352,0.023424,16.66875,4.235,-22.6275,-23.720001,10.936001,15.472001,eccentric,5,3.0,35708.0,383595.0,110842.0,1295.0,-135.0
2026-04-09 21:58:39.839984,113782,849896897,849898034,0.792512,-0.244,-0.001952,17.6925,3.3775,-21.49,-24.776001,10.584001,17.888,eccentric,5,3.0,35708.0,383595.0,110842.0,1295.0,-135.0
2026-04-09 21:58:39.841731,113783,849905815,849906736,0.792512,-0.244,-0.001952,18.41875,3.12375,-17.3075,-24.776001,10.584001,17.888,eccentric,5,3.0,35708.0,383595.0,110842.0,1295.0,-135.0
2026-04-09 21:58:39.843288,113784,849914771,849915476,0.804224,-0.162016,0.001952,16.23125,4.64625,-13.93875,-24.472002,11.136001,17.656,eccentric,5,3.0,35708.0,383595.0,110842.0,1295.0,-135.0
2026-04-09 21:58:39.874440,113785,849929680,849930438,0.804224,-0.162016,0.001952,13.20375,5.76625,-13.72,-24.472002,11.136001,17.656,eccentric,5,3.0,35708.0,383595.0,110842.0,1295.0,-135.0
2026-04-09 21:58:39.876693,113786,849939026,849941197,0.802272,-0.181536,-0.013664,15.190001,7.11375,-14.70875,-24.288002,10.656,17.320002,eccentric,5,3.0,35708.0,383595.0,110842.0,1295.0,-135.0
2026-04-09 21:58:39.881226,113787,849947926,849949892,0.802272,-0.181536,-0.013664,17.6225,5.99375,-17.325,-24.288002,10.656,17.320002,eccentric,5,3.0,35708.0,383595.0,110842.0,1295.0,-135.0
2026-04-09 21:58:39.914545,113798,849962630,849964967,0.798368,-0.18544,0.001952,21.035,4.48,-17.57875,-24.112001,11.440001,17.28,eccentric,5,3.0,35705.0,382997.0,110493.0,1268.0,-136.0
2026-04-09 21:58:39.916284,113799,849971655,849973736,0.798368,-0.18544,0.001952,24.73625,4.2,-14.46375,-24.112001,11.440001,17.28,eccentric,5,3.0,35705.0,382997.0,110493.0,1268.0,-136.0
2026-04-09 21:58:39.920075,113800,849980666,849982505,0.798368,-0.247904,0.033184,19.83625,5.0925,-11.698751,-23.840002,11.6,19.424002,eccentric,5,3.0,35705.0,382997.0,110493.0,1268.0,-136.0
2026-04-09 21:58:39.921593,113801,849989818,849991283,0.798368,-0.247904,0.033184,12.74875,6.3525,-9.56375,-23.840002,11.6,19.424002,eccentric,5,3.0,35705.0,382997.0,110493.0,1268.0,-136.0
2026-04-09 21:58:39.951955,113802,850004339,850006299,0.81008,-0.173728,-0.007808,11.62875,7.62125,-7.6825,-25.232,10.944,19.528002,eccentric,5,3.0,35705.0,382997.0,110493.0,1268.0,-136.0
2026-04-09 21:58:39.956374,113803,850013368,850014994,0.813984,-0.16592,-0.017568,10.57,7.7,-8.56625,-24.032001,10.976001,19.640001,eccentric,5,3.0,35705.0,382997.0,110493.0,1268.0,-136.0
2026-04-09 21:58:39.957985,113804,850022321,850023653,0.813984,-0.16592,-0.017568,13.06375,6.57125,-8.96,-24.032001,10.976001,19.640001,eccentric,5,3.0,35705.0,382997.0,110493.0,1268.0,-136.0
2026-04-09 21:58:39.959559,113805,850036770,850038631,0.83936,-0.191296,0.003904,16.2225,5.41625,-8.4875,-23.824001,10.912001,17.2,eccentric,5,3.0,35705.0,382997.0,110493.0,1268.0,-136.0
2026-04-09 21:58:39.989718,113806,850045783,850047335,0.83936,-0.191296,0.003904,15.77625,4.73375,-8.61875,-23.824001,10.912001,17.2,eccentric,5,3.0,35705.0,382997.0,110493.0,1268.0,-136.0
2026-04-09 21:58:39.994916,113807,850054743,850056041,0.8296,-0.208864,0.03904,14.44625,5.50375,-8.1025,-23.28,11.024,17.952002,eccentric,5,3.0,35705.0,382997.0,110493.0,1268.0,-136.0
2026-04-09 21:58:40.018177,113817,850063681,850064780,0.8296,-0.208864,0.03904,12.81,6.895,-9.17875,-23.28,11.024,17.952002,eccentric,5,3.0,35677.0,382840.0,110362.0,1254.0,-148.0
2026-04-09 21:58:40.020738,113818,850078183,850079768,0.808128,-0.21472,0.044896,13.30875,8.25125,-9.98375,-23.336,10.608001,17.936,eccentric,5,3.0,35677.0,382840.0,110362.0,1254.0,-148.0
2026-04-09 21:58:40.023203,113819,850087146,850088509,0.808128,-0.21472,0.044896,14.13125,9.45,-11.71625,-23.336,10.608001,17.936,eccentric,5,3.0,35677.0,382840.0,110362.0,1254.0,-148.0
2026-04-09 21:58:40.025731,113820,850096092,850097260,0.81008,-0.189344,0.011712,13.15125,10.19375,-12.64375,-24.464,11.288,19.192001,eccentric,5,3.0,35677.0,382840.0,110362.0,1254.0,-148.0
2026-04-09 21:58:40.055967,113821,850110613,850112192,0.81008,-0.189344,0.011712,14.1925,11.1825,-12.2675,-24.464,11.288,19.192001,eccentric,5,3.0,35677.0,382840.0,110362.0,1254.0,-148.0
2026-04-09 21:58:40.059502,113822,850119542,850120889,0.802272,-0.128832,0.044896,12.04,10.66625,-11.90875,-24.064001,11.056001,18.112001,eccentric,5,3.0,35677.0,382840.0,110362.0,1254.0,-148.0
2026-04-09 21:58:40.061980,113823,850128469,850129562,0.802272,-0.128832,0.044896,11.34875,12.1975,-10.325,-24.064001,11.056001,18.112001,eccentric,5,3.0,35677.0,382840.0,110362.0,1254.0,-148.0
2026-04-09 21:58:40.065730,113824,850142954,850144470,0.774944,-0.230336,0.080032,7.51625,13.6325,-10.52625,-24.088001,10.776001,18.472,eccentric,5,3.0,35677.0,382840.0,110362.0,1254.0,-148.0
2026-04-09 21:58:40.098506,113825,850151916,850153186,0.774944,-0.230336,0.080032,4.8825,13.86,-11.55875,-24.088001,10.776001,18.472,eccentric,5,3.0,35677.0,382840.0,110362.0,1254.0,-148.0
2026-04-09 21:58:40.124458,113835,850161473,850161953,0.739808,-0.228384,0.076128,7.67375,12.95875,-9.98375,-23.664001,10.856001,18.784,eccentric,5,3.0,35611.0,383281.0,110559.0,1282.0,-134.0
2026-04-09 21:58:40.126973,113836,850170871,850172822,0.739808,-0.228384,0.076128,8.82,11.2175,-8.04125,-23.664001,10.856001,18.784,eccentric,5,3.0,35611.0,383281.0,110559.0,1282.0,-134.0
2026-04-09 21:58:40.129466,113837,850185343,850185707,0.782752,-0.16592,-0.025376,6.48375,9.47625,-5.7225,-24.288002,10.728001,18.624,eccentric,5,3.0,35611.0,383281.0,110559.0,1282.0,-134.0
2026-04-09 21:58:40.131976,113838,850194713,850196590,0.776896,-0.124928,0.080032,4.725,8.09375,-2.87,-25.192001,10.328,19.76,eccentric,5,3.0,35611.0,383281.0,110559.0,1282.0,-134.0
2026-04-09 21:58:40.134513,113839,850203710,850205310,0.776896,-0.124928,0.080032,5.0925,7.455,-3.3425,-25.192001,10.328,19.76,eccentric,5,3.0,35611.0,383281.0,110559.0,1282.0,-134.0
2026-04-09 21:58:40.136982,113840,850212652,850214007,0.776896,-0.124928,0.095648,6.8775,7.455,-6.30875,-25.192001,10.328,19.76,eccentric,5,3.0,35611.0,383281.0,110559.0,1282.0,-134.0
2026-04-09 21:58:40.167198,113841,850227149,850228894,0.765184,-0.257664,0.095648,8.3825,6.93,-8.70625,-24.448002,10.64,19.464,eccentric,5,3.0,35611.0,383281.0,110559.0,1282.0,-134.0
2026-04-09 21:58:40.170696,113842,850236064,850237595,0.827648,-0.236192,0.003904,9.9225,5.8275,-7.74375,-23.720001,11.024,18.68,eccentric,5,3.0,35611.0,383281.0,110559.0,1282.0,-134.0
2026-04-09 21:58:40.173220,113843,850244994,850246292,0.827648,-0.236192,0.003904,8.636251,4.15625,-4.59375,-23.720001,11.024,18.68,eccentric,5,3.0,35611.0,383281.0,110559.0,1282.0,-134.0
2026-04-09 21:58:40.204416,113854,850259815,850261270,0.847168,-0.181536,0.083936,3.87625,4.26125,-0.93625,-23.320002,11.664001,18.912,eccentric,5,3.0,35586.0,383929.0,110964.0,1330.0,-139.0
2026-04-09 21:58:40.206921,113855,850268908,850270053,0.847168,-0.181536,0.083936,0.56,5.41625,-1.82,-23.320002,11.664001,18.912,eccentric,5,3.0,35586.0,383929.0,110964.0,1330.0,-139.0
2026-04-09 21:58:40.209463,113856,850277880,850278810,0.837408,-0.245952,0.11712,1.00625,6.7375,-4.375,-24.496,11.056001,19.400002,eccentric,5,3.0,35586.0,383929.0,110964.0,1330.0,-139.0
2026-04-09 21:58:40.216857,113857,850292511,850293744,0.837408,-0.245952,0.11712,5.6175,7.1925,-5.845,-24.496,11.056001,19.400002,eccentric,5,3.0,35586.0,383929.0,110964.0,1330.0,-139.0
2026-04-09 21:58:40.247770,113858,850301439,850302506,0.833504,-0.267424,0.042944,7.6825,7.7175,-6.27375,-24.800001,10.376,18.192001,eccentric,5,3.0,35586.0,383929.0,110964.0,1330.0,-139.0
2026-04-09 21:58:40.249447,113859,850310372,850311203,0.833504,-0.267424,0.042944,6.50125,7.4725,-4.31375,-24.800001,10.376,18.192001,eccentric,5,3.0,35586.0,383929.0,110964.0,1330.0,-139.0
2026-04-09 21:58:40.252035,113860,850319327,850319908,0.81008,-0.216672,0.064416,3.22,7.455,-2.21375,-23.816002,10.568001,19.160002,eccentric,5,3.0,35586.0,383929.0,110964.0,1330.0,-139.0
2026-04-09 21:58:40.256925,113861,850334146,850334847,0.808128,-0.238144,0.076128,-1.26,7.8225,-1.88125,-24.320002,11.096001,21.816002,eccentric,5,3.0,35586.0,383929.0,110964.0,1330.0,-139.0
2026-04-09 21:58:40.288285,113862,850343451,850345658,0.808128,-0.238144,0.076128,-1.4875,6.88625,-2.275,-24.320002,11.096001,21.816002,eccentric,5,3.0,35586.0,383929.0,110964.0,1330.0,-139.0
2026-04-09 21:58:40.290750,113863,850352384,850354359,0.808128,-0.238144,0.076128,1.155,6.125,-3.00125,-24.320002,11.096001,21.816002,eccentric,5,3.0,35586.0,383929.0,110964.0,1330.0,-139.0
2026-04-09 21:58:40.315669,113873,850366885,850367273,0.821792,-0.236192,0.042944,2.47625,5.3725,-3.89375,-23.016,10.472,20.024,concentric,5,3.0,35519.0,385162.0,111754.0,1435.0,-143.0
2026-04-09 21:58:40.318264,113874,850376181,850378105,0.802272,-0.238144,0.076128,2.28375,4.40125,-4.17375,-24.104002,10.672001,19.416,concentric,5,3.0,35519.0,385162.0,111754.0,1435.0,-143.0
2026-04-09 21:58:40.320901,113875,850385145,850386794,0.802272,-0.238144,0.076128,2.58125,3.47375,-4.3225,-24.104002,10.672001,19.416,concentric,5,3.0,35519.0,385162.0,111754.0,1435.0,-143.0
2026-04-09 21:58:40.323178,113876,850394175,850395557,0.7808,-0.288896,0.080032,1.47875,3.0625,-4.43625,-24.104002,11.040001,18.088001,concentric,5,3.0,35519.0,385162.0,111754.0,1435.0,-143.0
2026-04-09 21:58:40.331949,113877,850408719,850410472,0.7808,-0.288896,0.080032,-0.56,2.87,-3.71,-23.816002,11.040001,18.088001,concentric,5,3.0,35519.0,385162.0,111754.0,1435.0,-143.0
2026-04-09 21:58:40.363727,113878,850417663,850419175,0.77104,-0.259616,0.070272,-0.945,2.91375,-2.89625,-23.576,10.84,19.464,concentric,5,3.0,35519.0,385162.0,111754.0,1435.0,-143.0
2026-04-09 21:58:40.367273,113879,850426581,850427853,0.77104,-0.259616,0.070272,-2.31,2.89625,-2.68625,-23.576,10.84,19.464,concentric,5,3.0,35519.0,385162.0,111754.0,1435.0,-143.0
2026-04-09 21:58:40.369439,113880,850441081,850442739,0.767136,-0.226432,0.027328,-3.57875,1.68875,-2.555,-23.368002,11.016001,18.792002,concentric,5,3.0,35519.0,385162.0,111754.0,1435.0,-143.0
2026-04-09 21:58:40.371934,113881,850450038,850451450,0.767136,-0.226432,0.027328,-3.115,0.11375,-3.01,-23.368002,11.016001,18.792002,concentric,5,3.0,35519.0,385162.0,111754.0,1435.0,-143.0
2026-04-09 21:58:40.425701,113891,850458969,850460150,0.786656,-0.244,0.06832,-1.7325,-0.60375,-3.85875,-24.52,11.008,20.256,concentric,5,3.0,35484.0,383074.0,110352.0,1278.0,-140.0
2026-04-09 21:58:40.428274,113892,850468329,850468856,0.786656,-0.244,0.06832,-0.56875,-1.11125,-5.10125,-24.52,11.008,20.256,concentric,5,3.0,35484.0,383074.0,110352.0,1278.0,-140.0
2026-04-09 21:58:40.430699,113893,850483399,850483815,0.804224,-0.288896,0.072224,-1.70625,0.37625,-6.20375,-24.024002,11.144,19.296001,concentric,5,3.0,35484.0,383074.0,110352.0,1278.0,-140.0
2026-04-09 21:58:40.433197,113894,850492731,850494602,0.804224,-0.288896,0.072224,-4.8475,0.245,-7.13125,-24.024002,11.144,19.296001,concentric,5,3.0,35484.0,383074.0,110352.0,1278.0,-140.0
2026-04-09 21:58:40.435693,113895,850501708,850503361,0.796416,-0.275232,0.01952,-4.76875,-0.69125,-5.92375,-23.728,11.104,19.896002,concentric,5,3.0,35484.0,383074.0,110352.0,1278.0,-140.0
2026-04-09 21:58:40.439461,113896,850516291,850518261,0.802272,-0.25376,0.037088,-4.7075,-1.96875,-4.71625,-23.768002,10.76,18.832,concentric,5,3.0,35484.0,383074.0,110352.0,1278.0,-140.0
2026-04-09 21:58:40.471628,113897,850525264,850526969,0.802272,-0.25376,0.037088,-4.61125,-3.42125,-3.85,-23.768002,10.76,18.832,concentric,5,3.0,35484.0,383074.0,110352.0,1278.0,-140.0
2026-04-09 21:58:40.474888,113898,850534200,850535645,0.817888,-0.267424,0.037088,-5.355,-3.52625,-3.45625,-23.768002,10.76,18.544,concentric,5,3.0,35484.0,383074.0,110352.0,1278.0,-140.0
2026-04-09 21:58:40.477015,113899,850543121,850544338,0.813984,-0.267424,0.037088,-7.35,-2.3275,-4.9,-23.456001,10.728001,18.544,concentric,5,3.0,35484.0,383074.0,110352.0,1278.0,-140.0
2026-04-09 21:58:40.480713,113900,850557556,850559296,0.808128,-0.251808,0.00976,-9.35375,-0.2975,-8.198751,-23.536001,10.424001,18.736,concentric,5,3.0,35484.0,383074.0,110352.0,1278.0,-140.0
2026-04-09 21:58:40.508209,113911,850566493,850568042,0.808128,-0.251808,0.00976,-7.67375,-0.4725,-8.26,-23.536001,10.424001,18.736,concentric,5,3.0,35452.0,382972.0,110220.0,1259.0,-136.0
2026-04-09 21:58:40.510709,113912,850575446,850576790,0.80032,-0.269376,-0.001952,-6.69375,-1.32125,-9.3275,-23.984001,10.240001,19.984001,concentric,5,3.0,35452.0,382972.0,110220.0,1259.0,-136.0
2026-04-09 21:58:40.513195,113913,850589986,850591802,0.80032,-0.269376,-0.001952,-5.25,-2.12625,-8.54,-23.984001,10.240001,19.984001,concentric,5,3.0,35452.0,382972.0,110220.0,1259.0,-136.0
2026-04-09 21:58:40.543407,113914,850598933,850600528,0.804224,-0.275232,0.00976,-5.565,-2.70375,-7.9275,-24.336,10.824,19.352001,concentric,5,3.0,35452.0,382972.0,110220.0,1259.0,-136.0
2026-04-09 21:58:40.547781,113915,850607832,850609231,0.804224,-0.275232,0.00976,-7.4375,-2.6425,-6.545,-24.336,10.824,19.352001,concentric,5,3.0,35452.0,382972.0,110220.0,1259.0,-136.0
2026-04-09 21:58:40.549470,113916,850622286,850624116,0.815936,-0.259616,0.007808,-9.511251,-1.56625,-5.005,-23.2,10.064,18.408,concentric,5,3.0,35452.0,382972.0,110220.0,1259.0,-136.0
2026-04-09 21:58:40.555316,113917,850631227,850632842,0.815936,-0.259616,0.007808,-11.235,-0.3325,-4.2525,-23.2,10.064,18.408,concentric,5,3.0,35452.0,382972.0,110220.0,1259.0,-136.0
2026-04-09 21:58:40.584711,113918,850640134,850641540,0.808128,-0.251808,-0.017568,-12.83625,0.5425,-4.26125,-23.776001,10.368,18.544,concentric,5,3.0,35452.0,382972.0,110220.0,1259.0,-136.0
2026-04-09 21:58:40.591472,113919,850654648,850656457,0.794464,-0.230336,-0.031232,-11.795,0.665,-4.62,-23.776001,8.320001,19.472,concentric,5,3.0,35452.0,382972.0,110220.0,1259.0,-136.0
2026-04-09 21:58:40.617000,113929,850664181,850665416,0.794464,-0.230336,-0.031232,-8.86375,0.48125,-5.3375,-23.872002,10.216001,19.472,concentric,5,3.0,35457.0,383368.0,110465.0,1288.0,-140.0
2026-04-09 21:58:40.654822,113930,850673210,850674139,0.794464,-0.230336,-0.031232,-7.0875,-0.60375,-5.775,-23.872002,10.216001,19.472,concentric,5,3.0,35457.0,383368.0,110465.0,1288.0,-140.0
2026-04-09 21:58:40.658368,113931,850682149,850682872,0.772992,-0.26352,-0.00976,-7.665,-0.95375,-4.48,-23.704,11.000001,18.864,concentric,5,3.0,35457.0,383368.0,110465.0,1288.0,-140.0
2026-04-09 21:58:40.660805,113932,850697035,850697773,0.76128,-0.27328,0.01952,-9.59,-0.98875,-2.8175,-23.528002,10.432,17.960001,concentric,5,3.0,35457.0,383368.0,110465.0,1288.0,-140.0
2026-04-09 21:58:40.663274,113933,850706430,850708548,0.76128,-0.27328,0.01952,-12.67,-0.28,-0.0525,-23.528002,10.432,17.960001,concentric,5,3.0,35457.0,383368.0,110465.0,1288.0,-140.0
2026-04-09 21:58:40.665761,113934,850715378,850717278,0.743712,-0.257664,-0.017568,-15.085,-0.18375,3.22,-23.456001,9.728001,18.256,concentric,5,3.0,35457.0,383368.0,110465.0,1288.0,-140.0
2026-04-09 21:58:40.668278,113935,850724350,850725974,0.743712,-0.257664,-0.017568,-17.8675,0.63875,5.20625,-23.456001,9.728001,18.256,concentric,5,3.0,35457.0,383368.0,110465.0,1288.0,-140.0
2026-04-09 21:58:40.670775,113936,850738798,850740850,0.745664,-0.244,-0.046848,-18.2875,0.18375,6.7025,-23.456001,9.68,17.784,concentric,5,3.0,35457.0,383368.0,110465.0,1288.0,-140.0
2026-04-09 21:58:40.673227,113937,850747762,850749578,0.745664,-0.244,-0.046848,-16.91375,-2.00375,7.95375,-23.456001,9.68,17.784,concentric,5,3.0,35457.0,383368.0,110465.0,1288.0,-140.0
2026-04-09 21:58:40.679519,113938,850756692,850758396,0.745664,-0.199104,-0.007808,-15.51375,-3.68375,8.72375,-24.840002,10.672001,20.024,concentric,5,3.0,35457.0,383368.0,110465.0,1288.0,-140.0
2026-04-09 21:58:40.704533,113948,850771247,850773408,0.745664,-0.199104,-0.007808,-14.6825,-3.4825,8.49625,-24.840002,10.672001,20.024,concentric,5,3.0,35481.0,383040.0,110204.0,1245.0,-132.0
2026-04-09 21:58:40.707739,113949,850780198,850782211,0.737856,-0.286944,-0.005856,-15.23375,-3.36,8.60125,-23.352001,10.144,17.392,concentric,5,3.0,35481.0,383040.0,110204.0,1245.0,-132.0
2026-04-09 21:58:40.713924,113950,850789133,850790919,0.737856,-0.286944,-0.005856,-16.4325,-3.75375,9.695,-23.352001,10.144,17.392,concentric,5,3.0,35481.0,383040.0,110204.0,1245.0,-132.0
2026-04-09 21:58:40.743448,113951,850803633,850805884,0.747616,-0.294752,-0.025376,-17.33375,-3.8675,12.81,-23.912,11.104,17.44,concentric,5,3.0,35481.0,383040.0,110204.0,1245.0,-132.0
2026-04-09 21:58:40.747009,113952,850812551,850814588,0.747616,-0.294752,-0.025376,-19.62625,-4.06875,15.7325,-23.912,11.104,17.44,concentric,5,3.0,35481.0,383040.0,110204.0,1245.0,-132.0
2026-04-09 21:58:40.749497,113953,850821462,850823276,0.778848,-0.208864,0.001952,-22.09375,-4.22625,17.5175,-22.648,11.072001,16.912,concentric,5,3.0,35481.0,383040.0,110204.0,1245.0,-132.0
2026-04-09 21:58:40.780966,113954,850835995,850838245,0.7808,-0.201056,-0.017568,-21.60375,-3.395,17.75375,-22.616001,10.856001,16.752,concentric,5,3.0,35481.0,383040.0,110204.0,1245.0,-132.0
2026-04-09 21:58:40.784538,113955,850844910,850846981,0.7808,-0.201056,-0.017568,-19.80125,-1.96,14.13125,-22.616001,10.856001,16.752,concentric,5,3.0,35481.0,383040.0,110204.0,1245.0,-132.0
2026-04-09 21:58:40.788103,113956,850853808,850855664,0.7808,-0.201056,-0.017568,-18.27875,0.0525,9.75625,-22.616001,10.856001,16.752,concentric,5,3.0,35481.0,383040.0,110204.0,1245.0,-132.0
2026-04-09 21:58:40.814452,113967,850863075,850864433,0.765184,-0.267424,-0.023424,-14.90125,-0.72625,8.0325,-22.488,10.472,17.784,concentric,5,3.0,35542.0,387058.0,112986.0,1576.0,-146.0
2026-04-09 21:58:40.817019,113968,850877614,850879397,0.743712,-0.310368,-0.015616,-11.78625,-1.82,9.905,-22.792002,10.232,16.728,concentric,5,3.0,35542.0,387058.0,112986.0,1576.0,-146.0
2026-04-09 21:58:40.819499,113969,850886621,850888146,0.743712,-0.310368,-0.015616,-13.39625,-2.65125,13.0375,-22.792002,10.232,16.728,concentric,5,3.0,35542.0,387058.0,112986.0,1576.0,-146.0
2026-04-09 21:58:40.822019,113970,850895561,850896886,0.767136,-0.255712,0.003904,-18.40125,-3.5,17.50875,-22.792002,12.280001,17.04,concentric,5,3.0,35542.0,387058.0,112986.0,1576.0,-146.0
2026-04-09 21:58:40.852270,113971,850910087,850911826,0.767136,-0.255712,0.003904,-21.02625,-3.05375,22.07625,-23.008001,10.56,17.04,concentric,5,3.0,35542.0,387058.0,112986.0,1576.0,-146.0
2026-04-09 21:58:40.855843,113972,850919004,850920544,0.765184,-0.203008,-0.005856,-25.06,-2.275,22.56625,-22.632002,10.888001,16.096,concentric,5,3.0,35542.0,387058.0,112986.0,1576.0,-146.0
2026-04-09 21:58:40.858292,113973,850927936,850929272,0.765184,-0.203008,-0.005856,-25.725,-1.855,20.615,-22.632002,10.888001,16.096,concentric,5,3.0,35542.0,387058.0,112986.0,1576.0,-146.0
2026-04-09 21:58:40.888599,113974,850942446,850944229,0.772992,-0.240096,-0.05856,-20.1425,-2.5025,18.025,-22.800001,10.856001,14.000001,concentric,5,3.0,35542.0,387058.0,112986.0,1576.0,-146.0
2026-04-09 21:58:40.892053,113975,850951369,850952940,0.772992,-0.240096,-0.05856,-14.175,-4.935,14.00875,-22.800001,10.856001,14.000001,concentric,5,3.0,35542.0,387058.0,112986.0,1576.0,-146.0
2026-04-09 21:58:40.894485,113976,850960283,850961645,0.778848,-0.26352,-0.003904,-9.10875,-7.90125,13.27375,-21.920002,11.280001,15.440001,concentric,5,3.0,35542.0,387058.0,112986.0,1576.0,-146.0
2026-04-09 21:58:40.923181,113986,850969204,850970423,0.778848,-0.26352,-0.003904,-5.31125,-8.32125,16.31,-21.920002,11.280001,15.440001,concentric,5,3.0,35586.0,387369.0,113169.0,1590.0,-139.0
2026-04-09 21:58:40.925730,113987,850983810,850985480,0.782752,-0.2928,0.044896,-10.31625,-6.57125,17.4125,-22.824001,11.264001,15.816001,concentric,5,3.0,35586.0,387369.0,113169.0,1590.0,-139.0
2026-04-09 21:58:40.928231,113988,850992755,850994257,0.782752,-0.2928,0.044896,-16.33625,-4.90875,18.89125,-22.824001,11.264001,15.816001,concentric,5,3.0,35586.0,387369.0,113169.0,1590.0,-139.0
2026-04-09 21:58:40.930731,113989,851001732,851002985,0.776896,-0.240096,0.005856,-16.82625,-2.66,18.31375,-22.488,11.464001,16.312,concentric,5,3.0,35586.0,387369.0,113169.0,1590.0,-139.0
2026-04-09 21:58:40.961019,113990,851016240,851017948,0.767136,-0.242048,-0.072224,-15.56625,-1.32125,14.93625,-21.432001,11.048,15.032001,concentric,5,3.0,35586.0,387369.0,113169.0,1590.0,-139.0
2026-04-09 21:58:40.964578,113991,851025151,851026651,0.767136,-0.242048,-0.072224,-11.865,-2.4325,14.14875,-21.432001,11.048,15.032001,concentric,5,3.0,35586.0,387369.0,113169.0,1590.0,-139.0
2026-04-09 21:58:40.967061,113992,851034052,851035350,0.767136,-0.242048,-0.072224,-8.05875,-5.06625,11.96125,-21.432001,11.048,15.032001,concentric,5,3.0,35586.0,387369.0,113169.0,1590.0,-139.0
2026-04-09 21:58:40.973282,113993,851048569,851050280,0.776896,-0.306464,0.017568,-8.44375,-6.09875,11.235,-21.736002,10.944,14.744,concentric,5,3.0,35586.0,387369.0,113169.0,1590.0,-139.0
2026-04-09 21:58:40.979537,113994,851057501,851059055,0.772992,-0.298656,0.056608,-9.625,-4.585,13.50125,-21.928001,11.752001,17.608002,concentric,5,3.0,35586.0,387369.0,113169.0,1590.0,-139.0
2026-04-09 21:58:41.007005,114004,851066562,851067773,0.772992,-0.298656,0.056608,-9.87,-2.205,14.77875,-21.928001,11.752001,17.608002,concentric,5,3.0,35682.0,387348.0,113228.0,1581.0,-134.0
2026-04-09 21:58:41.009514,114005,851075543,851076583,0.772992,-0.298656,0.056608,-9.905,-0.25375,15.61,-21.928001,11.752001,17.608002,concentric,5,3.0,35682.0,387348.0,113228.0,1581.0,-134.0
2026-04-09 21:58:41.029562,114006,851090147,851091493,0.755424,-0.27328,0.001952,-9.45,0.67375,16.96625,-22.136002,11.384001,16.576,concentric,5,3.0,35682.0,387348.0,113228.0,1581.0,-134.0
2026-04-09 21:58:41.032681,114007,851099081,851100262,0.747616,-0.300608,-0.074176,-5.67875,-0.23625,15.11125,-20.928001,11.456,14.456,concentric,5,3.0,35682.0,387348.0,113228.0,1581.0,-134.0
2026-04-09 21:58:41.034672,114008,851108018,851108952,0.747616,-0.300608,-0.074176,-5.95,-2.23125,14.42,-20.928001,11.456,14.456,concentric,5,3.0,35682.0,387348.0,113228.0,1581.0,-134.0
2026-04-09 21:58:41.064780,114009,851122529,851123885,0.763232,-0.314272,-0.003904,-6.65875,-4.05125,12.53,-22.912,11.928,15.152,concentric,5,3.0,35682.0,387348.0,113228.0,1581.0,-134.0
2026-04-09 21:58:41.068301,114010,851131453,851132577,0.763232,-0.314272,-0.003904,-9.23125,-4.4625,12.11,-22.912,11.928,15.152,concentric,5,3.0,35682.0,387348.0,113228.0,1581.0,-134.0
2026-04-09 21:58:41.070765,114011,851140401,851141250,0.784704,-0.388448,0.021472,-11.6025,-3.2375,13.2475,-21.36,11.712001,13.984,concentric,5,3.0,35682.0,387348.0,113228.0,1581.0,-134.0
2026-04-09 21:58:41.077050,114012,851154944,851156223,0.784704,-0.388448,0.021472,-7.49875,-1.60125,11.96125,-21.36,11.712001,13.984,concentric,5,3.0,35682.0,387348.0,113228.0,1581.0,-134.0
2026-04-09 21:58:41.133203,114023,851164505,851165033,0.778848,-0.339648,-0.023424,0.5775,-1.26875,11.82125,-20.960001,11.824,13.592001,concentric,5,3.0,35801.0,387875.0,113655.0,1615.0,-137.0
2026-04-09 21:58:41.135740,114024,851174009,851175840,0.778848,-0.339648,-0.023424,6.37,-2.24875,12.8275,-20.960001,11.824,13.592001,concentric,5,3.0,35801.0,387875.0,113655.0,1615.0,-137.0
2026-04-09 21:58:41.138264,114025,851182966,851184554,0.782752,-0.33184,-0.050752,5.53875,-3.3425,12.635,-21.184002,11.896001,13.872001,concentric,5,3.0,35801.0,387875.0,113655.0,1615.0,-137.0
2026-04-09 21:58:41.140786,114026,851197655,851199531,0.77104,-0.345504,-0.013664,2.5375,-4.69,11.06,-21.264002,12.344001,13.512001,concentric,5,3.0,35801.0,387875.0,113655.0,1615.0,-137.0
2026-04-09 21:58:41.143291,114027,851206597,851208236,0.77104,-0.345504,-0.013664,1.70625,-4.4625,10.03625,-21.264002,12.344001,13.512001,concentric,5,3.0,35801.0,387875.0,113655.0,1615.0,-137.0
2026-04-09 21:58:41.145743,114028,851215595,851216961,0.77104,-0.345504,-0.013664,4.41875,-3.22875,8.91625,-21.264002,12.344001,13.512001,concentric,5,3.0,35801.0,387875.0,113655.0,1615.0,-137.0
2026-04-09 21:58:41.175966,114029,851230122,851231927,0.77104,-0.374784,-0.007808,8.35625,-1.51375,9.19625,-21.424002,12.608001,13.104001,concentric,5,3.0,35801.0,387875.0,113655.0,1615.0,-137.0
2026-04-09 21:58:41.179509,114030,851239053,851240656,0.765184,-0.31232,-0.023424,13.3875,-0.37625,8.5225,-20.712002,12.864,13.584001,concentric,5,3.0,35801.0,387875.0,113655.0,1615.0,-137.0
2026-04-09 21:58:41.182039,114031,851247995,851249370,0.765184,-0.31232,-0.023424,16.45875,1.05875,8.75,-20.712002,12.864,13.584001,concentric,5,3.0,35801.0,387875.0,113655.0,1615.0,-137.0
2026-04-09 21:58:41.184518,114032,851256910,851258067,0.733952,-0.30256,-0.011712,16.37125,2.24875,9.44125,-20.712002,13.336,14.392001,concentric,5,3.0,35801.0,387875.0,113655.0,1615.0,-137.0
2026-04-09 21:58:41.215819,114042,851271624,851273107,0.733952,-0.30256,-0.011712,16.37125,2.33625,9.24,-21.336,13.336,14.392001,concentric,5,3.0,35946.0,388412.0,114130.0,1683.0,-134.0
2026-04-09 21:58:41.218325,114043,851280598,851281918,0.77104,-0.355264,-0.02928,16.42375,3.36875,8.54,-22.168001,12.8,14.544001,concentric,5,3.0,35946.0,388412.0,114130.0,1683.0,-134.0
2026-04-09 21:58:41.220823,114044,851289541,851290613,0.77104,-0.355264,-0.02928,13.64125,4.655,7.28875,-22.168001,12.8,14.544001,concentric,5,3.0,35946.0,388412.0,114130.0,1683.0,-134.0
2026-04-09 21:58:41.227043,114045,851304081,851305478,0.788608,-0.275232,-0.035136,10.5875,6.62375,2.6075,-22.136002,12.52,13.104001,concentric,5,3.0,35946.0,388412.0,114130.0,1683.0,-134.0
2026-04-09 21:58:41.258485,114046,851313092,851314196,0.788608,-0.275232,-0.035136,11.24375,7.32375,1.1025,-22.136002,12.52,13.104001,concentric,5,3.0,35946.0,388412.0,114130.0,1683.0,-134.0
2026-04-09 21:58:41.262092,114047,851322033,851322880,0.862784,-0.36112,-0.085888,10.71,6.69375,-0.53375,-21.952002,12.688001,13.304001,concentric,5,3.0,35946.0,388412.0,114130.0,1683.0,-134.0
2026-04-09 21:58:41.264477,114048,851336506,851337762,0.862784,-0.36112,-0.054656,8.18125,5.5475,1.05875,-21.952002,12.688001,13.304001,concentric,5,3.0,35946.0,388412.0,114130.0,1683.0,-134.0
2026-04-09 21:58:41.267372,114049,851345445,851346551,0.899872,-0.349408,-0.060512,9.45,3.71,3.325,-21.52,13.168,13.712001,concentric,5,3.0,35946.0,388412.0,114130.0,1683.0,-134.0
2026-04-09 21:58:41.297331,114050,851354377,851355249,0.899872,-0.349408,-0.060512,16.135,3.1675,4.1125,-21.52,13.168,13.712001,concentric,5,3.0,35946.0,388412.0,114130.0,1683.0,-134.0
2026-04-09 21:58:41.300773,114051,851363294,851363947,0.905728,-0.366976,0.0,19.03125,3.73625,2.45,-21.464,13.440001,13.880001,concentric,5,3.0,35946.0,388412.0,114130.0,1683.0,-134.0
2026-04-09 21:58:41.336905,114061,851378142,851378950,0.915488,-0.349408,-0.076128,17.70125,4.80375,1.4875,-21.416,13.584001,15.744,concentric,5,3.0,36048.0,389260.0,114861.0,1773.0,-148.0
2026-04-09 21:58:41.339449,114062,851387071,851387694,0.915488,-0.349408,-0.076128,22.05875,4.76,-0.56875,-21.416,13.584001,15.744,concentric,5,3.0,36048.0,389260.0,114861.0,1773.0,-148.0
2026-04-09 21:58:41.341949,114063,851396301,851398476,0.915488,-0.349408,-0.076128,25.10375,5.0575,-2.065,-21.416,13.584001,15.744,concentric,5,3.0,36048.0,389260.0,114861.0,1773.0,-148.0
2026-04-09 21:58:41.344441,114064,851410807,851411396,0.894016,-0.3416,-0.081984,24.43875,4.82125,-3.33375,-21.296001,13.344001,12.808001,concentric,5,3.0,36048.0,389260.0,114861.0,1773.0,-148.0
2026-04-09 21:58:41.346959,114065,851420137,851422176,0.870592,-0.4392,-0.035136,22.505,4.96125,-3.8675,-22.232,13.848001,14.272,concentric,5,3.0,36048.0,389260.0,114861.0,1773.0,-148.0
2026-04-09 21:58:41.353202,114066,851429103,851430894,0.870592,-0.4392,-0.035136,25.34875,5.6525,-4.26125,-22.232,13.848001,14.272,concentric,5,3.0,36048.0,389260.0,114861.0,1773.0,-148.0
2026-04-09 21:58:41.383496,114067,851438105,851439596,0.837408,-0.392352,0.037088,33.3375,7.02625,-2.695,-23.232,14.288001,15.232,concentric,5,3.0,36048.0,389260.0,114861.0,1773.0,-148.0
2026-04-09 21:58:41.387004,114068,851452669,851454492,0.837408,-0.392352,0.037088,35.18375,9.37125,-0.90125,-23.232,14.288001,15.232,concentric,5,3.0,36048.0,389260.0,114861.0,1773.0,-148.0
2026-04-09 21:58:41.389562,114069,851461592,851463191,0.786656,-0.279136,0.035136,33.99375,11.85625,-0.51625,-22.288,13.784,14.216001,concentric,5,3.0,36048.0,389260.0,114861.0,1773.0,-148.0
2026-04-09 21:58:41.417040,114079,851470655,851472094,0.786656,-0.279136,0.035136,24.31625,14.971251,0.7,-22.288,13.784,14.216001,concentric,5,3.0,36237.0,391143.0,116409.0,2011.0,-141.0
2026-04-09 21:58:41.419514,114080,851485143,851487066,0.786656,-0.386496,-0.003904,12.46,16.77375,1.5225,-21.984001,14.424001,14.912001,concentric,5,3.0,36237.0,391143.0,116409.0,2011.0,-141.0
2026-04-09 21:58:41.422058,114081,851494112,851495792,0.786656,-0.386496,-0.003904,20.8425,17.63125,-0.48125,-21.984001,14.424001,14.912001,concentric,5,3.0,36237.0,391143.0,116409.0,2011.0,-141.0
2026-04-09 21:58:41.427994,114082,851503058,851504561,0.788608,-0.3416,0.02928,28.48125,18.27,-2.59,-22.504002,14.328001,14.424001,concentric,5,3.0,36237.0,391143.0,116409.0,2011.0,-141.0
2026-04-09 21:58:41.460987,114083,851517578,851519516,0.788608,-0.355264,0.031232,26.11,19.27625,-2.2925,-22.504002,14.328001,14.424001,concentric,5,3.0,36237.0,391143.0,116409.0,2011.0,-141.0
2026-04-09 21:58:41.464524,114084,851526494,851528239,0.817888,-0.355264,0.031232,20.3175,20.43125,-3.5525,-22.2,14.328001,15.488001,concentric,5,3.0,36237.0,391143.0,116409.0,2011.0,-141.0
2026-04-09 21:58:41.467122,114085,851535393,851536913,0.817888,-0.355264,0.031232,16.45875,20.71125,-5.53875,-22.2,14.328001,15.488001,concentric,5,3.0,36237.0,391143.0,116409.0,2011.0,-141.0
2026-04-09 21:58:41.473255,114086,851544309,851545613,0.851072,-0.427488,0.062464,8.05875,20.58875,-6.74625,-22.728,14.824,14.912001,concentric,5,3.0,36237.0,391143.0,116409.0,2011.0,-141.0
2026-04-09 21:58:41.503415,114087,851558797,851560605,0.870592,-0.398208,0.046848,1.5225,20.4575,-5.99375,-23.800001,14.328001,18.376001,concentric,5,3.0,36237.0,391143.0,116409.0,2011.0,-141.0
2026-04-09 21:58:41.533269,114098,851567940,851569328,0.870592,-0.398208,0.046848,-0.21875,19.57375,-4.66375,-23.800001,14.328001,18.376001,concentric,5,3.0,36088.0,387938.0,114054.0,1650.0,-153.0
2026-04-09 21:58:41.535734,114099,851576917,851578025,0.870592,-0.398208,0.046848,-1.9775,19.10125,-3.84125,-23.800001,14.328001,18.376001,concentric,5,3.0,36088.0,387938.0,114054.0,1650.0,-153.0
2026-04-09 21:58:41.538320,114100,851591434,851592973,0.886208,-0.396256,0.021472,-0.14,17.89375,-3.5,-23.368002,14.312,14.976001,concentric,5,3.0,36088.0,387938.0,114054.0,1650.0,-153.0
2026-04-09 21:58:41.540810,114101,851600408,851601735,0.890112,-0.433344,0.0976,5.67875,16.24,-4.01625,-23.04,14.64,15.960001,concentric,5,3.0,36088.0,387938.0,114054.0,1650.0,-153.0
2026-04-09 21:58:41.543316,114102,851609352,851610472,0.890112,-0.433344,0.0976,8.56625,15.86375,-4.445,-23.04,14.64,15.960001,concentric,5,3.0,36088.0,387938.0,114054.0,1650.0,-153.0
2026-04-09 21:58:41.547024,114103,851623829,851625419,0.892064,-0.392352,0.103456,8.42625,15.39125,-1.4875,-23.632002,15.000001,15.248001,concentric,5,3.0,36088.0,387938.0,114054.0,1650.0,-153.0
2026-04-09 21:58:41.578384,114104,851632805,851634123,0.892064,-0.392352,0.103456,11.59375,14.533751,0.6475,-23.632002,15.000001,15.248001,concentric,5,3.0,36088.0,387938.0,114054.0,1650.0,-153.0
2026-04-09 21:58:41.580858,114105,851641737,851642886,0.890112,-0.415776,0.083936,8.79375,14.5775,-0.2625,-23.080002,14.504001,14.912001,concentric,5,3.0,36088.0,387938.0,114054.0,1650.0,-153.0
2026-04-09 21:58:41.583248,114106,851650670,851651577,0.890112,-0.415776,0.083936,6.78125,13.93,-0.62125,-23.080002,14.504001,14.912001,concentric,5,3.0,36088.0,387938.0,114054.0,1650.0,-153.0
2026-04-09 21:58:41.613198,114116,851665163,851666731,0.90768,-0.445056,0.056608,8.40875,12.22375,-1.91625,-23.336,14.656001,15.512001,concentric,5,3.0,35960.0,386292.0,112813.0,1490.0,-137.0
2026-04-09 21:58:41.615793,114117,851674147,851675511,0.90768,-0.445056,0.056608,10.33375,10.03625,-3.03625,-23.336,14.656001,15.512001,concentric,5,3.0,35960.0,386292.0,112813.0,1490.0,-137.0
2026-04-09 21:58:41.618327,114118,851683094,851684232,0.915488,-0.472384,0.105408,10.68375,8.715,-3.08,-22.84,15.464001,15.248001,concentric,5,3.0,35960.0,386292.0,112813.0,1490.0,-137.0
2026-04-09 21:58:41.620759,114119,851697583,851699214,0.915488,-0.472384,0.105408,11.62875,7.77,-3.0275,-22.84,15.464001,15.248001,concentric,5,3.0,35960.0,386292.0,112813.0,1490.0,-137.0
2026-04-09 21:58:41.650974,114120,851706513,851707941,0.919392,-0.499712,0.115168,15.16375,7.30625,-2.31,-23.152,14.912001,16.192001,concentric,5,3.0,35960.0,386292.0,112813.0,1490.0,-137.0
2026-04-09 21:58:41.654521,114121,851715445,851716649,0.919392,-0.499712,0.115168,17.96375,6.51875,-2.1525,-23.152,14.912001,16.192001,concentric,5,3.0,35960.0,386292.0,112813.0,1490.0,-137.0
2026-04-09 21:58:41.657008,114122,851729893,851731570,0.905728,-0.421632,0.093696,16.07375,5.6175,-1.2775,-23.752,14.792001,15.632001,concentric,5,3.0,35960.0,386292.0,112813.0,1490.0,-137.0
2026-04-09 21:58:41.662037,114123,851738845,851740291,0.890112,-0.441152,0.101504,10.40375,4.76875,-0.84875,-23.752,15.288001,16.824001,concentric,5,3.0,35960.0,386292.0,112813.0,1490.0,-137.0
2026-04-09 21:58:41.693602,114124,851747762,851748980,0.890112,-0.441152,0.101504,5.6875,4.48,-0.8925,-24.568,15.288001,16.824001,concentric,5,3.0,35960.0,386292.0,112813.0,1490.0,-137.0
2026-04-09 21:58:41.697003,114125,851762207,851763910,0.8784,-0.47824,0.132736,4.6025,3.465,-1.2775,-23.496,15.224001,15.968,concentric,5,3.0,35960.0,386292.0,112813.0,1490.0,-137.0
2026-04-09 21:58:41.725747,114135,851771226,851772691,0.8784,-0.47824,0.132736,6.64125,3.64,-3.045,-23.496,15.224001,15.968,concentric,5,3.0,35963.0,386777.0,113221.0,1546.0,-143.0
2026-04-09 21:58:41.728306,114136,851780158,851781453,0.833504,-0.4392,0.160064,7.77,4.3225,-2.66875,-24.960001,14.920001,17.2,concentric,5,3.0,35963.0,386777.0,113221.0,1546.0,-143.0
2026-04-09 21:58:41.730788,114137,851789133,851790237,0.833504,-0.4392,0.160064,8.995,5.24125,-2.73875,-24.960001,14.920001,17.2,concentric,5,3.0,35963.0,386777.0,113221.0,1546.0,-143.0
2026-04-09 21:58:41.733259,114138,851803622,851805129,0.825696,-0.441152,0.103456,6.71125,6.46625,-2.625,-23.424002,15.424001,15.176001,concentric,5,3.0,35963.0,386777.0,113221.0,1546.0,-143.0
2026-04-09 21:58:41.735748,114139,851812586,851813813,0.825696,-0.441152,0.103456,3.10625,7.25375,-2.6075,-23.424002,15.424001,15.176001,concentric,5,3.0,35963.0,386777.0,113221.0,1546.0,-143.0
2026-04-09 21:58:41.766126,114140,851821499,851822571,0.815936,-0.435296,0.072224,3.4825,7.0875,-2.3275,-23.632002,15.056001,15.488001,concentric,5,3.0,35963.0,386777.0,113221.0,1546.0,-143.0
2026-04-09 21:58:41.769722,114141,851835980,851837454,0.815936,-0.435296,0.072224,2.24,6.11625,-2.30125,-23.632002,15.056001,15.488001,concentric,5,3.0,35963.0,386777.0,113221.0,1546.0,-143.0
2026-04-09 21:58:41.773415,114142,851844919,851846151,0.806176,-0.456768,0.093696,1.09375,4.515,-2.66,-23.224,14.784,15.56,concentric,5,3.0,35963.0,386777.0,113221.0,1546.0,-143.0
2026-04-09 21:58:41.777168,114143,851853877,851854883,0.806176,-0.456768,0.093696,-2.45,4.165,-3.3075,-23.224,14.784,15.56,concentric,5,3.0,35963.0,386777.0,113221.0,1546.0,-143.0
2026-04-09 21:58:41.836943,114154,851868732,851870132,0.821792,-0.476288,0.076128,-3.8325,3.82375,-3.56125,-23.568,14.712001,15.336,concentric,5,3.0,35965.0,387295.0,113569.0,1601.0,-150.0
2026-04-09 21:58:41.839486,114155,851877736,851878891,0.821792,-0.476288,0.076128,-4.99625,3.96375,-4.305,-23.568,14.712001,15.336,concentric,5,3.0,35965.0,387295.0,113569.0,1601.0,-150.0
2026-04-09 21:58:41.841988,114156,851886647,851887596,0.831552,-0.484096,0.054656,-4.57625,4.34,-4.3575,-23.816002,14.912001,16.016,concentric,5,3.0,35965.0,387295.0,113569.0,1601.0,-150.0
2026-04-09 21:58:41.844530,114157,851901363,851902536,0.833504,-0.482144,0.031232,-4.66375,4.08625,-4.80375,-24.456001,14.912001,16.352001,concentric,5,3.0,35965.0,387295.0,113569.0,1601.0,-150.0
2026-04-09 21:58:41.846985,114158,851910362,851911300,0.833504,-0.482144,0.031232,-4.9525,3.78,-5.0225,-24.456001,14.912001,16.352001,concentric,5,3.0,35965.0,387295.0,113569.0,1601.0,-150.0
2026-04-09 21:58:41.849482,114159,851919302,851920053,0.833504,-0.476288,0.01952,-5.95875,3.29875,-5.73125,-24.456001,14.912001,16.232,concentric,5,3.0,35965.0,387295.0,113569.0,1601.0,-150.0
2026-04-09 21:58:41.852051,114160,851928695,851930877,0.835456,-0.476288,0.01952,-7.4375,1.96875,-5.43375,-24.240002,14.928,16.232,concentric,5,3.0,35965.0,387295.0,113569.0,1601.0,-150.0
2026-04-09 21:58:41.882191,114161,851943265,851943741,0.83936,-0.499712,0.027328,-7.76125,0.8225,-4.69,-24.544,14.608001,15.320001,concentric,5,3.0,35965.0,387295.0,113569.0,1601.0,-150.0
2026-04-09 21:58:41.885763,114162,851952595,851954463,0.83936,-0.499712,0.027328,-6.16,0.27125,-4.97,-24.544,14.608001,15.320001,concentric,5,3.0,35965.0,387295.0,113569.0,1601.0,-150.0
2026-04-09 21:58:41.888304,114163,851961673,851963222,0.847168,-0.493856,0.02928,-4.7075,-0.5075,-4.78625,-23.416,14.816001,15.112,concentric,5,3.0,35965.0,387295.0,113569.0,1601.0,-150.0
