pc_time,serial_num,sensor_ts,host_ts,ax,ay,az,gx,gy,gz,mx,my,mz,phase,rpe,weight_kg,ppg_a,ppg_b,ppg_c,ppg_d,ppg_e
2026-04-09 21:58:41.946957,114173,851971264,851972004,0.847168,-0.493856,0.02928,-2.2925,0.00875,-4.62,-23.416,14.816001,15.112,eccentric,5,3.0,36052.0,390112.0,115528.0,1885.0,-145.0
2026-04-09 21:58:41.949520,114174,851986376,851986935,0.84912,-0.491904,0.052704,0.81375,-0.34125,-4.06,-23.624,15.144001,16.016,eccentric,5,3.0,36052.0,390112.0,115528.0,1885.0,-145.0
2026-04-09 21:58:41.952030,114175,851995532,851997681,0.84912,-0.491904,0.052704,6.475,-1.16375,-3.71875,-23.624,15.144001,16.016,eccentric,5,3.0,36052.0,390112.0,115528.0,1885.0,-145.0
2026-04-09 21:58:41.954553,114176,852004496,852006411,0.853024,-0.474336,0.054656,12.43375,-1.2775,-3.71,-23.792002,15.128,15.408001,eccentric,5,3.0,36052.0,390112.0,115528.0,1885.0,-145.0
2026-04-09 21:58:41.957009,114177,852013475,852015127,0.853024,-0.474336,0.054656,15.11125,-0.6825,-3.9025,-23.792002,15.128,15.408001,eccentric,5,3.0,36052.0,390112.0,115528.0,1885.0,-145.0
2026-04-09 21:58:41.959514,114178,852028055,852030083,0.845216,-0.464576,0.060512,15.417501,-0.455,-3.955,-23.656002,14.592001,15.312,eccentric,5,3.0,36052.0,390112.0,115528.0,1885.0,-145.0
2026-04-09 21:58:41.962042,114179,852037016,852038802,0.845216,-0.464576,0.060512,13.9125,0.1575,-3.54375,-23.656002,14.592001,15.312,eccentric,5,3.0,36052.0,390112.0,115528.0,1885.0,-145.0
2026-04-09 21:58:41.969523,114180,852046023,852047544,0.845216,-0.431392,0.05856,12.6875,0.32375,-3.59625,-24.152,14.816001,15.296001,eccentric,5,3.0,36052.0,390112.0,115528.0,1885.0,-145.0
2026-04-09 21:58:41.999654,114181,852060526,852062402,0.835456,-0.441152,0.062464,9.09125,1.12875,-3.49125,-23.704,15.176001,15.768001,eccentric,5,3.0,36052.0,390112.0,115528.0,1885.0,-145.0
2026-04-09 21:58:42.029466,114191,852069809,852071169,0.835456,-0.441152,0.062464,6.1425,1.39125,-3.70125,-23.704,15.176001,15.768001,eccentric,5,3.0,36132.0,390770.0,116092.0,1963.0,-141.0
2026-04-09 21:58:42.031990,114192,852078809,852079914,0.835456,-0.441152,0.062464,5.25875,1.25125,-4.05125,-23.704,15.176001,15.768001,eccentric,5,3.0,36132.0,390770.0,116092.0,1963.0,-141.0
2026-04-09 21:58:42.034496,114193,852087742,852088721,0.83936,-0.452864,0.070272,2.2575,1.75,-3.8325,-24.016,15.136001,14.992001,eccentric,5,3.0,36132.0,390770.0,116092.0,1963.0,-141.0
2026-04-09 21:58:42.036999,114194,852102278,852103636,0.825696,-0.447008,0.081984,-0.8925,1.96875,-3.54375,-24.712002,15.384001,17.0,eccentric,5,3.0,36132.0,390770.0,116092.0,1963.0,-141.0
2026-04-09 21:58:42.039501,114195,852111265,852112360,0.825696,-0.447008,0.081984,-1.11125,2.065,-3.255,-24.712002,15.384001,17.0,eccentric,5,3.0,36132.0,390770.0,116092.0,1963.0,-141.0
2026-04-09 21:58:42.044519,114196,852120186,852121051,0.833504,-0.443104,0.042944,-1.785,1.82,-2.86125,-24.712002,15.384001,14.864,eccentric,5,3.0,36132.0,390770.0,116092.0,1963.0,-141.0
2026-04-09 21:58:42.074603,114197,852134694,852135968,0.833504,-0.443104,0.042944,-2.765,1.81125,-3.43875,-23.6,15.296001,14.864,eccentric,5,3.0,36132.0,390770.0,116092.0,1963.0,-141.0
2026-04-09 21:58:42.078321,114198,852143634,852144702,0.83936,-0.441152,0.037088,-4.24375,0.0525,-3.17625,-23.056002,14.832001,15.624001,eccentric,5,3.0,36132.0,390770.0,116092.0,1963.0,-141.0
2026-04-09 21:58:42.080737,114199,852152560,852153385,0.83936,-0.441152,0.037088,-6.2125,-1.7675,-2.91375,-23.056002,14.832001,15.624001,eccentric,5,3.0,36132.0,390770.0,116092.0,1963.0,-141.0
2026-04-09 21:58:42.110984,114200,852167038,852168326,0.843264,-0.445056,0.05856,-8.155,-2.835,-2.065,-23.864,15.264001,16.28,eccentric,5,3.0,36132.0,390770.0,116092.0,1963.0,-141.0
2026-04-09 21:58:42.139457,114211,852176002,852177106,0.843264,-0.445056,0.05856,-7.67375,-3.77125,-2.5725,-23.864,15.264001,16.28,eccentric,5,3.0,35973.0,388164.0,114097.0,1659.0,-139.0
2026-04-09 21:58:42.142017,114212,852184925,852185801,0.83936,-0.445056,0.072224,-5.88,-3.84125,-2.065,-22.856,14.448001,14.728001,eccentric,5,3.0,35973.0,388164.0,114097.0,1659.0,-139.0
2026-04-09 21:58:42.144526,114213,852199457,852200802,0.83936,-0.445056,0.072224,-3.605,-4.13875,-1.6275,-22.856,14.448001,14.728001,eccentric,5,3.0,35973.0,388164.0,114097.0,1659.0,-139.0
2026-04-09 21:58:42.147004,114214,852208484,852209528,0.85888,-0.417728,0.031232,-1.42625,-4.69875,-1.79375,-23.296001,14.728001,15.68,eccentric,5,3.0,35973.0,388164.0,114097.0,1659.0,-139.0
2026-04-09 21:58:42.149497,114215,852217417,852218245,0.85888,-0.417728,0.031232,1.1025,-5.73125,-3.535,-23.296001,14.728001,15.68,eccentric,5,3.0,35973.0,388164.0,114097.0,1659.0,-139.0
2026-04-09 21:58:42.152596,114216,852226375,852226954,0.88816,-0.443104,0.013664,2.51125,-6.755,-3.57875,-23.032001,15.096001,16.032001,eccentric,5,3.0,35973.0,388164.0,114097.0,1659.0,-139.0
2026-04-09 21:58:42.184699,114217,852241121,852241931,0.895968,-0.4392,0.033184,4.515,-8.35625,-3.35125,-22.288,14.688001,14.6,eccentric,5,3.0,35973.0,388164.0,114097.0,1659.0,-139.0
2026-04-09 21:58:42.188299,114218,852250076,852250653,0.895968,-0.4392,0.033184,6.11625,-9.5025,-2.87,-22.288,14.688001,14.6,eccentric,5,3.0,35973.0,388164.0,114097.0,1659.0,-139.0
2026-04-09 21:58:42.190836,114219,852259225,852261406,0.895968,-0.4392,0.033184,4.66375,-10.815,-1.9075,-22.288,14.688001,14.6,eccentric,5,3.0,35973.0,388164.0,114097.0,1659.0,-139.0
2026-04-09 21:58:42.215874,114229,852273870,852274332,0.901824,-0.456768,0.027328,7.81375,-11.2875,-1.6275,-22.28,15.272,14.352,eccentric,5,3.0,36097.0,388185.0,114235.0,1669.0,-142.0
2026-04-09 21:58:42.218325,114230,852283478,852285127,0.901824,-0.44896,0.00976,12.01375,-12.17125,-1.14625,-22.848001,15.168001,15.120001,eccentric,5,3.0,36097.0,388185.0,114235.0,1669.0,-142.0
2026-04-09 21:58:42.220879,114231,852292454,852293844,0.901824,-0.44896,0.00976,15.89875,-12.59125,-0.8925,-22.848001,15.168001,15.120001,eccentric,5,3.0,36097.0,388185.0,114235.0,1669.0,-142.0
2026-04-09 21:58:42.223299,114232,852301438,852302571,0.880352,-0.452864,0.025376,16.26625,-12.41625,-0.81375,-22.232,15.368001,14.752001,eccentric,5,3.0,36097.0,388185.0,114235.0,1669.0,-142.0
2026-04-09 21:58:42.253509,114233,852315954,852317603,0.880352,-0.452864,0.025376,14.971251,-13.685,-0.00875,-22.232,15.368001,14.752001,eccentric,5,3.0,36097.0,388185.0,114235.0,1669.0,-142.0
2026-04-09 21:58:42.257003,114234,852324848,852326320,0.853024,-0.447008,0.044896,12.705,-14.63875,0.525,-21.944,15.288001,15.136001,eccentric,5,3.0,36097.0,388185.0,114235.0,1669.0,-142.0
2026-04-09 21:58:42.259549,114235,852333763,852335011,0.853024,-0.447008,0.044896,10.22875,-14.13125,1.68875,-21.944,15.288001,15.136001,eccentric,5,3.0,36097.0,388185.0,114235.0,1669.0,-142.0
2026-04-09 21:58:42.289721,114236,852348341,852350095,0.831552,-0.447008,0.05856,7.8925,-13.72875,1.995,-22.072,15.6,17.232,eccentric,5,3.0,36097.0,388185.0,114235.0,1669.0,-142.0
2026-04-09 21:58:42.293319,114237,852357256,852358799,0.831552,-0.447008,0.05856,5.8275,-13.11625,2.1525,-22.072,15.6,17.232,eccentric,5,3.0,36097.0,388185.0,114235.0,1669.0,-142.0
2026-04-09 21:58:42.295813,114238,852366170,852367489,0.81984,-0.433344,0.040992,4.71625,-12.1625,2.03875,-21.704,15.456,15.272,eccentric,5,3.0,36097.0,388185.0,114235.0,1669.0,-142.0
2026-04-09 21:58:42.324605,114248,852375253,852376198,0.81984,-0.433344,0.040992,3.22875,-11.515,1.77625,-21.704,15.456,15.272,eccentric,5,3.0,36091.0,388829.0,114679.0,1731.0,-149.0
2026-04-09 21:58:42.328005,114249,852389736,852391190,0.817888,-0.447008,0.060512,0.5425,-10.57,1.98625,-21.320002,15.176001,14.816001,eccentric,5,3.0,36091.0,388829.0,114679.0,1731.0,-149.0
2026-04-09 21:58:42.330470,114250,852398678,852399889,0.817888,-0.447008,0.060512,-4.3925,-9.765,1.715,-21.320002,15.176001,14.816001,eccentric,5,3.0,36091.0,388829.0,114679.0,1731.0,-149.0
2026-04-09 21:58:42.332046,114251,852407564,852408649,0.808128,-0.452864,0.05856,-5.94125,-9.0825,2.19625,-21.512001,16.208,16.560001,eccentric,5,3.0,36091.0,388829.0,114679.0,1731.0,-149.0
2026-04-09 21:58:42.363288,114252,852422077,852423596,0.804224,-0.454816,0.03904,-6.7025,-8.60125,1.68875,-21.872002,14.64,15.624001,eccentric,5,3.0,36091.0,388829.0,114679.0,1731.0,-149.0
2026-04-09 21:58:42.365496,114253,852430993,852432288,0.804224,-0.454816,0.03904,-7.7525,-7.945,1.26,-21.872002,14.64,15.624001,eccentric,5,3.0,36091.0,388829.0,114679.0,1731.0,-149.0
2026-04-09 21:58:42.369956,114254,852439888,852440995,0.804224,-0.454816,0.03904,-9.7125,-7.37625,0.18375,-21.872002,14.64,15.624001,eccentric,5,3.0,36091.0,388829.0,114679.0,1731.0,-149.0
2026-04-09 21:58:42.398549,114255,852454432,852455903,0.81008,-0.437248,0.017568,-11.7425,-6.5975,-0.8575,-20.808,15.240001,15.936001,eccentric,5,3.0,36091.0,388829.0,114679.0,1731.0,-149.0
2026-04-09 21:58:42.402215,114256,852463356,852464630,0.817888,-0.45872,0.013664,-13.37875,-6.32625,-2.9225,-20.368,15.616001,14.848001,eccentric,5,3.0,36091.0,388829.0,114679.0,1731.0,-149.0
2026-04-09 21:58:42.430556,114267,852472721,852473436,0.817888,-0.45872,0.013664,-14.39375,-5.6875,-4.50625,-20.368,15.616001,14.848001,eccentric,5,3.0,35813.0,386439.0,112683.0,1451.0,-142.0
2026-04-09 21:58:42.431969,114268,852482126,852484238,0.843264,-0.47824,0.003904,-14.81375,-5.81,-4.76875,-20.288,15.352001,16.416,eccentric,5,3.0,35813.0,386439.0,112683.0,1451.0,-142.0
2026-04-09 21:58:42.434573,114269,852496607,852497135,0.843264,-0.47824,0.003904,-9.23125,-5.5475,-5.10125,-20.288,15.352001,16.416,eccentric,5,3.0,35813.0,386439.0,112683.0,1451.0,-142.0
2026-04-09 21:58:42.437048,114270,852506010,852507914,0.870592,-0.450912,0.003904,-7.805,-4.36625,-5.50375,-21.136002,15.408001,15.720001,eccentric,5,3.0,35813.0,386439.0,112683.0,1451.0,-142.0
2026-04-09 21:58:42.439541,114271,852514998,852516664,0.870592,-0.450912,0.003904,-6.67625,-3.05375,-4.78625,-21.136002,15.408001,15.720001,eccentric,5,3.0,35813.0,386439.0,112683.0,1451.0,-142.0
2026-04-09 21:58:42.469770,114272,852529479,852531606,0.85888,-0.454816,0.005856,-3.815,-2.0825,-6.29125,-20.904001,15.080001,15.840001,eccentric,5,3.0,35813.0,386439.0,112683.0,1451.0,-142.0
2026-04-09 21:58:42.474063,114273,852538389,852540304,0.85888,-0.454816,0.005856,-1.6275,-1.33875,-7.02625,-20.904001,15.080001,15.840001,eccentric,5,3.0,35813.0,386439.0,112683.0,1451.0,-142.0
2026-04-09 21:58:42.475824,114274,852547277,852548987,0.847168,-0.398208,-0.003904,-0.4725,-1.89,-7.5075,-19.728,15.544001,14.472001,eccentric,5,3.0,35813.0,386439.0,112683.0,1451.0,-142.0
2026-04-09 21:58:42.479514,114275,852556199,852557678,0.847168,-0.398208,-0.003904,-2.6075,-2.1525,-8.085,-19.728,15.544001,14.472001,eccentric,5,3.0,35813.0,386439.0,112683.0,1451.0,-142.0
2026-04-09 21:58:42.535818,114285,852570641,852572636,0.817888,-0.437248,0.007808,-5.6175,-2.73,-9.66875,-19.976002,15.224001,15.584001,eccentric,5,3.0,35665.0,387937.0,113588.0,1602.0,-137.0
2026-04-09 21:58:42.538343,114286,852580037,852581443,0.817888,-0.437248,0.007808,-5.7575,-3.15,-10.78875,-19.976002,15.224001,15.584001,eccentric,5,3.0,35665.0,387937.0,113588.0,1602.0,-137.0
2026-04-09 21:58:42.540840,114287,852588965,852590172,0.792512,-0.404064,-0.001952,-4.96125,-3.12375,-11.71625,-20.04,14.856001,14.080001,eccentric,5,3.0,35665.0,387937.0,113588.0,1602.0,-137.0
2026-04-09 21:58:42.543299,114288,852603432,852605128,0.81008,-0.347456,-0.017568,-7.41125,-3.01,-14.0525,-20.408,15.088,15.104001,eccentric,5,3.0,35665.0,387937.0,113588.0,1602.0,-137.0
2026-04-09 21:58:42.545889,114289,852612432,852613827,0.81008,-0.347456,-0.017568,-9.82625,-1.96,-15.16375,-20.408,15.088,15.104001,eccentric,5,3.0,35665.0,387937.0,113588.0,1602.0,-137.0
2026-04-09 21:58:42.553490,114290,852621371,852622564,0.81008,-0.347456,0.013664,-13.3,-1.2075,-16.275,-20.408,15.088,15.104001,eccentric,5,3.0,35665.0,387937.0,113588.0,1602.0,-137.0
2026-04-09 21:58:42.582323,114291,852635923,852637482,0.798368,-0.423584,0.001952,-14.35,-1.67125,-16.91375,-20.560001,14.352,12.984,eccentric,5,3.0,35665.0,387937.0,113588.0,1602.0,-137.0
2026-04-09 21:58:42.585911,114292,852644816,852646164,0.774944,-0.402112,0.013664,-9.345,-1.8725,-16.415,-20.256,14.048,14.496,eccentric,5,3.0,35665.0,387937.0,113588.0,1602.0,-137.0
2026-04-09 21:58:42.588410,114293,852653715,852654866,0.774944,-0.402112,0.013664,-8.5925,-2.05625,-17.5525,-20.256,14.048,14.496,eccentric,5,3.0,35665.0,387937.0,113588.0,1602.0,-137.0
2026-04-09 21:58:42.590829,114294,852662640,852663555,0.747616,-0.411872,-0.003904,-6.37875,-1.785,-17.8675,-20.240002,14.448001,16.848001,eccentric,5,3.0,35665.0,387937.0,113588.0,1602.0,-137.0
2026-04-09 21:58:42.615751,114304,852677362,852678793,0.747616,-0.411872,-0.003904,-3.465,-1.5225,-19.08375,-20.240002,14.448001,16.848001,eccentric,5,3.0,35476.0,384839.0,111270.0,1308.0,-143.0
2026-04-09 21:58:42.618310,114305,852686366,852687532,0.745664,-0.394304,-0.013664,-1.4,-0.16625,-19.985,-20.472,14.68,15.736001,eccentric,5,3.0,35476.0,384839.0,111270.0,1308.0,-143.0
2026-04-09 21:58:42.620796,114306,852695480,852696237,0.745664,-0.394304,-0.013664,0.11375,0.5425,-19.06625,-20.472,14.68,15.736001,eccentric,5,3.0,35476.0,384839.0,111270.0,1308.0,-143.0
2026-04-09 21:58:42.651996,114307,852710424,852711137,0.75152,-0.386496,-0.027328,-1.155,2.54625,-19.8275,-20.416,14.296001,16.072,eccentric,5,3.0,35476.0,384839.0,111270.0,1308.0,-143.0
2026-04-09 21:58:42.654224,114308,852719741,852721861,0.75152,-0.386496,-0.027328,-5.80125,3.87625,-21.23625,-20.416,14.296001,16.072,eccentric,5,3.0,35476.0,384839.0,111270.0,1308.0,-143.0
2026-04-09 21:58:42.658826,114309,852728798,852730571,0.763232,-0.396256,-0.015616,-7.37625,4.15625,-20.2475,-20.464,13.992001,14.752001,eccentric,5,3.0,35476.0,384839.0,111270.0,1308.0,-143.0
2026-04-09 21:58:42.662462,114310,852737784,852739276,0.763232,-0.396256,-0.015616,-5.7925,3.15875,-20.23,-20.464,13.992001,14.752001,eccentric,5,3.0,35476.0,384839.0,111270.0,1308.0,-143.0
2026-04-09 21:58:42.691090,114311,852752340,852754161,0.753472,-0.406016,0.0,-4.69875,2.72125,-19.57375,-19.792002,13.56,15.064001,eccentric,5,3.0,35476.0,384839.0,111270.0,1308.0,-143.0
2026-04-09 21:58:42.694606,114312,852761298,852762895,0.753472,-0.406016,0.0,-2.66875,3.3425,-19.52125,-19.792002,13.56,15.064001,eccentric,5,3.0,35476.0,384839.0,111270.0,1308.0,-143.0
2026-04-09 21:58:42.697104,114313,852770226,852771596,0.749568,-0.378688,-0.02928,2.72125,3.6925,-19.36375,-20.576,13.304001,14.256001,eccentric,5,3.0,35476.0,384839.0,111270.0,1308.0,-143.0
2026-04-09 21:58:42.727085,114324,852784780,852786667,0.753472,-0.363072,-0.033184,4.8825,4.7425,-19.50375,-19.880001,13.672001,14.920001,eccentric,5,3.0,35472.0,383313.0,110228.0,1174.0,-139.0
2026-04-09 21:58:42.729535,114325,852793819,852795410,0.753472,-0.363072,-0.033184,0.46375,6.30875,-20.51,-19.880001,13.672001,14.920001,eccentric,5,3.0,35472.0,383313.0,110228.0,1174.0,-139.0
2026-04-09 21:58:42.732034,114326,852802823,852804193,0.749568,-0.372832,-0.011712,-2.82625,6.5625,-20.8775,-19.880001,13.360001,15.136001,eccentric,5,3.0,35472.0,383313.0,110228.0,1174.0,-139.0
2026-04-09 21:58:42.734567,114327,852811812,852812896,0.749568,-0.372832,-0.011712,-4.095,5.71375,-20.62375,-20.288,13.360001,15.136001,eccentric,5,3.0,35472.0,383313.0,110228.0,1174.0,-139.0
2026-04-09 21:58:42.766112,114328,852826346,852827841,0.730048,-0.40016,-0.003904,-0.8225,5.76625,-20.1075,-19.976002,13.608001,14.936001,eccentric,5,3.0,35472.0,383313.0,110228.0,1174.0,-139.0
2026-04-09 21:58:42.769602,114329,852835277,852836510,0.730048,-0.40016,-0.003904,5.075,5.7225,-20.64125,-19.976002,13.608001,14.936001,eccentric,5,3.0,35472.0,383313.0,110228.0,1174.0,-139.0
2026-04-09 21:58:42.772109,114330,852844199,852845239,0.753472,-0.33184,-0.037088,8.3125,5.81875,-20.15125,-19.288,13.68,13.512001,eccentric,5,3.0,35472.0,383313.0,110228.0,1174.0,-139.0
2026-04-09 21:58:42.802288,114331,852858694,852860174,0.753472,-0.33184,-0.037088,9.98375,6.195,-21.07,-19.288,13.68,13.512001,eccentric,5,3.0,35472.0,383313.0,110228.0,1174.0,-139.0
2026-04-09 21:58:42.805759,114332,852867616,852868876,0.772992,-0.347456,-0.044896,7.53375,7.20125,-22.8375,-19.984001,13.512001,15.248001,eccentric,5,3.0,35472.0,383313.0,110228.0,1174.0,-139.0
2026-04-09 21:58:42.834525,114342,852876820,852877848,0.772992,-0.347456,-0.044896,2.77375,7.95375,-23.8525,-19.984001,13.512001,15.248001,eccentric,5,3.0,35422.0,382868.0,109904.0,1166.0,-145.0
2026-04-09 21:58:42.837105,114343,852891385,852892743,0.763232,-0.36112,0.0,2.45875,8.04125,-22.26875,-20.608002,13.400001,15.632001,eccentric,5,3.0,35422.0,382868.0,109904.0,1166.0,-145.0
2026-04-09 21:58:42.839549,114344,852900376,852901552,0.763232,-0.36112,0.0,8.77625,8.18125,-22.3475,-20.608002,13.400001,15.632001,eccentric,5,3.0,35422.0,382868.0,109904.0,1166.0,-145.0
2026-04-09 21:58:42.842060,114345,852909346,852910273,0.732,-0.363072,-0.003904,15.4,8.30375,-23.79125,-21.080002,13.384001,16.464,eccentric,5,3.0,35422.0,382868.0,109904.0,1166.0,-145.0
2026-04-09 21:58:42.844532,114346,852918267,852918983,0.732,-0.363072,-0.003904,16.44125,8.505,-24.22875,-21.080002,13.384001,16.464,eccentric,5,3.0,35422.0,382868.0,109904.0,1166.0,-145.0
2026-04-09 21:58:42.875037,114347,852933218,852933908,0.765184,-0.327936,-0.064416,13.78125,8.295,-23.8,-21.240002,12.808001,16.816,eccentric,5,3.0,35422.0,382868.0,109904.0,1166.0,-145.0
2026-04-09 21:58:42.878280,114348,852942508,852944715,0.765184,-0.327936,-0.064416,12.27625,8.155,-22.68,-21.240002,12.808001,16.816,eccentric,5,3.0,35422.0,382868.0,109904.0,1166.0,-145.0
2026-04-09 21:58:42.880804,114349,852951437,852953418,0.769088,-0.349408,-0.01952,7.91,8.198751,-23.47625,-20.712002,12.632001,15.816001,eccentric,5,3.0,35422.0,382868.0,109904.0,1166.0,-145.0
2026-04-09 21:58:42.912208,114350,852965979,852966318,0.774944,-0.38064,-0.015616,6.13375,8.37375,-24.99,-21.048,13.000001,15.920001,eccentric,5,3.0,35422.0,382868.0,109904.0,1166.0,-145.0
2026-04-09 21:58:42.937049,114360,852975720,852977165,0.774944,-0.38064,-0.015616,11.66375,8.68,-24.87625,-21.048,13.000001,15.920001,eccentric,5,3.0,35417.0,382621.0,109808.0,1174.0,-141.0
2026-04-09 21:58:42.939541,114361,852984814,852985851,0.757376,-0.347456,-0.042944,16.30125,7.8575,-26.50375,-20.480001,13.056001,17.168001,eccentric,5,3.0,35417.0,382621.0,109808.0,1174.0,-141.0
2026-04-09 21:58:42.942053,114362,852993734,852994547,0.757376,-0.347456,-0.042944,17.491251,7.34125,-25.83,-20.480001,13.056001,17.168001,eccentric,5,3.0,35417.0,382621.0,109808.0,1174.0,-141.0
2026-04-09 21:58:42.944568,114363,853008245,853009485,0.786656,-0.288896,-0.037088,14.65625,7.95375,-24.3075,-21.512001,12.544001,17.160002,eccentric,5,3.0,35417.0,382621.0,109808.0,1174.0,-141.0
2026-04-09 21:58:42.947062,114364,853017146,853018246,0.786656,-0.288896,-0.037088,11.55,8.93375,-23.17,-21.512001,12.544001,17.160002,eccentric,5,3.0,35417.0,382621.0,109808.0,1174.0,-141.0
2026-04-09 21:58:42.949554,114365,853026067,853027018,0.782752,-0.32208,-0.013664,11.24375,10.5175,-24.22,-21.952002,12.768001,18.008001,eccentric,5,3.0,35417.0,382621.0,109808.0,1174.0,-141.0
2026-04-09 21:58:42.979786,114366,853040540,853041961,0.782752,-0.32208,-0.013664,13.9125,11.12125,-27.615,-21.952002,12.768001,18.008001,eccentric,5,3.0,35417.0,382621.0,109808.0,1174.0,-141.0
2026-04-09 21:58:42.983351,114367,853049464,853050651,0.774944,-0.269376,-0.015616,21.4025,10.386251,-31.43,-21.224,12.824,17.064001,eccentric,5,3.0,35417.0,382621.0,109808.0,1174.0,-141.0
2026-04-09 21:58:42.985805,114368,853058372,853059365,0.774944,-0.269376,-0.015616,24.22875,9.9575,-31.82375,-21.224,12.824,17.064001,eccentric,5,3.0,35417.0,382621.0,109808.0,1174.0,-141.0
2026-04-09 21:58:43.042046,114379,853072950,853074707,0.786656,-0.386496,-0.003904,20.265,9.96625,-31.535,-21.28,12.488001,16.968,eccentric,5,3.0,35563.0,382924.0,110226.0,1205.0,-158.0
2026-04-09 21:58:43.044563,114380,853081938,853083422,0.786656,-0.386496,-0.003904,15.58375,12.01375,-29.2425,-21.28,12.488001,16.968,eccentric,5,3.0,35563.0,382924.0,110226.0,1205.0,-158.0
2026-04-09 21:58:43.047046,114381,853090888,853092162,0.788608,-0.277184,0.050752,12.67,13.36125,-25.34875,-21.52,12.592001,18.12,eccentric,5,3.0,35563.0,382924.0,110226.0,1205.0,-158.0
2026-04-09 21:58:43.049557,114382,853099794,853100841,0.788608,-0.277184,0.050752,11.29625,15.28625,-24.24625,-21.52,12.592001,18.12,eccentric,5,3.0,35563.0,382924.0,110226.0,1205.0,-158.0
2026-04-09 21:58:43.052085,114383,853114414,853115809,0.784704,-0.255712,0.007808,10.6575,16.49375,-26.64375,-23.160002,12.344001,19.36,eccentric,5,3.0,35563.0,382924.0,110226.0,1205.0,-158.0
2026-04-09 21:58:43.054553,114384,853123411,853124595,0.784704,-0.349408,0.005856,13.5975,16.24875,-30.00375,-23.160002,12.344001,19.36,eccentric,5,3.0,35563.0,382924.0,110226.0,1205.0,-158.0
2026-04-09 21:58:43.057039,114385,853132342,853133318,0.774944,-0.355264,0.005856,17.43875,14.595,-30.38875,-23.304,12.360001,18.2,eccentric,5,3.0,35563.0,382924.0,110226.0,1205.0,-158.0
2026-04-09 21:58:43.087289,114386,853146910,853148255,0.806176,-0.26352,0.066368,19.95,13.37875,-28.14,-22.720001,12.096001,17.528002,eccentric,5,3.0,35563.0,382924.0,110226.0,1205.0,-158.0
2026-04-09 21:58:43.090836,114387,853155812,853156930,0.806176,-0.26352,0.066368,17.0625,14.8225,-25.06875,-22.720001,12.096001,17.528002,eccentric,5,3.0,35563.0,382924.0,110226.0,1205.0,-158.0
2026-04-09 21:58:43.093251,114388,853164718,853165650,0.792512,-0.277184,0.060512,9.948751,16.73,-23.38875,-22.480001,11.752001,17.136002,eccentric,5,3.0,35563.0,382924.0,110226.0,1205.0,-158.0
2026-04-09 21:58:43.124574,114398,853179360,853180681,0.792512,-0.277184,0.060512,4.96125,17.99,-25.57625,-22.480001,11.752001,17.136002,eccentric,5,3.0,35548.0,385227.0,111843.0,1409.0,-142.0
2026-04-09 21:58:43.127118,114399,853188360,853189423,0.794464,-0.304512,0.033184,8.4875,17.815,-28.74375,-22.68,12.136001,18.184,eccentric,5,3.0,35548.0,385227.0,111843.0,1409.0,-142.0
2026-04-09 21:58:43.129557,114400,853197276,853198146,0.794464,-0.304512,0.033184,15.37375,16.345,-31.7625,-22.68,12.136001,18.184,eccentric,5,3.0,35548.0,385227.0,111843.0,1409.0,-142.0
2026-04-09 21:58:43.132106,114401,853206261,853206893,0.843264,-0.249856,0.037088,20.0725,14.34125,-31.8325,-24.056002,12.000001,19.184,eccentric,5,3.0,35548.0,385227.0,111843.0,1409.0,-142.0
2026-04-09 21:58:43.166113,114402,853221028,853221823,0.843264,-0.249856,0.037088,17.928751,14.5075,-30.51125,-24.056002,12.000001,19.184,eccentric,5,3.0,35548.0,385227.0,111843.0,1409.0,-142.0
2026-04-09 21:58:43.169640,114403,853229941,853230524,0.833504,-0.216672,0.101504,10.465,16.1875,-28.4025,-23.04,12.128,19.208,eccentric,5,3.0,35548.0,385227.0,111843.0,1409.0,-142.0
2026-04-09 21:58:43.172043,114404,853239118,853241261,0.833504,-0.216672,0.101504,3.6575,18.03375,-27.615,-23.04,12.128,19.208,eccentric,5,3.0,35548.0,385227.0,111843.0,1409.0,-142.0
2026-04-09 21:58:43.174664,114405,853253639,853254155,0.784704,-0.23424,0.101504,3.82375,19.10125,-29.1025,-23.304,11.792001,19.056002,eccentric,5,3.0,35548.0,385227.0,111843.0,1409.0,-142.0
2026-04-09 21:58:43.201775,114406,853263021,853264930,0.784704,-0.23424,0.101504,10.9025,17.85,-30.616251,-23.304,11.792001,19.056002,eccentric,5,3.0,35548.0,385227.0,111843.0,1409.0,-142.0
2026-04-09 21:58:43.202080,114407,853271963,853273619,0.753472,-0.27328,0.081984,15.575,16.52875,-31.43,-23.408,11.616,18.784,eccentric,5,3.0,35548.0,385227.0,111843.0,1409.0,-142.0
2026-04-09 21:58:43.227054,114417,853280928,853282484,0.753472,-0.27328,0.081984,16.35375,14.7875,-29.56625,-23.408,11.616,18.784,eccentric,5,3.0,35720.0,387046.0,113202.0,1589.0,-146.0
2026-04-09 21:58:43.229584,114418,853295426,853297447,0.782752,-0.203008,0.046848,13.15125,13.16875,-26.18875,-24.216002,10.776001,18.76,eccentric,5,3.0,35720.0,387046.0,113202.0,1589.0,-146.0
2026-04-09 21:58:43.232092,114419,853304302,853306139,0.782752,-0.128832,0.138592,6.9475,13.37,-21.875,-24.216002,10.776001,18.76,eccentric,5,3.0,35720.0,387046.0,113202.0,1589.0,-146.0
2026-04-09 21:58:43.237138,114420,853313304,853314825,0.7808,-0.128832,0.138592,0.76125,14.74375,-19.88875,-24.728,10.76,20.344002,eccentric,5,3.0,35720.0,387046.0,113202.0,1589.0,-146.0
2026-04-09 21:58:43.267284,114421,853327795,853329747,0.76128,-0.255712,0.134688,-3.70125,15.54,-22.23375,-24.152,11.024,19.144001,eccentric,5,3.0,35720.0,387046.0,113202.0,1589.0,-146.0
2026-04-09 21:58:43.270903,114422,853336679,853338444,0.76128,-0.255712,0.134688,-1.4,14.86625,-23.345,-24.152,11.024,19.144001,eccentric,5,3.0,35720.0,387046.0,113202.0,1589.0,-146.0
2026-04-09 21:58:43.273415,114423,853345618,853347144,0.802272,-0.220576,0.035136,3.115,12.425,-23.30125,-23.544,10.872001,19.136002,eccentric,5,3.0,35720.0,387046.0,113202.0,1589.0,-146.0
2026-04-09 21:58:43.303601,114424,853360119,853362057,0.802272,-0.220576,0.035136,5.31125,9.66875,-20.8075,-23.544,10.872001,19.136002,eccentric,5,3.0,35720.0,387046.0,113202.0,1589.0,-146.0
2026-04-09 21:58:43.307091,114425,853369027,853370754,0.80032,-0.162016,0.076128,2.65125,8.12875,-15.95125,-23.696001,10.888001,19.384,eccentric,5,3.0,35720.0,387046.0,113202.0,1589.0,-146.0
2026-04-09 21:58:43.337113,114436,853378232,853379459,0.80032,-0.162016,0.076128,-3.885,6.51,-12.78375,-23.696001,10.888001,19.384,eccentric,5,3.0,35647.0,386491.0,112711.0,1519.0,-155.0
2026-04-09 21:58:43.339609,114437,853387169,853388235,0.804224,-0.222528,0.099552,-7.105,5.6875,-12.2325,-23.808,10.360001,19.080002,eccentric,5,3.0,35647.0,386491.0,112711.0,1519.0,-155.0
2026-04-09 21:58:43.342107,114438,853401807,853403174,0.804224,-0.222528,0.099552,-5.1975,4.48,-13.83375,-23.808,10.360001,19.080002,eccentric,5,3.0,35647.0,386491.0,112711.0,1519.0,-155.0
2026-04-09 21:58:43.344566,114439,853410765,853411883,0.815936,-0.206912,0.091744,0.8925,2.77375,-15.02375,-23.256,10.712001,19.048,eccentric,5,3.0,35647.0,386491.0,112711.0,1519.0,-155.0
2026-04-09 21:58:43.347868,114440,853419721,853420598,0.815936,-0.206912,0.091744,3.01875,1.5225,-14.72625,-23.256,10.712001,19.048,eccentric,5,3.0,35647.0,386491.0,112711.0,1519.0,-155.0
2026-04-09 21:58:43.379935,114441,853434264,853435485,0.835456,-0.220576,0.064416,-1.26875,1.67125,-12.74875,-24.456001,10.6,19.024,eccentric,5,3.0,35647.0,386491.0,112711.0,1519.0,-155.0
2026-04-09 21:58:43.383432,114442,853443245,853444202,0.835456,-0.220576,0.064416,-6.32625,2.03875,-10.21125,-24.456001,10.6,19.024,eccentric,5,3.0,35647.0,386491.0,112711.0,1519.0,-155.0
2026-04-09 21:58:43.385786,114443,853452169,853452904,0.837408,-0.189344,0.10736,-9.1525,2.82625,-10.03625,-23.768002,10.976001,21.048,eccentric,5,3.0,35647.0,386491.0,112711.0,1519.0,-155.0
2026-04-09 21:58:43.388426,114444,853461682,853463658,0.837408,-0.189344,0.10736,-8.4525,3.0975,-12.25,-23.768002,10.976001,21.048,eccentric,5,3.0,35647.0,386491.0,112711.0,1519.0,-155.0
2026-04-09 21:58:43.418552,114445,853476219,853476553,0.825696,-0.206912,0.070272,-3.5175,2.73875,-14.88375,-25.464,10.624001,20.272001,eccentric,5,3.0,35647.0,386491.0,112711.0,1519.0,-155.0
2026-04-09 21:58:43.444598,114455,853485886,853487357,0.804224,-0.23424,0.037088,-0.63875,2.66,-15.75875,-24.6,10.608001,19.256,eccentric,5,3.0,35609.0,386832.0,112894.0,1547.0,-149.0
2026-04-09 21:58:43.447094,114456,853494804,853496096,0.804224,-0.23424,0.037088,-2.31,1.65375,-13.5975,-24.6,10.608001,19.256,eccentric,5,3.0,35609.0,386832.0,112894.0,1547.0,-149.0
2026-04-09 21:58:43.449581,114457,853509307,853511050,0.815936,-0.167872,0.064416,-5.41625,0.2625,-11.725,-24.576,10.144,19.104,eccentric,5,3.0,35609.0,386832.0,112894.0,1547.0,-149.0
2026-04-09 21:58:43.452140,114458,853518283,853519823,0.815936,-0.167872,0.064416,-5.25875,-0.5075,-10.75375,-24.576,10.144,19.104,eccentric,5,3.0,35609.0,386832.0,112894.0,1547.0,-149.0
2026-04-09 21:58:43.454599,114459,853527230,853528553,0.81008,-0.220576,0.050752,-3.94625,-0.7875,-11.45375,-24.160002,10.104,18.336,eccentric,5,3.0,35609.0,386832.0,112894.0,1547.0,-149.0
2026-04-09 21:58:43.459653,114460,853536256,853537256,0.81008,-0.220576,0.050752,-1.84625,-0.67375,-12.1625,-24.160002,10.104,18.336,eccentric,5,3.0,35609.0,386832.0,112894.0,1547.0,-149.0
2026-04-09 21:58:43.489880,114461,853550808,853552143,0.821792,-0.210816,0.07808,0.7875,-0.735,-12.38125,-23.800001,10.64,19.856,eccentric,5,3.0,35609.0,386832.0,112894.0,1547.0,-149.0
2026-04-09 21:58:43.493309,114462,853559757,853560843,0.821792,-0.210816,0.07808,1.40875,-0.525,-9.66,-23.800001,10.64,19.856,eccentric,5,3.0,35609.0,386832.0,112894.0,1547.0,-149.0
2026-04-09 21:58:43.495840,114463,853568740,853569564,0.812032,-0.181536,0.0488,-2.1875,0.23625,-8.07625,-24.480001,9.952001,18.928001,eccentric,5,3.0,35609.0,386832.0,112894.0,1547.0,-149.0
2026-04-09 21:58:43.523225,114473,853583437,853584477,0.812032,-0.181536,0.0488,-4.15625,0.65625,-8.365,-24.480001,9.952001,18.928001,eccentric,5,3.0,35567.0,385225.0,111841.0,1423.0,-142.0
2026-04-09 21:58:43.525810,114474,853592321,853593315,0.823744,-0.177632,0.033184,-1.505,-0.32375,-9.03875,-25.312,10.048,17.688002,eccentric,5,3.0,35567.0,385225.0,111841.0,1423.0,-142.0
2026-04-09 21:58:43.529185,114475,853601275,853602070,0.823744,-0.177632,0.033184,2.1,-1.33,-9.72125,-25.312,10.048,17.688002,eccentric,5,3.0,35567.0,385225.0,111841.0,1423.0,-142.0
2026-04-09 21:58:43.534608,114476,853610826,853612849,0.823744,-0.201056,0.037088,4.57625,-2.31875,-10.00125,-25.312,10.816001,19.432001,eccentric,5,3.0,35567.0,385225.0,111841.0,1423.0,-142.0
2026-04-09 21:58:43.565737,114477,853625331,853625690,0.823744,-0.216672,0.042944,4.24375,-3.535,-9.8175,-25.312,10.816001,19.432001,eccentric,5,3.0,35567.0,385225.0,111841.0,1423.0,-142.0
2026-04-09 21:58:43.568327,114478,853634538,853636436,0.825696,-0.20496,0.042944,4.1825,-3.92875,-8.72375,-24.816002,10.152,17.2,eccentric,5,3.0,35567.0,385225.0,111841.0,1423.0,-142.0
2026-04-09 21:58:43.576278,114479,853643485,853645159,0.825696,-0.20496,0.042944,3.71,-4.4625,-8.04125,-24.816002,10.152,17.2,eccentric,5,3.0,35567.0,385225.0,111841.0,1423.0,-142.0
2026-04-09 21:58:43.588581,114480,853657986,853660102,0.84912,-0.163968,0.042944,3.85875,-4.12125,-8.3475,-24.576,10.128,18.752,eccentric,5,3.0,35567.0,385225.0,111841.0,1423.0,-142.0
2026-04-09 21:58:43.599554,114481,853666889,853668800,0.845216,-0.203008,0.03904,5.06625,-3.85,-8.81125,-24.328001,9.88,18.52,eccentric,5,3.0,35567.0,385225.0,111841.0,1423.0,-142.0
2026-04-09 21:58:43.621091,114482,853675833,853677516,0.845216,-0.203008,0.03904,5.15375,-3.955,-9.72125,-24.328001,9.88,18.52,eccentric,5,3.0,35567.0,385225.0,111841.0,1423.0,-142.0
2026-04-09 21:58:43.649616,114493,853690407,853692429,0.845216,-0.21472,0.025376,7.105,-4.6025,-10.15,-24.304,10.216001,19.144001,eccentric,5,3.0,35574.0,385976.0,112353.0,1491.0,-135.0
2026-04-09 21:58:43.652246,114494,853699336,853701121,0.845216,-0.21472,0.025376,9.0125,-5.0575,-9.38,-24.304,10.216001,19.144001,eccentric,5,3.0,35574.0,385976.0,112353.0,1491.0,-135.0
2026-04-09 21:58:43.660939,114495,853708352,853709826,0.841312,-0.179584,0.033184,8.47,-5.075,-7.8225,-25.320002,10.064,20.288,eccentric,5,3.0,35574.0,385976.0,112353.0,1491.0,-135.0
2026-04-09 21:58:43.663338,114496,853717311,853718589,0.841312,-0.179584,0.033184,5.90625,-4.34,-6.125,-25.320002,10.064,20.288,concentric,5,3.0,35574.0,385976.0,112353.0,1491.0,-135.0
2026-04-09 21:58:43.665856,114497,853731812,853733543,0.83936,-0.177632,0.040992,3.33375,-3.70125,-5.94125,-25.248001,9.984,20.408,concentric,5,3.0,35574.0,385976.0,112353.0,1491.0,-135.0
2026-04-09 21:58:43.670094,114498,853740778,853742255,0.83936,-0.177632,0.040992,3.28125,-2.52875,-6.79875,-25.248001,9.984,20.408,concentric,5,3.0,35574.0,385976.0,112353.0,1491.0,-135.0
2026-04-09 21:58:43.673300,114499,853749722,853750949,0.8296,-0.183488,0.021472,5.6175,-2.68625,-7.91,-24.456001,10.008,18.864,concentric,5,3.0,35574.0,385976.0,112353.0,1491.0,-135.0
2026-04-09 21:58:43.703546,114500,853764167,853765913,0.8296,-0.183488,0.021472,8.8725,-3.0625,-9.0475,-24.456001,10.008,18.864,concentric,5,3.0,35574.0,385976.0,112353.0,1491.0,-135.0
2026-04-09 21:58:43.706999,114501,853773130,853774620,0.81008,-0.20496,0.023424,11.3925,-3.465,-8.9775,-24.056002,9.176001,18.560001,concentric,5,3.0,35574.0,385976.0,112353.0,1491.0,-135.0
2026-04-09 21:58:43.732287,114511,853782275,853783342,0.81008,-0.20496,0.023424,10.5875,-3.57,-7.46375,-24.056002,9.176001,18.560001,concentric,5,3.0,35519.0,386412.0,112649.0,1546.0,-141.0
2026-04-09 21:58:43.734778,114512,853796806,853798303,0.788608,-0.212768,-0.007808,8.645,-3.87625,-4.97875,-24.416,10.208,18.944,concentric,5,3.0,35519.0,386412.0,112649.0,1546.0,-141.0
2026-04-09 21:58:43.737216,114513,853805769,853807047,0.788608,-0.212768,-0.007808,7.00875,-4.89125,-2.68625,-24.416,10.208,18.944,concentric,5,3.0,35519.0,386412.0,112649.0,1546.0,-141.0
2026-04-09 21:58:43.739681,114514,853814712,853815802,0.788608,-0.199104,-0.001952,5.59125,-5.43375,-0.44625,-25.304,9.92,17.560001,concentric,5,3.0,35519.0,386412.0,112649.0,1546.0,-141.0
2026-04-09 21:58:43.769827,114515,853829282,853830681,0.794464,-0.197152,-0.005856,5.25875,-6.27375,1.295,-23.928001,10.512,18.624,concentric,5,3.0,35519.0,386412.0,112649.0,1546.0,-141.0
2026-04-09 21:58:43.773314,114516,853838204,853839366,0.794464,-0.197152,-0.005856,5.5125,-6.99125,1.89875,-23.928001,10.512,18.624,concentric,5,3.0,35519.0,386412.0,112649.0,1546.0,-141.0
2026-04-09 21:58:43.775895,114517,853847123,853848088,0.794464,-0.201056,0.003904,6.7725,-7.14875,1.96,-23.856,10.472,21.896002,concentric,5,3.0,35519.0,386412.0,112649.0,1546.0,-141.0
2026-04-09 21:58:43.778415,114518,853856018,853856807,0.794464,-0.201056,0.003904,7.98,-7.0525,2.80875,-23.856,10.472,21.896002,concentric,5,3.0,35519.0,386412.0,112649.0,1546.0,-141.0
2026-04-09 21:58:43.808570,114519,853871069,853871734,0.776896,-0.226432,0.00976,6.2825,-6.2475,4.48,-23.664001,10.096001,19.960001,concentric,5,3.0,35519.0,386412.0,112649.0,1546.0,-141.0
2026-04-09 21:58:43.834481,114529,853880508,853882538,0.776896,-0.226432,0.00976,2.4675,-4.96125,6.74625,-23.664001,10.096001,19.960001,concentric,5,3.0,35437.0,385987.0,112189.0,1469.0,-127.0
2026-04-09 21:58:43.837050,114530,853889575,853891255,0.757376,-0.216672,-0.021472,-1.09375,-3.955,9.275,-23.792002,10.368,18.480001,concentric,5,3.0,35437.0,385987.0,112189.0,1469.0,-127.0
2026-04-09 21:58:43.839602,114531,853898787,853900050,0.757376,-0.216672,-0.021472,-2.0475,-3.7975,11.13,-23.792002,10.368,18.480001,concentric,5,3.0,35437.0,385987.0,112189.0,1469.0,-127.0
2026-04-09 21:58:43.842067,114532,853913301,853915025,0.749568,-0.203008,-0.027328,-2.00375,-4.4625,11.55875,-24.336,10.480001,19.52,concentric,5,3.0,35437.0,385987.0,112189.0,1469.0,-127.0
2026-04-09 21:58:43.845841,114533,853922276,853923729,0.749568,-0.203008,-0.027328,-0.7525,-5.8275,12.1625,-24.336,10.480001,19.52,concentric,5,3.0,35437.0,385987.0,112189.0,1469.0,-127.0
2026-04-09 21:58:43.853348,114534,853931234,853932402,0.755424,-0.210816,-0.015616,1.12,-7.28875,12.1625,-24.44,10.608001,18.224,concentric,5,3.0,35437.0,385987.0,112189.0,1469.0,-127.0
2026-04-09 21:58:43.883514,114535,853945739,853947336,0.755424,-0.210816,-0.015616,0.77875,-7.55125,13.39625,-24.44,10.608001,18.224,concentric,5,3.0,35437.0,385987.0,112189.0,1469.0,-127.0
2026-04-09 21:58:43.887106,114536,853954675,853956032,0.753472,-0.236192,0.003904,-0.9975,-7.41125,15.32125,-23.184002,10.824,17.824001,concentric,5,3.0,35437.0,385987.0,112189.0,1469.0,-127.0
2026-04-09 21:58:43.889534,114537,853963570,853964709,0.753472,-0.236192,0.003904,-2.59875,-7.88375,17.59625,-23.184002,10.824,17.824001,concentric,5,3.0,35437.0,385987.0,112189.0,1469.0,-127.0
2026-04-09 21:58:43.947074,114547,853978127,853980153,0.76128,-0.222528,0.005856,-4.22625,-6.99125,19.43375,-22.912,11.224001,17.776001,concentric,5,3.0,35422.0,386539.0,112459.0,1496.0,-138.0
2026-04-09 21:58:43.949577,114548,853987077,853988898,0.7808,-0.238144,-0.017568,-4.83,-6.06375,21.07875,-22.912,11.224001,16.824001,concentric,5,3.0,35422.0,386539.0,112459.0,1496.0,-138.0
2026-04-09 21:58:43.952124,114549,853995983,853997571,0.7808,-0.238144,-0.017568,-5.9675,-5.32,20.825,-23.224,11.488001,16.824001,concentric,5,3.0,35422.0,386539.0,112459.0,1496.0,-138.0
2026-04-09 21:58:43.954501,114550,854004882,854006269,0.7808,-0.238144,-0.017568,-4.64625,-5.15375,21.55125,-23.224,11.488001,16.824001,concentric,5,3.0,35422.0,386539.0,112459.0,1496.0,-138.0
2026-04-09 21:58:43.957080,114551,854019397,854021198,0.782752,-0.201056,-0.01952,-3.75375,-5.55625,21.97125,-23.648,11.144,18.072,concentric,5,3.0,35422.0,386539.0,112459.0,1496.0,-138.0
2026-04-09 21:58:43.959628,114552,854028400,854029951,0.7808,-0.236192,-0.023424,-4.78625,-6.04625,22.3125,-22.568,11.592001,17.720001,concentric,5,3.0,35422.0,386539.0,112459.0,1496.0,-138.0
2026-04-09 21:58:43.965857,114553,854037326,854038737,0.7808,-0.236192,-0.023424,-5.10125,-6.65875,23.16125,-22.568,11.592001,17.720001,concentric,5,3.0,35422.0,386539.0,112459.0,1496.0,-138.0
2026-04-09 21:58:43.997224,114554,854051823,854053671,0.813984,-0.22448,-0.005856,-5.355,-7.4025,23.98375,-22.800001,12.032001,17.560001,concentric,5,3.0,35422.0,386539.0,112459.0,1496.0,-138.0
2026-04-09 21:58:44.000901,114555,854060779,854062369,0.813984,-0.22448,-0.005856,-7.28,-6.1425,23.56375,-22.800001,12.032001,17.560001,concentric,5,3.0,35422.0,386539.0,112459.0,1496.0,-138.0
2026-04-09 21:58:44.003312,114556,854069694,854071085,0.821792,-0.208864,-0.005856,-8.2075,-4.55875,22.26875,-22.504002,11.848001,17.400002,concentric,5,3.0,35422.0,386539.0,112459.0,1496.0,-138.0
2026-04-09 21:58:44.030862,114567,854084357,854086107,0.821792,-0.208864,-0.005856,-7.95375,-3.92875,19.915,-22.504002,11.848001,17.400002,concentric,5,3.0,35432.0,387007.0,112753.0,1530.0,-137.0
2026-04-09 21:58:44.033368,114568,854093450,854094803,0.806176,-0.261568,-0.021472,-7.0525,-4.3575,18.29625,-23.088001,12.112,18.320002,concentric,5,3.0,35432.0,387007.0,112753.0,1530.0,-137.0
2026-04-09 21:58:44.038408,114569,854102399,854103599,0.806176,-0.261568,-0.021472,-3.12375,-4.935,18.3225,-23.088001,12.112,18.320002,concentric,5,3.0,35432.0,387007.0,112753.0,1530.0,-137.0
2026-04-09 21:58:44.040872,114570,854111338,854112320,0.7808,-0.226432,-0.017568,-0.09625,-6.4225,19.4075,-23.368002,12.344001,18.104,concentric,5,3.0,35432.0,387007.0,112753.0,1530.0,-137.0
2026-04-09 21:58:44.072126,114571,854125831,854127258,0.7808,-0.226432,-0.017568,1.02375,-7.7175,20.58875,-23.368002,12.344001,18.104,concentric,5,3.0,35432.0,387007.0,112753.0,1530.0,-137.0
2026-04-09 21:58:44.075020,114572,854134736,854135952,0.737856,-0.271328,0.02928,-1.33,-6.79875,22.37375,-21.28,12.360001,14.528001,concentric,5,3.0,35432.0,387007.0,112753.0,1530.0,-137.0
2026-04-09 21:58:44.077070,114573,854143643,854144635,0.737856,-0.271328,0.02928,-5.9325,-6.01125,23.5025,-21.28,12.360001,14.528001,concentric,5,3.0,35432.0,387007.0,112753.0,1530.0,-137.0
2026-04-09 21:58:44.080884,114574,854158105,854159571,0.733952,-0.290848,-0.00976,-9.70375,-3.7975,24.17625,-21.744001,12.56,16.792002,concentric,5,3.0,35432.0,387007.0,112753.0,1530.0,-137.0
2026-04-09 21:58:44.111149,114575,854167032,854168292,0.733952,-0.290848,-0.00976,-11.78625,-2.84375,25.31375,-21.744001,12.56,16.792002,concentric,5,3.0,35432.0,387007.0,112753.0,1530.0,-137.0
2026-04-09 21:58:44.114657,114576,854175928,854177002,0.696864,-0.267424,-0.040992,-11.92625,-3.7975,26.43375,-21.096,12.432,17.208,concentric,5,3.0,35432.0,387007.0,112753.0,1530.0,-137.0
2026-04-09 21:58:44.139539,114586,854190463,854191946,0.675392,-0.238144,-0.037088,-9.205,-6.8075,27.65875,-20.952002,12.52,16.2,concentric,5,3.0,35431.0,387431.0,112940.0,1533.0,-152.0
2026-04-09 21:58:44.142158,114587,854199390,854200701,0.675392,-0.238144,-0.037088,-6.08125,-10.0275,28.875,-20.952002,12.52,16.2,concentric,5,3.0,35431.0,387431.0,112940.0,1533.0,-152.0
2026-04-09 21:58:44.144649,114588,854208393,854209440,0.710528,-0.345504,-0.033184,-4.71625,-12.17125,29.82,-20.792002,12.888001,17.216002,concentric,5,3.0,35431.0,387431.0,112940.0,1533.0,-152.0
2026-04-09 21:58:44.147078,114589,854222917,854224474,0.710528,-0.345504,-0.033184,-7.30625,-11.8475,29.81125,-20.792002,12.888001,17.216002,concentric,5,3.0,35431.0,387431.0,112940.0,1533.0,-152.0
2026-04-09 21:58:44.177402,114590,854231905,854233196,0.71248,-0.28304,0.03904,-10.84125,-9.7475,28.8225,-21.536001,13.448001,16.936,concentric,5,3.0,35431.0,387431.0,112940.0,1533.0,-152.0
2026-04-09 21:58:44.180898,114591,854240789,854241865,0.71248,-0.28304,0.03904,-10.45625,-7.2975,27.5275,-21.536001,13.448001,16.936,concentric,5,3.0,35431.0,387431.0,112940.0,1533.0,-152.0
2026-04-09 21:58:44.183367,114592,854255239,854256796,0.687104,-0.288896,-0.064416,-7.42,-6.7725,24.3075,-20.640001,13.136001,13.384001,concentric,5,3.0,35431.0,387431.0,112940.0,1533.0,-152.0
2026-04-09 21:58:44.187138,114593,854264133,854265498,0.687104,-0.288896,-0.064416,-7.18375,-7.32375,21.245,-20.640001,13.136001,13.384001,concentric,5,3.0,35431.0,387431.0,112940.0,1533.0,-152.0
2026-04-09 21:58:44.217407,114594,854273071,854274234,0.691008,-0.347456,-0.03904,-9.19625,-8.1025,22.37375,-20.464,13.56,15.424001,concentric,5,3.0,35431.0,387431.0,112940.0,1533.0,-152.0
2026-04-09 21:58:44.249604,114604,854282357,854283066,0.691008,-0.347456,-0.03904,-10.92875,-8.5925,26.565,-20.464,13.56,15.424001,concentric,5,3.0,35821.0,387865.0,113575.0,1546.0,-137.0
2026-04-09 21:58:44.252148,114605,854297084,854298128,0.74176,-0.386496,-0.050752,-12.845,-7.93625,28.07,-20.056002,13.904,14.992001,concentric,5,3.0,35821.0,387865.0,113575.0,1546.0,-137.0
2026-04-09 21:58:44.254691,114606,854306040,854306871,0.74176,-0.386496,-0.050752,-15.98625,-5.6175,21.95375,-20.056002,13.904,14.992001,concentric,5,3.0,35821.0,387865.0,113575.0,1546.0,-137.0
2026-04-09 21:58:44.257011,114607,854315059,854315591,0.733952,-0.423584,0.0,-14.62125,-2.87875,18.96125,-19.664001,13.768001,14.360001,concentric,5,3.0,35821.0,387865.0,113575.0,1546.0,-137.0
2026-04-09 21:58:44.259605,114608,854324490,854326362,0.733952,-0.423584,0.0,-9.58125,-0.175,17.395,-19.664001,13.768001,14.360001,concentric,5,3.0,35821.0,387865.0,113575.0,1546.0,-137.0
2026-04-09 21:58:44.262082,114609,854339129,854341266,0.708576,-0.431392,-0.02928,-0.27125,1.07625,17.45625,-20.512001,13.856001,15.808001,concentric,5,3.0,35821.0,387865.0,113575.0,1546.0,-137.0
2026-04-09 21:58:44.293358,114610,854348081,854349975,0.708576,-0.368928,-0.031232,5.425,0.7,20.02,-20.512001,13.856001,15.808001,concentric,5,3.0,35821.0,387865.0,113575.0,1546.0,-137.0
2026-04-09 21:58:44.295867,114611,854357050,854358707,0.726144,-0.37088,-0.031232,5.1275,0.77875,22.53125,-19.68,13.584001,13.6,concentric,5,3.0,35821.0,387865.0,113575.0,1546.0,-137.0
2026-04-09 21:58:44.298439,114612,854371584,854373562,0.778848,-0.427488,-0.021472,-0.35875,2.91375,22.70625,-19.68,14.200001,14.504001,concentric,5,3.0,35821.0,387865.0,113575.0,1546.0,-137.0
2026-04-09 21:58:44.328389,114623,854380535,854382456,0.778848,-0.427488,-0.021472,-4.6025,5.11,19.95875,-19.68,14.200001,14.504001,concentric,5,3.0,35878.0,387013.0,113045.0,1468.0,-150.0
2026-04-09 21:58:44.330828,114624,854389484,854391172,0.75152,-0.452864,-0.005856,-7.4025,8.02375,14.4725,-19.616001,14.080001,15.016001,concentric,5,3.0,35878.0,387013.0,113045.0,1468.0,-150.0
2026-04-09 21:58:44.333341,114625,854404049,854406159,0.75152,-0.452864,-0.005856,-5.9325,10.07125,9.765,-19.616001,14.080001,15.016001,concentric,5,3.0,35878.0,387013.0,113045.0,1468.0,-150.0
2026-04-09 21:58:44.337155,114626,854413005,854414874,0.743712,-0.404064,-0.040992,-0.735,11.13,9.135,-19.384,13.968,14.448001,concentric,5,3.0,35878.0,387013.0,113045.0,1468.0,-150.0
2026-04-09 21:58:44.367343,114627,854421939,854423575,0.743712,-0.404064,-0.040992,1.575,10.98125,8.88125,-19.384,13.968,14.448001,concentric,5,3.0,35878.0,387013.0,113045.0,1468.0,-150.0
2026-04-09 21:58:44.370827,114628,854430889,854432238,0.75152,-0.425536,0.015616,1.2775,11.69,7.81375,-19.744001,14.536,14.816001,concentric,5,3.0,35878.0,387013.0,113045.0,1468.0,-150.0
2026-04-09 21:58:44.373366,114629,854445368,854447134,0.75152,-0.425536,0.015616,2.03875,13.475,6.46625,-19.744001,14.536,14.816001,concentric,5,3.0,35878.0,387013.0,113045.0,1468.0,-150.0
2026-04-09 21:58:44.378413,114630,854454303,854455852,0.778848,-0.40016,0.027328,5.2675,14.735,4.96125,-19.984001,14.200001,14.496,concentric,5,3.0,35878.0,387013.0,113045.0,1468.0,-150.0
2026-04-09 21:58:44.408579,114631,854463273,854464619,0.778848,-0.40016,0.027328,8.085,17.01875,2.8525,-19.984001,14.200001,14.496,concentric,5,3.0,35878.0,387013.0,113045.0,1468.0,-150.0
2026-04-09 21:58:44.412087,114632,854477771,854479519,0.772992,-0.335744,0.011712,7.8575,18.4625,0.5075,-20.096,14.072001,14.424001,concentric,5,3.0,35878.0,387013.0,113045.0,1468.0,-150.0
2026-04-09 21:58:44.437097,114642,854486965,854488297,0.772992,-0.335744,0.011712,5.18,19.01375,-3.57875,-20.096,14.072001,14.424001,concentric,5,3.0,35660.0,385224.0,111584.0,1306.0,-141.0
2026-04-09 21:58:44.439644,114643,854495923,854497030,0.778848,-0.339648,0.0,3.3075,18.78625,-6.76375,-20.376001,14.688001,14.592001,concentric,5,3.0,35660.0,385224.0,111584.0,1306.0,-141.0
2026-04-09 21:58:44.442123,114644,854510466,854511954,0.792512,-0.456768,0.056608,3.66625,18.26125,-7.735,-21.464,14.624001,13.424001,concentric,5,3.0,35660.0,385224.0,111584.0,1306.0,-141.0
2026-04-09 21:58:44.444644,114645,854519428,854520743,0.792512,-0.456768,0.056608,1.715,19.18,-10.70125,-21.464,14.624001,13.424001,concentric,5,3.0,35660.0,385224.0,111584.0,1306.0,-141.0
2026-04-09 21:58:44.450962,114646,854528389,854529525,0.792512,-0.456768,0.056608,3.43,20.1775,-12.24125,-21.464,14.624001,13.424001,concentric,5,3.0,35660.0,385224.0,111584.0,1306.0,-141.0
2026-04-09 21:58:44.481061,114647,854542919,854544449,0.808128,-0.376736,0.056608,5.9675,22.14625,-12.425,-21.400002,14.72,15.384001,concentric,5,3.0,35660.0,385224.0,111584.0,1306.0,-141.0
2026-04-09 21:58:44.484601,114648,854551869,854553145,0.813984,-0.386496,0.015616,5.8625,23.87875,-15.05,-21.232,14.808001,14.264001,concentric,5,3.0,35660.0,385224.0,111584.0,1306.0,-141.0
2026-04-09 21:58:44.490921,114649,854560898,854561888,0.813984,-0.386496,0.015616,6.83375,24.045,-17.10625,-21.232,14.808001,14.264001,concentric,5,3.0,35660.0,385224.0,111584.0,1306.0,-141.0
2026-04-09 21:58:44.493322,114650,854569818,854570662,0.860832,-0.374784,-0.011712,5.67875,23.12625,-18.8825,-22.432001,14.992001,15.360001,concentric,5,3.0,35660.0,385224.0,111584.0,1306.0,-141.0
2026-04-09 21:58:44.547078,114660,854584358,854585648,0.860832,-0.374784,-0.011712,0.13125,22.49625,-19.73125,-22.432001,14.992001,15.360001,concentric,5,3.0,35798.0,384913.0,111487.0,1267.0,-144.0
2026-04-09 21:58:44.550755,114661,854593425,854594398,0.870592,-0.45872,0.093696,-5.145,23.485,-19.46875,-22.296001,14.464001,14.848001,concentric,5,3.0,35798.0,384913.0,111487.0,1267.0,-144.0
2026-04-09 21:58:44.553422,114662,854602350,854603085,0.870592,-0.45872,0.093696,-4.76875,24.6225,-22.3125,-22.296001,14.464001,14.848001,concentric,5,3.0,35798.0,384913.0,111487.0,1267.0,-144.0
2026-04-09 21:58:44.554837,114663,854617271,854618122,0.870592,-0.42944,0.06832,2.91375,25.85625,-25.69,-23.056002,14.096001,14.736001,concentric,5,3.0,35798.0,384913.0,111487.0,1267.0,-144.0
2026-04-09 21:58:44.557451,114664,854626217,854626845,0.870592,-0.42944,0.06832,10.535,26.678751,-25.61125,-23.056002,14.096001,14.736001,concentric,5,3.0,35798.0,384913.0,111487.0,1267.0,-144.0
2026-04-09 21:58:44.559638,114665,854635522,854637631,0.88816,-0.378688,0.011712,13.37,27.06375,-25.55875,-23.928001,14.032001,14.424001,concentric,5,3.0,35798.0,384913.0,111487.0,1267.0,-144.0
2026-04-09 21:58:44.589828,114666,854644470,854646324,0.88816,-0.378688,0.011712,11.1475,26.11,-26.11,-23.928001,14.032001,14.424001,concentric,5,3.0,35798.0,384913.0,111487.0,1267.0,-144.0
2026-04-09 21:58:44.593413,114667,854658946,854661220,0.925248,-0.404064,0.050752,4.515,25.935,-25.96125,-23.2,13.936001,14.752001,concentric,5,3.0,35798.0,384913.0,111487.0,1267.0,-144.0
2026-04-09 21:58:44.598410,114668,854667935,854669928,0.925248,-0.404064,0.050752,2.24875,26.285,-24.89375,-23.2,13.936001,14.752001,concentric,5,3.0,35798.0,384913.0,111487.0,1267.0,-144.0
2026-04-09 21:58:44.600860,114669,854676854,854678671,0.923296,-0.423584,0.095648,6.50125,26.7575,-25.78625,-23.616001,13.936001,15.104001,concentric,5,3.0,35798.0,384913.0,111487.0,1267.0,-144.0
2026-04-09 21:58:44.631586,114680,854691394,854693649,0.931104,-0.386496,0.091744,12.31125,27.1775,-26.5825,-25.056002,14.128,16.936,concentric,5,3.0,36133.0,385701.0,112475.0,1361.0,-145.0
2026-04-09 21:58:44.634124,114681,854700365,854702371,0.931104,-0.386496,0.091744,17.605,27.16,-27.405,-25.056002,14.128,16.936,concentric,5,3.0,36133.0,385701.0,112475.0,1361.0,-145.0
2026-04-09 21:58:44.636250,114682,854709380,854711137,0.931104,-0.324032,0.062464,19.74,25.48875,-28.428751,-25.056002,14.128,16.936,concentric,5,3.0,36133.0,385701.0,112475.0,1361.0,-145.0
2026-04-09 21:58:44.666100,114683,854723892,854726042,0.933056,-0.324032,0.062464,16.72125,24.31625,-27.50125,-24.856,14.272,16.512001,concentric,5,3.0,36133.0,385701.0,112475.0,1361.0,-145.0
2026-04-09 21:58:44.669616,114684,854732844,854734734,0.948672,-0.38064,0.099552,10.80625,23.7475,-26.285,-24.720001,13.8,15.848001,concentric,5,3.0,36133.0,385701.0,112475.0,1361.0,-145.0
2026-04-09 21:58:44.672119,114685,854741781,854743444,0.948672,-0.38064,0.099552,9.275,23.2225,-24.35125,-24.720001,13.8,15.848001,concentric,5,3.0,36133.0,385701.0,112475.0,1361.0,-145.0
2026-04-09 21:58:44.674634,114686,854750687,854752153,0.91744,-0.320128,0.113216,11.4625,22.0325,-23.415,-25.568,13.824,16.904001,concentric,5,3.0,36133.0,385701.0,112475.0,1361.0,-145.0
2026-04-09 21:58:44.704777,114687,854765169,854767058,0.91744,-0.320128,0.113216,14.2275,21.06125,-22.96875,-25.568,13.824,16.904001,concentric,5,3.0,36133.0,385701.0,112475.0,1361.0,-145.0
2026-04-09 21:58:44.708388,114688,854774078,854775741,0.972096,-0.359168,0.083936,14.86625,20.83375,-24.3425,-26.36,13.096001,16.144001,concentric,5,3.0,36133.0,385701.0,112475.0,1361.0,-145.0
2026-04-09 21:58:44.733355,114698,854782991,854784581,0.972096,-0.359168,0.083936,15.32125,20.37,-23.6075,-26.36,13.096001,16.144001,concentric,5,3.0,36123.0,384752.0,111897.0,1320.0,-130.0
2026-04-09 21:58:44.735862,114699,854797594,854799543,0.968192,-0.366976,0.10736,17.6225,20.37,-22.715,-27.352001,13.888001,17.424002,concentric,5,3.0,36123.0,384752.0,111897.0,1320.0,-130.0
2026-04-09 21:58:44.738405,114700,854806509,854808248,0.968192,-0.366976,0.10736,21.70875,19.25,-23.24875,-27.352001,13.888001,17.424002,concentric,5,3.0,36123.0,384752.0,111897.0,1320.0,-130.0
2026-04-09 21:58:44.740907,114701,854815430,854816965,0.970144,-0.36112,0.109312,21.9975,18.13875,-22.49625,-27.632002,14.024001,17.424002,concentric,5,3.0,36123.0,384752.0,111897.0,1320.0,-130.0
2026-04-09 21:58:44.771122,114702,854829934,854831917,0.970144,-0.318176,0.101504,17.68375,16.73,-20.545,-27.632002,14.024001,17.424002,concentric,5,3.0,36123.0,384752.0,111897.0,1320.0,-130.0
2026-04-09 21:58:44.774632,114703,854838859,854840647,0.977952,-0.318176,0.101504,13.08125,15.3125,-18.725,-26.168001,13.536,15.904,concentric,5,3.0,36123.0,384752.0,111897.0,1320.0,-130.0
2026-04-09 21:58:44.777185,114704,854847767,854849342,0.977952,-0.318176,0.101504,12.11875,14.62125,-17.33375,-26.168001,13.536,15.904,concentric,5,3.0,36123.0,384752.0,111897.0,1320.0,-130.0
2026-04-09 21:58:44.808597,114705,854862287,854864250,0.983808,-0.355264,0.122976,11.40125,13.895,-16.835001,-26.736002,13.552001,16.736,concentric,5,3.0,36123.0,384752.0,111897.0,1320.0,-130.0
2026-04-09 21:58:44.812165,114706,854871213,854872965,0.981856,-0.359168,0.13664,11.71625,12.99375,-15.68,-26.480001,13.264001,16.52,concentric,5,3.0,36123.0,384752.0,111897.0,1320.0,-130.0
2026-04-09 21:58:44.814650,114707,854880142,854881653,0.981856,-0.359168,0.13664,10.59625,13.0025,-15.4875,-26.480001,13.264001,16.52,concentric,5,3.0,36123.0,384752.0,111897.0,1320.0,-130.0
2026-04-09 21:58:44.839589,114717,854889243,854890473,0.981856,-0.359168,0.13664,7.49,12.99375,-15.417501,-26.480001,13.264001,16.52,concentric,5,3.0,36345.0,387204.0,113899.0,1579.0,-149.0
2026-04-09 21:58:44.842125,114718,854903745,854905417,0.997472,-0.320128,0.081984,9.98375,11.4275,-15.12875,-27.304,13.552001,16.592001,concentric,5,3.0,36345.0,387204.0,113899.0,1579.0,-149.0
2026-04-09 21:58:44.844642,114719,854912781,854914176,1.01504,-0.366976,0.119072,9.9225,10.115,-12.59125,-27.584002,13.152,17.768002,concentric,5,3.0,36345.0,387204.0,113899.0,1579.0,-149.0
2026-04-09 21:58:44.847125,114720,854921759,854923078,1.01504,-0.366976,0.119072,7.42875,9.56375,-9.96625,-27.584002,13.152,17.768002,concentric,5,3.0,36345.0,387204.0,113899.0,1579.0,-149.0
2026-04-09 21:58:44.878519,114721,854936228,854937978,1.01504,-0.357216,0.111264,6.2125,8.44375,-7.97125,-27.512001,13.536,17.984001,concentric,5,3.0,36345.0,387204.0,113899.0,1579.0,-149.0
2026-04-09 21:58:44.880900,114722,854945143,854946664,1.01504,-0.357216,0.111264,5.52125,7.37625,-7.51625,-27.512001,13.536,17.984001,concentric,5,3.0,36345.0,387204.0,113899.0,1579.0,-149.0
2026-04-09 21:58:44.883394,114723,854954094,854955421,1.001376,-0.372832,0.091744,5.45125,6.8775,-7.39375,-27.184002,13.408001,17.104,concentric,5,3.0,36345.0,387204.0,113899.0,1579.0,-149.0
2026-04-09 21:58:44.913634,114724,854968550,854970297,1.001376,-0.372832,0.091744,4.9175,5.83625,-6.23,-27.184002,13.408001,17.104,concentric,5,3.0,36345.0,387204.0,113899.0,1579.0,-149.0
2026-04-09 21:58:44.917156,114725,854977473,854978993,0.976,-0.372832,0.109312,3.9725,4.48875,-4.62,-26.936,13.080001,19.064001,concentric,5,3.0,36345.0,387204.0,113899.0,1579.0,-149.0
2026-04-09 21:58:44.959614,114736,854986505,854987837,0.976,-0.372832,0.109312,1.96,3.84125,-3.33375,-26.936,13.080001,19.064001,concentric,5,3.0,36095.0,386144.0,112885.0,1458.0,-147.0
2026-04-09 21:58:44.959730,114737,854995467,854996633,0.94672,-0.35136,0.101504,0.93625,2.905,-2.66,-26.656002,13.688001,16.648,concentric,5,3.0,36095.0,386144.0,112885.0,1458.0,-147.0
2026-04-09 21:58:44.960893,114738,855009981,855010345,0.94672,-0.35136,0.101504,-0.91875,2.33625,-2.33625,-26.656002,13.688001,16.648,concentric,5,3.0,36095.0,386144.0,112885.0,1458.0,-147.0
2026-04-09 21:58:44.963425,114739,855019229,855021145,0.925248,-0.3416,0.081984,-1.65375,0.9975,-1.715,-26.944002,13.456,16.864,concentric,5,3.0,36095.0,386144.0,112885.0,1458.0,-147.0
2026-04-09 21:58:44.970229,114740,855028158,855029863,0.925248,-0.3416,0.081984,-1.49625,-0.2625,-0.98875,-26.944002,13.456,16.864,concentric,5,3.0,36095.0,386144.0,112885.0,1458.0,-147.0
2026-04-09 21:58:44.972761,114741,855042756,855044837,0.90768,-0.38064,0.119072,0.09625,-2.03875,-0.72625,-26.744001,13.696001,17.144001,concentric,5,3.0,36095.0,386144.0,112885.0,1458.0,-147.0
2026-04-09 21:58:44.976358,114742,855051703,855053566,0.874496,-0.345504,0.111264,1.23375,-2.7475,-0.16625,-26.640001,13.472001,16.560001,concentric,5,3.0,36095.0,386144.0,112885.0,1458.0,-147.0
