pc_time,serial_num,sensor_ts,host_ts,ax,ay,az,gx,gy,gz,mx,my,mz,phase,rpe,weight_kg,ppg_a,ppg_b,ppg_c,ppg_d,ppg_e
2026-04-07 17:45:43.304140,185322,1013686731,1013687606,0.923296,-0.388448,-0.25376,-5.635,10.24625,-24.9725,-15.624001,-8.336,14.712001,eccentric,3,3.0,30381.0,392538.0,349938.0,403431.0,351699.0
2026-04-07 17:45:43.308857,185323,1013701210,1013702486,0.954528,-0.406016,-0.218624,-6.79,9.9575,-24.29875,-15.200001,-8.56,13.68,eccentric,3,3.0,30381.0,392538.0,349938.0,403431.0,351699.0
2026-04-07 17:45:43.333570,185333,1013710456,1013711599,0.954528,-0.406016,-0.218624,-6.09875,10.3075,-23.345,-15.200001,-8.56,13.68,eccentric,3,3.0,30331.0,392157.0,349730.0,403431.0,351640.0
2026-04-07 17:45:43.335134,185334,1013719612,1013720327,0.962336,-0.388448,-0.238144,-5.495,10.28125,-21.1925,-14.840001,-8.672001,12.496,eccentric,3,3.0,30331.0,392157.0,349730.0,403431.0,351640.0
2026-04-07 17:45:43.337640,185335,1013729041,1013731172,0.962336,-0.388448,-0.238144,-4.64625,9.4675,-18.9,-14.840001,-8.672001,12.496,eccentric,3,3.0,30331.0,392157.0,349730.0,403431.0,351640.0
2026-04-07 17:45:43.341692,185336,1013743568,1013744035,0.93696,-0.388448,-0.238144,-3.3425,9.56375,-16.7125,-15.312,-9.04,15.016001,eccentric,3,3.0,30331.0,392157.0,349730.0,403431.0,351640.0
2026-04-07 17:45:43.370251,185337,1013753028,1013754805,0.942816,-0.378688,-0.236192,-2.12625,9.2575,-14.7875,-15.808001,-9.328,17.352001,eccentric,3,3.0,30331.0,392157.0,349730.0,403431.0,351640.0
2026-04-07 17:45:43.374727,185338,1013761908,1013763505,0.942816,-0.378688,-0.236192,-1.72375,8.79375,-13.34375,-15.808001,-9.328,17.352001,eccentric,3,3.0,30331.0,392157.0,349730.0,403431.0,351640.0
2026-04-07 17:45:43.376235,185339,1013776426,1013778373,0.93696,-0.337696,-0.242048,-3.77125,8.89875,-12.1625,-15.496,-8.848001,13.64,eccentric,3,3.0,30331.0,392157.0,349730.0,403431.0,351640.0
2026-04-07 17:45:43.384719,185340,1013785382,1013787125,0.93696,-0.337696,-0.242048,-4.38375,9.30125,-10.42125,-15.496,-8.848001,13.64,eccentric,3,3.0,30331.0,392157.0,349730.0,403431.0,351640.0
2026-04-07 17:45:43.393105,185341,1013794327,1013795842,0.915488,-0.355264,-0.232288,-6.7725,9.6425,-9.38,-16.240002,-9.568001,15.400001,eccentric,3,3.0,30331.0,392157.0,349730.0,403431.0,351640.0
2026-04-07 17:45:43.458897,185352,1013809338,1013810768,0.915488,-0.355264,-0.232288,-8.51375,9.03,-9.17,-16.240002,-9.568001,15.400001,eccentric,3,3.0,30209.0,391276.0,348949.0,403431.0,350766.0
2026-04-07 17:45:43.463061,185353,1013818289,1013819475,0.88816,-0.355264,-0.242048,-8.37375,8.91625,-8.77625,-15.376,-8.824,13.72,eccentric,3,3.0,30209.0,391276.0,348949.0,403431.0,350766.0
2026-04-07 17:45:43.464962,185354,1013827205,1013828186,0.88816,-0.355264,-0.242048,-8.0675,8.1375,-9.511251,-15.376,-8.824,13.72,eccentric,3,3.0,30209.0,391276.0,348949.0,403431.0,350766.0
2026-04-07 17:45:43.466402,185355,1013836192,1013836911,0.860832,-0.353312,-0.220576,-6.97375,6.86,-8.82875,-15.696001,-9.104,15.048,eccentric,3,3.0,30209.0,391276.0,348949.0,403431.0,350766.0
2026-04-07 17:45:43.470588,185356,1013851085,1013851822,0.860832,-0.353312,-0.220576,-4.68125,6.8425,-8.30375,-15.696001,-9.104,15.048,eccentric,3,3.0,30209.0,391276.0,348949.0,403431.0,350766.0
2026-04-07 17:45:43.472308,185357,1013860459,1013862620,0.841312,-0.316224,-0.212768,-4.27,6.58875,-8.2775,-15.288001,-9.0,14.032001,eccentric,3,3.0,30209.0,391276.0,348949.0,403431.0,350766.0
2026-04-07 17:45:43.473903,185358,1013869398,1013871315,0.841312,-0.316224,-0.212768,-4.52375,7.175,-7.7875,-15.288001,-9.0,14.032001,eccentric,3,3.0,30209.0,391276.0,348949.0,403431.0,350766.0
2026-04-07 17:45:43.477969,185359,1013878336,1013880113,0.835456,-0.314272,-0.183488,-5.915,6.8075,-7.60375,-15.312,-9.200001,14.112,eccentric,3,3.0,30209.0,391276.0,348949.0,403431.0,350766.0
2026-04-07 17:45:43.514985,185360,1013892966,1013895025,0.817888,-0.306464,-0.18544,-5.6,7.14,-7.4025,-15.544001,-9.232,13.816001,eccentric,3,3.0,30209.0,391276.0,348949.0,403431.0,350766.0
2026-04-07 17:45:43.517244,185361,1013901865,1013903716,0.817888,-0.306464,-0.18544,-6.11625,6.7725,-7.6825,-15.544001,-9.232,13.816001,eccentric,3,3.0,30209.0,391276.0,348949.0,403431.0,350766.0
2026-04-07 17:45:43.546406,185371,1013911450,1013912580,0.817888,-0.306464,-0.18544,-5.32,6.65,-7.60375,-15.544001,-9.232,13.816001,eccentric,3,3.0,29703.0,387355.0,345714.0,403098.0,347633.0
2026-04-07 17:45:43.550626,185372,1013920482,1013921355,0.81984,-0.337696,-0.199104,-4.5675,5.8625,-7.72625,-15.912001,-9.696,16.296001,eccentric,3,3.0,29703.0,387355.0,345714.0,403098.0,347633.0
2026-04-07 17:45:43.552285,185373,1013935170,1013936323,0.827648,-0.294752,-0.197152,-2.56375,6.125,-7.84,-16.392,-10.168,16.856,eccentric,3,3.0,29703.0,387355.0,345714.0,403098.0,347633.0
2026-04-07 17:45:43.553824,185374,1013944118,1013945041,0.827648,-0.294752,-0.197152,-1.085,6.02875,-7.06125,-16.392,-10.168,16.856,eccentric,3,3.0,29703.0,387355.0,345714.0,403098.0,347633.0
2026-04-07 17:45:43.557949,185375,1013953110,1013953752,0.847168,-0.30256,-0.173728,-0.665,5.8975,-7.00875,-15.280001,-9.192,14.536,eccentric,3,3.0,29703.0,387355.0,345714.0,403098.0,347633.0
2026-04-07 17:45:43.609994,185376,1013967979,1013968656,0.847168,-0.30256,-0.173728,-1.645,6.04625,-6.85125,-15.280001,-9.192,14.536,eccentric,3,3.0,29703.0,387355.0,345714.0,403098.0,347633.0
2026-04-07 17:45:43.612558,185377,1013977336,1013979409,0.854976,-0.333792,-0.181536,-1.93375,6.09,-7.105,-15.352001,-8.696,14.336,eccentric,3,3.0,29703.0,387355.0,345714.0,403098.0,347633.0
2026-04-07 17:45:43.619365,185378,1013986345,1013988130,0.854976,-0.333792,-0.181536,-1.04125,6.44,-7.035,-15.352001,-8.696,14.336,eccentric,3,3.0,29703.0,387355.0,345714.0,403098.0,347633.0
2026-04-07 17:45:43.621080,185379,1013995271,1013996822,0.86864,-0.343552,-0.193248,-0.02625,6.08125,-6.13375,-15.760001,-9.592,14.608001,eccentric,3,3.0,29703.0,387355.0,345714.0,403098.0,347633.0
2026-04-07 17:45:43.645134,185389,1014009826,1014011789,0.86864,-0.343552,-0.193248,0.79625,5.59125,-4.9,-15.760001,-9.592,14.608001,eccentric,3,3.0,29747.0,387666.0,345940.0,403260.0,347910.0
2026-04-07 17:45:43.650360,185390,1014018951,1014020487,0.876448,-0.35136,-0.193248,0.49875,4.90875,-3.3425,-15.512001,-9.424001,14.608001,eccentric,3,3.0,29747.0,387666.0,345940.0,403260.0,347910.0
2026-04-07 17:45:43.651095,185391,1014027928,1014029202,0.876448,-0.35136,-0.193248,0.1925,5.4775,-2.14375,-15.512001,-9.424001,14.608001,eccentric,3,3.0,29747.0,387666.0,345940.0,403260.0,347910.0
2026-04-07 17:45:43.652918,185392,1014042621,1014044180,0.876448,-0.333792,-0.191296,1.0325,5.285,-0.65625,-16.112001,-9.56,16.024,eccentric,3,3.0,29747.0,387666.0,345940.0,403260.0,347910.0
2026-04-07 17:45:43.664462,185393,1014051578,1014052905,0.876448,-0.333792,-0.191296,2.49375,5.1975,-0.84,-16.112001,-9.56,16.024,eccentric,3,3.0,29747.0,387666.0,345940.0,403260.0,347910.0
2026-04-07 17:45:43.666043,185394,1014060593,1014061626,0.882304,-0.3416,-0.187392,2.24875,5.73125,-0.455,-15.544001,-9.344001,15.968,eccentric,3,3.0,29747.0,387666.0,345940.0,403260.0,347910.0
2026-04-07 17:45:43.696227,185395,1014075121,1014076533,0.872544,-0.363072,-0.193248,1.98625,5.6875,-0.13125,-15.976001,-9.152,17.088001,eccentric,3,3.0,29747.0,387666.0,345940.0,403260.0,347910.0
2026-04-07 17:45:43.698510,185396,1014084046,1014085236,0.872544,-0.363072,-0.193248,1.9425,5.46875,0.81375,-15.976001,-9.152,17.088001,eccentric,3,3.0,29747.0,387666.0,345940.0,403260.0,347910.0
2026-04-07 17:45:43.707029,185397,1014092995,1014093923,0.872544,-0.363072,-0.189344,2.05625,4.8825,1.68,-15.976001,-9.152,17.088001,eccentric,3,3.0,29747.0,387666.0,345940.0,403260.0,347910.0
2026-04-07 17:45:43.709802,185398,1014101923,1014102652,0.880352,-0.365024,-0.189344,2.44125,4.34,2.065,-15.328001,-9.112,14.312,eccentric,3,3.0,29747.0,387666.0,345940.0,403260.0,347910.0
2026-04-07 17:45:43.736820,185409,1014116975,1014117856,0.862784,-0.368928,-0.201056,2.835,4.0075,3.395,-15.472001,-9.168,14.648001,eccentric,3,3.0,30097.0,390334.0,348114.0,403431.0,350003.0
2026-04-07 17:45:43.738587,185410,1014125934,1014126627,0.862784,-0.368928,-0.201056,2.38,3.5175,3.75375,-15.472001,-9.168,14.648001,eccentric,3,3.0,30097.0,390334.0,348114.0,403431.0,350003.0
2026-04-07 17:45:43.740095,185411,1014135429,1014137412,0.85888,-0.363072,-0.203008,2.79125,3.115,2.94,-15.6,-9.200001,13.984,eccentric,3,3.0,30097.0,390334.0,348114.0,403431.0,350003.0
2026-04-07 17:45:43.744248,185412,1014144406,1014146148,0.85888,-0.363072,-0.203008,4.33125,2.1175,3.80625,-15.6,-9.200001,13.984,eccentric,3,3.0,30097.0,390334.0,348114.0,403431.0,350003.0
2026-04-07 17:45:43.773205,185413,1014158897,1014161079,0.860832,-0.365024,-0.20496,5.4075,1.435,3.73625,-15.296001,-9.072001,14.72,eccentric,3,3.0,30097.0,390334.0,348114.0,403431.0,350003.0
2026-04-07 17:45:43.777304,185414,1014167823,1014169790,0.860832,-0.365024,-0.20496,4.40125,1.07625,3.7625,-15.296001,-9.072001,14.72,eccentric,3,3.0,30097.0,390334.0,348114.0,403431.0,350003.0
2026-04-07 17:45:43.778803,185415,1014176721,1014178506,0.860832,-0.378688,-0.20496,3.43,0.9275,4.3225,-15.384001,-8.6,14.344001,eccentric,3,3.0,30097.0,390334.0,348114.0,403431.0,350003.0
2026-04-07 17:45:43.819946,185416,1014191262,1014193414,0.860832,-0.378688,-0.20496,4.43625,0.3675,4.33125,-15.384001,-8.6,14.344001,eccentric,3,3.0,30097.0,390334.0,348114.0,403431.0,350003.0
2026-04-07 17:45:43.827996,185417,1014200183,1014202118,0.84912,-0.376736,-0.18544,5.17125,-0.35,4.4625,-14.808001,-8.784,14.664001,eccentric,3,3.0,30097.0,390334.0,348114.0,403431.0,350003.0
2026-04-07 17:45:43.852984,185427,1014209084,1014210868,0.84912,-0.376736,-0.18544,5.66125,-0.81375,5.005,-14.808001,-8.784,14.664001,eccentric,3,3.0,29722.0,387447.0,345756.0,403143.0,347738.0
2026-04-07 17:45:43.853726,185428,1014224079,1014225809,0.84912,-0.36112,-0.201056,6.72875,-1.00625,5.005,-15.576001,-9.112,14.648001,eccentric,3,3.0,29722.0,387447.0,345756.0,403143.0,347738.0
2026-04-07 17:45:43.858181,185429,1014233084,1014234503,0.84912,-0.36112,-0.201056,6.34375,-1.47,4.01625,-15.576001,-9.112,14.648001,eccentric,3,3.0,29722.0,387447.0,345756.0,403143.0,347738.0
2026-04-07 17:45:43.859840,185430,1014242019,1014243284,0.83936,-0.357216,-0.197152,4.89125,-2.0125,3.31625,-15.712001,-8.736,16.168001,eccentric,3,3.0,29722.0,387447.0,345756.0,403143.0,347738.0
2026-04-07 17:45:43.861489,185431,1014251069,1014251988,0.83936,-0.357216,-0.197152,4.75125,-2.40625,2.45,-15.712001,-8.736,16.168001,eccentric,3,3.0,29722.0,387447.0,345756.0,403143.0,347738.0
2026-04-07 17:45:43.865603,185432,1014265558,1014266999,0.847168,-0.368928,-0.173728,5.215,-2.33625,1.68,-15.232,-8.224,15.664001,eccentric,3,3.0,29722.0,387447.0,345756.0,403143.0,347738.0
2026-04-07 17:45:43.894041,185433,1014274524,1014275711,0.841312,-0.363072,-0.18544,6.36125,-2.58125,1.86375,-14.424001,-8.488001,15.456,eccentric,3,3.0,29722.0,387447.0,345756.0,403143.0,347738.0
2026-04-07 17:45:43.898632,185434,1014283448,1014284405,0.841312,-0.363072,-0.18544,5.495,-3.70125,1.19,-14.424001,-8.488001,15.456,eccentric,3,3.0,29722.0,387447.0,345756.0,403143.0,347738.0
2026-04-07 17:45:43.900038,185435,1014297934,1014299268,0.83936,-0.368928,-0.169824,4.55,-3.77125,0.3675,-14.68,-8.400001,14.504001,eccentric,3,3.0,29722.0,387447.0,345756.0,403143.0,347738.0
2026-04-07 17:45:43.905646,185436,1014306848,1014307969,0.83936,-0.368928,-0.169824,4.33125,-4.48875,0.65625,-14.68,-8.400001,14.504001,eccentric,3,3.0,29722.0,387447.0,345756.0,403143.0,347738.0
2026-04-07 17:45:43.929873,185446,1014315894,1014316949,0.831552,-0.372832,-0.17568,5.01375,-4.585,0.39375,-14.792001,-8.544001,15.512001,eccentric,3,3.0,29452.0,385562.0,344275.0,402377.0,346386.0
2026-04-07 17:45:43.931837,185447,1014330485,1014331902,0.831552,-0.372832,-0.17568,5.7575,-4.59375,0.02625,-14.792001,-8.544001,15.512001,eccentric,3,3.0,29452.0,385562.0,344275.0,402377.0,346386.0
2026-04-07 17:45:43.939205,185448,1014339407,1014340667,0.817888,-0.359168,-0.177632,5.67,-4.73375,0.2625,-14.808001,-8.68,15.848001,eccentric,3,3.0,29452.0,385562.0,344275.0,402377.0,346386.0
2026-04-07 17:45:43.967832,185449,1014348320,1014349400,0.817888,-0.359168,-0.177632,4.78625,-4.78625,0.58625,-14.808001,-8.68,15.848001,eccentric,3,3.0,29452.0,385562.0,344275.0,402377.0,346386.0
2026-04-07 17:45:43.972257,185450,1014357227,1014358084,0.815936,-0.36112,-0.171776,2.33625,-4.31375,-0.5075,-14.184001,-8.296001,14.312,eccentric,3,3.0,29452.0,385562.0,344275.0,402377.0,346386.0
2026-04-07 17:45:43.973916,185451,1014371694,1014372967,0.815936,-0.36112,-0.171776,1.155,-3.77125,-0.49875,-14.184001,-8.296001,14.312,eccentric,3,3.0,29452.0,385562.0,344275.0,402377.0,346386.0
2026-04-07 17:45:43.977942,185452,1014380677,1014381677,0.813984,-0.382592,-0.177632,1.49625,-3.2025,-0.20125,-14.096001,-8.224,14.312,eccentric,3,3.0,29452.0,385562.0,344275.0,402377.0,346386.0
2026-04-07 17:45:44.006419,185453,1014389610,1014390389,0.813984,-0.382592,-0.177632,2.8,-2.835,-0.175,-14.096001,-8.224,14.312,eccentric,3,3.0,29452.0,385562.0,344275.0,402377.0,346386.0
2026-04-07 17:45:44.012041,185454,1014404086,1014405288,0.812032,-0.37088,-0.177632,3.36875,-1.63625,0.37625,-13.192,-7.68,14.160001,eccentric,3,3.0,29452.0,385562.0,344275.0,402377.0,346386.0
2026-04-07 17:45:44.039348,185465,1014413130,1014414026,0.812032,-0.37088,-0.177632,3.24625,-1.28625,0.0175,-13.192,-7.68,14.160001,eccentric,3,3.0,29579.0,386591.0,345154.0,402867.0,347322.0
2026-04-07 17:45:44.041070,185466,1014422160,1014422786,0.80032,-0.363072,-0.16592,3.71875,-0.63875,-0.77875,-13.768001,-8.112,13.784,eccentric,3,3.0,29579.0,386591.0,345154.0,402867.0,347322.0
2026-04-07 17:45:44.042721,185467,1014437006,1014437770,0.786656,-0.355264,-0.162016,4.795,-0.41125,-0.23625,-13.872001,-8.384001,16.6,eccentric,3,3.0,29579.0,386591.0,345154.0,402867.0,347322.0
2026-04-07 17:45:44.046714,185468,1014446378,1014448572,0.786656,-0.355264,-0.162016,2.7825,0.06125,-0.65625,-13.872001,-8.384001,16.6,eccentric,3,3.0,29579.0,386591.0,345154.0,402867.0,347322.0
2026-04-07 17:45:44.075257,185469,1014455342,1014457305,0.786656,-0.374784,-0.18544,1.1725,0.95375,-0.72625,-13.6,-7.64,17.456001,eccentric,3,3.0,29579.0,386591.0,345154.0,402867.0,347322.0
2026-04-07 17:45:44.079793,185470,1014464349,1014466023,0.786656,-0.374784,-0.18544,1.295,1.47875,0.5425,-13.6,-7.64,17.456001,eccentric,3,3.0,29579.0,386591.0,345154.0,402867.0,347322.0
2026-04-07 17:45:44.118387,185471,1014478820,1014480895,0.792512,-0.355264,-0.197152,1.2075,2.24,0.1575,-13.472001,-7.944,14.368001,eccentric,3,3.0,29579.0,386591.0,345154.0,402867.0,347322.0
2026-04-07 17:45:44.122284,185472,1014487710,1014489572,0.792512,-0.355264,-0.197152,1.82,3.0275,-0.3325,-13.472001,-7.944,14.368001,eccentric,3,3.0,29579.0,386591.0,345154.0,402867.0,347322.0
2026-04-07 17:45:44.123829,185473,1014496726,1014498255,0.798368,-0.345504,-0.193248,1.12,3.29,-1.61,-13.064001,-8.184,13.904,eccentric,3,3.0,29579.0,386591.0,345154.0,402867.0,347322.0
2026-04-07 17:45:44.148873,185483,1014511552,1014513197,0.798368,-0.345504,-0.193248,1.09375,3.47375,-3.5175,-13.064001,-8.184,13.904,eccentric,3,3.0,29393.0,385275.0,344175.0,402383.0,346397.0
2026-04-07 17:45:44.153058,185484,1014520572,1014521898,0.794464,-0.386496,-0.187392,1.26875,3.9025,-4.0425,-12.920001,-8.272,14.496,eccentric,3,3.0,29393.0,385275.0,344175.0,402383.0,346397.0
2026-04-07 17:45:44.154780,185485,1014529451,1014530548,0.794464,-0.386496,-0.187392,3.17625,4.03375,-3.2375,-12.920001,-8.272,14.496,eccentric,3,3.0,29393.0,385275.0,344175.0,402383.0,346397.0
2026-04-07 17:45:44.156329,185486,1014538370,1014539270,0.792512,-0.359168,-0.193248,2.87,3.99875,-3.43875,-13.248001,-8.088,14.248001,eccentric,3,3.0,29393.0,385275.0,344175.0,402383.0,346397.0
2026-04-07 17:45:44.159797,185487,1014552969,1014554184,0.792512,-0.359168,-0.193248,3.7275,3.63125,-4.48875,-13.248001,-8.088,14.248001,eccentric,3,3.0,29393.0,385275.0,344175.0,402383.0,346397.0
2026-04-07 17:45:44.161333,185488,1014561855,1014562961,0.778848,-0.339648,-0.212768,5.425,3.19375,-5.8975,-12.440001,-7.224001,14.064001,eccentric,3,3.0,29393.0,385275.0,344175.0,402383.0,346397.0
2026-04-07 17:45:44.192503,185489,1014570791,1014571691,0.778848,-0.339648,-0.212768,5.06625,2.485,-8.77625,-12.440001,-7.224001,14.064001,eccentric,3,3.0,29393.0,385275.0,344175.0,402383.0,346397.0
2026-04-07 17:45:44.196875,185490,1014585315,1014586686,0.788608,-0.359168,-0.17568,3.78,0.90125,-9.96625,-12.480001,-8.136001,14.52,eccentric,3,3.0,29393.0,385275.0,344175.0,402383.0,346397.0
2026-04-07 17:45:44.198557,185491,1014594242,1014595371,0.788608,-0.359168,-0.17568,4.27,0.6475,-8.8725,-12.480001,-8.136001,14.52,eccentric,3,3.0,29393.0,385275.0,344175.0,402383.0,346397.0
2026-04-07 17:45:44.200122,185492,1014603190,1014604064,0.769088,-0.402112,-0.206912,3.2025,0.44625,-9.3975,-12.976001,-8.120001,10.888001,eccentric,3,3.0,29393.0,385275.0,344175.0,402383.0,346397.0
2026-04-07 17:45:44.254796,185502,1014617721,1014619038,0.769088,-0.366976,-0.171776,4.4275,0.20125,-9.7475,-12.536,-8.440001,15.432001,eccentric,3,3.0,29105.0,382953.0,342335.0,400539.0,344677.0
2026-04-07 17:45:44.256308,185503,1014626615,1014627700,0.769088,-0.366976,-0.171776,7.13125,1.295,-9.6075,-12.536,-8.440001,15.432001,eccentric,3,3.0,29105.0,382953.0,342335.0,400539.0,344677.0
2026-04-07 17:45:44.258777,185504,1014635535,1014636412,0.753472,-0.365024,-0.220576,10.99875,2.03,-9.7825,-12.536,-8.440001,15.432001,eccentric,3,3.0,29105.0,382953.0,342335.0,400539.0,344677.0
2026-04-07 17:45:44.262236,185505,1014650073,1014651324,0.76128,-0.365024,-0.220576,13.667501,2.52875,-11.6375,-12.528001,-7.976,14.688001,eccentric,3,3.0,29105.0,382953.0,342335.0,400539.0,344677.0
2026-04-07 17:45:44.263936,185506,1014659094,1014660058,0.763232,-0.36112,-0.203008,14.3675,2.66,-12.38125,-12.984,-8.288,15.456,eccentric,3,3.0,29105.0,382953.0,342335.0,400539.0,344677.0
2026-04-07 17:45:44.268029,185507,1014668018,1014668801,0.763232,-0.36112,-0.203008,14.62125,3.15,-12.36375,-12.984,-8.288,15.456,eccentric,3,3.0,29105.0,382953.0,342335.0,400539.0,344677.0
2026-04-07 17:45:44.296570,185508,1014677423,1014679578,0.782752,-0.388448,-0.173728,9.5725,4.06,-12.53,-13.048,-8.248,16.016,eccentric,3,3.0,29105.0,382953.0,342335.0,400539.0,344677.0
2026-04-07 17:45:44.301048,185509,1014691936,1014692468,0.782752,-0.388448,-0.173728,6.7725,5.4075,-12.18,-13.048,-8.248,16.016,eccentric,3,3.0,29105.0,382953.0,342335.0,400539.0,344677.0
2026-04-07 17:45:44.303333,185510,1014701324,1014703222,0.774944,-0.392352,-0.191296,6.86875,6.29125,-10.4825,-12.248,-8.168,14.344001,eccentric,3,3.0,29105.0,382953.0,342335.0,400539.0,344677.0
2026-04-07 17:45:44.309476,185511,1014710225,1014711955,0.774944,-0.392352,-0.191296,6.7375,7.595,-10.96375,-12.248,-8.168,14.344001,eccentric,3,3.0,29105.0,382953.0,342335.0,400539.0,344677.0
2026-04-07 17:45:44.336024,185522,1014724761,1014726922,0.763232,-0.372832,-0.191296,6.5975,8.44375,-10.0625,-12.064,-8.248,14.592001,eccentric,3,3.0,28451.0,377745.0,338180.0,396317.0,341043.0
2026-04-07 17:45:44.337568,185523,1014733735,1014735629,0.763232,-0.372832,-0.191296,7.21875,9.2575,-8.68875,-12.064,-8.248,14.592001,eccentric,3,3.0,28451.0,377745.0,338180.0,396317.0,341043.0
2026-04-07 17:45:44.342976,185524,1014742703,1014744366,0.774944,-0.359168,-0.183488,5.01375,9.5375,-8.72375,-12.52,-8.328,14.512001,eccentric,3,3.0,28451.0,377745.0,338180.0,396317.0,341043.0
2026-04-07 17:45:44.373784,185525,1014751646,1014753148,0.774944,-0.359168,-0.183488,4.64625,10.17625,-9.14375,-12.52,-8.328,14.512001,eccentric,3,3.0,28451.0,377745.0,338180.0,396317.0,341043.0
2026-04-07 17:45:44.378119,185526,1014766147,1014768079,0.802272,-0.37088,-0.20496,5.53875,10.40375,-9.52875,-12.008,-8.224,16.344,eccentric,3,3.0,28451.0,377745.0,338180.0,396317.0,341043.0
2026-04-07 17:45:44.379886,185527,1014775039,1014776775,0.802272,-0.37088,-0.20496,4.2,10.6925,-10.325,-12.008,-8.224,16.344,eccentric,3,3.0,28451.0,377745.0,338180.0,396317.0,341043.0
2026-04-07 17:45:44.381413,185528,1014784004,1014785497,0.817888,-0.366976,-0.199104,4.41,11.90875,-11.2875,-11.920001,-8.696,15.120001,eccentric,3,3.0,28451.0,377745.0,338180.0,396317.0,341043.0
2026-04-07 17:45:44.418160,185529,1014798629,1014800446,0.825696,-0.378688,-0.193248,5.6,13.48375,-11.62875,-12.168,-8.368,14.896001,eccentric,3,3.0,28451.0,377745.0,338180.0,396317.0,341043.0
2026-04-07 17:45:44.419819,185530,1014807560,1014809202,0.825696,-0.378688,-0.193248,4.97,15.0675,-11.50625,-12.168,-8.368,14.896001,eccentric,3,3.0,28451.0,377745.0,338180.0,396317.0,341043.0
2026-04-07 17:45:44.461091,185540,1014816708,1014817991,0.841312,-0.357216,-0.181536,4.095,16.66875,-11.480001,-12.168,-8.864,16.08,eccentric,3,3.0,28440.0,377783.0,338333.0,396614.0,341401.0
2026-04-07 17:45:44.462781,185541,1014831414,1014833012,0.841312,-0.357216,-0.181536,7.48125,17.17625,-11.515,-11.848001,-8.864,16.08,eccentric,3,3.0,28440.0,377783.0,338333.0,396614.0,341401.0
2026-04-07 17:45:44.466116,185542,1014840329,1014841746,0.804224,-0.386496,-0.203008,9.59875,17.8325,-13.02875,-11.712001,-8.120001,15.304001,eccentric,3,3.0,28440.0,377783.0,338333.0,396614.0,341401.0
2026-04-07 17:45:44.467680,185543,1014849298,1014850449,0.804224,-0.386496,-0.203008,10.35125,18.76875,-14.6825,-11.712001,-8.120001,15.304001,eccentric,3,3.0,28440.0,377783.0,338333.0,396614.0,341401.0
2026-04-07 17:45:44.471827,185544,1014858266,1014859172,0.817888,-0.333792,-0.206912,14.07,19.678751,-15.3475,-12.056001,-7.832,14.328001,eccentric,3,3.0,28440.0,377783.0,338333.0,396614.0,341401.0
2026-04-07 17:45:44.474265,185545,1014872851,1014874110,0.817888,-0.333792,-0.206912,17.84125,19.97625,-16.6425,-12.056001,-7.832,14.328001,eccentric,3,3.0,28440.0,377783.0,338333.0,396614.0,341401.0
2026-04-07 17:45:44.480808,185546,1014881777,1014882854,0.845216,-0.304512,-0.1952,20.58,20.79,-19.6,-12.024,-8.768001,16.36,eccentric,3,3.0,28440.0,377783.0,338333.0,396614.0,341401.0
2026-04-07 17:45:44.512463,185547,1014890791,1014891547,0.845216,-0.304512,-0.1952,20.195,21.6825,-22.925,-12.024,-8.768001,16.36,eccentric,3,3.0,28440.0,377783.0,338333.0,396614.0,341401.0
2026-04-07 17:45:44.514741,185548,1014905795,1014906476,0.798368,-0.314272,-0.181536,21.2275,22.505,-24.98125,-12.392,-8.856,17.312,eccentric,3,3.0,28440.0,377783.0,338333.0,396614.0,341401.0
2026-04-07 17:45:44.543589,185558,1014915708,1014917280,0.798368,-0.314272,-0.181536,16.75625,22.575,-26.8275,-12.392,-8.856,17.312,eccentric,3,3.0,27012.0,366256.0,329280.0,387670.0,334378.0
2026-04-07 17:45:44.546081,185559,1014924713,1014926047,0.776896,-0.376736,-0.158112,11.24375,21.98,-27.0025,-11.584001,-8.888001,15.912001,eccentric,3,3.0,27012.0,366256.0,329280.0,387670.0,334378.0
2026-04-07 17:45:44.547655,185560,1014933769,1014934766,0.776896,-0.376736,-0.158112,10.52625,21.9625,-26.7575,-11.584001,-8.888001,15.912001,eccentric,3,3.0,27012.0,366256.0,329280.0,387670.0,334378.0
2026-04-07 17:45:44.555797,185561,1014948334,1014949734,0.745664,-0.337696,-0.18544,11.54125,22.18125,-25.78625,-11.960001,-9.376,17.808,eccentric,3,3.0,27012.0,366256.0,329280.0,387670.0,334378.0
2026-04-07 17:45:44.559706,185562,1014957269,1014958452,0.774944,-0.2928,-0.134688,14.6475,21.735,-25.85625,-11.528001,-9.504001,13.192,eccentric,3,3.0,27012.0,366256.0,329280.0,387670.0,334378.0
2026-04-07 17:45:44.564667,185563,1014966237,1014967126,0.774944,-0.2928,-0.134688,14.14875,21.1225,-28.2975,-11.528001,-9.504001,13.192,eccentric,3,3.0,27012.0,366256.0,329280.0,387670.0,334378.0
2026-04-07 17:45:44.594990,185564,1014975212,1014975819,0.774944,-0.2928,-0.134688,15.47875,20.86,-28.91875,-11.528001,-9.504001,13.192,eccentric,3,3.0,27012.0,366256.0,329280.0,387670.0,334378.0
2026-04-07 17:45:44.599337,185565,1014990147,1014990772,0.784704,-0.324032,-0.15616,15.86375,20.475,-30.0475,-11.592001,-9.704,13.664001,eccentric,3,3.0,27012.0,366256.0,329280.0,387670.0,334378.0
2026-04-07 17:45:44.600930,185566,1014999417,1015001539,0.76128,-0.327936,-0.140544,14.18375,20.46625,-31.605,-11.544001,-9.184,16.128,eccentric,3,3.0,27012.0,366256.0,329280.0,387670.0,334378.0
2026-04-07 17:45:44.607924,185567,1015008365,1015010259,0.76128,-0.327936,-0.140544,15.575,20.965,-31.605,-11.544001,-9.184,16.128,eccentric,3,3.0,27012.0,366256.0,329280.0,387670.0,334378.0
2026-04-07 17:45:44.639370,185578,1015023303,1015025239,0.7808,-0.345504,-0.144448,15.26875,20.58,-31.9725,-11.424001,-9.808001,16.816,eccentric,3,3.0,26518.0,362068.0,325895.0,384135.0,331671.0
2026-04-07 17:45:44.641074,185579,1015032286,1015033925,0.7808,-0.345504,-0.144448,14.175,19.8275,-32.50625,-11.424001,-9.808001,16.816,eccentric,3,3.0,26518.0,362068.0,325895.0,384135.0,331671.0
2026-04-07 17:45:44.643000,185580,1015041214,1015042621,0.794464,-0.298656,-0.111264,14.95375,21.28875,-33.60875,-11.856001,-10.176001,16.904001,eccentric,3,3.0,26518.0,362068.0,325895.0,384135.0,331671.0
2026-04-07 17:45:44.649198,185581,1015050128,1015051305,0.794464,-0.298656,-0.111264,16.44125,22.4875,-34.895,-11.856001,-10.176001,16.904001,eccentric,3,3.0,26518.0,362068.0,325895.0,384135.0,331671.0
2026-04-07 17:45:44.677821,185582,1015064633,1015066222,0.772992,-0.310368,-0.115168,17.045,24.10625,-35.638752,-12.376,-10.68,19.024,eccentric,3,3.0,26518.0,362068.0,325895.0,384135.0,331671.0
2026-04-07 17:45:44.682185,185583,1015073557,1015074904,0.772992,-0.310368,-0.115168,15.6625,24.2025,-34.81625,-12.376,-10.68,19.024,eccentric,3,3.0,26518.0,362068.0,325895.0,384135.0,331671.0
2026-04-07 17:45:44.716230,185584,1015082499,1015083655,0.786656,-0.288896,-0.101504,14.595,23.9225,-34.22125,-11.8,-10.608001,17.304,eccentric,3,3.0,26518.0,362068.0,325895.0,384135.0,331671.0
2026-04-07 17:45:44.718493,185585,1015097001,1015098594,0.786656,-0.288896,-0.101504,13.3175,23.75625,-34.09,-11.8,-10.608001,17.304,eccentric,3,3.0,26518.0,362068.0,325895.0,384135.0,331671.0
2026-04-07 17:45:44.723158,185586,1015105906,1015107283,0.786656,-0.271328,-0.101504,13.22125,24.31625,-33.6,-11.792001,-11.248,17.2,eccentric,3,3.0,26518.0,362068.0,325895.0,384135.0,331671.0
2026-04-07 17:45:44.749098,185596,1015114829,1015115979,0.786656,-0.271328,-0.101504,10.85,25.6725,-33.90625,-11.792001,-11.248,17.2,eccentric,3,3.0,25981.0,357599.0,322330.0,380461.0,328445.0
2026-04-07 17:45:44.753117,185597,1015129367,1015131058,0.802272,-0.249856,-0.08784,8.7325,27.36125,-35.41125,-11.320001,-11.528001,16.776001,eccentric,3,3.0,25981.0,357599.0,322330.0,380461.0,328445.0
2026-04-07 17:45:44.754786,185598,1015138301,1015139807,0.815936,-0.271328,-0.07808,9.3625,28.5075,-35.945,-11.392,-11.104,17.08,eccentric,3,3.0,25981.0,357599.0,322330.0,380461.0,328445.0
2026-04-07 17:45:44.756315,185599,1015147262,1015148529,0.815936,-0.271328,-0.07808,6.8775,28.37625,-36.1375,-11.392,-11.104,17.08,eccentric,3,3.0,25981.0,357599.0,322330.0,380461.0,328445.0
2026-04-07 17:45:44.759577,185600,1015161762,1015163410,0.788608,-0.259616,-0.074176,4.75125,28.385,-35.90125,-12.160001,-11.688001,18.816,eccentric,3,3.0,25981.0,357599.0,322330.0,380461.0,328445.0
2026-04-07 17:45:44.768495,185601,1015170822,1015172110,0.788608,-0.259616,-0.074176,5.59125,28.55125,-35.49,-12.160001,-11.688001,18.816,eccentric,3,3.0,25981.0,357599.0,322330.0,380461.0,328445.0
2026-04-07 17:45:44.798748,185602,1015179753,1015180860,0.813984,-0.216672,-0.011712,5.52125,28.13125,-34.475,-12.584001,-12.104001,19.016,eccentric,3,3.0,25981.0,357599.0,322330.0,380461.0,328445.0
2026-04-07 17:45:44.800955,185603,1015188654,1015189531,0.813984,-0.216672,-0.011712,3.4125,28.2975,-34.8425,-12.584001,-12.104001,19.016,eccentric,3,3.0,25981.0,357599.0,322330.0,380461.0,328445.0
2026-04-07 17:45:44.805559,185604,1015203141,1015204455,0.817888,-0.206912,-0.050752,4.57625,28.8925,-34.79,-11.992001,-12.752001,18.488,eccentric,3,3.0,25981.0,357599.0,322330.0,380461.0,328445.0
2026-04-07 17:45:44.810666,185605,1015212087,1015213195,0.817888,-0.206912,-0.050752,2.68625,29.09375,-34.83375,-11.992001,-12.752001,18.488,eccentric,3,3.0,25981.0,357599.0,322330.0,380461.0,328445.0
2026-04-07 17:45:44.833841,185615,1015221135,1015221915,0.81008,-0.22448,-0.052704,-1.44375,29.81125,-36.1375,-12.544001,-12.68,19.848001,eccentric,3,3.0,25627.0,354526.0,319900.0,378059.0,326301.0
2026-04-07 17:45:44.837924,185616,1015235743,1015236863,0.81008,-0.22448,-0.052704,0.0175,29.2775,-35.1925,-12.544001,-12.68,19.848001,eccentric,3,3.0,25627.0,354526.0,319900.0,378059.0,326301.0
2026-04-07 17:45:44.842194,185617,1015244674,1015245663,0.835456,-0.201056,-0.017568,1.8025,27.685,-34.58,-12.400001,-12.904,20.160002,eccentric,3,3.0,25627.0,354526.0,319900.0,378059.0,326301.0
2026-04-07 17:45:44.891126,185618,1015253646,1015254372,0.835456,-0.201056,-0.017568,2.31875,27.1775,-34.965,-12.400001,-12.904,20.160002,eccentric,3,3.0,25627.0,354526.0,319900.0,378059.0,326301.0
2026-04-07 17:45:44.892228,185619,1015262993,1015265136,0.823744,-0.163968,-0.035136,4.43625,26.678751,-34.2475,-12.064,-12.968,19.288,eccentric,3,3.0,25627.0,354526.0,319900.0,378059.0,326301.0
2026-04-07 17:45:44.898201,185620,1015277457,1015277989,0.823744,-0.163968,-0.035136,2.7475,25.9525,-34.51,-12.064,-12.968,19.288,eccentric,3,3.0,25627.0,354526.0,319900.0,378059.0,326301.0
2026-04-07 17:45:44.898590,185621,1015286903,1015288760,0.81008,-0.16592,-0.040992,1.23375,26.03125,-35.41125,-11.664001,-12.824,18.928001,eccentric,3,3.0,25627.0,354526.0,319900.0,378059.0,326301.0
2026-04-07 17:45:44.900132,185622,1015295855,1015297445,0.81008,-0.16592,-0.040992,1.6625,25.9,-35.51625,-11.664001,-12.824,18.928001,eccentric,3,3.0,25627.0,354526.0,319900.0,378059.0,326301.0
2026-04-07 17:45:44.931304,185623,1015310348,1015312361,0.747616,-0.310368,0.060512,-0.5775,27.4925,-38.00125,-11.968,-13.432001,19.224,eccentric,3,3.0,25627.0,354526.0,319900.0,378059.0,326301.0
2026-04-07 17:45:44.959897,185634,1015319434,1015321106,0.86864,-0.140544,0.023424,5.145,24.36,-38.59625,-12.232,-13.936001,19.248001,eccentric,3,3.0,25219.0,351310.0,317450.0,375964.0,325058.0
2026-04-07 17:45:44.961426,185635,1015328379,1015329859,0.86864,-0.140544,0.023424,17.22875,24.42125,-37.485,-12.232,-13.936001,19.248001,eccentric,3,3.0,25219.0,351310.0,317450.0,375964.0,325058.0
2026-04-07 17:45:44.965663,185636,1015342861,1015344774,0.7808,-0.099552,0.033184,14.4375,23.59875,-41.0725,-11.944,-13.840001,20.104,eccentric,3,3.0,25219.0,351310.0,317450.0,375964.0,325058.0
2026-04-07 17:45:44.967403,185637,1015351891,1015353530,0.7808,-0.099552,0.033184,12.3725,21.595,-36.505,-11.944,-13.840001,20.104,eccentric,3,3.0,25219.0,351310.0,317450.0,375964.0,325058.0
2026-04-07 17:45:44.968916,185638,1015360842,1015362222,0.817888,-0.158112,0.025376,9.511251,18.75125,-35.46375,-13.104001,-14.68,22.264002,eccentric,3,3.0,25219.0,351310.0,317450.0,375964.0,325058.0
2026-04-07 17:45:44.973552,185639,1015369803,1015370978,0.817888,-0.158112,0.025376,7.53375,16.31875,-34.51875,-13.104001,-14.68,22.264002,eccentric,3,3.0,25219.0,351310.0,317450.0,375964.0,325058.0
2026-04-07 17:45:45.013763,185640,1015384306,1015385927,0.854976,-0.093696,0.044896,10.70125,15.33,-33.29375,-12.744,-14.616001,21.304,eccentric,3,3.0,25219.0,351310.0,317450.0,375964.0,325058.0
2026-04-07 17:45:45.016052,185641,1015393233,1015394620,0.854976,-0.093696,0.044896,10.6925,16.47625,-33.34625,-12.744,-14.616001,21.304,eccentric,3,3.0,25219.0,351310.0,317450.0,375964.0,325058.0
2026-04-07 17:45:45.020674,185642,1015402168,1015403306,0.876448,-0.046848,0.06832,8.75,18.61125,-33.88,-11.744,-14.184001,19.616001,eccentric,3,3.0,25219.0,351310.0,317450.0,375964.0,325058.0
2026-04-07 17:45:45.052347,185652,1015417126,1015418210,0.876448,-0.046848,0.06832,4.9525,20.65875,-35.4725,-11.744,-14.184001,19.616001,eccentric,3,3.0,24979.0,349004.0,315669.0,374189.0,323588.0
2026-04-07 17:45:45.053807,185653,1015426057,1015427110,0.860832,-0.111264,0.060512,2.835,23.415,-35.69125,-11.376,-14.440001,20.36,eccentric,3,3.0,24979.0,349004.0,315669.0,374189.0,323588.0
2026-04-07 17:45:45.058162,185654,1015435060,1015435875,0.860832,-0.111264,0.060512,1.435,24.22,-34.6675,-11.376,-14.440001,20.36,eccentric,3,3.0,24979.0,349004.0,315669.0,374189.0,323588.0
2026-04-07 17:45:45.059789,185655,1015444554,1015446676,0.851072,-0.11712,0.037088,1.2775,23.7825,-33.11,-12.072001,-14.944,21.656,eccentric,3,3.0,24979.0,349004.0,315669.0,374189.0,323588.0
2026-04-07 17:45:45.061325,185656,1015459076,1015459517,0.835456,-0.099552,0.074176,2.28375,22.47,-31.911251,-12.072001,-14.944,19.608002,eccentric,3,3.0,24979.0,349004.0,315669.0,374189.0,323588.0
2026-04-07 17:45:45.069394,185657,1015468396,1015470286,0.841312,-0.099552,0.074176,2.485,21.2625,-31.29875,-12.120001,-15.64,19.616001,eccentric,3,3.0,24979.0,349004.0,315669.0,374189.0,323588.0
2026-04-07 17:45:45.075607,185658,1015477442,1015478999,0.841312,-0.099552,0.074176,4.36625,20.20375,-30.87875,-12.120001,-15.64,19.616001,eccentric,3,3.0,24979.0,349004.0,315669.0,374189.0,323588.0
2026-04-07 17:45:45.104006,185659,1015491924,1015493923,0.817888,-0.083936,0.076128,4.445,18.75125,-29.9775,-11.848001,-16.032001,22.336,eccentric,3,3.0,24979.0,349004.0,315669.0,374189.0,323588.0
2026-04-07 17:45:45.108607,185660,1015500847,1015502622,0.823744,-0.040992,0.05856,3.0625,17.605,-29.4175,-12.376,-15.816001,20.096,eccentric,3,3.0,24979.0,349004.0,315669.0,374189.0,323588.0
2026-04-07 17:45:45.110148,185661,1015509776,1015511330,0.823744,-0.040992,0.05856,1.05875,18.27,-29.81125,-12.376,-15.816001,20.096,eccentric,3,3.0,24979.0,349004.0,315669.0,374189.0,323588.0
2026-04-07 17:45:45.139361,185671,1015519024,1015520227,0.823744,-0.040992,0.05856,-2.54625,19.2675,-30.1525,-12.376,-15.816001,20.096,eccentric,3,3.0,24819.0,347812.0,314875.0,373610.0,323242.0
2026-04-07 17:45:45.141010,185672,1015533663,1015535181,0.854976,-0.0488,0.072224,-7.7,19.3375,-30.30125,-12.328001,-16.36,22.992,eccentric,3,3.0,24819.0,347812.0,314875.0,373610.0,323242.0
2026-04-07 17:45:45.142591,185673,1015542659,1015543896,0.812032,-0.095648,0.05856,-9.33625,20.43125,-31.64875,-12.384001,-17.096,22.400002,eccentric,3,3.0,24819.0,347812.0,314875.0,373610.0,323242.0
2026-04-07 17:45:45.150436,185674,1015551563,1015552609,0.812032,-0.095648,0.05856,-8.56625,19.45125,-31.29875,-12.384001,-17.096,22.400002,eccentric,3,3.0,24819.0,347812.0,314875.0,373610.0,323242.0
2026-04-07 17:45:45.179094,185675,1015566093,1015567488,0.825696,-0.07808,0.083936,-6.71125,16.91375,-28.84,-11.744,-16.240002,20.552,eccentric,3,3.0,24819.0,347812.0,314875.0,373610.0,323242.0
2026-04-07 17:45:45.183568,185676,1015575042,1015576199,0.825696,-0.07808,0.083936,-5.27625,15.04125,-27.8425,-11.744,-16.240002,20.552,eccentric,3,3.0,24819.0,347812.0,314875.0,373610.0,323242.0
2026-04-07 17:45:45.185842,185677,1015583942,1015584887,0.794464,-0.07808,0.01952,-5.74875,14.65625,-26.7225,-11.632001,-16.192001,21.400002,eccentric,3,3.0,24819.0,347812.0,314875.0,373610.0,323242.0
2026-04-07 17:45:45.218731,185678,1015598517,1015599790,0.794464,-0.07808,0.01952,-8.98625,15.46125,-24.59625,-11.632001,-16.192001,21.400002,eccentric,3,3.0,24819.0,347812.0,314875.0,373610.0,323242.0
2026-04-07 17:45:45.220936,185679,1015607448,1015608498,0.825696,-0.056608,0.052704,-10.42125,13.09,-22.11125,-11.664001,-16.936,23.056002,eccentric,3,3.0,24819.0,347812.0,314875.0,373610.0,323242.0
2026-04-07 17:45:45.249831,185690,1015616428,1015617663,0.825696,-0.056608,0.052704,-6.02,9.82625,-18.3925,-11.664001,-16.936,23.056002,eccentric,3,3.0,24717.0,346930.0,314171.0,372764.0,322632.0
2026-04-07 17:45:45.251386,185691,1015625354,1015626332,0.778848,-0.0488,0.062464,-6.265,8.0325,-18.20875,-10.984,-17.344002,21.336,eccentric,3,3.0,24717.0,346930.0,314171.0,372764.0,322632.0
2026-04-07 17:45:45.255576,185692,1015639889,1015641341,0.747616,-0.122976,0.101504,-5.04,5.52125,-13.93,-10.984,-17.344002,19.288,eccentric,3,3.0,24717.0,346930.0,314171.0,372764.0,322632.0
2026-04-07 17:45:45.257317,185693,1015648841,1015650093,0.745664,-0.122976,0.101504,-6.34375,2.94875,-12.22375,-11.664001,-16.84,19.944,eccentric,3,3.0,24717.0,346930.0,314171.0,372764.0,322632.0
2026-04-07 17:45:45.258849,185694,1015657767,1015658845,0.745664,-0.122976,0.101504,-3.185,-0.81375,-9.44125,-11.664001,-16.84,19.944,eccentric,3,3.0,24717.0,346930.0,314171.0,372764.0,322632.0
2026-04-07 17:45:45.315073,185695,1015672315,1015673744,0.837408,-0.023424,0.033184,1.4875,-2.24875,-7.23625,-11.752001,-17.336,21.392,eccentric,3,3.0,24717.0,346930.0,314171.0,372764.0,322632.0
2026-04-07 17:45:45.317618,185696,1015681236,1015682473,0.802272,-0.054656,0.101504,-2.40625,-0.7,-7.55125,-11.200001,-17.616001,21.488,eccentric,3,3.0,24717.0,346930.0,314171.0,372764.0,322632.0
2026-04-07 17:45:45.325699,185697,1015690154,1015691210,0.802272,-0.054656,0.101504,-4.27875,-1.9775,-5.38125,-11.200001,-17.616001,21.488,eccentric,3,3.0,24717.0,346930.0,314171.0,372764.0,322632.0
2026-04-07 17:45:45.327311,185698,1015704653,1015706088,0.833504,-0.091744,0.091744,-2.19625,-3.71875,-3.5175,-11.576,-16.928001,21.248001,eccentric,3,3.0,24717.0,346930.0,314171.0,372764.0,322632.0
2026-04-07 17:45:45.329035,185699,1015713576,1015714775,0.833504,-0.091744,0.091744,-5.66125,-4.33125,-3.92,-11.576,-16.928001,21.248001,eccentric,3,3.0,24717.0,346930.0,314171.0,372764.0,322632.0
2026-04-07 17:45:45.355566,185709,1015722671,1015723544,0.84912,-0.056608,0.070272,-2.695,-4.3575,0.525,-11.456,-17.072,21.104,eccentric,3,3.0,24742.0,346854.0,313994.0,372215.0,322271.0
2026-04-07 17:45:45.357307,185710,1015731658,1015732325,0.84912,-0.056608,0.070272,-3.08875,-5.53875,0.385,-11.456,-17.072,21.104,eccentric,3,3.0,24742.0,346854.0,313994.0,372215.0,322271.0
2026-04-07 17:45:45.359009,185711,1015746611,1015747281,0.862784,-0.007808,0.072224,-3.03625,-5.52125,1.505,-11.416,-17.168001,22.064001,eccentric,3,3.0,24742.0,346854.0,313994.0,372215.0,322271.0
2026-04-07 17:45:45.363066,185712,1015755948,1015758074,0.862784,-0.007808,0.072224,-3.64875,-4.935,0.3675,-11.416,-17.168001,22.064001,eccentric,3,3.0,24742.0,346854.0,313994.0,372215.0,322271.0
2026-04-07 17:45:45.364662,185713,1015764915,1015766749,0.864736,-0.054656,0.06832,-4.97875,-5.87125,-0.13125,-11.84,-16.944,22.784,eccentric,3,3.0,24742.0,346854.0,313994.0,372215.0,322271.0
2026-04-07 17:45:45.394944,185714,1015779416,1015781632,0.864736,-0.054656,0.06832,-5.8275,-7.105,0.00875,-11.84,-16.944,22.784,eccentric,3,3.0,24742.0,346854.0,313994.0,372215.0,322271.0
2026-04-07 17:45:45.399315,185715,1015788355,1015790338,0.884256,-0.056608,0.062464,-5.55625,-6.8425,0.3325,-11.304001,-17.0,18.616001,eccentric,3,3.0,24742.0,346854.0,313994.0,372215.0,322271.0
2026-04-07 17:45:45.401048,185716,1015797287,1015799027,0.884256,-0.056608,0.062464,-4.38375,-7.42,1.05875,-11.304001,-17.0,18.616001,eccentric,3,3.0,24742.0,346854.0,313994.0,372215.0,322271.0
2026-04-07 17:45:45.402594,185717,1015806209,1015807747,0.872544,-0.042944,0.052704,-3.71,-6.95625,1.16375,-11.376,-16.608002,21.288,eccentric,3,3.0,24742.0,346854.0,313994.0,372215.0,322271.0
2026-04-07 17:45:45.465300,185727,1015821406,1015823050,0.85888,-0.040992,0.044896,-3.1325,-6.8775,1.4,-11.128,-16.992,22.856,eccentric,3,3.0,25039.0,348844.0,315317.0,372892.0,322860.0
2026-04-07 17:45:45.473179,185728,1015830463,1015831742,0.85888,-0.040992,0.044896,-2.96625,-6.85125,0.95375,-11.128,-16.992,22.856,eccentric,3,3.0,25039.0,348844.0,315317.0,372892.0,322860.0
2026-04-07 17:45:45.474811,185729,1015839479,1015840476,0.85888,-0.040992,0.044896,-1.925,-6.76375,0.875,-11.128,-16.992,22.856,eccentric,3,3.0,25039.0,348844.0,315317.0,372892.0,322860.0
2026-04-07 17:45:45.476455,185730,1015854060,1015855352,0.847168,-0.056608,0.02928,-2.1175,-7.1925,1.6275,-11.592001,-16.384,21.608002,eccentric,3,3.0,25039.0,348844.0,315317.0,372892.0,322860.0
2026-04-07 17:45:45.480608,185731,1015863004,1015864102,0.853024,-0.076128,0.033184,-1.33875,-8.42625,2.66875,-10.848001,-16.848001,20.736,eccentric,3,3.0,25039.0,348844.0,315317.0,372892.0,322860.0
2026-04-07 17:45:45.482231,185732,1015871966,1015872797,0.853024,-0.076128,0.033184,-0.83125,-8.96,3.08875,-10.848001,-16.848001,20.736,eccentric,3,3.0,25039.0,348844.0,315317.0,372892.0,322860.0
2026-04-07 17:45:45.483863,185733,1015880903,1015881505,0.837408,-0.070272,0.033184,-0.46375,-8.42625,4.05125,-10.848001,-16.848001,20.736,eccentric,3,3.0,25039.0,348844.0,315317.0,372892.0,322860.0
2026-04-07 17:45:45.493045,185734,1015895696,1015896517,0.837408,-0.070272,0.033184,-1.53125,-7.93625,4.6375,-11.912001,-16.832,22.248001,eccentric,3,3.0,25039.0,348844.0,315317.0,372892.0,322860.0
2026-04-07 17:45:45.521538,185735,1015904642,1015905234,0.81008,-0.056608,0.017568,-2.63375,-7.3675,5.41625,-11.616,-16.904001,23.048,eccentric,3,3.0,25039.0,348844.0,315317.0,372892.0,322860.0
2026-04-07 17:45:45.526154,185736,1015913818,1015915978,0.81008,-0.056608,0.017568,-3.19375,-7.6125,5.81875,-11.616,-16.904001,23.048,eccentric,3,3.0,25039.0,348844.0,315317.0,372892.0,322860.0
2026-04-07 17:45:45.556325,185747,1015928501,1015928865,0.786656,-0.093696,-0.001952,-4.48,-8.96,6.83375,-11.104,-15.888001,20.536001,eccentric,3,3.0,25046.0,349159.0,315570.0,373164.0,323035.0
2026-04-07 17:45:45.560653,185748,1015937851,1015939701,0.786656,-0.093696,-0.001952,-3.85,-11.0075,8.715,-11.104,-15.888001,20.536001,eccentric,3,3.0,25046.0,349159.0,315570.0,373164.0,323035.0
2026-04-07 17:45:45.562372,185749,1015946795,1015948403,0.786656,-0.07808,-0.023424,-2.45875,-12.92375,10.7275,-11.656,-16.512001,20.432001,eccentric,3,3.0,25046.0,349159.0,315570.0,373164.0,323035.0
2026-04-07 17:45:45.564686,185750,1015955720,1015957111,0.786656,-0.07808,-0.023424,-0.7875,-14.65625,12.67,-11.656,-16.512001,20.432001,eccentric,3,3.0,25046.0,349159.0,315570.0,373164.0,323035.0
2026-04-07 17:45:45.570562,185751,1015970214,1015972028,0.806176,-0.054656,-0.044896,2.03,-16.38875,13.79,-12.456,-16.056002,21.424002,eccentric,3,3.0,25046.0,349159.0,315570.0,373164.0,323035.0
2026-04-07 17:45:45.616134,185752,1015979136,1015980724,0.806176,-0.054656,-0.044896,3.3775,-16.6425,14.44625,-12.456,-16.056002,21.424002,eccentric,3,3.0,25046.0,349159.0,315570.0,373164.0,323035.0
2026-04-07 17:45:45.620591,185753,1015988063,1015989411,0.815936,-0.056608,-0.025376,4.26125,-16.12625,14.93625,-11.52,-15.728001,19.824001,eccentric,3,3.0,25046.0,349159.0,315570.0,373164.0,323035.0
2026-04-07 17:45:45.622305,185754,1016002529,1016004299,0.845216,-0.099552,-0.005856,4.6025,-15.91625,15.26,-11.8,-15.064001,20.28,eccentric,3,3.0,25046.0,349159.0,315570.0,373164.0,323035.0
2026-04-07 17:45:45.624223,185755,1016011468,1016012983,0.845216,-0.099552,-0.005856,2.2925,-15.81125,16.44125,-11.8,-15.064001,20.28,eccentric,3,3.0,25046.0,349159.0,315570.0,373164.0,323035.0
2026-04-07 17:45:45.650628,185765,1016020668,1016022115,0.845216,-0.099552,-0.005856,-0.98,-14.761251,17.66625,-11.8,-15.064001,20.28,concentric,3,3.0,25925.0,356677.0,321437.0,379178.0,328214.0
2026-04-07 17:45:45.652322,185766,1016035252,1016037090,0.860832,-0.121024,-0.013664,-2.87875,-14.595,18.725,-11.440001,-15.544001,19.76,concentric,3,3.0,25925.0,356677.0,321437.0,379178.0,328214.0
2026-04-07 17:45:45.655046,185767,1016044235,1016045840,0.870592,-0.132736,-0.044896,-1.33875,-14.49875,20.85125,-11.712001,-15.216001,21.264002,concentric,3,3.0,25925.0,356677.0,321437.0,379178.0,328214.0
2026-04-07 17:45:45.658122,185768,1016053198,1016054567,0.870592,-0.132736,-0.044896,-0.51625,-15.02375,22.42625,-11.712001,-15.216001,21.264002,concentric,3,3.0,25925.0,356677.0,321437.0,379178.0,328214.0
2026-04-07 17:45:45.660835,185769,1016062137,1016063301,0.8784,-0.122976,-0.0488,1.07625,-16.14375,22.225,-11.904,-14.928,20.12,concentric,3,3.0,25925.0,356677.0,321437.0,379178.0,328214.0
2026-04-07 17:45:45.689011,185770,1016076610,1016078215,0.8784,-0.122976,-0.0488,6.02,-15.54,21.245,-11.904,-14.928,20.12,concentric,3,3.0,25925.0,356677.0,321437.0,379178.0,328214.0
2026-04-07 17:45:45.692614,185771,1016085512,1016086914,0.901824,-0.130784,-0.044896,9.80875,-14.6125,22.21625,-11.592001,-14.56,19.328001,concentric,3,3.0,25925.0,356677.0,321437.0,379178.0,328214.0
2026-04-07 17:45:45.696682,185772,1016094394,1016095583,0.901824,-0.130784,-0.044896,10.255,-14.63875,21.37625,-11.592001,-14.56,19.328001,concentric,3,3.0,25925.0,356677.0,321437.0,379178.0,328214.0
2026-04-07 17:45:45.728219,185773,1016108874,1016110529,0.831552,-0.128832,-0.0488,11.22625,-11.5675,19.4775,-11.784,-14.480001,20.992,concentric,3,3.0,25925.0,356677.0,321437.0,379178.0,328214.0
2026-04-07 17:45:45.729928,185774,1016117789,1016119236,0.831552,-0.128832,-0.0488,10.08875,-10.54375,19.1975,-11.784,-14.480001,20.992,concentric,3,3.0,25925.0,356677.0,321437.0,379178.0,328214.0
2026-04-07 17:45:45.757620,185784,1016126711,1016127972,0.854976,-0.183488,-0.035136,6.65875,-11.795,19.985,-11.864,-13.688001,19.224,concentric,3,3.0,26639.0,362733.0,326245.0,384150.0,332258.0
2026-04-07 17:45:45.761904,185785,1016141429,1016142922,0.854976,-0.183488,-0.035136,4.9,-12.55625,19.241251,-11.864,-13.688001,19.224,concentric,3,3.0,26639.0,362733.0,326245.0,384150.0,332258.0
2026-04-07 17:45:45.763524,185786,1016150393,1016151678,0.853024,-0.17568,-0.054656,8.86375,-12.95,19.50375,-11.024,-13.696001,18.728,concentric,3,3.0,26639.0,362733.0,326245.0,384150.0,332258.0
2026-04-07 17:45:45.765101,185787,1016159309,1016160403,0.853024,-0.17568,-0.054656,9.45,-13.58,18.06,-11.024,-13.696001,18.728,concentric,3,3.0,26639.0,362733.0,326245.0,384150.0,332258.0
2026-04-07 17:45:45.773230,185788,1016173831,1016175362,0.884256,-0.11712,-0.052704,12.005,-12.8625,15.855001,-11.832001,-13.440001,20.648,concentric,3,3.0,26639.0,362733.0,326245.0,384150.0,332258.0
2026-04-07 17:45:45.801582,185789,1016182769,1016184109,0.845216,-0.179584,-0.044896,14.13125,-10.52625,13.97375,-11.76,-13.432001,19.688002,concentric,3,3.0,26639.0,362733.0,326245.0,384150.0,332258.0
2026-04-07 17:45:45.806053,185790,1016191704,1016192792,0.845216,-0.179584,-0.044896,11.12125,-8.1725,12.2675,-11.76,-13.432001,19.688002,concentric,3,3.0,26639.0,362733.0,326245.0,384150.0,332258.0
2026-04-07 17:45:45.807578,185791,1016200636,1016201481,0.845216,-0.179584,-0.044896,8.60125,-8.02375,12.31125,-11.76,-13.432001,19.688002,concentric,3,3.0,26639.0,362733.0,326245.0,384150.0,332258.0
2026-04-07 17:45:45.814290,185792,1016215111,1016216437,0.835456,-0.232288,-0.111264,9.77375,-8.435,13.51,-11.536,-13.120001,18.928001,concentric,3,3.0,26639.0,362733.0,326245.0,384150.0,332258.0
2026-04-07 17:45:45.841399,185803,1016224286,1016225264,0.851072,-0.15616,-0.042944,8.9075,-8.65375,13.615,-12.832001,-13.56,22.352001,concentric,3,3.0,26975.0,365576.0,328560.0,386554.0,334338.0
2026-04-07 17:45:45.846021,185804,1016233327,1016234076,0.851072,-0.15616,-0.042944,8.21625,-6.93875,12.215,-12.832001,-13.56,22.352001,concentric,3,3.0,26975.0,365576.0,328560.0,386554.0,334338.0
2026-04-07 17:45:45.847611,185805,1016248258,1016248979,0.821792,-0.171776,-0.040992,9.56375,-4.97875,11.2875,-12.328001,-13.68,19.864,concentric,3,3.0,26975.0,365576.0,328560.0,386554.0,334338.0
2026-04-07 17:45:45.915683,185806,1016257637,1016259793,0.821792,-0.171776,-0.040992,4.55875,-3.745,9.96625,-12.328001,-13.68,19.864,concentric,3,3.0,26975.0,365576.0,328560.0,386554.0,334338.0
2026-04-07 17:45:45.917413,185807,1016266572,1016268511,0.81008,-0.26352,-0.08784,2.58125,-3.5,9.38,-11.936001,-13.360001,18.536001,concentric,3,3.0,26975.0,365576.0,328560.0,386554.0,334338.0
2026-04-07 17:45:45.919058,185808,1016275496,1016277191,0.81008,-0.26352,-0.08784,4.80375,-3.98125,9.82625,-11.936001,-13.360001,18.536001,concentric,3,3.0,26975.0,365576.0,328560.0,386554.0,334338.0
2026-04-07 17:45:45.923147,185809,1016289955,1016292067,0.823744,-0.212768,-0.031232,7.30625,-3.4475,9.89625,-11.272,-12.648001,18.36,concentric,3,3.0,26975.0,365576.0,328560.0,386554.0,334338.0
2026-04-07 17:45:45.924747,185810,1016298850,1016300787,0.823744,-0.212768,-0.031232,9.1175,-2.58125,8.60125,-11.272,-12.648001,18.36,concentric,3,3.0,26975.0,365576.0,328560.0,386554.0,334338.0
2026-04-07 17:45:45.926335,185811,1016307763,1016309481,0.835456,-0.201056,-0.072224,9.72125,-2.54625,8.82875,-11.368001,-12.664001,17.992,concentric,3,3.0,26975.0,365576.0,328560.0,386554.0,334338.0
2026-04-07 17:45:45.951365,185821,1016322390,1016324468,0.835456,-0.201056,-0.072224,5.4425,-1.47875,8.12875,-11.368001,-12.664001,17.992,concentric,3,3.0,27267.0,368141.0,330662.0,388799.0,336120.0
2026-04-07 17:45:45.955589,185822,1016331418,1016333201,0.81008,-0.228384,-0.054656,2.96625,0.18375,6.895,-11.592001,-12.136001,18.648,concentric,3,3.0,27267.0,368141.0,330662.0,388799.0,336120.0
2026-04-07 17:45:45.957283,185823,1016340380,1016342025,0.81008,-0.228384,-0.054656,5.2325,1.25125,6.25625,-11.592001,-12.136001,18.648,concentric,3,3.0,27267.0,368141.0,330662.0,388799.0,336120.0
2026-04-07 17:45:45.959019,185824,1016354914,1016357020,0.769088,-0.240096,-0.074176,6.9825,0.13125,7.0875,-12.072001,-12.528001,19.896002,concentric,3,3.0,27267.0,368141.0,330662.0,388799.0,336120.0
2026-04-07 17:45:45.962960,185825,1016363845,1016365739,0.794464,-0.226432,-0.089792,8.54,-2.3275,8.96875,-11.704,-12.464001,18.92,concentric,3,3.0,27267.0,368141.0,330662.0,388799.0,336120.0
2026-04-07 17:45:45.991552,185826,1016372788,1016374450,0.794464,-0.226432,-0.089792,10.4825,-4.4275,9.87,-11.704,-12.464001,18.92,concentric,3,3.0,27267.0,368141.0,330662.0,388799.0,336120.0
2026-04-07 17:45:45.996078,185827,1016381740,1016383140,0.794464,-0.226432,-0.089792,8.75875,-5.29375,9.3625,-11.704,-12.464001,18.92,concentric,3,3.0,27267.0,368141.0,330662.0,388799.0,336120.0
2026-04-07 17:45:45.997633,185828,1016396229,1016398088,0.786656,-0.210816,-0.080032,6.9125,-5.0225,8.26,-11.848001,-12.080001,18.336,concentric,3,3.0,27267.0,368141.0,330662.0,388799.0,336120.0
2026-04-07 17:45:46.004223,185829,1016405142,1016406833,0.815936,-0.247904,-0.0488,5.3725,-4.26125,7.1575,-12.096001,-11.816001,18.560001,concentric,3,3.0,27267.0,368141.0,330662.0,388799.0,336120.0
2026-04-07 17:45:46.032793,185830,1016414077,1016415548,0.815936,-0.247904,-0.0488,3.92,-3.8325,5.2325,-12.096001,-11.816001,18.560001,concentric,3,3.0,27267.0,368141.0,330662.0,388799.0,336120.0
2026-04-07 17:45:46.062306,185840,1016428638,1016430478,0.796416,-0.269376,-0.083936,6.44875,-2.835,4.41,-11.528001,-12.168,18.264,concentric,3,3.0,27005.0,365973.0,328928.0,386919.0,334361.0
2026-04-07 17:45:46.063852,185841,1016437582,1016439232,0.796416,-0.269376,-0.083936,7.65625,-3.14125,5.15375,-11.528001,-12.168,18.264,concentric,3,3.0,27005.0,365973.0,328928.0,386919.0,334361.0
2026-04-07 17:45:46.068092,185842,1016446649,1016447990,0.788608,-0.245952,-0.056608,7.9275,-4.13875,5.81875,-12.168,-11.256001,18.872002,concentric,3,3.0,27005.0,365973.0,328928.0,386919.0,334361.0
2026-04-07 17:45:46.069859,185843,1016461161,1016462937,0.788608,-0.245952,-0.056608,6.405,-4.45375,6.88625,-12.168,-11.256001,18.872002,concentric,3,3.0,27005.0,365973.0,328928.0,386919.0,334361.0
2026-04-07 17:45:46.071433,185844,1016470101,1016471691,0.79056,-0.244,-0.083936,6.60625,-5.99375,7.02625,-12.816001,-11.76,19.328001,concentric,3,3.0,27005.0,365973.0,328928.0,386919.0,334361.0
2026-04-07 17:45:46.079223,185845,1016479061,1016480389,0.79056,-0.244,-0.083936,7.53375,-6.93,7.07875,-12.816001,-11.76,19.328001,concentric,3,3.0,27005.0,365973.0,328928.0,386919.0,334361.0
2026-04-07 17:45:46.107904,185846,1016488024,1016489209,0.821792,-0.26352,-0.072224,9.63375,-7.35,6.65,-12.264001,-11.960001,18.784,concentric,3,3.0,27005.0,365973.0,328928.0,386919.0,334361.0
2026-04-07 17:45:46.112282,185847,1016502532,1016504106,0.821792,-0.26352,-0.072224,10.2375,-7.76125,4.90875,-12.264001,-11.960001,18.784,concentric,3,3.0,27005.0,365973.0,328928.0,386919.0,334361.0
2026-04-07 17:45:46.113826,185848,1016511431,1016512808,0.823744,-0.244,-0.05856,10.85875,-6.58875,3.54375,-12.160001,-11.832001,17.288,concentric,3,3.0,27005.0,365973.0,328928.0,386919.0,334361.0
2026-04-07 17:45:46.120579,185849,1016520379,1016521507,0.823744,-0.244,-0.05856,10.43,-5.565,2.59875,-12.160001,-11.832001,17.288,concentric,3,3.0,27005.0,365973.0,328928.0,386919.0,334361.0
2026-04-07 17:45:46.146399,185860,1016535049,1016536473,0.817888,-0.271328,-0.072224,7.6475,-5.25875,3.66625,-13.032001,-11.888001,19.456001,concentric,3,3.0,27311.0,368298.0,330779.0,388820.0,336035.0
2026-04-07 17:45:46.185415,185861,1016543944,1016545160,0.8296,-0.247904,-0.099552,6.67625,-5.7225,5.39,-13.032001,-11.608001,19.584002,concentric,3,3.0,27311.0,368298.0,330779.0,388820.0,336035.0
2026-04-07 17:45:46.219954,185862,1016552938,1016553933,0.8296,-0.247904,-0.099552,6.30875,-6.6325,7.0,-13.248001,-11.608001,19.584002,concentric,3,3.0,27311.0,368298.0,330779.0,388820.0,336035.0
2026-04-07 17:45:46.222214,185863,1016567448,1016568848,0.86864,-0.222528,-0.080032,6.76375,-8.0675,6.3525,-11.72,-11.264001,17.472,concentric,3,3.0,27311.0,368298.0,330779.0,388820.0,336035.0
2026-04-07 17:45:46.226919,185864,1016576346,1016577525,0.86864,-0.222528,-0.080032,9.24875,-7.98,3.96375,-11.72,-11.264001,17.472,concentric,3,3.0,27311.0,368298.0,330779.0,388820.0,336035.0
2026-04-07 17:45:46.228501,185865,1016585280,1016586224,0.854976,-0.230336,-0.06832,12.46,-8.1375,1.1025,-12.216001,-10.592001,17.144001,concentric,3,3.0,27311.0,368298.0,330779.0,388820.0,336035.0
2026-04-07 17:45:46.230164,185866,1016599795,1016601104,0.854976,-0.230336,-0.06832,14.81375,-8.4875,-0.1575,-12.216001,-10.592001,17.144001,concentric,3,3.0,27311.0,368298.0,330779.0,388820.0,336035.0
2026-04-07 17:45:46.234344,185867,1016608721,1016609851,0.870592,-0.259616,-0.054656,14.93625,-7.735,0.67375,-11.976001,-10.72,17.240002,concentric,3,3.0,27311.0,368298.0,330779.0,388820.0,336035.0
2026-04-07 17:45:46.236909,185868,1016617646,1016618557,0.870592,-0.259616,-0.054656,11.55875,-7.95375,3.12375,-11.976001,-10.72,17.240002,concentric,3,3.0,27311.0,368298.0,330779.0,388820.0,336035.0
2026-04-07 17:45:46.262227,185878,1016626690,1016627431,0.864736,-0.25376,-0.072224,9.5025,-7.8225,5.20625,-12.272,-10.504001,17.632,concentric,3,3.0,28707.0,379345.0,339556.0,397888.0,343932.0
2026-04-07 17:45:46.266946,185879,1016641629,1016642375,0.864736,-0.25376,-0.072224,8.0675,-7.7,6.3875,-12.272,-10.504001,17.632,concentric,3,3.0,28707.0,379345.0,339556.0,397888.0,343932.0
2026-04-07 17:45:46.268655,185880,1016651063,1016653177,0.843264,-0.212768,-0.080032,7.735,-8.14625,6.09875,-12.536,-10.872001,18.184,concentric,3,3.0,28707.0,379345.0,339556.0,397888.0,343932.0
2026-04-07 17:45:46.271196,185881,1016660085,1016661908,0.843264,-0.212768,-0.080032,10.2725,-8.68,6.29125,-12.536,-10.872001,18.184,concentric,3,3.0,28707.0,379345.0,339556.0,397888.0,343932.0
2026-04-07 17:45:46.273533,185882,1016669028,1016670642,0.862784,-0.247904,-0.074176,11.64625,-9.87,6.62375,-12.392,-10.072001,18.240002,concentric,3,3.0,28707.0,379345.0,339556.0,397888.0,343932.0
2026-04-07 17:45:46.303677,185883,1016683587,1016685558,0.862784,-0.247904,-0.074176,10.885,-10.4825,5.87125,-12.392,-10.072001,18.240002,concentric,3,3.0,28707.0,379345.0,339556.0,397888.0,343932.0
2026-04-07 17:45:46.306397,185884,1016692543,1016694258,0.821792,-0.230336,-0.072224,12.83625,-10.395,6.08125,-12.424001,-10.416,16.352001,concentric,3,3.0,28707.0,379345.0,339556.0,397888.0,343932.0
2026-04-07 17:45:46.309725,185885,1016701465,1016702937,0.821792,-0.230336,-0.072224,13.755,-11.41875,6.93875,-12.424001,-10.416,16.352001,concentric,3,3.0,28707.0,379345.0,339556.0,397888.0,343932.0
2026-04-07 17:45:46.316726,185886,1016715977,1016717911,0.85888,-0.242048,-0.074176,10.75375,-12.67875,7.62125,-12.328001,-9.68,16.768002,concentric,3,3.0,28707.0,379345.0,339556.0,397888.0,343932.0
2026-04-07 17:45:46.341345,185896,1016725415,1016726761,0.813984,-0.271328,-0.072224,8.35625,-12.60875,8.37375,-13.000001,-10.144,18.216002,concentric,3,3.0,28955.0,381430.0,341244.0,399649.0,345317.0
2026-04-07 17:45:46.345729,185897,1016734470,1016735479,0.813984,-0.271328,-0.072224,7.72625,-13.09,9.54625,-13.000001,-10.144,18.216002,concentric,3,3.0,28955.0,381430.0,341244.0,399649.0,345317.0
2026-04-07 17:45:46.348109,185898,1016749152,1016750528,0.80032,-0.27328,-0.054656,7.1925,-13.85125,9.59875,-12.472,-9.488001,16.088001,concentric,3,3.0,28955.0,381430.0,341244.0,399649.0,345317.0
2026-04-07 17:45:46.376550,185899,1016758111,1016759261,0.80032,-0.27328,-0.054656,6.195,-15.46125,9.86125,-12.472,-9.488001,16.088001,concentric,3,3.0,28955.0,381430.0,341244.0,399649.0,345317.0
2026-04-07 17:45:46.381008,185900,1016767032,1016767932,0.8296,-0.275232,-0.074176,0.72625,-16.3625,9.54625,-12.448001,-9.768001,16.400002,concentric,3,3.0,28955.0,381430.0,341244.0,399649.0,345317.0
2026-04-07 17:45:46.382590,185901,1016775953,1016776615,0.8296,-0.275232,-0.074176,-3.49125,-17.0275,7.56875,-12.448001,-9.768001,16.400002,concentric,3,3.0,28955.0,381430.0,341244.0,399649.0,345317.0
2026-04-07 17:45:46.389173,185902,1016790773,1016791559,0.827648,-0.277184,-0.10736,-1.54875,-16.555,5.845,-12.448001,-9.56,16.112001,concentric,3,3.0,28955.0,381430.0,341244.0,399649.0,345317.0
2026-04-07 17:45:46.417767,185903,1016800282,1016802319,0.827648,-0.277184,-0.10736,1.89875,-16.23125,4.17375,-12.448001,-9.56,16.112001,concentric,3,3.0,28955.0,381430.0,341244.0,399649.0,345317.0
2026-04-07 17:45:46.422258,185904,1016809227,1016811011,0.8296,-0.28304,-0.089792,0.21,-16.19625,2.37125,-12.776001,-9.688001,15.528001,concentric,3,3.0,28955.0,381430.0,341244.0,399649.0,345317.0
2026-04-07 17:45:46.424188,185905,1016818153,1016819711,0.8296,-0.28304,-0.089792,0.5425,-16.63375,1.53125,-12.776001,-9.688001,15.528001,concentric,3,3.0,28955.0,381430.0,341244.0,399649.0,345317.0
2026-04-07 17:45:46.457564,185916,1016833225,1016834800,0.833504,-0.290848,-0.101504,-0.20125,-16.75625,0.25375,-11.872001,-9.896001,15.744,concentric,3,3.0,29433.0,385300.0,344454.0,402699.0,348171.0
2026-04-07 17:45:46.461864,185917,1016842296,1016843592,0.833504,-0.290848,-0.101504,-4.1825,-17.03625,-1.32125,-11.872001,-9.896001,15.744,concentric,3,3.0,29433.0,385300.0,344454.0,402699.0,348171.0
2026-04-07 17:45:46.463540,185918,1016851271,1016852356,0.804224,-0.288896,-0.10736,-4.13,-16.31,0.21,-12.120001,-9.664001,15.256001,concentric,3,3.0,29433.0,385300.0,344454.0,402699.0,348171.0
2026-04-07 17:45:46.465109,185919,1016865786,1016867311,0.81008,-0.316224,-0.093696,-6.8425,-16.09125,1.65375,-12.592001,-9.776,16.448,concentric,3,3.0,29433.0,385300.0,344454.0,402699.0,348171.0
2026-04-07 17:45:46.514871,185920,1016874711,1016876007,0.81008,-0.316224,-0.093696,-12.20625,-16.00375,1.63625,-12.592001,-9.776,16.448,concentric,3,3.0,29433.0,385300.0,344454.0,402699.0,348171.0
2026-04-07 17:45:46.516329,185921,1016883642,1016884728,0.81008,-0.316224,-0.093696,-12.635,-15.1025,1.8025,-12.592001,-9.776,16.448,concentric,3,3.0,29433.0,385300.0,344454.0,402699.0,348171.0
2026-04-07 17:45:46.520603,185922,1016898120,1016899671,0.772992,-0.290848,-0.124928,-9.52,-14.67375,1.04125,-11.792001,-9.240001,12.632001,concentric,3,3.0,29433.0,385300.0,344454.0,402699.0,348171.0
2026-04-07 17:45:46.522287,185923,1016907022,1016908353,0.776896,-0.27328,-0.122976,-10.54375,-15.7325,-1.04125,-12.288,-9.64,14.872001,concentric,3,3.0,29433.0,385300.0,344454.0,402699.0,348171.0
2026-04-07 17:45:46.524915,185924,1016915933,1016917017,0.776896,-0.27328,-0.122976,-10.54375,-15.75875,-2.59,-12.288,-9.64,14.872001,concentric,3,3.0,29433.0,385300.0,344454.0,402699.0,348171.0
2026-04-07 17:45:46.556489,185934,1016924852,1016925829,0.776896,-0.27328,-0.138592,-9.05625,-15.995,-3.01,-12.288,-9.64,14.872001,concentric,3,3.0,29615.0,386595.0,345344.0,403114.0,348708.0
2026-04-07 17:45:46.560585,185935,1016939361,1016940842,0.778848,-0.306464,-0.128832,-9.975,-15.67125,-4.0775,-12.432,-9.440001,15.856001,concentric,3,3.0,29615.0,386595.0,345344.0,403114.0,348708.0
2026-04-07 17:45:46.562245,185936,1016948297,1016949584,0.769088,-0.296704,-0.13664,-12.46875,-15.417501,-3.08875,-12.792001,-9.76,15.696001,concentric,3,3.0,29615.0,386595.0,345344.0,403114.0,348708.0
2026-04-07 17:45:46.563932,185937,1016957230,1016958332,0.769088,-0.296704,-0.13664,-14.49,-15.435,-1.6275,-12.792001,-9.76,15.696001,concentric,3,3.0,29615.0,386595.0,345344.0,403114.0,348708.0
2026-04-07 17:45:46.571749,185938,1016971741,1016973276,0.778848,-0.288896,-0.18544,-14.752501,-15.8025,-1.1725,-12.52,-10.128,15.584001,concentric,3,3.0,29615.0,386595.0,345344.0,403114.0,348708.0
2026-04-07 17:45:46.602491,185939,1016980706,1016982004,0.778848,-0.288896,-0.18544,-13.7025,-16.21375,-1.23375,-12.52,-10.128,15.584001,concentric,3,3.0,29615.0,386595.0,345344.0,403114.0,348708.0
2026-04-07 17:45:46.606863,185940,1016989619,1016990708,0.817888,-0.277184,-0.17568,-11.12125,-15.58375,-2.28375,-12.920001,-9.304001,14.400001,concentric,3,3.0,29615.0,386595.0,345344.0,403114.0,348708.0
2026-04-07 17:45:46.608490,185941,1017004088,1017005589,0.817888,-0.277184,-0.17568,-10.54375,-15.33,-3.7625,-12.920001,-9.304001,14.400001,concentric,3,3.0,29615.0,386595.0,345344.0,403114.0,348708.0
2026-04-07 17:45:46.612150,185942,1017013007,1017014325,0.835456,-0.316224,-0.179584,-10.05375,-14.91875,-4.4625,-12.248,-9.296001,12.696001,concentric,3,3.0,29615.0,386595.0,345344.0,403114.0,348708.0
2026-04-07 17:45:46.642403,185943,1017021948,1017023063,0.835456,-0.316224,-0.179584,-12.99375,-14.72625,-4.8125,-12.248,-9.296001,12.696001,concentric,3,3.0,29615.0,386595.0,345344.0,403114.0,348708.0
2026-04-07 17:45:46.667807,185953,1017036602,1017038054,0.823744,-0.349408,-0.1952,-13.22125,-13.4925,-5.3725,-12.256001,-9.224,13.552001,concentric,3,3.0,29790.0,387897.0,346421.0,403431.0,349661.0
2026-04-07 17:45:46.671863,185954,1017045578,1017046763,0.823744,-0.333792,-0.208864,-9.5375,-12.74875,-3.9375,-12.256001,-9.224,13.552001,concentric,3,3.0,29790.0,387897.0,346421.0,403431.0,349661.0
2026-04-07 17:45:46.679281,185955,1017054483,1017055485,0.81984,-0.337696,-0.208864,-7.62125,-12.792501,-1.785,-13.008,-9.712001,15.312,concentric,3,3.0,29790.0,387897.0,346421.0,403431.0,349661.0
2026-04-07 17:45:46.688134,185956,1017063553,1017064185,0.81984,-0.337696,-0.208864,-9.59,-12.4075,-0.55125,-13.008,-9.712001,15.312,concentric,3,3.0,29790.0,387897.0,346421.0,403431.0,349661.0
2026-04-07 17:45:46.689809,185957,1017078473,1017079163,0.827648,-0.324032,-0.220576,-9.44125,-11.6725,-0.5075,-12.616,-9.592,13.704,concentric,3,3.0,29790.0,387897.0,346421.0,403431.0,349661.0
2026-04-07 17:45:46.691670,185958,1017087931,1017089984,0.821792,-0.300608,-0.232288,-7.79625,-11.59375,-0.5425,-12.576,-9.496,13.392,concentric,3,3.0,29790.0,387897.0,346421.0,403431.0,349661.0
2026-04-07 17:45:46.696747,185959,1017096982,1017098745,0.821792,-0.300608,-0.232288,-6.9475,-11.7425,-1.23375,-12.576,-9.496,13.392,concentric,3,3.0,29790.0,387897.0,346421.0,403431.0,349661.0
2026-04-07 17:45:46.725237,185960,1017106042,1017107506,0.821792,-0.345504,-0.228384,-4.76875,-11.54125,-1.1025,-12.576,-9.496,13.392,concentric,3,3.0,29790.0,387897.0,346421.0,403431.0,349661.0
2026-04-07 17:45:46.729835,185961,1017120525,1017122431,0.827648,-0.345504,-0.228384,-4.1125,-10.98125,-0.8225,-12.320001,-9.584001,12.328001,concentric,3,3.0,29790.0,387897.0,346421.0,403431.0,349661.0
2026-04-07 17:45:46.757613,185971,1017129643,1017131185,0.827648,-0.3416,-0.232288,-5.985,-10.2025,-0.23625,-12.168,-9.312,13.744,concentric,3,3.0,29845.0,388468.0,346897.0,403431.0,349971.0
2026-04-07 17:45:46.761838,185972,1017138589,1017139885,0.827648,-0.3416,-0.232288,-4.8825,-9.58125,0.14,-12.168,-9.312,13.744,concentric,3,3.0,29845.0,388468.0,346897.0,403431.0,349971.0
2026-04-07 17:45:46.763651,185973,1017153115,1017154861,0.827648,-0.339648,-0.265472,-3.85875,-9.345,1.5575,-13.112,-9.928,14.704,concentric,3,3.0,29845.0,388468.0,346897.0,403431.0,349971.0
2026-04-07 17:45:46.765100,185974,1017162058,1017163590,0.827648,-0.339648,-0.265472,-5.705,-9.730001,1.89875,-13.112,-9.928,14.704,concentric,3,3.0,29845.0,388468.0,346897.0,403431.0,349971.0
2026-04-07 17:45:46.770467,185975,1017171026,1017172310,0.817888,-0.339648,-0.290848,-6.0025,-9.0825,1.6625,-11.84,-9.360001,12.992001,concentric,3,3.0,29845.0,388468.0,346897.0,403431.0,349971.0
2026-04-07 17:45:46.814882,185976,1017185509,1017187226,0.817888,-0.339648,-0.290848,-4.29625,-8.33875,2.30125,-11.84,-9.360001,12.992001,concentric,3,3.0,29845.0,388468.0,346897.0,403431.0,349971.0
2026-04-07 17:45:46.818575,185977,1017194410,1017195941,0.827648,-0.294752,-0.257664,-8.23375,-7.7175,1.19875,-12.52,-9.208,13.008,concentric,3,3.0,29845.0,388468.0,346897.0,403431.0,349971.0
2026-04-07 17:45:46.820970,185978,1017203351,1017204666,0.827648,-0.294752,-0.257664,-10.2375,-6.2825,0.76125,-12.52,-9.208,13.008,concentric,3,3.0,29845.0,388468.0,346897.0,403431.0,349971.0
2026-04-07 17:45:46.822537,185979,1017217834,1017219565,0.8296,-0.33184,-0.277184,-11.3225,-6.09875,1.085,-13.840001,-9.872001,14.480001,concentric,3,3.0,29845.0,388468.0,346897.0,403431.0,349971.0
2026-04-07 17:45:46.848940,185990,1017227095,1017228704,0.835456,-0.353312,-0.251808,-13.2825,-6.7025,0.1925,-13.840001,-9.872001,13.824,concentric,3,3.0,30370.0,392570.0,350297.0,403431.0,353250.0
2026-04-07 17:45:46.853542,185991,1017236105,1017237484,0.835456,-0.353312,-0.251808,-12.0575,-6.41375,-0.53375,-12.048,-10.208,13.824,concentric,3,3.0,30370.0,392570.0,350297.0,403431.0,353250.0
2026-04-07 17:45:46.855038,185992,1017245039,1017246266,0.835456,-0.353312,-0.251808,-7.7875,-6.37875,-0.49875,-12.048,-10.208,13.824,concentric,3,3.0,30370.0,392570.0,350297.0,403431.0,353250.0
2026-04-07 17:45:46.859578,185993,1017259514,1017261219,0.856928,-0.304512,-0.281088,-6.79,-6.08125,-1.645,-12.712001,-9.944,13.768001,concentric,3,3.0,30370.0,392570.0,350297.0,403431.0,353250.0
2026-04-07 17:45:46.867956,185994,1017268462,1017269944,0.843264,-0.298656,-0.28304,-7.63875,-6.055,-2.7475,-13.160001,-9.888001,14.000001,concentric,3,3.0,30370.0,392570.0,350297.0,403431.0,353250.0
2026-04-07 17:45:46.896431,185995,1017277386,1017278769,0.843264,-0.298656,-0.28304,-9.17875,-5.78375,-4.13875,-13.160001,-9.888001,14.000001,concentric,3,3.0,30370.0,392570.0,350297.0,403431.0,353250.0
2026-04-07 17:45:46.900103,185996,1017291882,1017293660,0.843264,-0.339648,-0.232288,-11.795,-5.59125,-5.2325,-13.472001,-9.712001,15.872001,concentric,3,3.0,30370.0,392570.0,350297.0,403431.0,353250.0
2026-04-07 17:45:46.904151,185997,1017300822,1017302357,0.843264,-0.339648,-0.232288,-13.3,-5.60875,-6.23875,-13.472001,-9.712001,15.872001,concentric,3,3.0,30370.0,392570.0,350297.0,403431.0,353250.0
2026-04-07 17:45:46.909382,185998,1017309787,1017311056,0.827648,-0.300608,-0.249856,-10.395,-4.40125,-5.38125,-12.808001,-9.584001,13.480001,concentric,3,3.0,30370.0,392570.0,350297.0,403431.0,353250.0
2026-04-07 17:45:46.937815,185999,1017324307,1017326035,0.827648,-0.300608,-0.249856,-9.45,-3.325,-5.29375,-12.808001,-9.584001,13.480001,concentric,3,3.0,30370.0,392570.0,350297.0,403431.0,353250.0
2026-04-07 17:45:46.963961,186009,1017333312,1017334741,0.81984,-0.286944,-0.255712,-10.8675,-2.31,-5.55625,-13.648001,-9.624001,16.152,concentric,3,3.0,30255.0,391772.0,349741.0,403431.0,352612.0
2026-04-07 17:45:46.968478,186010,1017342288,1017343455,0.81984,-0.286944,-0.255712,-11.9525,-2.5375,-5.145,-13.648001,-9.624001,16.152,concentric,3,3.0,30255.0,391772.0,349741.0,403431.0,352612.0
2026-04-07 17:45:46.969808,186011,1017351301,1017352161,0.835456,-0.314272,-0.27328,-12.7575,-2.38875,-5.25,-13.808001,-10.792001,14.184001,concentric,3,3.0,30255.0,391772.0,349741.0,403431.0,352612.0
2026-04-07 17:45:46.971752,186012,1017365852,1017367067,0.835456,-0.314272,-0.27328,-12.7575,-1.295,-5.95,-13.808001,-10.792001,14.184001,concentric,3,3.0,30255.0,391772.0,349741.0,403431.0,352612.0
2026-04-07 17:45:46.975442,186013,1017374767,1017375845,0.812032,-0.30256,-0.286944,-9.765,0.07,-6.64125,-13.232,-9.656,14.376,concentric,3,3.0,30255.0,391772.0,349741.0,403431.0,352612.0
2026-04-07 17:45:46.980874,186014,1017383755,1017384576,0.812032,-0.30256,-0.286944,-7.58625,-0.56,-7.53375,-13.232,-9.656,14.376,concentric,3,3.0,30255.0,391772.0,349741.0,403431.0,352612.0
2026-04-07 17:45:47.017522,186015,1017398330,1017399488,0.794464,-0.294752,-0.269376,-6.4575,-0.735,-7.21875,-12.968,-9.832001,13.296001,concentric,3,3.0,30255.0,391772.0,349741.0,403431.0,352612.0
2026-04-07 17:45:47.021029,186016,1017407259,1017408177,0.794464,-0.304512,-0.277184,-6.51875,-1.015,-7.02625,-12.968,-9.832001,13.296001,concentric,3,3.0,30255.0,391772.0,349741.0,403431.0,352612.0
2026-04-07 17:45:47.022616,186017,1017416219,1017416887,0.813984,-0.304512,-0.277184,-7.77875,-0.77,-7.49,-12.944,-9.96,11.352,concentric,3,3.0,30255.0,391772.0,349741.0,403431.0,352612.0
2026-04-07 17:45:47.050107,186027,1017425612,1017427676,0.813984,-0.304512,-0.277184,-10.045,-0.2275,-8.1025,-12.944,-9.96,11.352,concentric,3,3.0,29987.0,389947.0,348342.0,403431.0,351172.0
2026-04-07 17:45:47.054283,186028,1017440341,1017442637,0.812032,-0.288896,-0.269376,-9.6075,0.51625,-8.417501,-13.536,-10.064,13.656001,concentric,3,3.0,29987.0,389947.0,348342.0,403431.0,351172.0
2026-04-07 17:45:47.056082,186029,1017449311,1017451364,0.802272,-0.316224,-0.296704,-7.86625,0.37625,-9.14375,-13.280001,-10.144,13.440001,concentric,3,3.0,29987.0,389947.0,348342.0,403431.0,351172.0
2026-04-07 17:45:47.057607,186030,1017458280,1017460118,0.802272,-0.316224,-0.296704,-7.88375,0.69125,-9.52,-13.280001,-10.144,13.440001,concentric,3,3.0,29987.0,389947.0,348342.0,403431.0,351172.0
2026-04-07 17:45:47.114545,186031,1017472782,1017475005,0.778848,-0.347456,-0.265472,-7.56,1.2075,-9.38,-12.736001,-10.216001,13.376,concentric,3,3.0,29987.0,389947.0,348342.0,403431.0,351172.0
2026-04-07 17:45:47.116064,186032,1017481727,1017483728,0.778848,-0.347456,-0.265472,-4.96125,2.1875,-8.505,-12.736001,-10.216001,13.376,concentric,3,3.0,29987.0,389947.0,348342.0,403431.0,351172.0
2026-04-07 17:45:47.117703,186033,1017490687,1017492457,0.786656,-0.372832,-0.269376,-0.28875,3.42125,-6.965,-14.032001,-10.896001,14.856001,concentric,3,3.0,29987.0,389947.0,348342.0,403431.0,351172.0
2026-04-07 17:45:47.121790,186034,1017505196,1017507362,0.786656,-0.372832,-0.269376,4.90875,4.85625,-4.75125,-14.032001,-10.896001,14.856001,concentric,3,3.0,29987.0,389947.0,348342.0,403431.0,351172.0
2026-04-07 17:45:47.123570,186035,1017514099,1017516041,0.788608,-0.335744,-0.324032,8.855001,6.20375,-2.9925,-14.080001,-9.896001,13.904,concentric,3,3.0,29987.0,389947.0,348342.0,403431.0,351172.0
2026-04-07 17:45:47.125219,186036,1017523060,1017524748,0.788608,-0.335744,-0.324032,11.34875,7.35,-2.7475,-14.080001,-9.896001,13.904,concentric,3,3.0,29987.0,389947.0,348342.0,403431.0,351172.0
2026-04-07 17:45:47.158081,186047,1017532185,1017533553,0.786656,-0.265472,-0.33184,12.1975,7.14,-3.6925,-13.416,-10.216001,13.240001,concentric,3,3.0,30621.0,395106.0,352721.0,403431.0,355633.0
2026-04-07 17:45:47.159852,186048,1017546805,1017548563,0.786656,-0.265472,-0.33184,10.22,5.80125,-5.17125,-13.416,-10.216001,13.240001,concentric,3,3.0,30621.0,395106.0,352721.0,403431.0,355633.0
2026-04-07 17:45:47.161460,186049,1017555745,1017557282,0.802272,-0.304512,-0.320128,7.245,5.04,-7.13125,-13.184001,-9.568001,13.176001,concentric,3,3.0,30621.0,395106.0,352721.0,403431.0,355633.0
2026-04-07 17:45:47.165450,186050,1017564693,1017565985,0.802272,-0.304512,-0.320128,6.95625,3.38625,-9.65125,-13.184001,-9.568001,13.176001,concentric,3,3.0,30621.0,395106.0,352721.0,403431.0,355633.0
2026-04-07 17:45:47.193990,186051,1017579309,1017580966,0.798368,-0.2928,-0.343552,9.47625,2.1525,-11.305,-13.480001,-9.528001,13.568001,concentric,3,3.0,30621.0,395106.0,352721.0,403431.0,355633.0
2026-04-07 17:45:47.198567,186052,1017588244,1017589675,0.81984,-0.288896,-0.329888,11.52375,1.2075,-13.055,-13.480001,-9.528001,11.928,concentric,3,3.0,30621.0,395106.0,352721.0,403431.0,355633.0
2026-04-07 17:45:47.200151,186053,1017597151,1017598340,0.81984,-0.288896,-0.329888,14.8925,1.505,-13.8425,-12.728001,-9.72,11.928,concentric,3,3.0,30621.0,395106.0,352721.0,403431.0,355633.0
2026-04-07 17:45:47.231187,186054,1017611681,1017613264,0.81984,-0.290848,-0.325984,15.04125,1.95125,-14.55125,-12.648001,-9.320001,11.656,concentric,3,3.0,30621.0,395106.0,352721.0,403431.0,355633.0
2026-04-07 17:45:47.233467,186055,1017620647,1017621988,0.81984,-0.290848,-0.325984,13.99125,2.30125,-16.16125,-12.648001,-9.320001,11.656,concentric,3,3.0,30621.0,395106.0,352721.0,403431.0,355633.0
2026-04-07 17:45:47.260833,186065,1017629828,1017631128,0.862784,-0.296704,-0.296704,15.9425,3.325,-16.45,-13.040001,-9.672001,13.224001,concentric,3,3.0,30934.0,397954.0,355265.0,403431.0,358024.0
2026-04-07 17:45:47.266843,186066,1017638808,1017639885,0.862784,-0.296704,-0.296704,16.135,4.55875,-14.175,-13.040001,-9.672001,13.224001,concentric,3,3.0,30934.0,397954.0,355265.0,403431.0,358024.0
2026-04-07 17:45:47.268551,186067,1017653421,1017654824,0.835456,-0.286944,-0.316224,15.295,5.215,-13.37875,-13.632001,-10.152,14.52,concentric,3,3.0,30934.0,397954.0,355265.0,403431.0,358024.0
2026-04-07 17:45:47.271010,186068,1017662403,1017663568,0.835456,-0.286944,-0.316224,16.21375,6.895,-12.9325,-13.632001,-10.152,14.52,concentric,3,3.0,30934.0,397954.0,355265.0,403431.0,358024.0
2026-04-07 17:45:47.273432,186069,1017671353,1017672287,0.870592,-0.306464,-0.308416,15.5575,7.9975,-13.32625,-13.928,-10.048,14.864,concentric,3,3.0,30934.0,397954.0,355265.0,403431.0,358024.0
2026-04-07 17:45:47.303815,186070,1017685848,1017687204,0.870592,-0.306464,-0.308416,15.085,8.8725,-12.74875,-13.928,-10.048,14.864,concentric,3,3.0,30934.0,397954.0,355265.0,403431.0,358024.0
2026-04-07 17:45:47.306257,186071,1017694854,1017695912,0.866688,-0.320128,-0.320128,13.265,9.8525,-11.9,-13.72,-9.968,13.224001,concentric,3,3.0,30934.0,397954.0,355265.0,403431.0,358024.0
2026-04-07 17:45:47.310908,186072,1017703770,1017704600,0.866688,-0.320128,-0.320128,13.30875,11.43625,-11.0075,-13.72,-9.968,13.224001,concentric,3,3.0,30934.0,397954.0,355265.0,403431.0,358024.0
2026-04-07 17:45:47.321743,186073,1017718259,1017719585,0.860832,-0.28304,-0.318176,13.18625,13.2475,-9.415,-13.752001,-9.464001,12.408001,concentric,3,3.0,30934.0,397954.0,355265.0,403431.0,358024.0
2026-04-07 17:45:47.326682,186074,1017727217,1017728273,0.860832,-0.28304,-0.318176,12.24125,14.49875,-8.4525,-13.752001,-9.464001,12.408001,concentric,3,3.0,30934.0,397954.0,355265.0,403431.0,358024.0
2026-04-07 17:45:47.350288,186084,1017736116,1017737099,0.860832,-0.281088,-0.300608,12.32,14.55125,-8.30375,-13.976001,-9.552,12.168,concentric,3,3.0,30726.0,396526.0,354167.0,403431.0,356739.0
2026-04-07 17:45:47.354144,186085,1017745022,1017745807,0.860832,-0.281088,-0.300608,11.795,14.30625,-7.67375,-13.976001,-9.552,12.168,concentric,3,3.0,30726.0,396526.0,354167.0,403431.0,356739.0
2026-04-07 17:45:47.357926,186086,1017759606,1017760689,0.880352,-0.281088,-0.31232,9.89625,14.4725,-7.46375,-13.384001,-8.784,12.392,concentric,3,3.0,30726.0,396526.0,354167.0,403431.0,356739.0
2026-04-07 17:45:47.413801,186087,1017768554,1017769402,0.880352,-0.281088,-0.308416,8.19,15.408751,-7.14,-13.384001,-8.784,12.392,concentric,3,3.0,30726.0,396526.0,354167.0,403431.0,356739.0
2026-04-07 17:45:47.418121,186088,1017777435,1017778088,0.874496,-0.275232,-0.308416,5.45125,15.408751,-7.58625,-13.592001,-8.976001,13.072001,concentric,3,3.0,30726.0,396526.0,354167.0,403431.0,356739.0
2026-04-07 17:45:47.421263,186089,1017792262,1017792995,0.880352,-0.275232,-0.2928,2.65125,15.627501,-8.4875,-13.824,-9.52,12.64,concentric,3,3.0,30726.0,396526.0,354167.0,403431.0,356739.0
2026-04-07 17:45:47.426842,186090,1017801651,1017803751,0.880352,-0.275232,-0.2928,1.67125,16.02125,-8.6275,-13.824,-9.52,12.64,concentric,3,3.0,30726.0,396526.0,354167.0,403431.0,356739.0
2026-04-07 17:45:47.429792,186091,1017810592,1017812465,0.894016,-0.308416,-0.279136,0.0175,16.58125,-8.2075,-14.328001,-9.176001,13.376,concentric,3,3.0,30726.0,396526.0,354167.0,403431.0,356739.0
2026-04-07 17:45:47.463682,186092,1017819510,1017821150,0.894016,-0.308416,-0.279136,-0.9275,16.73875,-7.34125,-14.328001,-9.176001,13.376,concentric,3,3.0,30726.0,396526.0,354167.0,403431.0,356739.0
2026-04-07 17:45:47.493128,186103,1017834212,1017836373,0.882304,-0.284992,-0.304512,-1.46125,16.5725,-5.6175,-14.464001,-9.752001,14.456,concentric,3,3.0,30377.0,393856.0,351952.0,403431.0,354477.0
2026-04-07 17:45:47.494730,186104,1017843130,1017845125,0.882304,-0.284992,-0.304512,-0.74375,16.77375,-5.7225,-14.464001,-9.752001,14.456,concentric,3,3.0,30377.0,393856.0,351952.0,403431.0,354477.0
2026-04-07 17:45:47.496312,186105,1017852066,1017853826,0.892064,-0.271328,-0.2928,-0.4725,16.10875,-5.285,-13.984,-9.312,13.144001,concentric,3,3.0,30377.0,393856.0,351952.0,403431.0,354477.0
2026-04-07 17:45:47.500557,186106,1017866539,1017868716,0.892064,-0.271328,-0.2928,-0.6125,15.96,-4.305,-13.984,-9.312,13.144001,concentric,3,3.0,30377.0,393856.0,351952.0,403431.0,354477.0
2026-04-07 17:45:47.502295,186107,1017875607,1017877421,0.90768,-0.286944,-0.298656,-1.07625,15.505,-5.43375,-14.576001,-9.424001,12.968,concentric,3,3.0,30377.0,393856.0,351952.0,403431.0,354477.0
2026-04-07 17:45:47.503955,186108,1017884533,1017886160,0.90768,-0.286944,-0.298656,-0.9275,14.79625,-5.005,-14.576001,-9.424001,12.968,concentric,3,3.0,30377.0,393856.0,351952.0,403431.0,354477.0
2026-04-07 17:45:47.508076,186109,1017899011,1017901132,0.895968,-0.294752,-0.286944,-0.60375,13.79,-3.85875,-14.280001,-9.648001,13.648001,concentric,3,3.0,30377.0,393856.0,351952.0,403431.0,354477.0
2026-04-07 17:45:47.509653,186110,1017907941,1017909905,0.895968,-0.294752,-0.286944,-0.09625,12.136251,-3.01,-14.280001,-9.648001,13.648001,concentric,3,3.0,30377.0,393856.0,351952.0,403431.0,354477.0
2026-04-07 17:45:47.534863,186111,1017916925,1017918687,0.899872,-0.294752,-0.265472,0.21,10.6225,-2.49375,-14.096001,-9.512,12.744,concentric,3,3.0,30377.0,393856.0,351952.0,403431.0,354477.0
