pc_time,serial_num,sensor_ts,host_ts,ax,ay,az,gx,gy,gz,mx,my,mz,phase,rpe,weight_kg,ppg_a,ppg_b,ppg_c,ppg_d,ppg_e
2026-04-07 17:45:54.924779,187491,1025270540,1025272239,0.976,-0.3416,-0.177632,7.6825,0.74375,-5.01375,-16.320002,-9.664001,15.080001,eccentric,3,3.0,30045.0,390766.0,349200.0,403431.0,351898.0
2026-04-07 17:45:54.927183,187492,1025279908,1025280997,0.976,-0.3416,-0.177632,9.12625,0.09625,-2.975,-16.320002,-9.664001,15.080001,eccentric,3,3.0,30045.0,390766.0,349200.0,403431.0,351898.0
2026-04-07 17:45:54.928769,187493,1025288908,1025289723,0.950624,-0.35136,-0.152256,8.77625,-0.35875,-2.84375,-16.568,-9.832001,16.352001,eccentric,3,3.0,30045.0,390766.0,349200.0,403431.0,351898.0
2026-04-07 17:45:54.933071,187494,1025303405,1025304604,0.940864,-0.343552,-0.163968,8.47,-1.085,-1.60125,-16.232,-9.152,15.056001,eccentric,3,3.0,30045.0,390766.0,349200.0,403431.0,351898.0
2026-04-07 17:45:54.934782,187495,1025312309,1025313292,0.940864,-0.343552,-0.163968,8.05875,-1.855,0.21875,-16.232,-9.152,15.056001,eccentric,3,3.0,30045.0,390766.0,349200.0,403431.0,351898.0
2026-04-07 17:45:54.937269,187496,1025321269,1025322016,0.940864,-0.33184,-0.163968,7.84875,-2.345,1.155,-16.232,-9.152,13.008,eccentric,3,3.0,30045.0,390766.0,349200.0,403431.0,351898.0
2026-04-07 17:45:54.938793,187497,1025330683,1025332822,0.938912,-0.33184,-0.163968,8.88125,-2.68625,2.0825,-15.704,-9.272,12.648001,eccentric,3,3.0,30045.0,390766.0,349200.0,403431.0,351898.0
2026-04-07 17:45:54.944198,187498,1025345224,1025345672,0.931104,-0.300608,-0.1464,7.55125,-3.75375,1.77625,-16.0,-9.288,15.480001,eccentric,3,3.0,30045.0,390766.0,349200.0,403431.0,351898.0
2026-04-07 17:45:54.972699,187499,1025354569,1025356400,0.931104,-0.300608,-0.1464,8.085,-4.03375,2.1875,-16.0,-9.288,15.480001,eccentric,3,3.0,30045.0,390766.0,349200.0,403431.0,351898.0
2026-04-07 17:45:54.977396,187500,1025363571,1025365101,0.915488,-0.310368,-0.154208,6.405,-5.27625,1.68875,-14.800001,-9.160001,15.440001,eccentric,3,3.0,30045.0,390766.0,349200.0,403431.0,351898.0
2026-04-07 17:45:55.003044,187510,1025378231,1025380277,0.915488,-0.310368,-0.154208,3.84125,-7.2625,2.47625,-14.800001,-9.160001,15.440001,eccentric,3,3.0,30471.0,393774.0,351660.0,403431.0,354458.0
2026-04-07 17:45:55.004803,187511,1025387242,1025388990,0.919392,-0.327936,-0.111264,1.47,-8.1725,3.57,-15.032001,-9.384001,15.032001,eccentric,3,3.0,30471.0,393774.0,351660.0,403431.0,354458.0
2026-04-07 17:45:55.006276,187512,1025396289,1025397772,0.919392,-0.327936,-0.111264,1.2775,-9.40625,3.91125,-15.032001,-9.384001,15.032001,eccentric,3,3.0,30471.0,393774.0,351660.0,403431.0,354458.0
2026-04-07 17:45:55.009694,187513,1025405283,1025406510,0.911584,-0.355264,-0.144448,2.86125,-10.045,5.425,-15.320001,-8.704,14.952001,eccentric,3,3.0,30471.0,393774.0,351660.0,403431.0,354458.0
2026-04-07 17:45:55.039865,187514,1025419761,1025421459,0.911584,-0.355264,-0.144448,3.89375,-10.78875,5.425,-15.320001,-8.704,14.952001,eccentric,3,3.0,30471.0,393774.0,351660.0,403431.0,354458.0
2026-04-07 17:45:55.042229,187515,1025428754,1025430184,0.909632,-0.349408,-0.128832,6.62375,-10.89375,5.39875,-14.528001,-9.272,14.6,eccentric,3,3.0,30471.0,393774.0,351660.0,403431.0,354458.0
2026-04-07 17:45:55.046759,187516,1025437734,1025438882,0.909632,-0.349408,-0.128832,9.292501,-9.73875,6.92125,-14.528001,-9.272,14.6,eccentric,3,3.0,30471.0,393774.0,351660.0,403431.0,354458.0
2026-04-07 17:45:55.053303,187517,1025452272,1025453862,0.884256,-0.314272,-0.134688,9.9225,-9.28375,8.085,-15.192,-8.84,14.480001,eccentric,3,3.0,30471.0,393774.0,351660.0,403431.0,354458.0
2026-04-07 17:45:55.081514,187518,1025461220,1025462635,0.884256,-0.314272,-0.134688,9.12625,-8.04125,7.875,-15.192,-8.84,14.480001,eccentric,3,3.0,30471.0,393774.0,351660.0,403431.0,354458.0
2026-04-07 17:45:55.086064,187519,1025470168,1025471337,0.886208,-0.345504,-0.119072,6.44,-7.315,8.35625,-14.736001,-8.496,14.288001,eccentric,3,3.0,30471.0,393774.0,351660.0,403431.0,354458.0
2026-04-07 17:45:55.145815,187529,1025484744,1025486281,0.85888,-0.36112,-0.113216,5.78375,-6.99125,9.87875,-14.424001,-8.272,14.448001,eccentric,3,3.0,30488.0,394181.0,352018.0,403431.0,354693.0
2026-04-07 17:45:55.147302,187530,1025493716,1025495024,0.85888,-0.36112,-0.113216,5.48625,-6.09875,10.2375,-14.424001,-8.272,14.448001,eccentric,3,3.0,30488.0,394181.0,352018.0,403431.0,354693.0
2026-04-07 17:45:55.148813,187531,1025502782,1025503715,0.85888,-0.325984,-0.128832,6.65,-4.94375,10.78,-14.592001,-8.400001,17.104,eccentric,3,3.0,30488.0,394181.0,352018.0,403431.0,354693.0
2026-04-07 17:45:55.153047,187532,1025511753,1025512445,0.85888,-0.325984,-0.128832,6.16875,-3.80625,11.27875,-14.592001,-8.400001,17.104,eccentric,3,3.0,30488.0,394181.0,352018.0,403431.0,354693.0
2026-04-07 17:45:55.157229,187533,1025526622,1025527389,0.847168,-0.324032,-0.152256,4.80375,-2.42375,11.34,-13.768001,-8.448,14.568001,eccentric,3,3.0,30488.0,394181.0,352018.0,403431.0,354693.0
2026-04-07 17:45:55.158740,187534,1025536112,1025538155,0.847168,-0.324032,-0.152256,3.26375,-1.72375,11.45375,-13.768001,-8.448,14.568001,eccentric,3,3.0,30488.0,394181.0,352018.0,403431.0,354693.0
2026-04-07 17:45:55.163055,187535,1025545022,1025546834,0.825696,-0.327936,-0.1464,0.455,-1.12,11.06,-13.792001,-7.936,14.216001,eccentric,3,3.0,30488.0,394181.0,352018.0,403431.0,354693.0
2026-04-07 17:45:55.164749,187536,1025553985,1025555581,0.825696,-0.327936,-0.1464,-0.2975,-0.5425,11.5325,-13.792001,-7.936,14.216001,eccentric,3,3.0,30488.0,394181.0,352018.0,403431.0,354693.0
2026-04-07 17:45:55.166325,187537,1025568552,1025570541,0.815936,-0.343552,-0.128832,-0.07875,-0.35,11.19125,-13.888001,-7.544,14.68,eccentric,3,3.0,30488.0,394181.0,352018.0,403431.0,354693.0
2026-04-07 17:45:55.236822,187548,1025577629,1025579356,0.815936,-0.343552,-0.128832,0.1225,-0.2975,11.20875,-13.888001,-7.544,14.68,eccentric,3,3.0,29981.0,390363.0,348947.0,403431.0,351732.0
2026-04-07 17:45:55.238477,187549,1025586625,1025588114,0.81984,-0.335744,-0.150304,0.28,-0.2625,12.355001,-13.744,-7.648,14.360001,eccentric,3,3.0,29981.0,390363.0,348947.0,403431.0,351732.0
2026-04-07 17:45:55.240183,187550,1025601164,1025603015,0.81984,-0.335744,-0.150304,-1.8025,0.14,11.41,-13.744,-7.648,14.360001,eccentric,3,3.0,29981.0,390363.0,348947.0,403431.0,351732.0
2026-04-07 17:45:55.249333,187551,1025610064,1025611707,0.821792,-0.35136,-0.173728,-2.30125,1.05,11.445,-13.336,-7.76,14.688001,eccentric,3,3.0,29981.0,390363.0,348947.0,403431.0,351732.0
2026-04-07 17:45:55.251030,187552,1025618980,1025620400,0.821792,-0.35136,-0.173728,-3.29,1.155,10.43875,-13.336,-7.76,14.688001,eccentric,3,3.0,29981.0,390363.0,348947.0,403431.0,351732.0
2026-04-07 17:45:55.252691,187553,1025633493,1025635324,0.827648,-0.343552,-0.150304,-3.7275,1.84625,9.17,-12.880001,-7.76,14.448001,eccentric,3,3.0,29981.0,390363.0,348947.0,403431.0,351732.0
2026-04-07 17:45:55.256793,187554,1025642472,1025644060,0.827648,-0.3904,-0.167872,-1.58375,3.17625,8.95125,-12.880001,-7.76,14.448001,eccentric,3,3.0,29981.0,390363.0,348947.0,403431.0,351732.0
2026-04-07 17:45:55.258829,187555,1025651411,1025652751,0.8296,-0.388448,-0.167872,-1.95125,3.57,8.6625,-13.112,-7.592001,16.312,eccentric,3,3.0,29981.0,390363.0,348947.0,403431.0,351732.0
2026-04-07 17:45:55.261194,187556,1025660379,1025661467,0.8296,-0.388448,-0.167872,-4.2175,3.94625,8.575,-13.112,-7.592001,16.312,eccentric,3,3.0,29981.0,390363.0,348947.0,403431.0,351732.0
2026-04-07 17:45:55.317291,187566,1025675327,1025676474,0.856928,-0.386496,-0.179584,-5.18875,5.04875,8.79375,-13.272,-7.408001,14.296001,eccentric,3,3.0,29805.0,389182.0,348048.0,403431.0,350908.0
2026-04-07 17:45:55.318791,187567,1025684307,1025685206,0.833504,-0.376736,-0.191296,-4.935,6.4575,7.8925,-12.528001,-7.688,14.544001,eccentric,3,3.0,29805.0,389182.0,348048.0,403431.0,350908.0
2026-04-07 17:45:55.322290,187568,1025693211,1025693924,0.833504,-0.376736,-0.191296,-3.885,7.41125,6.3525,-12.528001,-7.688,14.544001,eccentric,3,3.0,29805.0,389182.0,348048.0,403431.0,350908.0
2026-04-07 17:45:55.323766,187569,1025708137,1025708875,0.841312,-0.40016,-0.173728,-3.87625,7.7875,4.515,-13.048,-7.752,15.448001,eccentric,3,3.0,29805.0,389182.0,348048.0,403431.0,350908.0
2026-04-07 17:45:55.328067,187570,1025717491,1025719658,0.841312,-0.40016,-0.173728,-4.935,8.28625,3.15875,-13.048,-7.752,15.448001,eccentric,3,3.0,29805.0,389182.0,348048.0,403431.0,350908.0
2026-04-07 17:45:55.329615,187571,1025726400,1025728345,0.853024,-0.398208,-0.189344,-4.68125,9.66875,2.91375,-12.872001,-7.544,15.984001,eccentric,3,3.0,29805.0,389182.0,348048.0,403431.0,350908.0
2026-04-07 17:45:55.335441,187572,1025735373,1025737038,0.853024,-0.398208,-0.189344,-5.45125,10.2375,2.68625,-12.872001,-7.544,15.984001,eccentric,3,3.0,29805.0,389182.0,348048.0,403431.0,350908.0
2026-04-07 17:45:55.364042,187573,1025749828,1025751954,0.817888,-0.388448,-0.1952,-6.615,11.57625,1.35625,-13.224001,-7.864,17.848001,eccentric,3,3.0,29805.0,389182.0,348048.0,403431.0,350908.0
2026-04-07 17:45:55.368459,187574,1025758729,1025760650,0.817888,-0.388448,-0.1952,-6.37875,11.917501,0.46375,-13.224001,-7.864,17.848001,eccentric,3,3.0,29805.0,389182.0,348048.0,403431.0,350908.0
2026-04-07 17:45:55.371132,187575,1025767657,1025769334,0.812032,-0.388448,-0.171776,-6.2475,13.0725,-0.3325,-12.72,-7.256001,14.976001,eccentric,3,3.0,29805.0,389182.0,348048.0,403431.0,350908.0
2026-04-07 17:45:55.400547,187585,1025782597,1025784611,0.812032,-0.388448,-0.171776,-7.09625,14.21,-1.23375,-12.72,-7.256001,14.976001,eccentric,3,3.0,29689.0,388120.0,347059.0,403431.0,349984.0
2026-04-07 17:45:55.402263,187586,1025791642,1025793347,0.794464,-0.386496,-0.144448,-7.42,15.198751,-1.0675,-12.016001,-7.416,15.128,eccentric,3,3.0,29689.0,388120.0,347059.0,403431.0,349984.0
2026-04-07 17:45:55.403829,187587,1025800557,1025802039,0.794464,-0.386496,-0.144448,-8.4,15.8025,-1.44375,-12.016001,-7.416,15.128,eccentric,3,3.0,29689.0,388120.0,347059.0,403431.0,349984.0
2026-04-07 17:45:55.411905,187588,1025809555,1025810747,0.786656,-0.378688,-0.197152,-7.6125,16.345,-2.3625,-13.112,-7.752,16.880001,eccentric,3,3.0,29689.0,388120.0,347059.0,403431.0,349984.0
2026-04-07 17:45:55.440168,187589,1025824144,1025825619,0.778848,-0.35136,-0.220576,-6.1075,16.07375,-3.745,-12.304001,-7.688,15.52,eccentric,3,3.0,29689.0,388120.0,347059.0,403431.0,349984.0
2026-04-07 17:45:55.444681,187590,1025833061,1025834312,0.778848,-0.35136,-0.220576,-5.005,15.46125,-5.2325,-12.304001,-7.688,15.52,eccentric,3,3.0,29689.0,388120.0,347059.0,403431.0,349984.0
2026-04-07 17:45:55.446292,187591,1025841955,1025843027,0.778848,-0.35136,-0.220576,-4.5325,14.93625,-7.07875,-12.304001,-7.688,15.52,eccentric,3,3.0,29689.0,388120.0,347059.0,403431.0,349984.0
2026-04-07 17:45:55.477409,187592,1025856494,1025857928,0.76128,-0.374784,-0.187392,-6.8425,15.4875,-8.925,-11.728001,-7.776001,15.536001,eccentric,3,3.0,29689.0,388120.0,347059.0,403431.0,349984.0
2026-04-07 17:45:55.481940,187593,1025865410,1025866625,0.759328,-0.357216,-0.138592,-6.25625,15.9775,-8.77625,-12.280001,-7.752,16.064001,eccentric,3,3.0,29689.0,388120.0,347059.0,403431.0,349984.0
2026-04-07 17:45:55.543468,187604,1025874458,1025875328,0.759328,-0.357216,-0.138592,-8.636251,17.045,-9.415,-12.280001,-7.752,16.064001,eccentric,3,3.0,29262.0,384727.0,344313.0,402627.0,347264.0
2026-04-07 17:45:55.545169,187605,1025888964,1025890271,0.732,-0.36112,-0.189344,-7.4375,18.08625,-9.205,-11.448001,-7.528,15.568001,eccentric,3,3.0,29262.0,384727.0,344313.0,402627.0,347264.0
2026-04-07 17:45:55.549341,187606,1025897888,1025898980,0.732,-0.36112,-0.189344,-5.915,18.40125,-9.26625,-11.448001,-7.528,15.568001,eccentric,3,3.0,29262.0,384727.0,344313.0,402627.0,347264.0
2026-04-07 17:45:55.551051,187607,1025906825,1025907664,0.720288,-0.347456,-0.187392,-7.53375,18.99625,-10.89375,-12.088,-8.04,16.016,eccentric,3,3.0,29262.0,384727.0,344313.0,402627.0,347264.0
2026-04-07 17:45:55.552543,187608,1025921299,1025922553,0.720288,-0.347456,-0.187392,-5.6525,19.43375,-11.66375,-12.088,-8.04,16.016,eccentric,3,3.0,29262.0,384727.0,344313.0,402627.0,347264.0
2026-04-07 17:45:55.556810,187609,1025930222,1025931342,0.730048,-0.345504,-0.1464,-5.8975,19.81,-12.97625,-11.408001,-8.56,15.752001,eccentric,3,3.0,29262.0,384727.0,344313.0,402627.0,347264.0
2026-04-07 17:45:55.558545,187610,1025939208,1025940112,0.730048,-0.345504,-0.1464,-6.02875,21.56875,-14.30625,-11.408001,-8.56,15.752001,eccentric,3,3.0,29262.0,384727.0,344313.0,402627.0,347264.0
2026-04-07 17:45:55.561061,187611,1025948243,1025948861,0.706624,-0.33184,-0.113216,-5.41625,23.58125,-14.542501,-12.024,-8.432,17.192001,eccentric,3,3.0,29262.0,384727.0,344313.0,402627.0,347264.0
2026-04-07 17:45:55.562521,187612,1025963164,1025963834,0.706624,-0.33184,-0.113216,-6.15125,24.8325,-14.9975,-12.024,-8.432,17.192001,eccentric,3,3.0,29262.0,384727.0,344313.0,402627.0,347264.0
2026-04-07 17:45:55.593733,187613,1025972554,1025974646,0.696864,-0.339648,-0.173728,-6.34375,24.9025,-14.91,-12.552001,-9.312,16.272001,eccentric,3,3.0,29262.0,384727.0,344313.0,402627.0,347264.0
2026-04-07 17:45:55.622243,187623,1025981600,1025983410,0.696864,-0.339648,-0.173728,-8.2775,24.50875,-15.77625,-12.552001,-9.312,16.272001,eccentric,3,3.0,28458.0,378504.0,339284.0,397711.0,342419.0
2026-04-07 17:45:55.623983,187624,1025996077,1025998362,0.710528,-0.376736,-0.171776,-7.07,24.0275,-16.66,-12.280001,-9.152,16.888,eccentric,3,3.0,28458.0,378504.0,339284.0,397711.0,342419.0
2026-04-07 17:45:55.626453,187625,1026004977,1026007104,0.730048,-0.378688,-0.148352,-6.72,23.82625,-17.52625,-12.184001,-9.624001,16.128,eccentric,3,3.0,28458.0,378504.0,339284.0,397711.0,342419.0
2026-04-07 17:45:55.630576,187626,1026014013,1026015868,0.730048,-0.378688,-0.148352,-4.82125,25.0425,-18.66375,-12.184001,-9.624001,16.128,eccentric,3,3.0,28458.0,378504.0,339284.0,397711.0,342419.0
2026-04-07 17:45:55.632961,187627,1026023004,1026024587,0.730048,-0.378688,-0.148352,-5.85375,27.02875,-20.3,-12.184001,-9.624001,16.128,eccentric,3,3.0,28458.0,378504.0,339284.0,397711.0,342419.0
2026-04-07 17:45:55.637031,187628,1026037611,1026039494,0.737856,-0.33184,-0.124928,-6.01125,29.47875,-20.8425,-11.976001,-9.160001,16.592001,eccentric,3,3.0,28458.0,378504.0,339284.0,397711.0,342419.0
2026-04-07 17:45:55.667412,187629,1026046552,1026048304,0.689056,-0.349408,-0.140544,-9.45,30.598751,-22.56625,-11.872001,-9.888001,18.728,eccentric,3,3.0,28458.0,378504.0,339284.0,397711.0,342419.0
2026-04-07 17:45:55.669630,187630,1026055589,1026057000,0.689056,-0.349408,-0.140544,-9.61625,29.91625,-23.2225,-11.872001,-9.888001,18.728,eccentric,3,3.0,28458.0,378504.0,339284.0,397711.0,342419.0
2026-04-07 17:45:55.674360,187631,1026070176,1026071884,0.708576,-0.413824,-0.142496,-9.1175,27.58875,-22.91625,-11.312,-9.248,17.448,eccentric,3,3.0,28458.0,378504.0,339284.0,397711.0,342419.0
2026-04-07 17:45:55.702244,187641,1026079287,1026080650,0.708576,-0.413824,-0.142496,-10.70125,25.89125,-22.35625,-11.312,-9.248,17.448,eccentric,3,3.0,27940.0,374318.0,335925.0,394265.0,339483.0
2026-04-07 17:45:55.704994,187642,1026088343,1026089385,0.716384,-0.353312,-0.1464,-10.57,25.05125,-21.9275,-11.448001,-10.312,19.552,eccentric,3,3.0,27940.0,374318.0,335925.0,394265.0,339483.0
2026-04-07 17:45:55.708269,187643,1026097323,1026098100,0.716384,-0.353312,-0.1464,-7.245,24.43875,-22.925,-11.448001,-10.312,19.552,eccentric,3,3.0,27940.0,374318.0,335925.0,394265.0,339483.0
2026-04-07 17:45:55.710498,187644,1026111907,1026113024,0.732,-0.308416,-0.1464,-5.39875,24.29,-25.9,-11.360001,-9.84,17.728,eccentric,3,3.0,27940.0,374318.0,335925.0,394265.0,339483.0
2026-04-07 17:45:55.738903,187645,1026120840,1026121747,0.732,-0.308416,-0.1464,-4.235,23.73875,-27.95625,-11.360001,-9.84,17.728,eccentric,3,3.0,27940.0,374318.0,335925.0,394265.0,339483.0
2026-04-07 17:45:55.743472,187646,1026129791,1026130446,0.714432,-0.357216,-0.124928,-3.535,22.741251,-29.35625,-11.768001,-10.608001,17.968,eccentric,3,3.0,27940.0,374318.0,335925.0,394265.0,339483.0
2026-04-07 17:45:55.744998,187647,1026144613,1026145370,0.714432,-0.388448,-0.142496,-3.98125,20.23875,-29.225,-11.768001,-10.608001,17.968,eccentric,3,3.0,27940.0,374318.0,335925.0,394265.0,339483.0
2026-04-07 17:45:55.776099,187648,1026154010,1026156171,0.774944,-0.384544,-0.142496,-5.425,17.31625,-28.30625,-11.048,-11.016001,14.544001,eccentric,3,3.0,27940.0,374318.0,335925.0,394265.0,339483.0
2026-04-07 17:45:55.780570,187649,1026162968,1026164871,0.774944,-0.384544,-0.142496,-6.2475,15.61875,-29.33,-11.048,-11.016001,14.544001,eccentric,3,3.0,27940.0,374318.0,335925.0,394265.0,339483.0
2026-04-07 17:45:55.783491,187650,1026171896,1026173552,0.79056,-0.306464,-0.130784,-1.89,14.83125,-30.3625,-11.696,-11.152,18.608002,eccentric,3,3.0,27940.0,374318.0,335925.0,394265.0,339483.0
2026-04-07 17:45:55.847370,187661,1026186413,1026188505,0.81984,-0.296704,-0.0976,0.1925,14.8225,-32.29625,-11.56,-11.496,19.400002,eccentric,3,3.0,27498.0,370333.0,332556.0,390594.0,336474.0
2026-04-07 17:45:55.848849,187662,1026195472,1026197252,0.81984,-0.296704,-0.0976,-0.7875,15.0675,-34.2125,-11.56,-11.496,19.400002,eccentric,3,3.0,27498.0,370333.0,332556.0,390594.0,336474.0
2026-04-07 17:45:55.853104,187663,1026204467,1026205981,0.81984,-0.296704,-0.0976,-1.30375,14.91875,-34.90375,-11.56,-11.496,19.400002,eccentric,3,3.0,27498.0,370333.0,332556.0,390594.0,336474.0
2026-04-07 17:45:55.854736,187664,1026218987,1026220903,0.833504,-0.339648,-0.080032,-4.1125,14.23625,-36.1725,-11.344001,-11.896001,17.896,eccentric,3,3.0,27498.0,370333.0,332556.0,390594.0,336474.0
2026-04-07 17:45:55.856272,187665,1026227911,1026229600,0.843264,-0.347456,-0.115168,-3.24625,13.965,-36.1375,-10.984,-11.816001,18.136002,eccentric,3,3.0,27498.0,370333.0,332556.0,390594.0,336474.0
2026-04-07 17:45:55.860543,187666,1026236950,1026238291,0.843264,-0.347456,-0.115168,-0.14,12.705,-35.945,-10.984,-11.816001,18.136002,eccentric,3,3.0,27498.0,370333.0,332556.0,390594.0,336474.0
2026-04-07 17:45:55.862255,187667,1026251494,1026253273,0.821792,-0.290848,-0.074176,1.53125,13.36125,-36.785,-11.696,-12.472,19.552,eccentric,3,3.0,27498.0,370333.0,332556.0,390594.0,336474.0
2026-04-07 17:45:55.864015,187668,1026260476,1026262004,0.821792,-0.290848,-0.074176,4.9175,14.752501,-36.12,-11.696,-12.472,19.552,eccentric,3,3.0,27498.0,370333.0,332556.0,390594.0,336474.0
2026-04-07 17:45:55.869285,187669,1026269457,1026270732,0.84912,-0.27328,-0.023424,4.08625,16.7125,-36.16375,-11.6,-12.68,19.320002,eccentric,3,3.0,27498.0,370333.0,332556.0,390594.0,336474.0
2026-04-07 17:45:55.895060,187679,1026278898,1026279593,0.84912,-0.27328,-0.023424,2.10875,18.8125,-37.68625,-11.6,-12.68,19.320002,eccentric,3,3.0,27571.0,370404.0,332528.0,390349.0,336402.0
2026-04-07 17:45:55.899149,187680,1026293779,1026294545,0.77104,-0.269376,-0.037088,2.94875,20.8075,-39.24375,-11.184001,-13.256001,18.464,eccentric,3,3.0,27571.0,370404.0,332528.0,390349.0,336402.0
2026-04-07 17:45:55.904099,187681,1026303186,1026305303,0.77104,-0.269376,-0.037088,4.03375,20.825,-38.89375,-11.184001,-13.256001,18.464,eccentric,3,3.0,27571.0,370404.0,332528.0,390349.0,336402.0
2026-04-07 17:45:55.932799,187682,1026312138,1026313995,0.815936,-0.28304,-0.035136,2.625,20.0725,-37.70375,-11.312,-13.160001,18.384,eccentric,3,3.0,27571.0,370404.0,332528.0,390349.0,336402.0
2026-04-07 17:45:55.937236,187683,1026321065,1026322744,0.815936,-0.28304,-0.035136,3.14125,20.27375,-36.3125,-11.312,-13.160001,18.384,eccentric,3,3.0,27571.0,370404.0,332528.0,390349.0,336402.0
2026-04-07 17:45:55.938790,187684,1026335530,1026337623,0.817888,-0.240096,-0.03904,4.26125,21.5425,-36.015,-11.264001,-13.544001,18.496,eccentric,3,3.0,27571.0,370404.0,332528.0,390349.0,336402.0
2026-04-07 17:45:55.944294,187685,1026344460,1026346312,0.817888,-0.240096,-0.03904,2.98375,22.4525,-37.05625,-11.264001,-13.544001,18.496,eccentric,3,3.0,27571.0,370404.0,332528.0,390349.0,336402.0
2026-04-07 17:45:55.972749,187686,1026353391,1026355032,0.845216,-0.230336,0.0,3.24625,23.94,-38.3775,-12.160001,-14.088,20.792002,eccentric,3,3.0,27571.0,370404.0,332528.0,390349.0,336402.0
2026-04-07 17:45:55.977203,187687,1026367881,1026369961,0.7808,-0.26352,-0.052704,4.48,26.1275,-39.52375,-11.368001,-13.632001,18.832,eccentric,3,3.0,27571.0,370404.0,332528.0,390349.0,336402.0
2026-04-07 17:45:56.005552,187697,1026376786,1026378727,0.7808,-0.26352,-0.052704,5.425,26.32875,-38.61375,-11.368001,-13.632001,18.832,eccentric,3,3.0,27244.0,367671.0,330339.0,388062.0,334375.0
2026-04-07 17:45:56.007227,187698,1026386218,1026387509,0.860832,-0.228384,-0.033184,2.89625,25.935,-38.63125,-11.368001,-14.144001,19.808,eccentric,3,3.0,27244.0,367671.0,330339.0,388062.0,334375.0
2026-04-07 17:45:56.008838,187699,1026401214,1026402801,0.860832,-0.228384,-0.033184,2.7125,26.880001,-38.6575,-11.384001,-14.144001,19.808,eccentric,3,3.0,27244.0,367671.0,330339.0,388062.0,334375.0
2026-04-07 17:45:56.013155,187700,1026410201,1026411530,0.866688,-0.167872,0.023424,3.71,28.23625,-40.06625,-12.080001,-15.288001,20.672,eccentric,3,3.0,27244.0,367671.0,330339.0,388062.0,334375.0
2026-04-07 17:45:56.019212,187701,1026419140,1026420286,0.866688,-0.167872,0.023424,-1.155,29.5925,-46.43625,-12.080001,-15.288001,20.672,eccentric,3,3.0,27244.0,367671.0,330339.0,388062.0,334375.0
2026-04-07 17:45:56.047777,187702,1026428075,1026428993,0.821792,-0.230336,-0.042944,-0.5775,30.8525,-48.79,-11.344001,-15.648001,18.608002,eccentric,3,3.0,27244.0,367671.0,330339.0,388062.0,334375.0
2026-04-07 17:45:56.052216,187703,1026442568,1026443897,0.821792,-0.230336,-0.042944,2.63375,29.56625,-50.32125,-11.344001,-15.648001,18.608002,eccentric,3,3.0,27244.0,367671.0,330339.0,388062.0,334375.0
2026-04-07 17:45:56.053755,187704,1026451468,1026452587,0.851072,-0.25376,-0.050752,2.7125,26.897501,-50.995,-10.6,-15.272,19.752,eccentric,3,3.0,27244.0,367671.0,330339.0,388062.0,334375.0
2026-04-07 17:45:56.060819,187705,1026460423,1026461280,0.851072,-0.25376,-0.050752,5.24125,24.57875,-50.5925,-10.6,-15.272,19.752,eccentric,3,3.0,27244.0,367671.0,330339.0,388062.0,334375.0
2026-04-07 17:45:56.113720,187706,1026474916,1026476288,0.85888,-0.1952,-0.025376,7.9625,22.75875,-49.98,-11.264001,-15.648001,21.432001,eccentric,3,3.0,27244.0,367671.0,330339.0,388062.0,334375.0
2026-04-07 17:45:56.145040,187717,1026483963,1026485049,0.85888,-0.1952,-0.025376,10.815,22.4,-49.02625,-11.264001,-15.648001,21.432001,eccentric,3,3.0,27143.0,366465.0,329172.0,386501.0,332861.0
2026-04-07 17:45:56.149299,187718,1026492881,1026493956,0.831552,-0.066368,0.033184,13.60625,25.33125,-50.2075,-10.856001,-16.288,20.416,eccentric,3,3.0,27143.0,366465.0,329172.0,386501.0,332861.0
2026-04-07 17:45:56.151020,187719,1026507395,1026508871,0.784704,-0.122976,-0.011712,14.35,29.4525,-52.29875,-10.728001,-15.968,20.152,eccentric,3,3.0,27143.0,366465.0,329172.0,386501.0,332861.0
2026-04-07 17:45:56.152630,187720,1026516304,1026517539,0.784704,-0.122976,-0.011712,11.94375,31.6225,-52.85875,-10.728001,-15.968,20.152,eccentric,3,3.0,27143.0,366465.0,329172.0,386501.0,332861.0
2026-04-07 17:45:56.156773,187721,1026525313,1026526260,0.784704,-0.122976,-0.011712,8.65375,31.92,-52.07125,-10.728001,-15.968,20.152,eccentric,3,3.0,27143.0,366465.0,329172.0,386501.0,332861.0
2026-04-07 17:45:56.158529,187722,1026534245,1026534987,0.804224,-0.152256,-0.023424,6.99125,30.89625,-50.5225,-11.312,-17.248001,20.832,eccentric,3,3.0,27143.0,366465.0,329172.0,386501.0,332861.0
2026-04-07 17:45:56.160280,187723,1026549205,1026549909,0.708576,-0.099552,-0.011712,6.195,29.2425,-49.07,-11.048,-17.480001,22.072,eccentric,3,3.0,27143.0,366465.0,329172.0,386501.0,332861.0
2026-04-07 17:45:56.168372,187724,1026558538,1026560727,0.708576,-0.099552,-0.011712,7.1925,26.5825,-45.325,-11.048,-17.480001,22.072,eccentric,3,3.0,27143.0,366465.0,329172.0,386501.0,332861.0
2026-04-07 17:45:56.172369,187725,1026567463,1026569438,0.704672,-0.113216,-0.031232,8.198751,22.2075,-41.3525,-10.76,-17.248001,21.888,eccentric,3,3.0,27143.0,366465.0,329172.0,386501.0,332861.0
2026-04-07 17:45:56.199241,187735,1026582154,1026584396,0.704672,-0.113216,-0.031232,7.98875,18.24375,-37.94,-10.76,-17.248001,21.888,eccentric,3,3.0,27339.0,367744.0,329924.0,386931.0,333273.0
2026-04-07 17:45:56.200998,187736,1026591114,1026593137,0.730048,-0.144448,0.011712,5.01375,14.56,-33.74,-10.72,-17.856,22.968,eccentric,3,3.0,27339.0,367744.0,329924.0,386931.0,333273.0
2026-04-07 17:45:56.202531,187737,1026600433,1026601900,0.730048,-0.144448,0.011712,2.0125,11.22625,-29.56625,-10.72,-17.856,22.968,eccentric,3,3.0,27339.0,367744.0,329924.0,386931.0,333273.0
2026-04-07 17:45:56.207896,187738,1026609414,1026610630,0.728096,-0.0976,-0.01952,-0.4725,8.88125,-25.3225,-10.872001,-18.2,23.352001,eccentric,3,3.0,27339.0,367744.0,329924.0,386931.0,333273.0
2026-04-07 17:45:56.236429,187739,1026623876,1026625558,0.728096,-0.0976,-0.01952,-1.995,7.27125,-21.84,-10.872001,-18.2,23.352001,eccentric,3,3.0,27339.0,367744.0,329924.0,386931.0,333273.0
2026-04-07 17:45:56.240094,187740,1026632824,1026634270,0.726144,-0.089792,0.00976,-2.905,6.34375,-19.4425,-10.496,-18.272001,20.92,eccentric,3,3.0,27339.0,367744.0,329924.0,386931.0,333273.0
2026-04-07 17:45:56.248387,187741,1026641755,1026642960,0.726144,-0.089792,0.00976,-3.71,5.3025,-16.8,-10.496,-18.272001,20.92,eccentric,3,3.0,27339.0,367744.0,329924.0,386931.0,333273.0
2026-04-07 17:45:56.276488,187742,1026656210,1026657927,0.798368,-0.158112,-0.023424,-7.525,3.7975,-14.16625,-11.416,-18.560001,22.984001,eccentric,3,3.0,27339.0,367744.0,329924.0,386931.0,333273.0
2026-04-07 17:45:56.281023,187743,1026665148,1026666640,0.798368,-0.158112,-0.023424,-11.6725,0.945,-11.52375,-11.416,-18.560001,22.984001,eccentric,3,3.0,27339.0,367744.0,329924.0,386931.0,333273.0
2026-04-07 17:45:56.282540,187744,1026674105,1026675378,0.860832,-0.179584,-0.064416,-12.6875,-1.68,-8.1725,-9.936001,-17.152,21.152,eccentric,3,3.0,27339.0,367744.0,329924.0,386931.0,333273.0
2026-04-07 17:45:56.308500,187754,1026683162,1026684153,0.860832,-0.179584,-0.064416,-9.02125,-1.75875,-6.16875,-9.936001,-17.152,21.152,eccentric,3,3.0,27479.0,368837.0,330676.0,387566.0,333683.0
2026-04-07 17:45:56.310018,187755,1026697708,1026699097,0.835456,-0.074176,-0.001952,-5.39875,-1.54875,-6.685,-10.824,-18.648,22.024,eccentric,3,3.0,27479.0,368837.0,330676.0,387566.0,333683.0
2026-04-07 17:45:56.314279,187756,1026706619,1026707790,0.835456,-0.074176,-0.001952,-5.1275,-1.2425,-6.18625,-10.824,-18.648,22.024,eccentric,3,3.0,27479.0,368837.0,330676.0,387566.0,333683.0
2026-04-07 17:45:56.316714,187757,1026715537,1026716560,0.862784,-0.12688,-0.035136,-7.98875,-1.715,-5.2675,-10.592001,-18.400002,22.632002,eccentric,3,3.0,27479.0,368837.0,330676.0,387566.0,333683.0
2026-04-07 17:45:56.345508,187758,1026730035,1026731485,0.874496,-0.11712,-0.023424,-7.9975,-1.56625,-4.22625,-10.168,-18.28,20.776001,eccentric,3,3.0,27479.0,368837.0,330676.0,387566.0,333683.0
2026-04-07 17:45:56.349956,187759,1026738939,1026740214,0.874496,-0.11712,-0.023424,-6.3525,-1.74125,-4.095,-10.168,-18.28,20.776001,eccentric,3,3.0,27479.0,368837.0,330676.0,387566.0,333683.0
2026-04-07 17:45:56.356669,187760,1026747881,1026748928,0.892064,-0.066368,0.003904,-3.66625,-1.82,-4.92625,-10.296001,-18.088001,21.104,eccentric,3,3.0,27479.0,368837.0,330676.0,387566.0,333683.0
2026-04-07 17:45:56.363380,187761,1026762387,1026763817,0.892064,-0.066368,0.003904,-0.84,-0.74375,-6.2475,-10.296001,-18.088001,21.104,eccentric,3,3.0,27479.0,368837.0,330676.0,387566.0,333683.0
2026-04-07 17:45:56.370438,187762,1026771282,1026772573,0.880352,-0.0488,0.033184,-0.21875,0.46375,-7.37625,-9.736,-18.36,22.384,eccentric,3,3.0,27479.0,368837.0,330676.0,387566.0,333683.0
2026-04-07 17:45:56.456251,187773,1026780675,1026781355,0.880352,-0.0488,0.033184,-1.19,1.7325,-9.89625,-9.736,-18.36,22.384,eccentric,3,3.0,27418.0,368249.0,330327.0,387248.0,333749.0
2026-04-07 17:45:56.459470,187774,1026790033,1026792156,0.827648,-0.06832,0.021472,-0.51625,2.12625,-10.535,-11.192,-18.28,22.176,eccentric,3,3.0,27418.0,368249.0,330327.0,387248.0,333749.0
2026-04-07 17:45:56.461169,187775,1026804572,1026805028,0.827648,-0.06832,0.021472,2.4325,1.365,-9.45875,-11.192,-18.28,22.176,eccentric,3,3.0,27418.0,368249.0,330327.0,387248.0,333749.0
2026-04-07 17:45:56.463744,187776,1026813895,1026815794,0.825696,-0.074176,-0.01952,5.1975,-1.07625,-7.14,-9.992001,-17.816,20.552,eccentric,3,3.0,27418.0,368249.0,330327.0,387248.0,333749.0
2026-04-07 17:45:56.466240,187777,1026822825,1026824494,0.825696,-0.074176,-0.01952,8.4,-4.305,-3.9025,-9.992001,-17.816,20.552,eccentric,3,3.0,27418.0,368249.0,330327.0,387248.0,333749.0
2026-04-07 17:45:56.469313,187778,1026837306,1026839402,0.815936,-0.074176,-0.011712,7.77,-7.13125,-1.12875,-10.664001,-18.376001,22.304,eccentric,3,3.0,27418.0,368249.0,330327.0,387248.0,333749.0
2026-04-07 17:45:56.471170,187779,1026846205,1026848082,0.815936,-0.074176,-0.011712,6.93,-8.81125,0.55125,-10.664001,-18.376001,22.304,eccentric,3,3.0,27418.0,368249.0,330327.0,387248.0,333749.0
2026-04-07 17:45:56.473822,187780,1026855172,1026856803,0.792512,-0.060512,0.017568,8.6275,-10.31625,1.67125,-9.936001,-17.872002,20.048,eccentric,3,3.0,27418.0,368249.0,330327.0,387248.0,333749.0
2026-04-07 17:45:56.476204,187781,1026864125,1026865534,0.792512,-0.060512,0.017568,9.3275,-11.165,3.01,-9.936001,-17.872002,20.048,eccentric,3,3.0,27418.0,368249.0,330327.0,387248.0,333749.0
2026-04-07 17:45:56.501236,187791,1026878750,1026880498,0.776896,-0.06832,-0.003904,8.60125,-11.9,5.45125,-10.784,-18.016,22.024,eccentric,3,3.0,27430.0,368183.0,330196.0,387049.0,333461.0
2026-04-07 17:45:56.503858,187792,1026887754,1026889212,0.776896,-0.06832,-0.095648,6.37875,-13.195,7.76125,-10.784,-18.016,22.024,eccentric,3,3.0,27430.0,368183.0,330196.0,387049.0,333461.0
2026-04-07 17:45:56.506576,187793,1026896696,1026897937,0.7808,-0.13664,-0.095648,4.99625,-15.846251,11.29625,-11.024,-17.768002,25.216002,eccentric,3,3.0,27430.0,368183.0,330196.0,387049.0,333461.0
2026-04-07 17:45:56.510075,187794,1026911231,1026912910,0.813984,-0.085888,-0.050752,5.73125,-17.96375,15.3125,-11.168,-17.736,23.016,eccentric,3,3.0,27430.0,368183.0,330196.0,387049.0,333461.0
2026-04-07 17:45:56.540211,187795,1026920187,1026921646,0.813984,-0.085888,-0.050752,5.20625,-18.3575,16.87875,-11.168,-17.736,23.016,concentric,3,3.0,27430.0,368183.0,330196.0,387049.0,333461.0
2026-04-07 17:45:56.543784,187796,1026929111,1026930348,0.80032,-0.089792,-0.03904,5.7575,-17.255,17.66625,-10.328,-17.168001,20.048,concentric,3,3.0,27430.0,368183.0,330196.0,387049.0,333461.0
2026-04-07 17:45:56.548774,187797,1026943573,1026945275,0.80032,-0.089792,-0.03904,3.92875,-15.785,17.47375,-10.328,-17.168001,20.048,concentric,3,3.0,27430.0,368183.0,330196.0,387049.0,333461.0
2026-04-07 17:45:56.551300,187798,1026952489,1026953973,0.767136,-0.16592,-0.064416,1.61,-14.51625,16.485,-9.928,-16.576,19.176,concentric,3,3.0,27430.0,368183.0,330196.0,387049.0,333461.0
2026-04-07 17:45:56.581457,187799,1026961446,1026962664,0.767136,-0.16592,-0.064416,0.35875,-14.91875,16.77375,-9.928,-16.576,19.176,concentric,3,3.0,27430.0,368183.0,330196.0,387049.0,333461.0
2026-04-07 17:45:56.585217,187800,1026975940,1026977610,0.767136,-0.138592,-0.101504,5.6175,-17.491251,20.23,-10.512,-16.664001,17.960001,concentric,3,3.0,27430.0,368183.0,330196.0,387049.0,333461.0
2026-04-07 17:45:56.610080,187810,1026985019,1026986439,0.767136,-0.138592,-0.101504,7.35875,-21.00875,24.15,-10.512,-16.664001,17.960001,concentric,3,3.0,27509.0,369054.0,330957.0,387978.0,334393.0
2026-04-07 17:45:56.612477,187811,1026994042,1026995152,0.80032,-0.095648,-0.066368,5.06625,-23.1,25.62875,-10.816001,-16.864,19.608002,concentric,3,3.0,27509.0,369054.0,330957.0,387978.0,334393.0
2026-04-07 17:45:56.615033,187812,1027003034,1027003848,0.80032,-0.095648,-0.066368,1.95125,-22.89,26.215,-10.816001,-16.864,19.608002,concentric,3,3.0,27509.0,369054.0,330957.0,387978.0,334393.0
2026-04-07 17:45:56.618226,187813,1027017568,1027018939,0.76128,-0.076128,-0.025376,-1.40875,-20.965,24.98125,-10.872001,-16.312,19.728,concentric,3,3.0,27509.0,369054.0,330957.0,387978.0,334393.0
2026-04-07 17:45:56.623801,187814,1027026677,1027027676,0.76128,-0.076128,-0.025376,-1.225,-20.055,23.00375,-10.872001,-16.312,19.728,concentric,3,3.0,27509.0,369054.0,330957.0,387978.0,334393.0
2026-04-07 17:45:56.653870,187815,1027035670,1027036443,0.714432,-0.1464,-0.011712,1.63625,-21.595,22.4,-10.728001,-15.64,17.752,concentric,3,3.0,27509.0,369054.0,330957.0,387978.0,334393.0
2026-04-07 17:45:56.657548,187816,1027050190,1027051331,0.732,-0.140544,-0.218624,4.68125,-25.1825,24.26375,-10.816001,-15.664001,19.232,concentric,3,3.0,27509.0,369054.0,330957.0,387978.0,334393.0
2026-04-07 17:45:56.659992,187817,1027059104,1027060028,0.732,-0.140544,-0.218624,7.595,-31.28125,29.40875,-10.816001,-15.664001,19.232,concentric,3,3.0,27509.0,369054.0,330957.0,387978.0,334393.0
2026-04-07 17:45:56.665235,187818,1027068039,1027068807,0.732,-0.140544,-0.218624,2.5025,-34.48375,32.90875,-10.816001,-15.664001,19.232,concentric,3,3.0,27509.0,369054.0,330957.0,387978.0,334393.0
2026-04-07 17:45:56.740102,187829,1027082593,1027083800,0.93696,-0.169824,-0.03904,-11.64625,-34.0025,34.11625,-11.120001,-15.456,19.536001,concentric,3,3.0,28984.0,380890.0,340706.0,398790.0,344461.0
2026-04-07 17:45:56.744532,187830,1027091601,1027092556,0.763232,-0.138592,-0.035136,-13.43125,-28.4025,34.326252,-10.120001,-15.6,17.800001,concentric,3,3.0,28984.0,380890.0,340706.0,398790.0,344461.0
2026-04-07 17:45:56.746143,187831,1027100659,1027101302,0.763232,-0.138592,-0.035136,-13.667501,-24.38625,30.70375,-10.120001,-15.6,17.800001,concentric,3,3.0,28984.0,380890.0,340706.0,398790.0,344461.0
2026-04-07 17:45:56.747571,187832,1027109901,1027112054,0.765184,-0.191296,-0.080032,-9.89625,-22.9425,30.415,-10.768001,-15.184001,17.968,concentric,3,3.0,28984.0,380890.0,340706.0,398790.0,344461.0
2026-04-07 17:45:56.751104,187833,1027124436,1027124901,0.765184,-0.191296,-0.080032,-4.89125,-23.89625,29.4525,-10.768001,-15.184001,17.968,concentric,3,3.0,28984.0,380890.0,340706.0,398790.0,344461.0
2026-04-07 17:45:56.752584,187834,1027133808,1027135714,0.847168,-0.226432,-0.144448,-0.51625,-26.62625,28.69125,-11.048,-14.496,19.504002,concentric,3,3.0,28984.0,380890.0,340706.0,398790.0,344461.0
2026-04-07 17:45:56.756788,187835,1027142857,1027144465,0.847168,-0.226432,-0.144448,1.28625,-26.495,27.65875,-11.048,-14.496,19.504002,concentric,3,3.0,28984.0,380890.0,340706.0,398790.0,344461.0
2026-04-07 17:45:56.759226,187836,1027151827,1027153208,0.84912,-0.208864,-0.160064,-0.6825,-24.4125,23.44125,-11.160001,-14.536,19.28,concentric,3,3.0,28984.0,380890.0,340706.0,398790.0,344461.0
2026-04-07 17:45:56.787686,187837,1027166324,1027168123,0.84912,-0.208864,-0.160064,-0.9975,-22.26,21.63875,-11.160001,-14.536,19.28,concentric,3,3.0,28984.0,380890.0,340706.0,398790.0,344461.0
2026-04-07 17:45:56.791342,187838,1027175283,1027176791,0.876448,-0.226432,-0.050752,-6.7375,-17.85,18.6375,-10.832001,-14.120001,18.032001,concentric,3,3.0,28984.0,380890.0,340706.0,398790.0,344461.0
2026-04-07 17:45:56.821791,187848,1027184688,1027185641,0.876448,-0.226432,-0.050752,-7.91875,-13.895,15.715,-10.832001,-14.120001,18.032001,concentric,3,3.0,29797.0,387732.0,346516.0,403431.0,349925.0
2026-04-07 17:45:56.823616,187849,1027199329,1027200611,0.788608,-0.269376,-0.109312,-6.65,-12.2325,15.75,-11.184001,-14.072001,17.784,concentric,3,3.0,29797.0,387732.0,346516.0,403431.0,349925.0
2026-04-07 17:45:56.826263,187850,1027208265,1027209400,0.788608,-0.269376,-0.109312,-4.75125,-13.0375,17.08875,-11.184001,-14.072001,17.784,concentric,3,3.0,29797.0,387732.0,346516.0,403431.0,349925.0
2026-04-07 17:45:56.827647,187851,1027217184,1027218148,0.76128,-0.218624,-0.191296,-1.3825,-14.56875,16.10875,-11.608001,-13.960001,19.424002,concentric,3,3.0,29797.0,387732.0,346516.0,403431.0,349925.0
2026-04-07 17:45:56.831714,187852,1027231719,1027233120,0.862784,-0.206912,-0.132736,1.86375,-17.22875,15.1025,-12.104001,-13.440001,19.992,concentric,3,3.0,29797.0,387732.0,346516.0,403431.0,349925.0
2026-04-07 17:45:56.860221,187853,1027240678,1027241843,0.862784,-0.206912,-0.132736,1.3125,-17.255,11.94375,-12.104001,-13.440001,19.992,concentric,3,3.0,29797.0,387732.0,346516.0,403431.0,349925.0
2026-04-07 17:45:56.864706,187854,1027249592,1027250529,0.737856,-0.236192,-0.12688,-2.7125,-14.42,8.2425,-12.104001,-13.440001,19.400002,concentric,3,3.0,29797.0,387732.0,346516.0,403431.0,349925.0
2026-04-07 17:45:56.866281,187855,1027258502,1027259213,0.747616,-0.236192,-0.12688,0.0175,-12.565,7.595,-10.888001,-12.952001,19.400002,concentric,3,3.0,29797.0,387732.0,346516.0,403431.0,349925.0
2026-04-07 17:45:56.871626,187856,1027273432,1027274154,0.759328,-0.271328,-0.12688,-1.33,-11.87375,7.2975,-11.512,-12.968,17.224,concentric,3,3.0,29797.0,387732.0,346516.0,403431.0,349925.0
2026-04-07 17:45:56.928458,187866,1027283401,1027285005,0.759328,-0.271328,-0.12688,-1.3125,-11.2875,6.9825,-11.512,-12.968,17.224,concentric,3,3.0,30580.0,393708.0,351450.0,403431.0,354656.0
2026-04-07 17:45:56.930049,187867,1027292431,1027293761,0.759328,-0.247904,-0.1952,4.68125,-11.24375,7.84875,-11.872001,-13.064001,17.44,concentric,3,3.0,30580.0,393708.0,351450.0,403431.0,354656.0
2026-04-07 17:45:56.934291,187868,1027301355,1027302497,0.759328,-0.247904,-0.1952,9.0825,-13.04625,6.8425,-11.872001,-13.064001,17.44,concentric,3,3.0,30580.0,393708.0,351450.0,403431.0,354656.0
2026-04-07 17:45:56.936029,187869,1027315932,1027317405,0.769088,-0.22448,-0.179584,11.1825,-13.37875,2.82625,-12.000001,-13.016001,16.952002,concentric,3,3.0,30580.0,393708.0,351450.0,403431.0,354656.0
2026-04-07 17:45:56.937552,187870,1027324924,1027326116,0.769088,-0.22448,-0.179584,15.6625,-13.22125,0.09625,-12.000001,-13.016001,16.952002,concentric,3,3.0,30580.0,393708.0,351450.0,403431.0,354656.0
2026-04-07 17:45:56.941631,187871,1027333916,1027334782,0.79056,-0.247904,-0.158112,21.2275,-13.886251,-1.75875,-12.360001,-13.200001,17.960001,concentric,3,3.0,30580.0,393708.0,351450.0,403431.0,354656.0
2026-04-07 17:45:56.947897,187872,1027348442,1027349804,0.79056,-0.247904,-0.158112,21.7175,-13.72,-2.33625,-12.360001,-13.200001,17.960001,concentric,3,3.0,30580.0,393708.0,351450.0,403431.0,354656.0
2026-04-07 17:45:56.976395,187873,1027357362,1027358486,0.77104,-0.275232,-0.1464,17.4125,-13.1775,-1.18125,-12.416,-12.72,17.880001,concentric,3,3.0,30580.0,393708.0,351450.0,403431.0,354656.0
2026-04-07 17:45:56.980088,187874,1027366283,1027367166,0.77104,-0.275232,-0.1464,14.07875,-13.55375,1.7325,-12.416,-12.72,17.880001,concentric,3,3.0,30580.0,393708.0,351450.0,403431.0,354656.0
2026-04-07 17:45:57.016195,187875,1027380791,1027382118,0.808128,-0.28304,-0.162016,12.0225,-12.6875,1.8375,-11.8,-12.816001,16.696001,concentric,3,3.0,30580.0,393708.0,351450.0,403431.0,354656.0
2026-04-07 17:45:57.056282,187885,1027389785,1027390883,0.808128,-0.28304,-0.189344,10.6575,-11.12125,-0.14875,-11.8,-12.816001,16.696001,concentric,3,3.0,31359.0,400099.0,356870.0,403431.0,359705.0
2026-04-07 17:45:57.058947,187886,1027398697,1027399619,0.827648,-0.26352,-0.189344,13.877501,-9.292501,-2.66,-12.264001,-12.504001,14.528001,concentric,3,3.0,31359.0,400099.0,356870.0,403431.0,359705.0
2026-04-07 17:45:57.062200,187887,1027407581,1027408299,0.827648,-0.26352,-0.189344,15.53125,-7.00875,-5.6,-12.264001,-12.504001,14.528001,concentric,3,3.0,31359.0,400099.0,356870.0,403431.0,359705.0
2026-04-07 17:45:57.063894,187888,1027422423,1027423200,0.823744,-0.267424,-0.162016,18.095,-3.89375,-7.07875,-12.056001,-11.904,16.488,concentric,3,3.0,31359.0,400099.0,356870.0,403431.0,359705.0
2026-04-07 17:45:57.068112,187889,1027431355,1027431923,0.84912,-0.306464,-0.171776,17.77125,-1.23375,-7.2625,-12.256001,-12.112,16.704,concentric,3,3.0,31359.0,400099.0,356870.0,403431.0,359705.0
2026-04-07 17:45:57.069772,187890,1027440506,1027442674,0.84912,-0.306464,-0.171776,14.51625,0.70875,-9.05625,-12.256001,-12.112,16.704,concentric,3,3.0,31359.0,400099.0,356870.0,403431.0,359705.0
2026-04-07 17:45:57.071289,187891,1027455003,1027455589,0.911584,-0.245952,-0.17568,8.42625,2.0475,-10.75375,-12.704,-12.544001,17.296001,concentric,3,3.0,31359.0,400099.0,356870.0,403431.0,359705.0
2026-04-07 17:45:57.080577,187892,1027464451,1027466397,0.911584,-0.245952,-0.17568,7.14,3.57875,-10.9725,-12.704,-12.544001,17.296001,concentric,3,3.0,31359.0,400099.0,356870.0,403431.0,359705.0
2026-04-07 17:45:57.082279,187893,1027473404,1027475109,0.905728,-0.249856,-0.183488,5.3375,4.76875,-13.1075,-12.576,-12.432,18.016,concentric,3,3.0,31359.0,400099.0,356870.0,403431.0,359705.0
2026-04-07 17:45:57.113044,187904,1027482351,1027483890,0.905728,-0.249856,-0.183488,3.535,6.44,-14.6475,-12.576,-12.432,18.016,concentric,3,3.0,31543.0,401248.0,358346.0,403431.0,360882.0
2026-04-07 17:45:57.114823,187905,1027496865,1027498821,0.880352,-0.26352,-0.160064,7.00875,7.97125,-15.54875,-13.792001,-12.536,19.112001,concentric,3,3.0,31543.0,401248.0,358346.0,403431.0,360882.0
2026-04-07 17:45:57.116314,187906,1027505781,1027507524,0.880352,-0.26352,-0.160064,5.48625,8.93375,-15.4875,-13.792001,-12.536,19.112001,concentric,3,3.0,31543.0,401248.0,358346.0,403431.0,360882.0
2026-04-07 17:45:57.120407,187907,1027514754,1027516243,0.876448,-0.23424,-0.11712,4.1475,10.9025,-14.1925,-13.888001,-12.816001,18.960001,concentric,3,3.0,31543.0,401248.0,358346.0,403431.0,360882.0
2026-04-07 17:45:57.149094,187908,1027529229,1027531267,0.876448,-0.23424,-0.11712,4.06875,11.8475,-12.46875,-13.888001,-12.816001,18.960001,concentric,3,3.0,31543.0,401248.0,358346.0,403431.0,360882.0
2026-04-07 17:45:57.153493,187909,1027538138,1027539959,0.882304,-0.22448,-0.163968,9.17875,12.355001,-11.9875,-13.264001,-12.864,17.464,concentric,3,3.0,31543.0,401248.0,358346.0,403431.0,360882.0
2026-04-07 17:45:57.155820,187910,1027547067,1027548691,0.882304,-0.22448,-0.163968,13.53625,12.18,-11.94375,-13.264001,-12.864,17.464,concentric,3,3.0,31543.0,401248.0,358346.0,403431.0,360882.0
2026-04-07 17:45:57.161379,187911,1027561546,1027563652,0.870592,-0.163968,-0.138592,16.24875,13.4225,-11.50625,-12.736001,-12.184001,16.776001,concentric,3,3.0,31543.0,401248.0,358346.0,403431.0,360882.0
2026-04-07 17:45:57.192705,187912,1027570471,1027572500,0.870592,-0.163968,-0.103456,16.23125,13.825,-11.59375,-12.736001,-12.184001,16.776001,concentric,3,3.0,31543.0,401248.0,358346.0,403431.0,360882.0
2026-04-07 17:45:57.205365,187913,1027579426,1027581194,0.851072,-0.160064,-0.103456,12.8275,13.79875,-12.0925,-14.120001,-12.528001,18.696001,concentric,3,3.0,31543.0,401248.0,358346.0,403431.0,360882.0
2026-04-07 17:45:57.228885,187923,1027594053,1027596161,0.843264,-0.18544,-0.083936,8.67125,14.07875,-12.11875,-13.384001,-12.272,16.816,concentric,3,3.0,31305.0,399960.0,356821.0,403431.0,358756.0
2026-04-07 17:45:57.233070,187924,1027602974,1027604851,0.843264,-0.18544,-0.083936,7.09625,14.2275,-10.2375,-13.384001,-12.272,16.816,concentric,3,3.0,31305.0,399960.0,356821.0,403431.0,358756.0
2026-04-07 17:45:57.234735,187925,1027612001,1027613577,0.825696,-0.13664,-0.089792,6.37875,13.667501,-8.88125,-13.52,-12.176001,16.336,concentric,3,3.0,31305.0,399960.0,356821.0,403431.0,358756.0
2026-04-07 17:45:57.236304,187926,1027620975,1027622427,0.825696,-0.13664,-0.089792,5.38125,12.62625,-9.02125,-13.52,-12.176001,16.336,concentric,3,3.0,31305.0,399960.0,356821.0,403431.0,358756.0
2026-04-07 17:45:57.240387,187927,1027635536,1027637359,0.89792,-0.163968,-0.160064,9.52,11.89125,-8.11125,-14.088,-12.576,18.800001,concentric,3,3.0,31305.0,399960.0,356821.0,403431.0,358756.0
2026-04-07 17:45:57.244159,187928,1027644462,1027646063,0.89792,-0.163968,-0.160064,9.23125,9.3275,-8.2425,-14.088,-12.576,18.800001,concentric,3,3.0,31305.0,399960.0,356821.0,403431.0,358756.0
2026-04-07 17:45:57.272694,187929,1027653418,1027654766,0.845216,-0.179584,-0.052704,6.125,9.835,-9.93125,-13.696001,-12.64,18.560001,concentric,3,3.0,31305.0,399960.0,356821.0,403431.0,358756.0
2026-04-07 17:45:57.277306,187930,1027667972,1027669717,0.845216,-0.179584,-0.052704,7.77,11.8125,-9.09125,-13.696001,-12.64,18.560001,concentric,3,3.0,31305.0,399960.0,356821.0,403431.0,358756.0
2026-04-07 17:45:57.278893,187931,1027676896,1027678403,0.860832,-0.1464,-0.091744,11.235,11.025,-7.4025,-14.176001,-12.008,17.36,concentric,3,3.0,31305.0,399960.0,356821.0,403431.0,358756.0
2026-04-07 17:45:57.340599,187941,1027685941,1027687159,0.860832,-0.1464,-0.091744,9.96625,10.99875,-7.8575,-14.176001,-12.008,17.36,concentric,3,3.0,30719.0,395753.0,353259.0,403431.0,355062.0
2026-04-07 17:45:57.342312,187942,1027700475,1027702166,0.854976,-0.142496,-0.08784,7.72625,11.3925,-5.76625,-15.024001,-12.024,17.656,concentric,3,3.0,30719.0,395753.0,353259.0,403431.0,355062.0
2026-04-07 17:45:57.343813,187943,1027709373,1027710918,0.854976,-0.142496,-0.08784,2.91375,11.6725,-3.5,-15.024001,-12.024,17.656,concentric,3,3.0,30719.0,395753.0,353259.0,403431.0,355062.0
2026-04-07 17:45:57.348113,187944,1027718285,1027719632,0.815936,-0.230336,-0.074176,-2.82625,12.41625,-2.695,-14.888001,-11.896001,17.936,concentric,3,3.0,30719.0,395753.0,353259.0,403431.0,355062.0
2026-04-07 17:45:57.349770,187945,1027727201,1027728318,0.815936,-0.230336,-0.074176,-4.8125,11.38375,-2.40625,-14.888001,-11.896001,17.936,concentric,3,3.0,30719.0,395753.0,353259.0,403431.0,355062.0
2026-04-07 17:45:57.351351,187946,1027741876,1027743235,0.915488,-0.158112,-0.083936,-0.84875,11.585,-1.2425,-14.936001,-12.608001,17.744001,concentric,3,3.0,30719.0,395753.0,353259.0,403431.0,355062.0
2026-04-07 17:45:57.359252,187947,1027750795,1027751937,0.915488,-0.158112,-0.083936,-1.26,13.055,-3.6225,-14.936001,-12.608001,17.744001,concentric,3,3.0,30719.0,395753.0,353259.0,403431.0,355062.0
2026-04-07 17:45:57.366273,187948,1027759781,1027760627,0.845216,-0.171776,-0.093696,-0.11375,14.07,-2.73,-15.408001,-12.272,17.808,concentric,3,3.0,30719.0,395753.0,353259.0,403431.0,355062.0
2026-04-07 17:45:57.373458,187949,1027774318,1027775536,0.864736,-0.212768,-0.064416,-3.045,13.895,-2.7825,-15.848001,-12.192,18.288,concentric,3,3.0,30719.0,395753.0,353259.0,403431.0,355062.0
2026-04-07 17:45:57.401534,187950,1027783346,1027784291,0.864736,-0.212768,-0.064416,-3.3775,13.8425,-2.21375,-15.848001,-12.192,18.288,concentric,3,3.0,30719.0,395753.0,353259.0,403431.0,355062.0
2026-04-07 17:45:57.430069,187961,1027792401,1027793070,0.894016,-0.203008,-0.113216,-2.30125,14.542501,0.9275,-15.008,-11.88,17.552,concentric,3,3.0,30421.0,393600.0,351539.0,403431.0,353356.0
2026-04-07 17:45:57.434271,187962,1027801705,1027803824,0.894016,-0.203008,-0.113216,-2.9575,15.1375,1.65375,-15.008,-11.88,17.552,concentric,3,3.0,30421.0,393600.0,351539.0,403431.0,353356.0
2026-04-07 17:45:57.436031,187963,1027816252,1027816729,0.9272,-0.240096,-0.10736,-3.96375,15.68,1.61,-16.536001,-11.856001,20.072,concentric,3,3.0,30421.0,393600.0,351539.0,403431.0,353356.0
2026-04-07 17:45:57.437548,187964,1027825753,1027827538,0.9272,-0.240096,-0.10736,-3.36875,17.491251,2.065,-16.536001,-11.856001,20.072,concentric,3,3.0,30421.0,393600.0,351539.0,403431.0,353356.0
2026-04-07 17:45:57.441634,187965,1027834734,1027836295,0.90768,-0.232288,-0.101504,-3.45625,18.50625,1.33875,-16.104,-12.072001,20.768002,concentric,3,3.0,30421.0,393600.0,351539.0,403431.0,353356.0
2026-04-07 17:45:57.471128,187966,1027849302,1027851255,0.90768,-0.232288,-0.101504,1.295,19.1275,1.7675,-16.104,-12.072001,20.768002,concentric,3,3.0,30421.0,393600.0,351539.0,403431.0,353356.0
2026-04-07 17:45:57.473431,187967,1027858209,1027859941,0.919392,-0.193248,-0.101504,5.85375,19.46875,2.59,-16.648,-11.744,18.392,concentric,3,3.0,30421.0,393600.0,351539.0,403431.0,353356.0
2026-04-07 17:45:57.477972,187968,1027867157,1027868696,0.919392,-0.193248,-0.101504,4.68125,19.6525,2.3975,-16.648,-11.744,18.392,concentric,3,3.0,30421.0,393600.0,351539.0,403431.0,353356.0
2026-04-07 17:45:57.482261,187969,1027881693,1027883580,0.923296,-0.210816,-0.089792,0.37625,20.51875,2.2925,-16.056002,-11.976001,18.616001,concentric,3,3.0,30421.0,393600.0,351539.0,403431.0,353356.0
2026-04-07 17:45:57.508793,187979,1027890816,1027892355,0.923296,-0.210816,-0.089792,-2.3625,22.21625,2.8,-16.056002,-11.976001,18.616001,concentric,3,3.0,30197.0,391962.0,350274.0,403431.0,352228.0
2026-04-07 17:45:57.513031,187980,1027899775,1027901064,0.921344,-0.247904,-0.093696,-2.40625,22.60125,2.89625,-16.192001,-11.864,19.056002,concentric,3,3.0,30197.0,391962.0,350274.0,403431.0,352228.0
2026-04-07 17:45:57.515537,187981,1027908750,1027909808,0.921344,-0.247904,-0.093696,-3.78,22.44375,3.92,-16.192001,-11.864,19.056002,concentric,3,3.0,30197.0,391962.0,350274.0,403431.0,352228.0
2026-04-07 17:45:57.521633,187982,1027923287,1027924798,0.899872,-0.240096,-0.070272,-0.72625,23.23125,5.45125,-16.28,-11.496,19.144001,concentric,3,3.0,30197.0,391962.0,350274.0,403431.0,352228.0
2026-04-07 17:45:57.550304,187983,1027932361,1027933511,0.899872,-0.267424,-0.056608,-0.5425,22.522501,5.78375,-16.28,-11.496,19.144001,concentric,3,3.0,30197.0,391962.0,350274.0,403431.0,352228.0
2026-04-07 17:45:57.554725,187984,1027941337,1027942196,0.8784,-0.267424,-0.056608,-0.98875,22.4875,7.23625,-16.504002,-11.784,19.352001,concentric,3,3.0,30197.0,391962.0,350274.0,403431.0,352228.0
2026-04-07 17:45:57.556256,187985,1027955849,1027957071,0.903776,-0.257664,-0.080032,1.6275,21.2625,8.84625,-16.632,-10.936001,19.240002,concentric,3,3.0,30197.0,391962.0,350274.0,403431.0,352228.0
2026-04-07 17:45:57.562954,187986,1027964738,1027965741,0.903776,-0.257664,-0.080032,3.96375,20.15125,9.5375,-16.632,-10.936001,19.240002,concentric,3,3.0,30197.0,391962.0,350274.0,403431.0,352228.0
2026-04-07 17:45:57.613609,187987,1027973691,1027974431,0.86864,-0.242048,-0.062464,3.64875,18.61125,10.24625,-17.424002,-10.960001,20.648,concentric,3,3.0,30197.0,391962.0,350274.0,403431.0,352228.0
2026-04-07 17:45:57.618114,187988,1027983029,1027985180,0.86864,-0.242048,-0.062464,4.76,17.6925,10.80625,-17.424002,-10.960001,20.648,concentric,3,3.0,30197.0,391962.0,350274.0,403431.0,352228.0
2026-04-07 17:45:57.646067,187998,1027997613,1027998023,0.8784,-0.27328,-0.06832,5.73125,16.24,10.87625,-17.224,-11.224001,19.568,concentric,3,3.0,30146.0,391461.0,349746.0,403431.0,351659.0
2026-04-07 17:45:57.647700,187999,1028006887,1028008787,0.8784,-0.27328,-0.06832,4.31375,14.4375,11.2875,-17.224,-11.224001,19.568,concentric,3,3.0,30146.0,391461.0,349746.0,403431.0,351659.0
2026-04-07 17:45:57.651858,188000,1028015808,1028017420,0.843264,-0.257664,-0.05856,3.01875,12.53,12.3025,-17.416,-10.264001,19.488,concentric,3,3.0,30146.0,391461.0,349746.0,403431.0,351659.0
2026-04-07 17:45:57.653786,188001,1028030447,1028032369,0.843264,-0.257664,-0.05856,1.2775,11.6725,13.230001,-17.416,-10.264001,19.488,concentric,3,3.0,30146.0,391461.0,349746.0,403431.0,351659.0
2026-04-07 17:45:57.656273,188002,1028039384,1028041082,0.903776,-0.314272,-0.060512,-0.1925,10.185,11.97875,-17.496,-11.000001,20.488,concentric,3,3.0,30146.0,391461.0,349746.0,403431.0,351659.0
2026-04-07 17:45:57.657765,188003,1028048359,1028049776,0.903776,-0.314272,-0.060512,-0.51625,9.9575,12.34625,-17.496,-11.000001,20.488,concentric,3,3.0,30146.0,391461.0,349746.0,403431.0,351659.0
2026-04-07 17:45:57.661687,188004,1028057371,1028058508,0.876448,-0.327936,-0.070272,2.4675,9.42375,11.76,-17.400002,-10.976001,19.672,concentric,3,3.0,30146.0,391461.0,349746.0,403431.0,351659.0
2026-04-07 17:45:57.703776,188005,1028071962,1028073464,0.876448,-0.327936,-0.070272,4.29625,9.24,11.445,-17.400002,-10.976001,19.672,concentric,3,3.0,30146.0,391461.0,349746.0,403431.0,351659.0
2026-04-07 17:45:57.708355,188006,1028080929,1028082140,0.85888,-0.320128,-0.056608,4.76875,9.47625,11.61125,-17.952002,-10.256001,20.240002,concentric,3,3.0,30146.0,391461.0,349746.0,403431.0,351659.0
2026-04-07 17:45:57.746576,188017,1028090367,1028091115,0.85888,-0.320128,-0.056608,3.605,9.68625,12.075,-17.952002,-10.256001,20.240002,concentric,3,3.0,29885.0,389508.0,348159.0,403431.0,350260.0
2026-04-07 17:45:57.768075,188018,1028105284,1028106021,0.841312,-0.320128,-0.037088,3.10625,9.58125,11.61125,-17.352001,-10.256001,19.888,concentric,3,3.0,29885.0,389508.0,348159.0,403431.0,350260.0
2026-04-07 17:45:57.770100,188019,1028114660,1028115233,0.837408,-0.316224,-0.021472,3.70125,9.75625,11.13875,-18.160002,-9.896001,21.904001,concentric,3,3.0,29885.0,389508.0,348159.0,403431.0,350260.0
2026-04-07 17:45:57.771598,188020,1028124378,1028126048,0.837408,-0.316224,-0.021472,2.37125,9.77375,10.89375,-18.160002,-9.896001,21.904001,concentric,3,3.0,29885.0,389508.0,348159.0,403431.0,350260.0
2026-04-07 17:45:57.773776,188021,1028133417,1028134810,0.837408,-0.32208,-0.02928,1.60125,9.4325,9.96625,-18.160002,-9.896001,19.584002,concentric,3,3.0,29885.0,389508.0,348159.0,403431.0,350260.0
2026-04-07 17:45:57.776288,188022,1028148084,1028149749,0.831552,-0.32208,-0.02928,1.60125,8.75875,9.23125,-17.568,-9.568001,19.584002,concentric,3,3.0,29885.0,389508.0,348159.0,403431.0,350260.0
2026-04-07 17:45:57.780519,188023,1028157077,1028158487,0.81008,-0.296704,-0.027328,2.03875,8.93375,8.9425,-18.560001,-9.608001,21.584002,concentric,3,3.0,29885.0,389508.0,348159.0,403431.0,350260.0
2026-04-07 17:45:57.782186,188024,1028165995,1028167206,0.81008,-0.296704,-0.027328,1.645,7.35,8.0675,-18.560001,-9.608001,21.584002,concentric,3,3.0,29885.0,389508.0,348159.0,403431.0,350260.0
2026-04-07 17:45:57.784009,188025,1028174909,1028175889,0.798368,-0.290848,-0.040992,-0.28875,6.95625,6.83375,-18.28,-9.952001,21.448002,concentric,3,3.0,29885.0,389508.0,348159.0,403431.0,350260.0
2026-04-07 17:45:57.816789,188035,1028189761,1028191230,0.798368,-0.290848,-0.040992,-0.90125,5.43375,5.08375,-18.28,-9.952001,21.448002,concentric,3,3.0,29501.0,386442.0,345673.0,403272.0,347956.0
2026-04-07 17:45:57.818460,188036,1028200211,1028202112,0.79056,-0.320128,-0.027328,-1.505,3.4475,2.31,-18.400002,-9.552,21.224,concentric,3,3.0,29501.0,386442.0,345673.0,403272.0,347956.0
2026-04-07 17:45:57.820949,188037,1028209156,1028210821,0.79056,-0.320128,-0.027328,0.4025,1.89875,-0.37625,-18.400002,-9.552,21.224,concentric,3,3.0,29501.0,386442.0,345673.0,403272.0,347956.0
2026-04-07 17:45:57.822431,188038,1028218084,1028219578,0.79056,-0.349408,-0.011712,2.19625,1.16375,0.16625,-18.016,-9.552,19.880001,concentric,3,3.0,29501.0,386442.0,345673.0,403272.0,347956.0
2026-04-07 17:45:57.853378,188039,1028232688,1028234584,0.79056,-0.349408,-0.011712,2.35375,1.8725,-1.18125,-18.016,-9.552,19.880001,concentric,3,3.0,29501.0,386442.0,345673.0,403272.0,347956.0
2026-04-07 17:45:57.856223,188040,1028241640,1028243318,0.796416,-0.355264,-0.007808,4.85625,3.03625,-1.8025,-18.144001,-9.432,22.096,concentric,3,3.0,29501.0,386442.0,345673.0,403272.0,347956.0
2026-04-07 17:45:57.858719,188041,1028250564,1028252007,0.796416,-0.355264,-0.007808,6.2475,2.52,-1.72375,-18.144001,-9.432,22.096,concentric,3,3.0,29501.0,386442.0,345673.0,403272.0,347956.0
2026-04-07 17:45:57.865152,188042,1028265049,1028266921,0.81008,-0.325984,-0.025376,7.2975,1.995,-1.18125,-17.6,-9.176001,19.68,concentric,3,3.0,29501.0,386442.0,345673.0,403272.0,347956.0
2026-04-07 17:45:57.872515,188043,1028273979,1028275667,0.831552,-0.355264,-0.025376,7.14,1.58375,-1.0325,-17.6,-9.176001,21.256,concentric,3,3.0,29501.0,386442.0,345673.0,403272.0,347956.0
2026-04-07 17:45:57.915092,188044,1028282937,1028284377,0.831552,-0.355264,-0.025376,5.4775,1.1725,-0.28875,-18.36,-9.320001,21.256,concentric,3,3.0,29501.0,386442.0,345673.0,403272.0,347956.0
2026-04-07 17:45:57.939961,188054,1028292028,1028293113,0.831552,-0.355264,-0.025376,3.24625,1.89,-0.81375,-18.36,-9.320001,21.256,concentric,3,3.0,29443.0,386073.0,345356.0,403097.0,347827.0
2026-04-07 17:45:57.942460,188055,1028306525,1028308067,0.864736,-0.411872,-0.044896,3.185,2.6775,-0.60375,-18.320002,-9.200001,19.072,concentric,3,3.0,29443.0,386073.0,345356.0,403097.0,347827.0
2026-04-07 17:45:57.945127,188056,1028315451,1028316753,0.890112,-0.349408,-0.025376,3.73625,3.75375,-0.97125,-18.416,-9.104,19.072,concentric,3,3.0,29443.0,386073.0,345356.0,403097.0,347827.0
2026-04-07 17:45:57.947529,188057,1028324359,1028325432,0.890112,-0.349408,-0.025376,4.17375,4.40125,-1.12875,-18.416,-9.104,19.072,concentric,3,3.0,29443.0,386073.0,345356.0,403097.0,347827.0
2026-04-07 17:45:57.950045,188058,1028338835,1028340403,0.905728,-0.366976,-0.044896,3.64,4.57625,0.2975,-18.432001,-9.52,21.576,concentric,3,3.0,29443.0,386073.0,345356.0,403097.0,347827.0
2026-04-07 17:45:57.952506,188059,1028347793,1028349125,0.905728,-0.366976,-0.044896,1.085,5.1625,1.645,-18.432001,-9.52,21.576,concentric,3,3.0,29443.0,386073.0,345356.0,403097.0,347827.0
2026-04-07 17:45:57.958946,188060,1028356767,1028357842,0.93696,-0.384544,-0.05856,-1.26875,5.355,0.63875,-18.52,-9.504001,21.84,concentric,3,3.0,29443.0,386073.0,345356.0,403097.0,347827.0
2026-04-07 17:45:57.988889,188061,1028371263,1028372699,0.93696,-0.384544,-0.05856,-2.5725,4.62,0.97125,-18.52,-9.504001,21.84,concentric,3,3.0,29443.0,386073.0,345356.0,403097.0,347827.0
2026-04-07 17:45:57.992604,188062,1028380172,1028381385,0.972096,-0.40016,-0.06832,-3.8675,3.8675,1.63625,-18.448,-9.04,21.208,concentric,3,3.0,29443.0,386073.0,345356.0,403097.0,347827.0
2026-04-07 17:45:58.027810,188073,1028389619,1028390182,0.972096,-0.40016,-0.06832,-3.61375,2.66875,1.44375,-18.448,-9.04,21.208,concentric,3,3.0,29745.0,388364.0,347260.0,403431.0,349664.0
2026-04-07 17:45:58.030133,188074,1028399164,1028401062,0.983808,-0.415776,-0.06832,-2.6775,2.35375,1.39125,-17.960001,-8.808001,19.664001,concentric,3,3.0,29745.0,388364.0,347260.0,403431.0,349664.0
2026-04-07 17:45:58.037536,188075,1028413652,1028413972,0.983808,-0.415776,-0.06832,-2.4325,1.12875,2.75625,-17.960001,-8.808001,19.664001,concentric,3,3.0,29745.0,388364.0,347260.0,403431.0,349664.0
2026-04-07 17:45:58.040022,188076,1028422862,1028424775,0.993568,-0.417728,-0.080032,-1.70625,-0.37625,3.42125,-18.0,-8.552,19.720001,concentric,3,3.0,29745.0,388364.0,347260.0,403431.0,349664.0
2026-04-07 17:45:58.042450,188077,1028431840,1028433494,0.993568,-0.417728,-0.080032,-2.205,-1.8025,4.55,-18.0,-8.552,19.720001,concentric,3,3.0,29745.0,388364.0,347260.0,403431.0,349664.0
2026-04-07 17:45:58.045059,188078,1028446312,1028448434,1.013088,-0.413824,-0.103456,-3.49125,-4.12125,4.935,-19.152,-9.128,20.832,concentric,3,3.0,29745.0,388364.0,347260.0,403431.0,349664.0
2026-04-07 17:45:58.076245,188079,1028455243,1028457133,1.01504,-0.443104,-0.10736,-4.76,-5.565,4.48875,-18.464,-8.8,21.112001,concentric,3,3.0,29745.0,388364.0,347260.0,403431.0,349664.0
2026-04-07 17:45:58.080532,188080,1028464218,1028465833,1.01504,-0.443104,-0.10736,-5.81875,-6.39625,3.745,-18.464,-8.8,21.112001,concentric,3,3.0,29745.0,388364.0,347260.0,403431.0,349664.0
2026-04-07 17:45:58.082163,188081,1028473211,1028474559,1.01504,-0.443104,-0.10736,-5.74,-7.105,3.66625,-18.464,-8.8,21.112001,concentric,3,3.0,29745.0,388364.0,347260.0,403431.0,349664.0
2026-04-07 17:45:58.113103,188091,1028487698,1028489617,0.997472,-0.423584,-0.105408,-6.37,-7.98875,3.52625,-18.064001,-8.776,23.832,concentric,3,3.0,29876.0,389754.0,348430.0,403431.0,350778.0
2026-04-07 17:45:58.114726,188092,1028496677,1028498364,0.993568,-0.454816,-0.111264,-5.1975,-8.785,3.1675,-17.640001,-8.792001,22.6,concentric,3,3.0,29876.0,389754.0,348430.0,403431.0,350778.0
2026-04-07 17:45:58.116435,188093,1028505595,1028507083,0.993568,-0.454816,-0.111264,-5.74,-9.275,3.33375,-17.640001,-8.792001,22.6,concentric,3,3.0,29876.0,389754.0,348430.0,403431.0,350778.0
2026-04-07 17:45:58.120388,188094,1028520118,1028522003,0.979904,-0.464576,-0.089792,-4.7425,-8.82,3.4825,-18.016,-8.632,20.312,concentric,3,3.0,29876.0,389754.0,348430.0,403431.0,350778.0
2026-04-07 17:45:58.148920,188095,1028529052,1028530689,0.979904,-0.464576,-0.089792,-1.54875,-8.12,4.865,-18.016,-8.632,20.312,concentric,3,3.0,29876.0,389754.0,348430.0,403431.0,350778.0
2026-04-07 17:45:58.153473,188096,1028537987,1028539405,0.9272,-0.402112,-0.070272,1.9775,-7.1575,5.1625,-17.464,-8.76,18.536001,concentric,3,3.0,29876.0,389754.0,348430.0,403431.0,350778.0
2026-04-07 17:45:58.155802,188097,1028552462,1028554309,0.9272,-0.402112,-0.070272,3.57875,-6.58,4.05125,-17.464,-8.76,18.536001,concentric,3,3.0,29876.0,389754.0,348430.0,403431.0,350778.0
2026-04-07 17:45:58.161605,188098,1028561441,1028563019,0.90768,-0.38064,-0.072224,2.94875,-6.15125,2.9225,-17.512001,-7.496,18.504002,concentric,3,3.0,29876.0,389754.0,348430.0,403431.0,350778.0
2026-04-07 17:45:58.218171,188099,1028570380,1028571781,0.90768,-0.38064,-0.072224,0.25375,-4.5675,1.60125,-17.512001,-7.496,18.504002,concentric,3,3.0,29876.0,389754.0,348430.0,403431.0,350778.0
2026-04-07 17:45:58.219806,188100,1028579296,1028580460,0.860832,-0.402112,-0.064416,-2.8525,-3.2025,0.4725,-18.056002,-8.6,18.816,concentric,3,3.0,29876.0,389754.0,348430.0,403431.0,350778.0
