pc_time,serial_num,sensor_ts,host_ts,ax,ay,az,gx,gy,gz,mx,my,mz,phase,rpe,weight_kg,ppg_a,ppg_b,ppg_c,ppg_d,ppg_e
2026-04-09 22:15:42.468681,297582,1872452287,1872453302,-0.919392,0.17568,-0.054656,10.26375,-0.9275,-7.595,18.432001,-8.320001,14.256001,eccentric,5,5.0,39147.0,393145.0,125286.0,3447.0,-145.0
2026-04-09 22:15:42.471454,297583,1872466871,1872468369,-0.919392,0.17568,-0.054656,11.7075,0.30625,-8.0325,18.304,-8.320001,14.256001,eccentric,5,5.0,39147.0,393145.0,125286.0,3447.0,-145.0
2026-04-09 22:15:42.478643,297584,1872475835,1872477132,-0.919392,0.177632,-0.040992,12.1275,-0.27125,-8.9075,18.232,-8.448,14.424001,eccentric,5,5.0,39147.0,393145.0,125286.0,3447.0,-145.0
2026-04-09 22:15:42.484815,297585,1872484771,1872485851,-0.919392,0.177632,-0.040992,14.20125,-0.9625,-6.62375,18.232,-8.448,14.424001,eccentric,5,5.0,39147.0,393145.0,125286.0,3447.0,-145.0
2026-04-09 22:15:42.513360,297586,1872493697,1872494531,-0.962336,0.218624,0.025376,15.435,-0.3325,-4.57625,17.240002,-8.536,15.832001,eccentric,5,5.0,39147.0,393145.0,125286.0,3447.0,-145.0
2026-04-09 22:15:42.517864,297587,1872508153,1872509431,-0.962336,0.218624,0.025376,13.16875,-0.27125,-4.6725,17.240002,-8.536,15.832001,eccentric,5,5.0,39147.0,393145.0,125286.0,3447.0,-145.0
2026-04-09 22:15:42.519450,297588,1872517066,1872518145,-0.970144,0.206912,-0.081984,10.0975,0.41125,-2.05625,18.448,-8.408,14.816001,eccentric,5,5.0,39147.0,393145.0,125286.0,3447.0,-145.0
2026-04-09 22:15:42.527634,297589,1872525980,1872526865,-0.970144,0.206912,-0.081984,7.35,-0.455,-1.4,18.448,-8.408,14.816001,eccentric,5,5.0,39147.0,393145.0,125286.0,3447.0,-145.0
2026-04-09 22:15:42.554599,297590,1872540457,1872541893,-0.962336,0.181536,-0.035136,8.4,-1.925,-1.505,18.352001,-8.456,14.824,eccentric,5,5.0,39147.0,393145.0,125286.0,3447.0,-145.0
2026-04-09 22:15:42.582439,297600,1872549475,1872550638,-0.962336,0.181536,-0.035136,9.275,-2.61625,0.315,18.352001,-8.456,14.824,eccentric,5,5.0,38730.0,393264.0,124942.0,3430.0,-139.0
2026-04-09 22:15:42.584110,297601,1872558417,1872559479,-0.970144,0.226432,0.017568,8.995,-2.10875,2.695,18.096,-8.816,14.912001,eccentric,5,5.0,38730.0,393264.0,124942.0,3430.0,-139.0
2026-04-09 22:15:42.585673,297602,1872572946,1872574541,-0.940864,0.247904,-0.070272,8.3125,-0.805,3.92,17.36,-8.112,16.112001,eccentric,5,5.0,38730.0,393264.0,124942.0,3430.0,-139.0
2026-04-09 22:15:42.589928,297603,1872581897,1872583306,-0.940864,0.247904,-0.070272,7.07,1.4525,3.12375,17.36,-8.112,16.112001,eccentric,5,5.0,38730.0,393264.0,124942.0,3430.0,-139.0
2026-04-09 22:15:42.591516,297604,1872590855,1872592004,-0.940864,0.247904,-0.070272,2.5725,2.96625,1.93375,17.36,-8.112,16.112001,eccentric,5,5.0,38730.0,393264.0,124942.0,3430.0,-139.0
2026-04-09 22:15:42.623799,297605,1872605372,1872606891,-0.962336,0.17568,-0.011712,3.465,4.095,3.92875,18.560001,-8.512,15.704,eccentric,5,5.0,38730.0,393264.0,124942.0,3430.0,-139.0
2026-04-09 22:15:42.625367,297606,1872614303,1872615585,-0.958432,0.255712,0.00976,7.07875,4.92625,4.78625,18.800001,-8.736,14.488001,eccentric,5,5.0,38730.0,393264.0,124942.0,3430.0,-139.0
2026-04-09 22:15:42.626984,297607,1872623219,1872624297,-0.958432,0.255712,0.00976,8.3475,5.60875,5.7575,18.800001,-8.736,14.488001,eccentric,5,5.0,38730.0,393264.0,124942.0,3430.0,-139.0
2026-04-09 22:15:42.631047,297608,1872632124,1872633000,-0.958432,0.255712,0.00976,4.62,6.8075,5.0575,18.800001,-8.736,14.488001,eccentric,5,5.0,38730.0,393264.0,124942.0,3430.0,-139.0
2026-04-09 22:15:42.659628,297609,1872646591,1872647899,-0.948672,0.21472,-0.037088,0.95375,7.55125,6.48375,17.952002,-8.352,16.112001,eccentric,5,5.0,38730.0,393264.0,124942.0,3430.0,-139.0
2026-04-09 22:15:42.688918,297620,1872655629,1872657092,-1.001376,0.271328,-0.085888,2.5025,7.48125,8.2775,18.6,-8.68,15.008,eccentric,5,5.0,37352.0,396230.0,125499.0,3800.0,-142.0
2026-04-09 22:15:42.691614,297621,1872664541,1872665787,-1.001376,0.271328,-0.085888,3.40375,6.16875,7.84,18.6,-8.68,15.008,eccentric,5,5.0,37352.0,396230.0,125499.0,3800.0,-142.0
2026-04-09 22:15:42.693081,297622,1872679086,1872680730,-0.93696,0.203008,-0.037088,2.72125,5.03125,6.79875,18.912,-9.024,14.928,eccentric,5,5.0,37352.0,396230.0,125499.0,3800.0,-142.0
2026-04-09 22:15:42.697434,297623,1872688057,1872689502,-0.93696,0.203008,-0.037088,2.835,3.42125,8.2775,18.912,-9.024,14.928,eccentric,5,5.0,37352.0,396230.0,125499.0,3800.0,-142.0
2026-04-09 22:15:42.698987,297624,1872697052,1872698253,-0.952576,0.238144,0.001952,2.96625,1.26,12.41625,18.704,-8.88,14.808001,eccentric,5,5.0,37352.0,396230.0,125499.0,3800.0,-142.0
2026-04-09 22:15:42.729353,297625,1872711521,1872713180,-0.952576,0.238144,0.001952,0.6475,1.02375,14.91,18.704,-8.88,14.808001,eccentric,5,5.0,37352.0,396230.0,125499.0,3800.0,-142.0
2026-04-09 22:15:42.733749,297626,1872720445,1872721882,-0.938912,0.251808,-0.124928,0.2625,-0.4025,16.72125,18.904001,-9.176001,14.192,eccentric,5,5.0,37352.0,396230.0,125499.0,3800.0,-142.0
2026-04-09 22:15:42.735432,297627,1872729351,1872730559,-0.938912,0.251808,-0.124928,1.04125,-3.8675,16.31,18.904001,-9.176001,14.192,eccentric,5,5.0,37352.0,396230.0,125499.0,3800.0,-142.0
2026-04-09 22:15:42.764802,297628,1872743829,1872745489,-0.962336,0.261568,-0.0976,0.315,-7.805,16.52,19.488,-9.048,14.784,eccentric,5,5.0,37352.0,396230.0,125499.0,3800.0,-142.0
2026-04-09 22:15:42.793440,297638,1872753101,1872754273,-0.962336,0.261568,-0.050752,0.0525,-12.45125,19.04,19.488,-9.048,14.784,eccentric,5,5.0,37274.0,397376.0,126392.0,4084.0,-138.0
2026-04-09 22:15:42.797524,297639,1872762032,1872762982,-0.933056,0.240096,-0.0488,0.00875,-17.78875,20.475,19.560001,-8.624001,15.152,eccentric,5,5.0,37274.0,397376.0,126392.0,4084.0,-138.0
2026-04-09 22:15:42.799926,297640,1872771051,1872771698,-0.933056,0.240096,-0.0488,-0.69125,-21.9625,24.7975,19.560001,-8.624001,15.152,eccentric,5,5.0,37274.0,397376.0,126392.0,4084.0,-138.0
2026-04-09 22:15:42.817556,297641,1872785879,1872786678,-0.901824,0.314272,-0.046848,-0.56875,-22.9425,27.64125,19.28,-9.240001,15.304001,eccentric,5,5.0,37274.0,397376.0,126392.0,4084.0,-138.0
2026-04-09 22:15:42.819359,297642,1872795459,1872797525,-1.018944,0.300608,-0.037088,-0.93625,-21.98875,26.6525,19.848001,-9.584001,15.880001,eccentric,5,5.0,37274.0,397376.0,126392.0,4084.0,-138.0
2026-04-09 22:15:42.821628,297643,1872804402,1872806219,-1.018944,0.300608,-0.037088,1.085,-22.75,26.25875,19.848001,-9.584001,15.880001,eccentric,5,5.0,37274.0,397376.0,126392.0,4084.0,-138.0
2026-04-09 22:15:42.823211,297644,1872813371,1872814972,-1.018944,0.30256,-0.005856,5.565,-23.9575,26.25,19.848001,-9.584001,15.880001,eccentric,5,5.0,37274.0,397376.0,126392.0,4084.0,-138.0
2026-04-09 22:15:42.828583,297645,1872827858,1872829942,-0.933056,0.30256,-0.005856,7.81375,-24.84125,25.41875,19.712002,-9.456,16.056002,eccentric,5,5.0,37274.0,397376.0,126392.0,4084.0,-138.0
2026-04-09 22:15:42.857146,297646,1872836765,1872838692,-0.944768,0.366976,0.132736,9.09125,-24.36875,27.57125,19.704,-9.736,15.856001,eccentric,5,5.0,37274.0,397376.0,126392.0,4084.0,-138.0
2026-04-09 22:15:42.861696,297647,1872845689,1872847379,-0.944768,0.366976,0.132736,9.28375,-18.52375,28.805,19.704,-9.736,15.856001,eccentric,5,5.0,37274.0,397376.0,126392.0,4084.0,-138.0
2026-04-09 22:15:42.886545,297657,1872860780,1872862420,-0.89792,0.388448,0.160064,7.70875,-9.9575,26.5475,20.064001,-9.896001,16.504002,eccentric,5,5.0,38990.0,390680.0,123416.0,2980.0,-141.0
2026-04-09 22:15:42.889953,297658,1872869746,1872871153,-0.89792,0.388448,0.160064,7.91,0.175,25.33125,20.064001,-9.896001,16.504002,eccentric,5,5.0,38990.0,390680.0,123416.0,2980.0,-141.0
2026-04-09 22:15:42.891667,297659,1872878733,1872879863,-0.942816,0.347456,0.033184,9.10875,7.93625,21.16625,19.648,-9.696,16.672,eccentric,5,5.0,38990.0,390680.0,123416.0,2980.0,-141.0
2026-04-09 22:15:42.893243,297660,1872893242,1872894871,-0.942816,0.347456,0.033184,13.4225,12.3375,17.80625,19.648,-9.696,16.672,eccentric,5,5.0,38990.0,390680.0,123416.0,2980.0,-141.0
2026-04-09 22:15:42.924960,297661,1872902156,1872903594,-0.874496,0.398208,-0.03904,13.440001,14.2975,21.98875,19.536001,-10.144,17.880001,eccentric,5,5.0,38990.0,390680.0,123416.0,2980.0,-141.0
2026-04-09 22:15:42.927053,297662,1872911112,1872912311,-0.874496,0.398208,-0.03904,4.305,13.92125,21.315,19.536001,-10.144,17.880001,eccentric,5,5.0,38990.0,390680.0,123416.0,2980.0,-141.0
2026-04-09 22:15:42.931130,297663,1872920113,1872921012,-0.938912,0.36112,0.050752,-3.08,12.76625,22.91625,20.408,-10.440001,16.048,eccentric,5,5.0,38990.0,390680.0,123416.0,2980.0,-141.0
2026-04-09 22:15:42.934811,297664,1872934584,1872935904,-0.892064,0.464576,0.025376,-2.31,13.18625,28.04375,20.296001,-10.592001,15.080001,eccentric,5,5.0,38990.0,390680.0,123416.0,2980.0,-141.0
2026-04-09 22:15:42.963421,297665,1872943552,1872944599,-0.892064,0.464576,0.025376,1.21625,14.1925,29.365,20.296001,-10.592001,15.080001,eccentric,5,5.0,38990.0,390680.0,123416.0,2980.0,-141.0
2026-04-09 22:15:42.999182,297676,1872953038,1872953320,-0.892064,0.464576,0.025376,-1.47875,14.595,26.6525,20.296001,-10.592001,15.080001,eccentric,5,5.0,38202.0,391934.0,123326.0,3075.0,-137.0
2026-04-09 22:15:43.002136,297677,1872967747,1872968251,-0.940864,0.392352,-0.035136,-3.92,12.573751,25.5325,20.432001,-10.976001,15.672001,eccentric,5,5.0,38202.0,391934.0,123326.0,3075.0,-137.0
2026-04-09 22:15:43.005074,297678,1872977171,1872979016,-0.9272,0.402112,-0.070272,-1.93375,9.87,25.2875,20.656,-11.432,16.376001,eccentric,5,5.0,38202.0,391934.0,123326.0,3075.0,-137.0
2026-04-09 22:15:43.009819,297679,1872986226,1872987782,-0.9272,0.402112,-0.070272,0.245,5.4075,25.165,20.656,-11.432,16.376001,eccentric,5,5.0,38202.0,391934.0,123326.0,3075.0,-137.0
2026-04-09 22:15:43.009894,297680,1872995163,1872996498,-0.950624,0.489952,0.003904,2.765,0.69125,28.83125,20.776001,-11.576,15.992001,eccentric,5,5.0,38202.0,391934.0,123326.0,3075.0,-137.0
2026-04-09 22:15:43.012337,297681,1873009645,1873011402,-0.950624,0.489952,0.003904,6.405,-1.84625,30.31,20.776001,-11.576,15.992001,eccentric,5,5.0,38202.0,391934.0,123326.0,3075.0,-137.0
2026-04-09 22:15:43.018609,297682,1873018592,1873020151,-0.999424,0.491904,0.017568,4.73375,-2.3275,26.3375,19.976002,-11.704,18.496,eccentric,5,5.0,38202.0,391934.0,123326.0,3075.0,-137.0
2026-04-09 22:15:43.047188,297683,1873027624,1873028935,-0.999424,0.491904,0.017568,6.44,-1.9425,26.80125,19.976002,-11.704,18.496,eccentric,5,5.0,38202.0,391934.0,123326.0,3075.0,-137.0
2026-04-09 22:15:43.051655,297684,1873042123,1873043851,-0.91744,0.435296,0.011712,8.26875,-0.7875,26.48625,20.800001,-11.504001,16.472,eccentric,5,5.0,38202.0,391934.0,123326.0,3075.0,-137.0
2026-04-09 22:15:43.054195,297685,1873051095,1873052512,-0.91744,0.435296,0.011712,4.55875,0.525,24.71875,20.800001,-11.504001,16.472,eccentric,5,5.0,38202.0,391934.0,123326.0,3075.0,-137.0
2026-04-09 22:15:43.079917,297695,1873060053,1873061296,-1.118496,0.593408,0.052704,0.8225,-0.175,27.8075,21.192001,-11.632001,16.616001,eccentric,5,5.0,37082.0,395915.0,124873.0,3635.0,-147.0
2026-04-09 22:15:43.082220,297696,1873069077,1873070142,-1.118496,0.593408,0.052704,-0.875,-0.6825,33.32,21.192001,-11.632001,16.616001,eccentric,5,5.0,37082.0,395915.0,124873.0,3635.0,-147.0
2026-04-09 22:15:43.084787,297697,1873083576,1873085071,-1.00528,0.511424,-0.0488,-1.6975,-0.00875,29.19,20.44,-11.920001,17.856,eccentric,5,5.0,37082.0,395915.0,124873.0,3635.0,-147.0
2026-04-09 22:15:43.114377,297698,1873092497,1873093778,-1.00528,0.511424,-0.0488,-3.3075,-1.21625,22.2425,20.44,-11.920001,17.856,eccentric,5,5.0,37082.0,395915.0,124873.0,3635.0,-147.0
2026-04-09 22:15:43.116680,297699,1873101513,1873102464,-1.038464,0.454816,0.042944,0.805,-0.7525,22.33875,21.792002,-11.752001,17.192001,eccentric,5,5.0,37082.0,395915.0,124873.0,3635.0,-147.0
2026-04-09 22:15:43.121200,297700,1873115997,1873117405,-0.976,0.513376,0.072224,4.1125,0.42,24.75375,21.256,-12.464001,17.208,eccentric,5,5.0,37082.0,395915.0,124873.0,3635.0,-147.0
2026-04-09 22:15:43.124824,297701,1873124892,1873126129,-0.976,0.513376,0.072224,-0.63,3.28125,26.46875,21.256,-12.464001,17.208,eccentric,5,5.0,37082.0,395915.0,124873.0,3635.0,-147.0
2026-04-09 22:15:43.153441,297702,1873133884,1873134825,-0.976,0.513376,0.072224,-7.35875,4.9,26.53,21.256,-12.464001,17.208,eccentric,5,5.0,37082.0,395915.0,124873.0,3635.0,-147.0
2026-04-09 22:15:43.157978,297703,1873148375,1873149717,-1.179008,0.657824,0.001952,-3.325,4.55875,26.53875,21.36,-12.68,17.592001,eccentric,5,5.0,37082.0,395915.0,124873.0,3635.0,-147.0
2026-04-09 22:15:43.187113,297713,1873157394,1873158413,-1.0248,0.476288,-0.10736,6.335,3.2725,28.35,21.632002,-12.120001,17.480001,eccentric,5,5.0,36660.0,398122.0,126042.0,4032.0,-151.0
2026-04-09 22:15:43.191349,297714,1873166388,1873167155,-1.0248,0.476288,-0.10736,1.505,0.945,18.52375,21.632002,-12.120001,17.480001,eccentric,5,5.0,36660.0,398122.0,126042.0,4032.0,-151.0
2026-04-09 22:15:43.192904,297715,1873175789,1873177930,-1.09312,0.488,0.05856,2.05625,-1.32125,17.675,21.424002,-12.552001,18.264,eccentric,5,5.0,36660.0,398122.0,126042.0,4032.0,-151.0
2026-04-09 22:15:43.194578,297716,1873190313,1873190874,-1.09312,0.488,0.05856,9.5375,-2.135,20.41375,21.424002,-12.552001,18.264,eccentric,5,5.0,36660.0,398122.0,126042.0,4032.0,-151.0
2026-04-09 22:15:43.201141,297717,1873199827,1873201697,-1.01504,0.466528,0.060512,6.85125,-0.39375,21.5425,21.376001,-12.712001,18.808,eccentric,5,5.0,36660.0,398122.0,126042.0,4032.0,-151.0
2026-04-09 22:15:43.229590,297718,1873208843,1873210432,-1.01504,0.466528,0.060512,-1.89875,1.11125,25.515,21.376001,-12.712001,18.808,eccentric,5,5.0,36660.0,398122.0,126042.0,4032.0,-151.0
2026-04-09 22:15:43.234195,297719,1873223382,1873225342,-1.118496,0.61488,0.033184,-5.31125,1.25125,27.991251,22.832,-12.376,17.84,eccentric,5,5.0,36660.0,398122.0,126042.0,4032.0,-151.0
2026-04-09 22:15:43.235747,297720,1873232309,1873234027,-1.118496,0.61488,0.033184,0.72625,0.1225,31.40375,22.832,-12.376,17.84,eccentric,5,5.0,36660.0,398122.0,126042.0,4032.0,-151.0
2026-04-09 22:15:43.243902,297721,1873241242,1873242732,-1.056032,0.513376,-0.111264,-0.69125,-1.7675,26.985,22.888,-13.448001,17.880001,eccentric,5,5.0,36660.0,398122.0,126042.0,4032.0,-151.0
2026-04-09 22:15:43.270942,297722,1873250178,1873251468,-1.056032,0.513376,-0.111264,0.7,-5.145,24.73625,22.888,-13.448001,17.880001,eccentric,5,5.0,36660.0,398122.0,126042.0,4032.0,-151.0
2026-04-09 22:15:43.298723,297732,1873264739,1873267002,-1.036512,0.488,0.003904,10.17625,-9.1,25.61125,23.304,-13.712001,18.048,eccentric,5,5.0,36425.0,400096.0,127310.0,4501.0,-150.0
2026-04-09 22:15:43.300449,297733,1873273676,1873275709,-1.036512,0.488,0.003904,14.6125,-11.7425,26.32875,23.304,-13.712001,18.048,eccentric,5,5.0,36425.0,400096.0,127310.0,4501.0,-150.0
2026-04-09 22:15:43.302003,297734,1873282824,1873284450,-1.046272,0.56608,0.052704,12.3375,-13.41375,28.0175,23.104002,-13.64,18.424002,eccentric,5,5.0,36425.0,400096.0,127310.0,4501.0,-150.0
2026-04-09 22:15:43.306239,297735,1873297359,1873299355,-1.04432,0.55632,0.02928,10.1325,-12.775,27.44,22.928001,-12.896001,20.864,eccentric,5,5.0,36425.0,400096.0,127310.0,4501.0,-150.0
2026-04-09 22:15:43.309158,297736,1873306442,1873308076,-1.04432,0.55632,0.02928,10.89375,-11.2,26.005,22.928001,-12.896001,20.864,eccentric,5,5.0,36425.0,400096.0,127310.0,4501.0,-150.0
2026-04-09 22:15:43.314852,297737,1873315403,1873316793,-1.04432,0.55632,0.015616,11.165,-9.38,21.9625,22.928001,-12.896001,20.864,eccentric,5,5.0,36425.0,400096.0,127310.0,4501.0,-150.0
2026-04-09 22:15:43.346380,297738,1873329942,1873331698,-1.03456,0.530944,0.015616,12.74875,-8.49625,20.405,22.368002,-13.488001,23.024,eccentric,5,5.0,36425.0,400096.0,127310.0,4501.0,-150.0
2026-04-09 22:15:43.347956,297739,1873338866,1873340386,-1.042368,0.538752,0.076128,13.1425,-8.2775,19.1625,23.912,-14.056001,19.432001,eccentric,5,5.0,36425.0,400096.0,127310.0,4501.0,-150.0
2026-04-09 22:15:43.349509,297740,1873347796,1873349055,-1.042368,0.538752,0.076128,13.55375,-7.81375,18.2875,23.912,-14.056001,19.432001,eccentric,5,5.0,36425.0,400096.0,127310.0,4501.0,-150.0
2026-04-09 22:15:43.415008,297751,1873356828,1873357838,-1.036512,0.562176,0.027328,13.1075,-7.77875,18.05125,22.464,-14.224001,20.224,eccentric,5,5.0,36975.0,401359.0,129413.0,5196.0,-148.0
2026-04-09 22:15:43.426300,297752,1873371435,1873372833,-1.036512,0.562176,0.027328,10.50875,-8.3475,16.8875,22.464,-14.224001,20.224,eccentric,5,5.0,36975.0,401359.0,129413.0,5196.0,-148.0
2026-04-09 22:15:43.427915,297753,1873380361,1873381534,-1.007232,0.499712,-0.015616,8.46125,-8.505,15.82,22.824001,-13.968,20.512001,eccentric,5,5.0,36975.0,401359.0,129413.0,5196.0,-148.0
2026-04-09 22:15:43.429512,297754,1873389329,1873390294,-1.007232,0.499712,-0.015616,7.48125,-9.2575,14.4725,22.824001,-13.968,20.512001,eccentric,5,5.0,36975.0,401359.0,129413.0,5196.0,-148.0
2026-04-09 22:15:43.433705,297755,1873403798,1873405207,-1.0248,0.562176,0.06832,11.76,-10.68375,14.0,24.384,-14.448001,19.960001,eccentric,5,5.0,36975.0,401359.0,129413.0,5196.0,-148.0
2026-04-09 22:15:43.435478,297756,1873412803,1873413892,-1.0248,0.562176,0.06832,16.0825,-11.8125,12.495,24.384,-14.448001,19.960001,eccentric,5,5.0,36975.0,401359.0,129413.0,5196.0,-148.0
2026-04-09 22:15:43.437874,297757,1873421727,1873422559,-1.04432,0.54656,0.042944,16.7125,-12.7575,9.7825,24.824001,-14.504001,20.032001,eccentric,5,5.0,36975.0,401359.0,129413.0,5196.0,-148.0
2026-04-09 22:15:43.439471,297758,1873436275,1873437525,-1.028704,0.456768,0.056608,14.84875,-13.4225,8.19,24.824001,-14.504001,21.616001,eccentric,5,5.0,36975.0,401359.0,129413.0,5196.0,-148.0
2026-04-09 22:15:43.444854,297759,1873445217,1873446286,-1.028704,0.456768,0.056608,11.2875,-13.335,7.1575,23.896002,-14.272,21.616001,eccentric,5,5.0,36975.0,401359.0,129413.0,5196.0,-148.0
2026-04-09 22:15:43.473434,297760,1873454136,1873454965,-1.028704,0.456768,0.056608,10.07125,-11.480001,8.75875,23.896002,-14.272,21.616001,eccentric,5,5.0,36975.0,401359.0,129413.0,5196.0,-148.0
2026-04-09 22:15:43.500376,297770,1873463057,1873463737,-1.057984,0.505568,0.066368,11.0775,-9.695,11.0775,24.68,-14.72,21.656,eccentric,5,5.0,37975.0,401467.0,130540.0,5378.0,-138.0
2026-04-09 22:15:43.501975,297771,1873477906,1873478718,-1.042368,0.489952,0.040992,9.03,-7.9975,11.025,25.128,-14.272,21.488,eccentric,5,5.0,37975.0,401467.0,130540.0,5378.0,-138.0
2026-04-09 22:15:43.506229,297772,1873486905,1873487405,-1.042368,0.489952,0.040992,7.48125,-6.3875,9.695,25.128,-14.272,21.488,eccentric,5,5.0,37975.0,401467.0,130540.0,5378.0,-138.0
2026-04-09 22:15:43.507948,297773,1873496520,1873498236,-1.040416,0.486048,0.037088,8.05,-5.62625,8.05,25.128,-14.272,21.2,eccentric,5,5.0,37975.0,401467.0,130540.0,5378.0,-138.0
2026-04-09 22:15:43.509859,297774,1873511169,1873513242,-1.040416,0.486048,0.037088,9.09125,-5.24125,7.00875,24.408,-14.504001,21.2,eccentric,5,5.0,37975.0,401467.0,130540.0,5378.0,-138.0
2026-04-09 22:15:43.540619,297775,1873520090,1873521947,-1.04432,0.484096,0.066368,9.8,-5.005,5.94125,25.448002,-14.984001,21.52,eccentric,5,5.0,37975.0,401467.0,130540.0,5378.0,-138.0
2026-04-09 22:15:43.543003,297776,1873529030,1873530619,-1.04432,0.484096,0.066368,8.6625,-4.78625,4.87375,25.448002,-14.984001,21.52,eccentric,5,5.0,37975.0,401467.0,130540.0,5378.0,-138.0
2026-04-09 22:15:43.547961,297777,1873537945,1873539353,-1.018944,0.44896,0.05856,5.73125,-3.395,3.14125,25.536001,-14.472001,22.056002,eccentric,5,5.0,37975.0,401467.0,130540.0,5378.0,-138.0
2026-04-09 22:15:43.553818,297778,1873552409,1873554253,-1.018944,0.44896,0.05856,2.52875,-2.485,1.61,25.536001,-14.472001,22.056002,eccentric,5,5.0,37975.0,401467.0,130540.0,5378.0,-138.0
2026-04-09 22:15:43.577911,297788,1873561372,1873562998,-1.04432,0.413824,0.033184,2.205,-2.485,0.56,26.008001,-14.784,21.688002,eccentric,5,5.0,38606.0,399339.0,128911.0,4628.0,-136.0
2026-04-09 22:15:43.579510,297789,1873570338,1873571786,-1.04432,0.413824,0.033184,2.6425,-3.29875,-0.07,26.008001,-14.784,21.688002,eccentric,5,5.0,38606.0,399339.0,128911.0,4628.0,-136.0
2026-04-09 22:15:43.586553,297790,1873584834,1873586728,-1.04432,0.415776,0.033184,5.36375,-4.01625,-0.35,25.808,-14.584001,21.992,eccentric,5,5.0,38606.0,399339.0,128911.0,4628.0,-136.0
2026-04-09 22:15:43.616874,297791,1873593768,1873595466,-1.04432,0.415776,0.033184,7.8925,-3.52625,-1.0325,25.808,-14.584001,21.992,eccentric,5,5.0,38606.0,399339.0,128911.0,4628.0,-136.0
2026-04-09 22:15:43.621046,297792,1873602695,1873604148,-1.028704,0.425536,0.080032,7.6475,-3.43875,-2.02125,25.624,-14.704,23.160002,eccentric,5,5.0,38606.0,399339.0,128911.0,4628.0,-136.0
2026-04-09 22:15:43.630948,297793,1873617163,1873619084,-1.042368,0.40016,0.044896,8.417501,-3.3075,-3.56125,25.624,-14.864,22.072,eccentric,5,5.0,38606.0,399339.0,128911.0,4628.0,-136.0
2026-04-09 22:15:43.632880,297794,1873626054,1873627841,-1.042368,0.40016,0.044896,6.57125,-2.75625,-5.45125,25.480001,-14.864,22.072,eccentric,5,5.0,38606.0,399339.0,128911.0,4628.0,-136.0
2026-04-09 22:15:43.647403,297795,1873635004,1873636515,-1.042368,0.40016,0.044896,5.17125,-2.765,-6.51875,25.480001,-14.864,22.072,eccentric,5,5.0,38606.0,399339.0,128911.0,4628.0,-136.0
2026-04-09 22:15:43.668926,297796,1873649503,1873651412,-1.03456,0.35136,0.052704,4.36625,-2.16125,-6.4575,24.792002,-15.016001,22.144001,eccentric,5,5.0,38606.0,399339.0,128911.0,4628.0,-136.0
2026-04-09 22:15:43.696889,297807,1873658978,1873660245,-1.03456,0.357216,0.056608,2.6075,-1.42625,-6.01125,25.608002,-15.376,22.2,eccentric,5,5.0,39223.0,396026.0,127151.0,3900.0,-134.0
2026-04-09 22:15:43.699396,297808,1873667903,1873668995,-1.03456,0.357216,0.056608,2.555,-0.6475,-4.43625,25.608002,-15.376,22.2,eccentric,5,5.0,39223.0,396026.0,127151.0,3900.0,-134.0
2026-04-09 22:15:43.701871,297809,1873676811,1873677675,-1.03456,0.357216,0.060512,1.74125,-0.32375,-3.1325,25.608002,-15.376,22.2,eccentric,5,5.0,39223.0,396026.0,127151.0,3900.0,-134.0
2026-04-09 22:15:43.704430,297810,1873691392,1873692571,-1.030656,0.366976,0.060512,0.86625,0.91875,-2.84375,26.248001,-14.976001,22.632002,eccentric,5,5.0,39223.0,396026.0,127151.0,3900.0,-134.0
2026-04-09 22:15:43.706871,297811,1873700324,1873701314,-1.026752,0.325984,0.042944,-0.665,2.0475,-4.06,25.784,-15.064001,22.768002,eccentric,5,5.0,39223.0,396026.0,127151.0,3900.0,-134.0
2026-04-09 22:15:43.709395,297812,1873709296,1873710055,-1.026752,0.325984,0.042944,-1.79375,2.9225,-4.31375,25.784,-15.064001,22.768002,eccentric,5,5.0,39223.0,396026.0,127151.0,3900.0,-134.0
2026-04-09 22:15:43.739696,297813,1873718768,1873720848,-1.04432,0.349408,0.035136,-1.84625,3.15875,-3.59625,26.04,-15.120001,21.544,eccentric,5,5.0,39223.0,396026.0,127151.0,3900.0,-134.0
2026-04-09 22:15:43.743145,297814,1873733274,1873733709,-1.04432,0.349408,0.035136,-0.97125,3.535,-2.58125,26.04,-15.120001,21.544,eccentric,5,5.0,39223.0,396026.0,127151.0,3900.0,-134.0
2026-04-09 22:15:43.745635,297815,1873742571,1873744465,-1.016992,0.35136,0.037088,0.28875,3.15,-3.6575,25.784,-15.320001,22.368002,eccentric,5,5.0,39223.0,396026.0,127151.0,3900.0,-134.0
2026-04-09 22:15:43.750696,297816,1873751571,1873753166,-1.016992,0.35136,0.037088,1.33,3.36,-4.8825,25.784,-15.320001,22.368002,eccentric,5,5.0,39223.0,396026.0,127151.0,3900.0,-134.0
2026-04-09 22:15:43.778313,297826,1873766609,1873768353,-1.009184,0.349408,0.044896,1.68,4.165,-6.11625,25.712002,-15.464001,23.720001,eccentric,5,5.0,39270.0,395828.0,127044.0,3876.0,-149.0
2026-04-09 22:15:43.780731,297827,1873775629,1873777075,-1.009184,0.349408,0.044896,0.98875,4.55875,-7.88375,25.712002,-15.464001,23.720001,eccentric,5,5.0,39270.0,395828.0,127044.0,3876.0,-149.0
2026-04-09 22:15:43.783529,297828,1873784635,1873785827,-1.026752,0.329888,0.052704,0.30625,5.73125,-9.3275,25.472002,-15.376,23.320002,concentric,5,5.0,39270.0,395828.0,127044.0,3876.0,-149.0
2026-04-09 22:15:43.813325,297829,1873793569,1873794544,-1.026752,0.329888,0.052704,0.02625,6.7025,-10.36,25.472002,-15.376,23.320002,concentric,5,5.0,39270.0,395828.0,127044.0,3876.0,-149.0
2026-04-09 22:15:43.816928,297830,1873808072,1873809443,-1.0248,0.320128,0.005856,0.07875,6.85125,-11.68125,25.320002,-15.232,22.344002,concentric,5,5.0,39270.0,395828.0,127044.0,3876.0,-149.0
2026-04-09 22:15:43.819448,297831,1873816967,1873818122,-1.0248,0.320128,0.005856,2.8175,6.65,-12.1275,25.320002,-15.232,22.344002,concentric,5,5.0,39270.0,395828.0,127044.0,3876.0,-149.0
2026-04-09 22:15:43.823182,297832,1873825904,1873826864,-1.020896,0.37088,0.013664,5.0575,6.22125,-13.195,25.472002,-14.52,22.544,concentric,5,5.0,39270.0,395828.0,127044.0,3876.0,-149.0
2026-04-09 22:15:43.858440,297833,1873840412,1873841768,-1.011136,0.38064,0.03904,5.94125,6.23875,-15.14625,25.904001,-14.312,22.088001,concentric,5,5.0,39270.0,395828.0,127044.0,3876.0,-149.0
2026-04-09 22:15:43.861966,297834,1873849309,1873850468,-1.011136,0.38064,0.03904,6.2475,6.7725,-18.62875,25.904001,-14.312,22.088001,concentric,5,5.0,39270.0,395828.0,127044.0,3876.0,-149.0
2026-04-09 22:15:43.889486,297844,1873858256,1873859141,-1.036512,0.36112,0.00976,4.935,7.42,-21.06125,25.904001,-14.704,21.776001,concentric,5,5.0,39849.0,394566.0,126771.0,3651.0,-138.0
2026-04-09 22:15:43.891938,297845,1873872846,1873874114,-1.036512,0.36112,0.00976,3.7975,8.30375,-23.02125,25.984001,-14.704,21.776001,concentric,5,5.0,39849.0,394566.0,126771.0,3651.0,-138.0
2026-04-09 22:15:43.894440,297846,1873881888,1873882931,-1.06384,0.355264,-0.011712,4.6725,8.5575,-24.08875,24.976002,-14.200001,23.472002,concentric,5,5.0,39849.0,394566.0,126771.0,3651.0,-138.0
2026-04-09 22:15:43.896936,297847,1873890955,1873891667,-1.06384,0.355264,-0.011712,7.58625,8.40875,-24.43,24.976002,-14.200001,23.472002,concentric,5,5.0,39849.0,394566.0,126771.0,3651.0,-138.0
2026-04-09 22:15:43.899461,297848,1873900275,1873902488,-1.071648,0.357216,-0.001952,9.42375,7.245,-23.87875,24.880001,-13.736001,23.344002,concentric,5,5.0,39849.0,394566.0,126771.0,3651.0,-138.0
2026-04-09 22:15:43.930047,297849,1873914870,1873915348,-1.071648,0.357216,-0.001952,11.6725,6.02875,-23.49375,24.880001,-13.736001,23.344002,concentric,5,5.0,39849.0,394566.0,126771.0,3651.0,-138.0
2026-04-09 22:15:43.933170,297850,1873924217,1873926130,-1.081408,0.445056,0.044896,13.7025,5.87125,-23.63375,25.872002,-13.496,21.184002,concentric,5,5.0,39849.0,394566.0,126771.0,3651.0,-138.0
2026-04-09 22:15:43.935691,297851,1873933248,1873934828,-1.081408,0.445056,0.044896,11.8125,7.07,-25.7075,25.872002,-13.496,21.184002,concentric,5,5.0,39849.0,394566.0,126771.0,3651.0,-138.0
2026-04-09 22:15:43.965858,297852,1873947745,1873949731,-1.077504,0.445056,0.046848,6.7025,10.19375,-29.04125,25.744001,-14.024001,20.616001,concentric,5,5.0,39849.0,394566.0,126771.0,3651.0,-138.0
2026-04-09 22:15:43.994377,297863,1873956729,1873958845,-1.077504,0.445056,0.046848,2.68625,12.88,-31.6225,25.744001,-14.024001,20.616001,concentric,5,5.0,39908.0,395874.0,127716.0,3915.0,-144.0
2026-04-09 22:15:43.996940,297864,1873965688,1873967560,-1.089216,0.417728,0.017568,0.0875,15.28625,-33.60875,25.624,-13.192,20.208,concentric,5,5.0,39908.0,395874.0,127716.0,3915.0,-144.0
2026-04-09 22:15:43.999515,297865,1873974610,1873976260,-1.089216,0.417728,0.017568,0.18375,15.6625,-34.615,25.624,-13.192,20.208,concentric,5,5.0,39908.0,395874.0,127716.0,3915.0,-144.0
2026-04-09 22:15:44.001961,297866,1873989169,1873991251,-1.097024,0.437248,-0.044896,2.12625,14.67375,-35.58625,24.176,-12.728001,21.776001,concentric,5,5.0,39908.0,395874.0,127716.0,3915.0,-144.0
2026-04-09 22:15:44.004466,297867,1873998097,1873999997,-1.097024,0.437248,-0.001952,5.11875,13.34375,-38.045002,24.176,-12.728001,21.776001,concentric,5,5.0,39908.0,395874.0,127716.0,3915.0,-144.0
2026-04-09 22:15:44.006920,297868,1874007058,1874008786,-1.116544,0.44896,-0.001952,8.11125,11.99625,-39.576252,24.800001,-12.512001,21.288,concentric,5,5.0,39908.0,395874.0,127716.0,3915.0,-144.0
2026-04-09 22:15:44.037576,297869,1874021597,1874023689,-1.067744,0.45872,0.119072,10.64,11.8475,-41.22125,25.024002,-12.208,19.616001,concentric,5,5.0,39908.0,395874.0,127716.0,3915.0,-144.0
2026-04-09 22:15:44.041393,297870,1874030510,1874032368,-1.067744,0.45872,0.119072,9.87875,13.615,-42.95375,25.024002,-12.208,19.616001,concentric,5,5.0,39908.0,395874.0,127716.0,3915.0,-144.0
2026-04-09 22:15:44.043826,297871,1874039489,1874041110,-1.104832,0.450912,0.044896,6.11625,16.56375,-44.56375,25.104002,-11.464001,20.808,concentric,5,5.0,39908.0,395874.0,127716.0,3915.0,-144.0
2026-04-09 22:15:44.073456,297872,1874054016,1874056028,-1.104832,0.450912,0.044896,0.69125,19.705,-45.61375,25.104002,-11.464001,20.808,concentric,5,5.0,39908.0,395874.0,127716.0,3915.0,-144.0
2026-04-09 22:15:44.102048,297882,1874063113,1874064786,-1.081408,0.445056,-0.013664,-1.47875,20.39625,-45.85,24.872002,-11.328,18.816,concentric,5,5.0,40056.0,396934.0,128523.0,4138.0,-137.0
2026-04-09 22:15:44.108291,297883,1874072072,1874073522,-1.081408,0.445056,-0.013664,-1.435,19.41625,-46.0425,24.872002,-11.328,18.816,concentric,5,5.0,40056.0,396934.0,128523.0,4138.0,-137.0
2026-04-09 22:15:44.110713,297884,1874080997,1874082193,-1.097024,0.433344,-0.01952,0.63,17.675,-45.0975,25.240002,-11.416,18.704,concentric,5,5.0,40056.0,396934.0,128523.0,4138.0,-137.0
2026-04-09 22:15:44.113268,297885,1874095545,1874097143,-1.097024,0.433344,-0.01952,2.94875,15.70625,-44.7825,25.240002,-11.416,18.704,concentric,5,5.0,40056.0,396934.0,128523.0,4138.0,-137.0
2026-04-09 22:15:44.115739,297886,1874104602,1874105873,-1.069696,0.472384,0.03904,5.41625,14.48125,-44.12625,23.76,-11.152,18.488,concentric,5,5.0,40056.0,396934.0,128523.0,4138.0,-137.0
2026-04-09 22:15:44.118236,297887,1874113555,1874114624,-1.069696,0.472384,0.03904,8.02375,14.315001,-44.7475,23.76,-11.152,18.488,concentric,5,5.0,40056.0,396934.0,128523.0,4138.0,-137.0
2026-04-09 22:15:44.148393,297888,1874128113,1874129535,-1.071648,0.491904,0.099552,7.81375,14.5075,-46.41875,23.160002,-10.808001,19.256,concentric,5,5.0,40056.0,396934.0,128523.0,4138.0,-137.0
2026-04-09 22:15:44.152023,297889,1874137051,1874138227,-1.071648,0.491904,0.099552,4.69875,15.2775,-47.94125,23.160002,-10.808001,19.256,concentric,5,5.0,40056.0,396934.0,128523.0,4138.0,-137.0
2026-04-09 22:15:44.154472,297890,1874145967,1874146955,-1.11264,0.486048,0.040992,0.91,16.5725,-49.0,24.488,-10.696,17.336,concentric,5,5.0,40056.0,396934.0,128523.0,4138.0,-137.0
2026-04-09 22:15:44.179373,297900,1874160866,1874162137,-1.10288,0.45872,0.046848,2.6425,18.83875,-49.42875,23.864,-10.288,16.904001,concentric,5,5.0,40253.0,396615.0,128417.0,4009.0,-143.0
2026-04-09 22:15:44.181937,297901,1874169934,1874170904,-1.10288,0.45872,0.046848,2.03875,21.8225,-51.3275,23.864,-10.288,16.904001,concentric,5,5.0,40253.0,396615.0,128417.0,4009.0,-143.0
2026-04-09 22:15:44.184446,297902,1874178979,1874179618,-1.10288,0.427488,0.10736,0.4025,25.22625,-52.08,23.864,-10.288,16.904001,concentric,5,5.0,40253.0,396615.0,128417.0,4009.0,-143.0
2026-04-09 22:15:44.187020,297903,1874188227,1874190444,-1.097024,0.427488,0.10736,2.1175,27.43125,-52.61375,23.36,-9.912001,17.12,concentric,5,5.0,40253.0,396615.0,128417.0,4009.0,-143.0
2026-04-09 22:15:44.217185,297904,1874202745,1874203324,-1.126304,0.398208,-0.076128,-2.02125,27.895,-52.85875,24.208002,-9.448001,17.688002,concentric,5,5.0,40253.0,396615.0,128417.0,4009.0,-143.0
2026-04-09 22:15:44.220784,297905,1874211950,1874214076,-1.126304,0.398208,-0.076128,-7.49875,25.31375,-50.09375,24.208002,-9.448001,17.688002,concentric,5,5.0,40253.0,396615.0,128417.0,4009.0,-143.0
2026-04-09 22:15:44.223332,297906,1874220864,1874222756,-1.095072,0.423584,-0.07808,-7.63875,20.3525,-48.06375,22.68,-9.328,16.08,concentric,5,5.0,40253.0,396615.0,128417.0,4009.0,-143.0
2026-04-09 22:15:44.253441,297907,1874235392,1874237630,-1.095072,0.423584,-0.07808,-3.59625,14.9975,-46.55,22.68,-9.328,16.08,concentric,5,5.0,40253.0,396615.0,128417.0,4009.0,-143.0
2026-04-09 22:15:44.257019,297908,1874244336,1874246359,-1.079456,0.433344,-0.037088,0.105,11.27875,-46.17375,22.576,-9.152,16.168001,concentric,5,5.0,40253.0,396615.0,128417.0,4009.0,-143.0
2026-04-09 22:15:44.259495,297909,1874253361,1874255072,-1.079456,0.433344,-0.037088,3.56125,9.1175,-46.24375,22.576,-9.152,16.168001,concentric,5,5.0,40253.0,396615.0,128417.0,4009.0,-143.0
2026-04-09 22:15:44.289472,297920,1874262460,1874263771,-1.042368,0.460672,0.105408,7.9975,10.2375,-47.95875,22.352001,-8.752001,16.68,concentric,5,5.0,39688.0,396709.0,127993.0,4034.0,-145.0
2026-04-09 22:15:44.291993,297921,1874277125,1874278756,-1.042368,0.460672,0.105408,8.68875,11.261251,-49.6125,22.352001,-8.752001,16.68,concentric,5,5.0,39688.0,396709.0,127993.0,4034.0,-145.0
2026-04-09 22:15:44.294436,297922,1874286174,1874287532,-1.059936,0.421632,-0.017568,2.3975,12.88875,-51.065,22.008001,-8.616,16.192001,concentric,5,5.0,39688.0,396709.0,127993.0,4034.0,-145.0
2026-04-09 22:15:44.296912,297923,1874295108,1874296264,-1.059936,0.421632,-0.017568,-6.55375,12.60875,-52.12375,22.008001,-8.616,16.192001,concentric,5,5.0,39688.0,396709.0,127993.0,4034.0,-145.0
2026-04-09 22:15:44.327250,297924,1874309603,1874311207,-1.08336,0.366976,-0.0976,-7.56875,11.34,-53.3925,22.184002,-8.480001,16.232,concentric,5,5.0,39688.0,396709.0,127993.0,4034.0,-145.0
2026-04-09 22:15:44.330694,297925,1874318532,1874319909,-1.08336,0.366976,-0.0976,-3.8325,8.21625,-51.9925,22.184002,-8.480001,16.232,concentric,5,5.0,39688.0,396709.0,127993.0,4034.0,-145.0
2026-04-09 22:15:44.333209,297926,1874327459,1874328662,-1.071648,0.398208,-0.046848,0.5075,4.9175,-51.0125,22.664001,-7.944,15.352001,concentric,5,5.0,39688.0,396709.0,127993.0,4034.0,-145.0
2026-04-09 22:15:44.364186,297927,1874341936,1874343635,-1.065792,0.396256,0.040992,1.3125,2.56375,-51.9575,21.272001,-7.296001,15.912001,concentric,5,5.0,39688.0,396709.0,127993.0,4034.0,-145.0
2026-04-09 22:15:44.367683,297928,1874350869,1874352342,-1.065792,0.396256,0.040992,0.42,2.2225,-52.66625,21.272001,-7.296001,15.912001,concentric,5,5.0,39688.0,396709.0,127993.0,4034.0,-145.0
2026-04-09 22:15:44.409613,297938,1874359770,1874361127,-1.065792,0.365024,0.021472,-1.2075,4.4625,-51.91375,21.272001,-7.296001,15.912001,concentric,5,5.0,39211.0,398505.0,128867.0,4434.0,-140.0
2026-04-09 22:15:44.412026,297939,1874368700,1874369831,-1.059936,0.365024,0.021472,-6.65875,6.20375,-52.52625,21.456001,-7.648,15.472001,concentric,5,5.0,39211.0,398505.0,128867.0,4434.0,-140.0
2026-04-09 22:15:44.414417,297940,1874383289,1874384761,-1.079456,0.355264,-0.085888,-12.48625,6.8425,-52.03625,21.184002,-6.768,16.664001,concentric,5,5.0,39211.0,398505.0,128867.0,4434.0,-140.0
2026-04-09 22:15:44.416995,297941,1874392204,1874393482,-1.079456,0.355264,-0.085888,-12.71375,5.705,-50.925,21.184002,-6.768,16.664001,concentric,5,5.0,39211.0,398505.0,128867.0,4434.0,-140.0
2026-04-09 22:15:44.419536,297942,1874401132,1874402225,-1.136064,0.36112,-0.103456,-8.855001,4.2875,-51.03875,20.304,-7.272,15.032001,concentric,5,5.0,39211.0,398505.0,128867.0,4434.0,-140.0
2026-04-09 22:15:44.422016,297943,1874415639,1874417152,-1.136064,0.36112,-0.103456,-4.43625,2.205,-49.9975,20.304,-7.272,15.032001,concentric,5,5.0,39211.0,398505.0,128867.0,4434.0,-140.0
2026-04-09 22:15:44.424482,297944,1874424572,1874425896,-1.1224,0.339648,0.017568,-1.785,2.09125,-49.857502,20.592001,-7.256001,16.376001,concentric,5,5.0,39211.0,398505.0,128867.0,4434.0,-140.0
2026-04-09 22:15:44.454714,297945,1874433502,1874434596,-1.1224,0.339648,0.017568,-1.19,2.9225,-49.455,20.592001,-7.256001,16.376001,concentric,5,5.0,39211.0,398505.0,128867.0,4434.0,-140.0
2026-04-09 22:15:44.458531,297946,1874447989,1874449461,-1.110688,0.300608,-0.007808,-4.445,3.91125,-49.06125,21.032001,-6.928001,15.504001,concentric,5,5.0,39211.0,398505.0,128867.0,4434.0,-140.0
2026-04-09 22:15:44.460769,297947,1874456895,1874458133,-1.110688,0.300608,-0.007808,-7.7875,5.2325,-47.6875,21.032001,-6.928001,15.504001,concentric,5,5.0,39211.0,398505.0,128867.0,4434.0,-140.0
2026-04-09 22:15:44.488228,297957,1874465915,1874466918,-1.095072,0.333792,-0.0488,-6.18625,7.27125,-45.78,20.312,-6.184001,15.408001,concentric,5,5.0,38328.0,399554.0,128874.0,4646.0,-137.0
2026-04-09 22:15:44.490792,297958,1874480479,1874481940,-1.048224,0.294752,-0.089792,-4.90875,9.135,-47.88,20.312,-6.184001,14.960001,concentric,5,5.0,38328.0,399554.0,128874.0,4646.0,-137.0
2026-04-09 22:15:44.493212,297959,1874489406,1874490714,-1.05408,0.294752,-0.089792,-4.0075,11.97,-48.65875,20.76,-5.92,14.960001,concentric,5,5.0,38328.0,399554.0,128874.0,4646.0,-137.0
2026-04-09 22:15:44.497027,297960,1874498335,1874499432,-1.05408,0.294752,-0.089792,-4.03375,14.0,-48.93875,20.76,-5.92,14.960001,concentric,5,5.0,38328.0,399554.0,128874.0,4646.0,-137.0
2026-04-09 22:15:44.529040,297961,1874507311,1874508131,-1.067744,0.255712,-0.054656,-5.06625,15.505,-47.53875,20.344002,-5.896,15.712001,concentric,5,5.0,38328.0,399554.0,128874.0,4646.0,-137.0
2026-04-09 22:15:44.530696,297962,1874521793,1874523071,-1.067744,0.257664,-0.171776,-5.53,16.03,-46.13,20.144001,-6.256001,15.200001,concentric,5,5.0,38328.0,399554.0,128874.0,4646.0,-137.0
2026-04-09 22:15:44.533304,297963,1874530709,1874531794,-1.067744,0.257664,-0.171776,-4.75125,14.70875,-44.05625,20.144001,-6.256001,15.200001,concentric,5,5.0,38328.0,399554.0,128874.0,4646.0,-137.0
2026-04-09 22:15:44.538276,297964,1874539622,1874540492,-1.067744,0.257664,-0.171776,-3.45625,12.22375,-43.732502,20.144001,-6.256001,15.200001,concentric,5,5.0,38328.0,399554.0,128874.0,4646.0,-137.0
2026-04-09 22:15:44.568466,297965,1874554092,1874555421,-1.050176,0.244,-0.089792,-0.2975,10.5,-43.05875,19.584002,-5.592001,17.2,concentric,5,5.0,38328.0,399554.0,128874.0,4646.0,-137.0
2026-04-09 22:15:44.598291,297976,1874563056,1874564418,-1.001376,0.244,-0.06832,3.745,9.30125,-42.91875,19.848001,-5.84,14.72,concentric,5,5.0,36767.0,399950.0,127539.0,4450.0,-151.0
2026-04-09 22:15:44.599471,297977,1874572052,1874573142,-1.001376,0.244,-0.06832,3.71,10.07125,-43.732502,19.848001,-5.84,14.72,concentric,5,5.0,36767.0,399950.0,127539.0,4450.0,-151.0
2026-04-09 22:15:44.602953,297978,1874586537,1874588141,-1.056032,0.222528,-0.091744,-0.595,11.55,-43.84625,17.768002,-5.32,15.368001,concentric,5,5.0,36767.0,399950.0,127539.0,4450.0,-151.0
2026-04-09 22:15:44.605597,297979,1874595537,1874596934,-1.056032,0.222528,-0.091744,-2.68625,10.8325,-42.27125,17.768002,-5.32,15.368001,concentric,5,5.0,36767.0,399950.0,127539.0,4450.0,-151.0
2026-04-09 22:15:44.607297,297980,1874604542,1874605630,-1.06384,0.203008,-0.122976,0.30625,9.45,-41.44875,17.648,-5.488,15.304001,concentric,5,5.0,36767.0,399950.0,127539.0,4450.0,-151.0
2026-04-09 22:15:44.610686,297981,1874613486,1874614363,-1.06384,0.203008,-0.122976,1.82875,8.1375,-42.8225,17.648,-5.488,15.304001,concentric,5,5.0,36767.0,399950.0,127539.0,4450.0,-151.0
2026-04-09 22:15:44.640981,297982,1874627964,1874629272,-0.972096,0.15616,-0.01952,3.815,7.93625,-42.74375,18.648,-4.568,14.592001,concentric,5,5.0,36767.0,399950.0,127539.0,4450.0,-151.0
2026-04-09 22:15:44.644520,297983,1874636901,1874637950,-0.972096,0.15616,-0.01952,2.07375,10.12375,-44.66,18.648,-4.568,14.592001,concentric,5,5.0,36767.0,399950.0,127539.0,4450.0,-151.0
2026-04-09 22:15:44.646733,297984,1874645812,1874646674,-1.067744,0.181536,0.060512,-1.12,12.64375,-42.77875,19.336,-4.776,14.552001,concentric,5,5.0,36767.0,399950.0,127539.0,4450.0,-151.0
2026-04-09 22:15:44.684906,297985,1874660295,1874661551,-1.067744,0.181536,0.060512,-8.82875,12.64375,-41.8775,19.336,-4.776,14.552001,concentric,5,5.0,36767.0,399950.0,127539.0,4450.0,-151.0
2026-04-09 22:15:44.709460,297995,1874669329,1874670335,-0.952576,0.124928,-0.308416,-16.695,7.42,-41.825,18.768002,-5.016,14.912001,concentric,5,5.0,36514.0,400642.0,127934.0,4628.0,-139.0
2026-04-09 22:15:44.711978,297996,1874678262,1874679038,-0.952576,0.124928,-0.308416,-17.38625,1.14625,-44.205,18.768002,-5.016,14.912001,concentric,5,5.0,36514.0,400642.0,127934.0,4628.0,-139.0
2026-04-09 22:15:44.714485,297997,1874692749,1874693902,-1.089216,-0.01952,-0.212768,-6.30875,-6.825,-40.9325,18.248001,-4.672,14.240001,concentric,5,5.0,36514.0,400642.0,127934.0,4628.0,-139.0
2026-04-09 22:15:44.716960,297998,1874701729,1874702739,-0.96624,0.199104,0.138592,17.605,-13.615,-34.4925,17.936,-4.824,16.0,concentric,5,5.0,36514.0,400642.0,127934.0,4628.0,-139.0
2026-04-09 22:15:44.719524,297999,1874710780,1874711485,-0.96624,0.199104,0.138592,30.07375,-14.533751,-33.25,17.936,-4.824,16.0,concentric,5,5.0,36514.0,400642.0,127934.0,4628.0,-139.0
2026-04-09 22:15:44.722000,298000,1874720147,1874722254,-0.96624,0.199104,0.138592,22.88125,-8.89,-34.62375,17.936,-4.824,16.0,concentric,5,5.0,36514.0,400642.0,127934.0,4628.0,-139.0
2026-04-09 22:15:44.752256,298001,1874734683,1874735128,-0.952576,0.154208,0.197152,5.55625,1.925,-36.9775,17.944,-4.232,12.616,concentric,5,5.0,36514.0,400642.0,127934.0,4628.0,-139.0
2026-04-09 22:15:44.755772,298002,1874744021,1874745919,-1.0736,0.128832,-0.124928,-7.6825,11.6025,-37.0825,18.616001,-4.304,13.696001,concentric,5,5.0,36514.0,400642.0,127934.0,4628.0,-139.0
2026-04-09 22:15:44.758226,298003,1874752951,1874754616,-1.0736,0.128832,-0.124928,-12.355001,16.7125,-38.47375,18.616001,-4.304,13.696001,concentric,5,5.0,36514.0,400642.0,127934.0,4628.0,-139.0
2026-04-09 22:15:44.783217,298013,1874767632,1874769640,-1.036512,0.056608,-0.128832,-6.5625,17.24625,-39.62875,17.320002,-3.824,14.864,concentric,5,5.0,37724.0,400451.0,128975.0,4806.0,-143.0
2026-04-09 22:15:44.785753,298014,1874776580,1874778398,-1.036512,0.056608,-0.128832,2.94,16.26625,-40.6175,17.320002,-3.824,14.864,concentric,5,5.0,37724.0,400451.0,128975.0,4806.0,-143.0
2026-04-09 22:15:44.788214,298015,1874785544,1874787109,-0.991616,0.00976,0.121024,4.99625,16.49375,-37.9925,16.720001,-3.424,14.736001,concentric,5,5.0,37724.0,400451.0,128975.0,4806.0,-143.0
2026-04-09 22:15:44.819679,298016,1874800064,1874802022,-0.991616,0.00976,0.121024,-4.445,18.655,-33.9325,16.720001,-3.424,14.736001,concentric,5,5.0,37724.0,400451.0,128975.0,4806.0,-143.0
2026-04-09 22:15:44.823330,298017,1874808988,1874810735,-0.952576,0.064416,-0.031232,-18.34,18.71625,-31.395,17.664001,-4.056,10.944,concentric,5,5.0,37724.0,400451.0,128975.0,4806.0,-143.0
2026-04-09 22:15:44.825831,298018,1874817908,1874819485,-0.952576,0.064416,-0.031232,-27.09,17.92,-33.73125,17.664001,-4.056,10.944,concentric,5,5.0,37724.0,400451.0,128975.0,4806.0,-143.0
2026-04-09 22:15:44.828255,298019,1874826873,1874828172,-1.001376,-0.001952,-0.167872,-31.77125,16.1,-37.0825,17.552,-4.176,13.744,concentric,5,5.0,37724.0,400451.0,128975.0,4806.0,-143.0
2026-04-09 22:15:44.858488,298020,1874841393,1874843108,-1.001376,-0.001952,-0.17568,-22.79375,11.865,-35.2625,17.552,-4.176,13.744,concentric,5,5.0,37724.0,400451.0,128975.0,4806.0,-143.0
2026-04-09 22:15:44.862055,298021,1874850303,1874851796,-0.976,0.040992,-0.17568,-4.76,6.7725,-31.17625,17.632,-3.528,16.752,concentric,5,5.0,37724.0,400451.0,128975.0,4806.0,-143.0
2026-04-09 22:15:44.864452,298022,1874859255,1874860470,-0.976,0.040992,-0.17568,4.76,3.7975,-31.1325,17.632,-3.528,16.752,concentric,5,5.0,37724.0,400451.0,128975.0,4806.0,-143.0
2026-04-09 22:15:44.892036,298033,1874873855,1874875629,-0.88816,-0.103456,0.101504,1.18125,2.77375,-30.44125,17.320002,-3.344,13.632001,concentric,5,5.0,38397.0,400206.0,129330.0,4745.0,-143.0
2026-04-09 22:15:44.896264,298034,1874882804,1874884405,-0.96624,0.115168,-0.052704,-3.01,3.82375,-24.8675,17.384,-3.872,12.992001,concentric,5,5.0,38397.0,400206.0,129330.0,4745.0,-143.0
2026-04-09 22:15:44.897870,298035,1874891880,1874893135,-0.96624,0.115168,-0.052704,-3.00125,3.78,-24.17625,17.384,-3.872,12.992001,concentric,5,5.0,38397.0,400206.0,129330.0,4745.0,-143.0
2026-04-09 22:15:44.928992,298036,1874906383,1874908082,-0.8784,-0.062464,-0.130784,-3.64,0.98875,-28.39375,17.6,-3.76,13.488001,concentric,5,5.0,38397.0,400206.0,129330.0,4745.0,-143.0
2026-04-09 22:15:44.930739,298037,1874915395,1874916768,-0.8784,-0.062464,-0.130784,-1.72375,-0.9275,-33.62625,17.6,-3.76,13.488001,concentric,5,5.0,38397.0,400206.0,129330.0,4745.0,-143.0
2026-04-09 22:15:44.938809,298038,1874924327,1874925519,-0.962336,-0.0976,-0.01952,1.75,-0.9975,-31.8675,17.256,-3.16,13.472001,concentric,5,5.0,38397.0,400206.0,129330.0,4745.0,-143.0
2026-04-09 22:15:44.941254,298039,1874933256,1874934205,-0.962336,-0.0976,-0.01952,1.68,-1.7325,-25.445,17.256,-3.16,13.472001,concentric,5,5.0,38397.0,400206.0,129330.0,4745.0,-143.0
2026-04-09 22:15:44.969689,298040,1874947797,1874949134,-0.860832,0.025376,-0.095648,3.22,-3.17625,-19.48625,16.2,-3.408,14.336,concentric,5,5.0,38397.0,400206.0,129330.0,4745.0,-143.0
2026-04-09 22:15:44.974290,298041,1874956725,1874957826,-0.860832,0.025376,-0.095648,6.2475,-5.355,-22.53125,16.2,-3.408,14.336,concentric,5,5.0,38397.0,400206.0,129330.0,4745.0,-143.0
2026-04-09 22:15:44.999296,298051,1874966305,1874966673,-0.862784,-0.050752,0.080032,6.3175,-5.95,-29.19875,17.160002,-3.048,13.400001,concentric,5,5.0,38968.0,391654.0,123825.0,2934.0,-148.0
2026-04-09 22:15:45.002192,298052,1874981130,1874981673,-0.862784,-0.050752,0.080032,11.24375,-4.43625,-26.145,17.160002,-3.048,13.400001,concentric,5,5.0,38968.0,391654.0,123825.0,2934.0,-148.0
2026-04-09 22:15:45.005089,298053,1874990643,1874992536,-0.933056,0.083936,-0.042944,15.435,-1.93375,-23.24,16.072,-3.048,12.152,concentric,5,5.0,38968.0,391654.0,123825.0,2934.0,-148.0
2026-04-09 22:15:45.007054,298054,1874999669,1875001275,-0.933056,0.083936,-0.042944,12.1275,-0.2275,-20.9475,16.072,-3.048,12.152,concentric,5,5.0,38968.0,391654.0,123825.0,2934.0,-148.0
2026-04-09 22:15:45.009364,298055,1875008643,1875010070,-0.938912,-0.1464,-0.1952,3.045,-1.1025,-20.37875,16.496,-3.032,14.840001,concentric,5,5.0,38968.0,391654.0,123825.0,2934.0,-148.0
2026-04-09 22:15:45.038483,298056,1875023214,1875024972,-0.895968,-0.01952,0.033184,-4.0775,-5.6,-19.495,16.952002,-3.192,14.744,concentric,5,5.0,38968.0,391654.0,123825.0,2934.0,-148.0
2026-04-09 22:15:45.041974,298057,1875032161,1875033687,-0.895968,-0.01952,0.033184,4.165,-8.56625,-15.79375,16.952002,-3.192,14.744,concentric,5,5.0,38968.0,391654.0,123825.0,2934.0,-148.0
2026-04-09 22:15:45.044473,298058,1875041102,1875042387,-0.895968,-0.01952,0.033184,19.7575,-7.34125,-15.365,16.952002,-3.192,14.744,concentric,5,5.0,38968.0,391654.0,123825.0,2934.0,-148.0
2026-04-09 22:15:45.074786,298059,1875055660,1875057337,-0.823744,0.119072,0.208864,19.7575,-0.6125,-16.47625,16.960001,-2.896,13.160001,concentric,5,5.0,38968.0,391654.0,123825.0,2934.0,-148.0
2026-04-09 22:15:45.100741,298069,1875064835,1875066094,-1.04432,-0.064416,-0.154208,-0.42875,7.02625,-17.56125,17.696001,-3.04,13.736001,concentric,5,5.0,38329.0,391283.0,122915.0,2844.0,-148.0
2026-04-09 22:15:45.103148,298070,1875073833,1875074926,-1.04432,-0.064416,-0.154208,-17.255,11.445,-14.0,17.696001,-3.04,13.736001,concentric,5,5.0,38329.0,391283.0,122915.0,2844.0,-148.0
2026-04-09 22:15:45.105709,298071,1875082751,1875083606,-0.942816,-0.181536,-0.286944,-18.22625,6.685,-12.11,17.696001,-3.04,15.344001,concentric,5,5.0,38329.0,391283.0,122915.0,2844.0,-148.0
2026-04-09 22:15:45.108173,298072,1875097376,1875098572,-0.942816,-0.181536,-0.286944,-8.88125,-1.25125,-9.94,16.728,-3.36,15.344001,concentric,5,5.0,38329.0,391283.0,122915.0,2844.0,-148.0
2026-04-09 22:15:45.110713,298073,1875106375,1875107256,-0.935008,-0.017568,0.05856,7.175,-8.95125,-4.1475,17.512001,-3.08,14.192,concentric,5,5.0,38329.0,391283.0,122915.0,2844.0,-148.0
2026-04-09 22:15:45.113170,298074,1875115318,1875115989,-0.935008,-0.017568,0.05856,20.16,-11.725,-0.8575,17.512001,-3.08,14.192,concentric,5,5.0,38329.0,391283.0,122915.0,2844.0,-148.0
