pc_time,serial_num,sensor_ts,host_ts,ax,ay,az,gx,gy,gz,mx,my,mz,phase,rpe,weight_kg,ppg_a,ppg_b,ppg_c,ppg_d,ppg_e
2026-04-09 22:15:50.487290,299071,1880466314,1880468185,-0.913536,-0.080032,-0.111264,8.58375,-1.77625,-1.4875,17.208,-4.336,13.328001,eccentric,5,5.0,33298.0,403431.0,139054.0,10791.0,-138.0
2026-04-09 22:15:50.491878,299072,1880475197,1880476896,-0.913536,-0.080032,-0.111264,7.6475,-0.00875,0.21,17.208,-4.336,13.328001,eccentric,5,5.0,33298.0,403431.0,139054.0,10791.0,-138.0
2026-04-09 22:15:50.493358,299073,1880484088,1880485582,-0.913536,-0.080032,-0.111264,4.96125,0.97125,1.0675,17.208,-4.336,13.328001,eccentric,5,5.0,33298.0,403431.0,139054.0,10791.0,-138.0
2026-04-09 22:15:50.520205,299083,1880498740,1880500565,-0.964288,0.101504,0.03904,9.555,3.12375,4.2175,16.936,-4.84,13.592001,eccentric,5,5.0,32864.0,403431.0,138052.0,10226.0,-136.0
2026-04-09 22:15:50.522381,299084,1880507729,1880509332,-0.948672,0.056608,0.021472,10.17625,6.72875,1.7325,16.088001,-4.56,14.344001,eccentric,5,5.0,32864.0,403431.0,138052.0,10226.0,-136.0
2026-04-09 22:15:50.523497,299085,1880516657,1880518074,-0.948672,0.056608,0.021472,3.92,10.3425,-1.82875,16.088001,-4.56,14.344001,eccentric,5,5.0,32864.0,403431.0,138052.0,10226.0,-136.0
2026-04-09 22:15:50.531288,299086,1880531179,1880533067,-0.968192,-0.01952,-0.25376,-1.925,11.97875,-0.49875,16.424002,-5.248,13.440001,eccentric,5,5.0,32864.0,403431.0,138052.0,10226.0,-136.0
2026-04-09 22:15:50.559890,299087,1880540104,1880541811,-0.968192,-0.01952,-0.25376,-5.95,8.61875,0.25375,16.424002,-5.248,13.440001,eccentric,5,5.0,32864.0,403431.0,138052.0,10226.0,-136.0
2026-04-09 22:15:50.564392,299088,1880549026,1880550513,-0.940864,-0.06832,-0.103456,-7.35875,4.8125,2.0125,17.368,-4.712,13.056001,eccentric,5,5.0,32864.0,403431.0,138052.0,10226.0,-136.0
2026-04-09 22:15:50.566755,299089,1880557939,1880559193,-0.940864,-0.06832,-0.103456,-0.0525,1.5925,6.34375,17.368,-4.712,13.056001,eccentric,5,5.0,32864.0,403431.0,138052.0,10226.0,-136.0
2026-04-09 22:15:50.572621,299090,1880572432,1880574206,-0.923296,0.13664,0.017568,10.85,0.525,9.5025,17.312,-4.664,14.408001,eccentric,5,5.0,32864.0,403431.0,138052.0,10226.0,-136.0
2026-04-09 22:15:50.602231,299091,1880581354,1880582927,-0.923296,0.13664,0.017568,11.445,1.3825,8.7675,17.312,-4.664,14.408001,eccentric,5,5.0,32864.0,403431.0,138052.0,10226.0,-136.0
2026-04-09 22:15:50.607014,299092,1880590313,1880591612,-0.94672,0.052704,-0.066368,5.10125,3.29875,7.245,17.216002,-4.904,12.896001,eccentric,5,5.0,32864.0,403431.0,138052.0,10226.0,-136.0
2026-04-09 22:15:50.629735,299102,1880604836,1880606554,-0.94672,0.052704,-0.18544,-1.4175,3.77125,5.25875,17.216002,-4.904,12.896001,eccentric,5,5.0,32534.0,403431.0,137918.0,10215.0,-135.0
2026-04-09 22:15:50.633958,299103,1880613783,1880615255,-0.935008,-0.033184,-0.18544,-3.255,2.8175,6.04625,17.176,-4.784,13.52,eccentric,5,5.0,32534.0,403431.0,137918.0,10215.0,-135.0
2026-04-09 22:15:50.635718,299104,1880622815,1880623978,-0.935008,-0.033184,-0.18544,-0.63875,1.33,9.45875,17.176,-4.784,13.52,eccentric,5,5.0,32534.0,403431.0,137918.0,10215.0,-135.0
2026-04-09 22:15:50.637234,299105,1880637292,1880638922,-0.952576,0.085888,-0.033184,3.68375,-0.0525,12.20625,16.272001,-4.736,15.392001,eccentric,5,5.0,32534.0,403431.0,137918.0,10215.0,-135.0
2026-04-09 22:15:50.668299,299106,1880646176,1880647634,-0.880352,0.109312,-0.042944,6.85125,0.4025,14.9975,15.944001,-4.936,15.648001,eccentric,5,5.0,32534.0,403431.0,137918.0,10215.0,-135.0
2026-04-09 22:15:50.670592,299107,1880655111,1880656358,-0.880352,0.109312,-0.042944,5.45125,1.84625,12.8275,15.944001,-4.936,15.648001,eccentric,5,5.0,32534.0,403431.0,137918.0,10215.0,-135.0
2026-04-09 22:15:50.675156,299108,1880669541,1880671301,-0.933056,0.021472,-0.10736,-2.98375,1.8375,9.82625,17.264,-4.984,13.328001,eccentric,5,5.0,32534.0,403431.0,137918.0,10215.0,-135.0
2026-04-09 22:15:50.678809,299109,1880678451,1880679997,-0.933056,0.021472,-0.10736,-5.73125,2.3625,11.165,17.264,-4.984,13.328001,eccentric,5,5.0,32534.0,403431.0,137918.0,10215.0,-135.0
2026-04-09 22:15:50.707423,299110,1880687395,1880688746,-0.970144,0.13664,-0.040992,-3.045,3.815,11.0075,16.216002,-5.384,14.744,eccentric,5,5.0,32534.0,403431.0,137918.0,10215.0,-135.0
2026-04-09 22:15:50.739671,299121,1880696316,1880697501,-0.970144,0.13664,-0.040992,1.25125,6.3525,14.07,16.216002,-5.384,14.744,eccentric,5,5.0,31804.0,403431.0,136845.0,9781.0,-158.0
2026-04-09 22:15:50.742163,299122,1880710832,1880712482,-0.91744,0.081984,-0.03904,2.275,8.14625,14.42,17.048,-5.232,13.048,eccentric,5,5.0,31804.0,403431.0,136845.0,9781.0,-158.0
2026-04-09 22:15:50.744656,299123,1880719751,1880721239,-0.91744,0.081984,-0.03904,-3.395,9.86125,12.0575,17.048,-5.232,13.048,eccentric,5,5.0,31804.0,403431.0,136845.0,9781.0,-158.0
2026-04-09 22:15:50.747150,299124,1880728864,1880729958,-0.958432,0.105408,-0.130784,-5.15375,10.0275,15.28625,17.816,-5.168,13.288001,eccentric,5,5.0,31804.0,403431.0,136845.0,9781.0,-158.0
2026-04-09 22:15:50.749663,299125,1880743400,1880744967,-0.958432,0.105408,-0.130784,-7.35,9.80875,15.54875,17.816,-5.168,13.288001,eccentric,5,5.0,31804.0,403431.0,136845.0,9781.0,-158.0
2026-04-09 22:15:50.752172,299126,1880752415,1880753667,-0.972096,0.115168,-0.27328,-7.1575,5.76625,16.96625,17.28,-4.952,14.664001,eccentric,5,5.0,31804.0,403431.0,136845.0,9781.0,-158.0
2026-04-09 22:15:50.762292,299127,1880761380,1880762414,-0.972096,0.115168,-0.27328,0.86625,0.18375,16.415,17.28,-4.952,14.664001,eccentric,5,5.0,31804.0,403431.0,136845.0,9781.0,-158.0
2026-04-09 22:15:50.791106,299128,1880775865,1880777329,-0.960384,0.072224,-0.05856,7.1225,-4.025,15.46125,17.608002,-6.008,13.68,eccentric,5,5.0,31804.0,403431.0,136845.0,9781.0,-158.0
2026-04-09 22:15:50.794704,299129,1880784781,1880786019,-0.960384,0.072224,-0.05856,9.84375,-5.845,20.37875,17.608002,-6.008,13.68,eccentric,5,5.0,31804.0,403431.0,136845.0,9781.0,-158.0
2026-04-09 22:15:50.797175,299130,1880793663,1880794746,-1.018944,0.247904,0.050752,9.6425,-5.46875,23.87,18.272001,-5.824,13.744,eccentric,5,5.0,31804.0,403431.0,136845.0,9781.0,-158.0
2026-04-09 22:15:50.826054,299140,1880808178,1880809748,-1.05408,0.140544,-0.171776,4.83875,-3.045,23.49375,17.584002,-6.152,13.064001,eccentric,5,5.0,31402.0,403431.0,135829.0,9290.0,-153.0
2026-04-09 22:15:50.832153,299141,1880817129,1880818507,-1.05408,0.140544,-0.171776,-8.33875,-2.1175,21.8225,17.584002,-6.152,13.064001,eccentric,5,5.0,31402.0,403431.0,135829.0,9290.0,-153.0
2026-04-09 22:15:50.834685,299142,1880826133,1880827230,-1.05408,0.113216,-0.080032,-12.73125,-4.15625,23.905,17.584002,-6.152,13.064001,eccentric,5,5.0,31402.0,403431.0,135829.0,9290.0,-153.0
2026-04-09 22:15:50.837610,299143,1880835151,1880836014,-0.997472,0.113216,-0.080032,-5.46,-5.10125,24.255,18.376001,-6.016,13.368001,eccentric,5,5.0,31402.0,403431.0,135829.0,9290.0,-153.0
2026-04-09 22:15:50.867439,299144,1880849743,1880850970,-1.026752,0.247904,0.005856,0.0875,-5.52125,27.2475,18.624,-6.672,13.752001,eccentric,5,5.0,31402.0,403431.0,135829.0,9290.0,-153.0
2026-04-09 22:15:50.870986,299145,1880858631,1880859705,-1.026752,0.247904,0.005856,5.04875,-5.075,29.49625,18.624,-6.672,13.752001,eccentric,5,5.0,31402.0,403431.0,135829.0,9290.0,-153.0
2026-04-09 22:15:50.873418,299146,1880867554,1880868383,-1.077504,0.201056,-0.105408,-0.9275,-3.29,29.53125,18.720001,-6.568,13.920001,eccentric,5,5.0,31402.0,403431.0,135829.0,9290.0,-153.0
2026-04-09 22:15:50.903658,299147,1880882114,1880883278,-1.077504,0.201056,-0.105408,-10.28125,-3.395,30.28375,18.720001,-6.568,13.920001,eccentric,5,5.0,31402.0,403431.0,135829.0,9290.0,-153.0
2026-04-09 22:15:50.908230,299148,1880891028,1880891978,-1.00528,0.124928,-0.167872,-14.06125,-5.88875,29.46125,18.640001,-6.648,14.784,eccentric,5,5.0,31402.0,403431.0,135829.0,9290.0,-153.0
2026-04-09 22:15:50.933178,299158,1880900565,1880902869,-1.00528,0.124928,-0.167872,-8.7675,-7.84875,30.68625,18.640001,-6.648,14.784,eccentric,5,5.0,31524.0,403431.0,136303.0,9585.0,-146.0
2026-04-09 22:15:50.934751,299159,1880909532,1880911594,-1.042368,0.25376,-0.01952,0.3675,-10.955,35.56,19.008001,-7.008,13.928,eccentric,5,5.0,31524.0,403431.0,136303.0,9585.0,-146.0
2026-04-09 22:15:50.939056,299160,1880924107,1880924489,-1.042368,0.25376,-0.01952,5.38125,-12.36375,36.9425,19.008001,-7.008,13.928,eccentric,5,5.0,31524.0,403431.0,136303.0,9585.0,-146.0
2026-04-09 22:15:50.940771,299161,1880933417,1880935289,-0.987712,0.228384,0.015616,-1.40875,-13.04625,35.0875,19.424002,-7.216001,14.52,eccentric,5,5.0,31524.0,403431.0,136303.0,9585.0,-146.0
2026-04-09 22:15:50.942210,299162,1880942420,1880944035,-0.987712,0.228384,0.015616,-8.0325,-13.2825,37.1525,19.424002,-7.216001,14.52,eccentric,5,5.0,31524.0,403431.0,136303.0,9585.0,-146.0
2026-04-09 22:15:50.973338,299163,1880956958,1880958945,-1.071648,0.288896,-0.093696,-7.63,-12.005,37.73875,19.76,-8.088,14.336,eccentric,5,5.0,31524.0,403431.0,136303.0,9585.0,-146.0
2026-04-09 22:15:50.975632,299164,1880965879,1880967657,-1.071648,0.288896,-0.093696,-4.1475,-12.792501,37.9575,19.76,-8.088,14.336,eccentric,5,5.0,31524.0,403431.0,136303.0,9585.0,-146.0
2026-04-09 22:15:50.980214,299165,1880974831,1880976360,-1.09312,0.27328,-0.187392,2.42375,-17.68375,36.8725,19.952002,-8.288,14.952001,eccentric,5,5.0,31524.0,403431.0,136303.0,9585.0,-146.0
2026-04-09 22:15:51.009757,299166,1880989333,1880991256,-1.016992,0.197152,0.042944,12.8625,-21.58625,34.7375,19.608002,-7.648,16.0,eccentric,5,5.0,31524.0,403431.0,136303.0,9585.0,-146.0
2026-04-09 22:15:51.044003,299177,1880998264,1881000570,-1.016992,0.197152,0.042944,16.24875,-22.295,33.34625,19.608002,-7.648,16.0,eccentric,5,5.0,31877.0,403431.0,138300.0,10657.0,-140.0
2026-04-09 22:15:51.045699,299178,1881007228,1881009273,-1.04432,0.366976,0.050752,14.81375,-21.647501,38.07125,19.608002,-8.064,13.624001,eccentric,5,5.0,31877.0,403431.0,138300.0,10657.0,-140.0
2026-04-09 22:15:51.047257,299179,1881016160,1881017965,-1.04432,0.366976,0.050752,9.7825,-19.08375,40.11,20.376001,-8.064,13.624001,eccentric,5,5.0,31877.0,403431.0,138300.0,10657.0,-140.0
2026-04-09 22:15:51.051493,299180,1881030695,1881032929,-1.040416,0.335744,0.031232,4.15625,-14.58625,38.955,20.808,-8.328,15.584001,eccentric,5,5.0,31877.0,403431.0,138300.0,10657.0,-140.0
2026-04-09 22:15:51.053198,299181,1881039687,1881041689,-1.040416,0.335744,0.031232,-1.6275,-9.94,36.2775,20.808,-8.328,15.584001,eccentric,5,5.0,31877.0,403431.0,138300.0,10657.0,-140.0
2026-04-09 22:15:51.055339,299182,1881048620,1881050414,-1.042368,0.324032,-0.070272,-3.4125,-7.04375,35.23625,20.776001,-8.648001,13.584001,eccentric,5,5.0,31877.0,403431.0,138300.0,10657.0,-140.0
2026-04-09 22:15:51.079763,299183,1881063181,1881065345,-1.042368,0.324032,-0.070272,-0.97125,-6.53625,34.30875,20.776001,-8.648001,13.584001,eccentric,5,5.0,31877.0,403431.0,138300.0,10657.0,-140.0
2026-04-09 22:15:51.082498,299184,1881072175,1881074045,-1.016992,0.306464,-0.03904,2.1525,-7.56,34.08125,20.832,-9.088,15.696001,eccentric,5,5.0,31877.0,403431.0,138300.0,10657.0,-140.0
2026-04-09 22:15:51.085522,299185,1881081103,1881082728,-1.016992,0.306464,-0.03904,2.485,-7.665,35.74375,20.832,-9.088,15.696001,eccentric,5,5.0,31877.0,403431.0,138300.0,10657.0,-140.0
2026-04-09 22:15:51.114941,299186,1881095642,1881097667,-1.104832,0.382592,0.0488,0.7175,-6.895,37.37125,20.336,-8.944,16.888,eccentric,5,5.0,31877.0,403431.0,138300.0,10657.0,-140.0
2026-04-09 22:15:51.140950,299196,1881104588,1881106407,-1.104832,0.382592,0.0488,0.8575,-7.105,39.305,20.336,-8.944,16.888,eccentric,5,5.0,31795.0,403431.0,139523.0,11487.0,-149.0
2026-04-09 22:15:51.143419,299197,1881113519,1881115111,-1.032608,0.406016,-0.0488,2.695,-7.9275,39.4275,21.400002,-9.536,15.864,eccentric,5,5.0,31795.0,403431.0,139523.0,11487.0,-149.0
2026-04-09 22:15:51.145904,299198,1881122457,1881123806,-1.032608,0.406016,-0.0488,-2.75625,-8.82,34.5275,21.400002,-9.536,15.864,eccentric,5,5.0,31795.0,403431.0,139523.0,11487.0,-149.0
2026-04-09 22:15:51.148505,299199,1881136958,1881138774,-1.042368,0.357216,-0.013664,-3.99,-10.386251,34.763752,21.576,-9.432,15.920001,eccentric,5,5.0,31795.0,403431.0,139523.0,11487.0,-149.0
2026-04-09 22:15:51.150953,299200,1881145932,1881147501,-1.042368,0.357216,-0.013664,0.00875,-10.7625,35.34125,21.576,-9.432,15.920001,eccentric,5,5.0,31795.0,403431.0,139523.0,11487.0,-149.0
2026-04-09 22:15:51.153444,299201,1881154863,1881156251,-1.01504,0.38064,-0.00976,-0.3325,-10.89375,35.53375,22.144001,-9.904,16.504002,eccentric,5,5.0,31795.0,403431.0,139523.0,11487.0,-149.0
2026-04-09 22:15:51.183699,299202,1881169331,1881171165,-1.09312,0.489952,0.044896,-3.10625,-10.92,35.3675,22.640001,-9.8,16.392,eccentric,5,5.0,31795.0,403431.0,139523.0,11487.0,-149.0
2026-04-09 22:15:51.187229,299203,1881178263,1881179848,-1.09312,0.489952,0.044896,0.0175,-11.0775,35.07,22.640001,-9.8,16.392,eccentric,5,5.0,31795.0,403431.0,139523.0,11487.0,-149.0
2026-04-09 22:15:51.189694,299204,1881187177,1881188596,-1.09312,0.489952,0.044896,1.365,-12.18,31.605,22.640001,-9.8,16.392,eccentric,5,5.0,31795.0,403431.0,139523.0,11487.0,-149.0
2026-04-09 22:15:51.249589,299214,1881202311,1881203713,-1.097024,0.40992,-0.050752,-0.02625,-14.4375,28.60375,22.064001,-9.944,16.76,eccentric,5,5.0,31916.0,403431.0,140373.0,12029.0,-139.0
2026-04-09 22:15:51.252163,299215,1881211322,1881212449,-1.071648,0.33184,-0.01952,0.7175,-15.89875,27.44,22.528002,-10.232,17.016,eccentric,5,5.0,31916.0,403431.0,140373.0,12029.0,-139.0
2026-04-09 22:15:51.254711,299216,1881220224,1881221180,-1.071648,0.33184,-0.01952,-0.58625,-15.575,28.63875,22.528002,-10.232,17.016,eccentric,5,5.0,31916.0,403431.0,140373.0,12029.0,-139.0
2026-04-09 22:15:51.257153,299217,1881229145,1881229861,-1.079456,0.4392,0.01952,-0.62125,-15.91625,31.15,23.056002,-10.768001,17.656,eccentric,5,5.0,31916.0,403431.0,140373.0,12029.0,-139.0
2026-04-09 22:15:51.259672,299218,1881244100,1881244831,-1.079456,0.4392,0.01952,1.4525,-17.053751,32.357502,23.056002,-10.768001,17.656,eccentric,5,5.0,31916.0,403431.0,140373.0,12029.0,-139.0
2026-04-09 22:15:51.262181,299219,1881253781,1881255702,-1.09312,0.472384,0.060512,0.97125,-16.45,31.7275,22.576,-10.68,17.904001,eccentric,5,5.0,31916.0,403431.0,140373.0,12029.0,-139.0
2026-04-09 22:15:51.264631,299220,1881262734,1881264464,-1.09312,0.472384,0.060512,-0.175,-15.60125,29.12875,22.576,-10.68,17.904001,eccentric,5,5.0,31916.0,403431.0,140373.0,12029.0,-139.0
2026-04-09 22:15:51.273511,299221,1881271693,1881273169,-1.08336,0.41968,0.011712,-5.1275,-15.09375,24.745,22.728,-10.648001,19.240002,eccentric,5,5.0,31916.0,403431.0,140373.0,12029.0,-139.0
2026-04-09 22:15:51.304661,299222,1881286236,1881288067,-1.08336,0.41968,0.011712,-5.18875,-13.72875,24.2375,22.728,-10.648001,19.240002,eccentric,5,5.0,31916.0,403431.0,140373.0,12029.0,-139.0
2026-04-09 22:15:51.309100,299223,1881295160,1881296801,-1.08336,0.411872,-0.011712,-5.8275,-12.43375,22.575,23.384,-10.936001,18.488,eccentric,5,5.0,31916.0,403431.0,140373.0,12029.0,-139.0
2026-04-09 22:15:51.336919,299233,1881304242,1881305523,-1.08336,0.411872,-0.011712,-7.6125,-11.36625,22.14625,23.384,-10.936001,18.488,eccentric,5,5.0,32237.0,403431.0,141041.0,12387.0,-132.0
2026-04-09 22:15:51.338485,299234,1881318754,1881320467,-1.116544,0.427488,0.052704,-7.28875,-11.095,21.7525,23.752,-11.096001,18.656,eccentric,5,5.0,32237.0,403431.0,141041.0,12387.0,-132.0
2026-04-09 22:15:51.342750,299235,1881327780,1881329196,-1.116544,0.427488,0.052704,-8.40875,-11.57625,21.25375,23.752,-11.096001,18.656,eccentric,5,5.0,32237.0,403431.0,141041.0,12387.0,-132.0
2026-04-09 22:15:51.344372,299236,1881336888,1881337925,-1.085312,0.425536,-0.013664,-9.70375,-13.46625,19.7925,23.344002,-11.056001,21.264002,eccentric,5,5.0,32237.0,403431.0,141041.0,12387.0,-132.0
2026-04-09 22:15:51.351370,299237,1881351388,1881352891,-1.095072,0.355264,-0.05856,-12.6525,-15.75,17.63125,24.112001,-11.624001,20.400002,eccentric,5,5.0,32237.0,403431.0,141041.0,12387.0,-132.0
2026-04-09 22:15:51.379880,299238,1881360330,1881361608,-1.095072,0.355264,-0.05856,-12.5825,-17.54375,16.73875,24.112001,-11.624001,20.400002,eccentric,5,5.0,32237.0,403431.0,141041.0,12387.0,-132.0
2026-04-09 22:15:51.389104,299239,1881369235,1881370335,-1.09312,0.423584,0.060512,-5.4075,-18.52375,15.98625,24.672,-11.976001,18.848001,eccentric,5,5.0,32237.0,403431.0,141041.0,12387.0,-132.0
2026-04-09 22:15:51.390778,299240,1881378144,1881379006,-1.09312,0.423584,0.060512,0.35,-19.075,15.785,24.672,-11.976001,18.848001,eccentric,5,5.0,32237.0,403431.0,141041.0,12387.0,-132.0
2026-04-09 22:15:51.392275,299241,1881392636,1881394004,-1.087264,0.413824,0.052704,0.9625,-19.67,14.4375,23.448002,-12.040001,21.336,eccentric,5,5.0,32237.0,403431.0,141041.0,12387.0,-132.0
2026-04-09 22:15:51.425712,299252,1881402245,1881402879,-1.087264,0.413824,0.052704,-1.785,-21.32375,11.8475,23.448002,-12.040001,21.336,eccentric,5,5.0,33289.0,403431.0,141367.0,12293.0,-141.0
2026-04-09 22:15:51.427270,299253,1881411577,1881413693,-1.110688,0.394304,-0.00976,-3.71,-21.83125,9.37125,24.776001,-11.824,20.432001,eccentric,5,5.0,33289.0,403431.0,141367.0,12293.0,-141.0
2026-04-09 22:15:51.431375,299254,1881426105,1881426580,-1.110688,0.394304,-0.00976,-1.53125,-22.2425,7.41125,24.776001,-11.824,20.432001,eccentric,5,5.0,33289.0,403431.0,141367.0,12293.0,-141.0
2026-04-09 22:15:51.436376,299255,1881435467,1881437458,-1.1224,0.382592,0.056608,0.41125,-22.155,6.09,25.152,-12.080001,19.752,eccentric,5,5.0,33289.0,403431.0,141367.0,12293.0,-141.0
2026-04-09 22:15:51.450158,299256,1881444442,1881446217,-1.1224,0.382592,0.056608,2.3975,-21.74375,4.62875,25.152,-12.080001,19.752,eccentric,5,5.0,33289.0,403431.0,141367.0,12293.0,-141.0
2026-04-09 22:15:51.457684,299257,1881453449,1881454964,-1.1224,0.384544,0.08784,3.465,-21.20125,2.8,25.864,-11.976001,21.488,eccentric,5,5.0,33289.0,403431.0,141367.0,12293.0,-141.0
2026-04-09 22:15:51.486766,299258,1881467930,1881469858,-1.1224,0.384544,0.08784,3.1675,-20.25625,0.00875,25.864,-11.976001,21.488,eccentric,5,5.0,33289.0,403431.0,141367.0,12293.0,-141.0
2026-04-09 22:15:51.490670,299259,1881476851,1881478596,-1.128256,0.353312,0.064416,1.4875,-18.45375,-1.32125,25.640001,-12.216001,23.480001,eccentric,5,5.0,33289.0,403431.0,141367.0,12293.0,-141.0
2026-04-09 22:15:51.492162,299260,1881485784,1881487284,-1.128256,0.353312,0.064416,-0.945,-15.855001,-2.45,25.640001,-12.216001,23.480001,eccentric,5,5.0,33289.0,403431.0,141367.0,12293.0,-141.0
2026-04-09 22:15:51.529744,299270,1881500229,1881502146,-1.13216,0.32208,0.0488,-2.87875,-14.18375,-2.73875,25.752,-12.008,22.056002,eccentric,5,5.0,34565.0,403431.0,140285.0,11221.0,-142.0
2026-04-09 22:15:51.533988,299271,1881509855,1881511015,-1.120448,0.277184,0.0976,-2.6775,-13.30875,-2.03,24.736002,-12.384001,24.320002,eccentric,5,5.0,34565.0,403431.0,140285.0,11221.0,-142.0
2026-04-09 22:15:51.535729,299272,1881518801,1881519769,-1.120448,0.277184,0.0976,-2.31,-12.20625,-1.30375,24.736002,-12.384001,24.320002,eccentric,5,5.0,34565.0,403431.0,140285.0,11221.0,-142.0
2026-04-09 22:15:51.537283,299273,1881527837,1881528511,-1.120448,0.277184,0.0976,-1.4175,-10.9025,0.65625,24.736002,-12.384001,24.320002,eccentric,5,5.0,34565.0,403431.0,140285.0,11221.0,-142.0
2026-04-09 22:15:51.541294,299274,1881542706,1881543458,-1.106784,0.290848,0.089792,0.735,-10.0625,2.16125,25.800001,-12.344001,22.576,eccentric,5,5.0,34565.0,403431.0,140285.0,11221.0,-142.0
2026-04-09 22:15:51.553922,299275,1881552031,1881554235,-1.108736,0.261568,0.081984,1.86375,-8.8725,1.7675,23.512001,-11.848001,25.624,eccentric,5,5.0,34565.0,403431.0,140285.0,11221.0,-142.0
2026-04-09 22:15:51.585339,299276,1881561036,1881562931,-1.108736,0.261568,0.081984,2.31,-6.615,1.42625,23.512001,-11.848001,25.624,eccentric,5,5.0,34565.0,403431.0,140285.0,11221.0,-142.0
2026-04-09 22:15:51.587014,299277,1881569988,1881571628,-1.091168,0.247904,0.11712,3.2025,-5.5475,2.35375,26.392002,-12.136001,22.856,eccentric,5,5.0,34565.0,403431.0,140285.0,11221.0,-142.0
2026-04-09 22:15:51.588512,299278,1881584529,1881586570,-1.091168,0.247904,0.11712,3.71,-4.69,3.35125,26.392002,-12.136001,22.856,eccentric,5,5.0,34565.0,403431.0,140285.0,11221.0,-142.0
2026-04-09 22:15:51.594817,299279,1881593476,1881595300,-1.091168,0.242048,0.101504,4.3575,-4.12125,4.27,26.856,-12.248,22.896002,eccentric,5,5.0,34565.0,403431.0,140285.0,11221.0,-142.0
2026-04-09 22:15:51.623439,299289,1881602708,1881604097,-1.091168,0.242048,0.101504,6.04625,-2.2575,5.7225,26.856,-12.248,22.896002,eccentric,5,5.0,34715.0,403431.0,139567.0,10681.0,-144.0
2026-04-09 22:15:51.625945,299290,1881617352,1881619100,-1.089216,0.261568,0.064416,9.1875,-1.23375,6.50125,25.52,-12.136001,23.488,eccentric,5,5.0,34715.0,403431.0,139567.0,10681.0,-144.0
2026-04-09 22:15:51.628441,299291,1881626305,1881627870,-1.089216,0.261568,0.064416,11.27,-0.02625,7.14,25.52,-12.136001,23.488,eccentric,5,5.0,34715.0,403431.0,139567.0,10681.0,-144.0
2026-04-09 22:15:51.633433,299292,1881635293,1881636620,-1.069696,0.230336,0.111264,10.94625,0.4725,7.37625,25.736002,-12.136001,24.392002,eccentric,5,5.0,34715.0,403431.0,139567.0,10681.0,-144.0
2026-04-09 22:15:51.663748,299293,1881649849,1881651520,-1.069696,0.232288,0.08784,11.24375,1.86375,6.7375,25.736002,-12.136001,22.560001,eccentric,5,5.0,34715.0,403431.0,139567.0,10681.0,-144.0
2026-04-09 22:15:51.670988,299294,1881658820,1881660262,-1.075552,0.232288,0.08784,12.15375,2.6425,7.06125,26.128002,-12.56,22.560001,eccentric,5,5.0,34715.0,403431.0,139567.0,10681.0,-144.0
2026-04-09 22:15:51.673450,299295,1881667722,1881669003,-1.075552,0.232288,0.08784,13.8075,2.93125,8.1025,26.128002,-12.56,22.560001,eccentric,5,5.0,34715.0,403431.0,139567.0,10681.0,-144.0
2026-04-09 22:15:51.675944,299296,1881676654,1881677727,-1.057984,0.232288,0.080032,14.735,3.8675,8.79375,26.528002,-12.304001,23.696001,eccentric,5,5.0,34715.0,403431.0,139567.0,10681.0,-144.0
2026-04-09 22:15:51.706165,299297,1881691273,1881692638,-1.046272,0.251808,0.072224,15.04125,4.585,9.02125,26.36,-13.128,24.456001,eccentric,5,5.0,34715.0,403431.0,139567.0,10681.0,-144.0
2026-04-09 22:15:51.709782,299298,1881700255,1881701333,-1.046272,0.251808,0.072224,15.61,5.67875,9.8525,26.36,-13.128,24.456001,eccentric,5,5.0,34715.0,403431.0,139567.0,10681.0,-144.0
2026-04-09 22:15:51.744723,299309,1881709195,1881710103,-1.046272,0.251808,0.072224,17.56125,7.00875,10.2725,26.36,-13.128,24.456001,eccentric,5,5.0,34677.0,403431.0,140636.0,11360.0,-144.0
2026-04-09 22:15:51.753521,299310,1881723725,1881725029,-1.028704,0.261568,0.099552,18.27,8.505,10.045,26.160002,-13.248001,23.896002,eccentric,5,5.0,34677.0,403431.0,140636.0,11360.0,-144.0
2026-04-09 22:15:51.755910,299311,1881732692,1881733733,-1.040416,0.284992,0.07808,18.4625,9.24,9.415,26.112001,-12.784,25.504002,eccentric,5,5.0,34677.0,403431.0,140636.0,11360.0,-144.0
2026-04-09 22:15:51.758434,299312,1881741729,1881742505,-1.040416,0.284992,0.07808,18.12125,9.94,8.47875,26.112001,-12.784,25.504002,eccentric,5,5.0,34677.0,403431.0,140636.0,11360.0,-144.0
2026-04-09 22:15:51.760971,299313,1881751142,1881753281,-1.046272,0.275232,0.031232,17.66625,10.6925,7.035,26.160002,-12.792001,24.576,eccentric,5,5.0,34677.0,403431.0,140636.0,11360.0,-144.0
2026-04-09 22:15:51.763495,299314,1881765655,1881766180,-1.046272,0.275232,0.031232,18.10375,10.75375,6.0025,26.160002,-12.792001,24.576,eccentric,5,5.0,34677.0,403431.0,140636.0,11360.0,-144.0
2026-04-09 22:15:51.793695,299315,1881775122,1881776984,-1.056032,0.281088,0.060512,19.22375,10.5525,5.85375,27.104002,-13.144001,22.928001,eccentric,5,5.0,34677.0,403431.0,140636.0,11360.0,-144.0
2026-04-09 22:15:51.797726,299316,1881784082,1881785688,-1.056032,0.281088,0.060512,18.83,10.5525,4.97,27.104002,-13.144001,22.928001,eccentric,5,5.0,34677.0,403431.0,140636.0,11360.0,-144.0
2026-04-09 22:15:51.799690,299317,1881798695,1881800601,-1.06384,0.32208,0.027328,17.96375,10.386251,4.52375,26.568,-12.872001,23.192001,eccentric,5,5.0,34677.0,403431.0,140636.0,11360.0,-144.0
2026-04-09 22:15:51.827321,299327,1881807795,1881809338,-1.06384,0.32208,0.027328,18.03375,10.29,3.5175,26.568,-12.872001,23.192001,eccentric,5,5.0,34799.0,403431.0,140860.0,11488.0,-152.0
2026-04-09 22:15:51.830549,299328,1881816817,1881818217,-1.077504,0.284992,0.060512,17.17625,11.45375,1.8725,24.592001,-13.208,24.080002,eccentric,5,5.0,34799.0,403431.0,140860.0,11488.0,-152.0
2026-04-09 22:15:51.833968,299329,1881825860,1881826972,-1.077504,0.284992,0.060512,19.11,11.85625,2.05625,24.592001,-13.208,24.080002,eccentric,5,5.0,34799.0,403431.0,140860.0,11488.0,-152.0
2026-04-09 22:15:51.837333,299330,1881840459,1881841938,-1.077504,0.324032,0.050752,20.04625,12.31125,2.205,25.744001,-13.112,23.536001,eccentric,5,5.0,34799.0,403431.0,140860.0,11488.0,-152.0
2026-04-09 22:15:51.872288,299331,1881849425,1881850665,-1.077504,0.324032,0.050752,18.55,12.7225,1.09375,25.744001,-13.112,23.536001,concentric,5,5.0,34799.0,403431.0,140860.0,11488.0,-152.0
2026-04-09 22:15:51.876663,299332,1881858373,1881859345,-1.087264,0.345504,0.021472,18.45375,13.16,-0.02625,26.352001,-13.648001,22.984001,concentric,5,5.0,34799.0,403431.0,140860.0,11488.0,-152.0
2026-04-09 22:15:51.878832,299333,1881872887,1881874282,-1.095072,0.353312,0.021472,19.41625,13.5275,-1.855,26.720001,-12.992001,22.136002,concentric,5,5.0,34799.0,403431.0,140860.0,11488.0,-152.0
2026-04-09 22:15:51.881967,299334,1881881952,1881882937,-1.095072,0.353312,0.021472,20.93875,13.48375,-3.8675,26.720001,-12.992001,22.136002,concentric,5,5.0,34799.0,403431.0,140860.0,11488.0,-152.0
2026-04-09 22:15:51.929985,299335,1881890981,1881891654,-1.079456,0.365024,0.046848,21.88375,13.79,-5.20625,26.720001,-12.992001,22.288,concentric,5,5.0,34799.0,403431.0,140860.0,11488.0,-152.0
2026-04-09 22:15:51.933533,299336,1881900260,1881902426,-1.08336,0.365024,0.046848,19.73125,14.56875,-7.11375,26.704,-12.384001,22.288,concentric,5,5.0,34799.0,403431.0,140860.0,11488.0,-152.0
2026-04-09 22:15:51.958372,299346,1881914762,1881915278,-1.09312,0.372832,0.003904,17.745,15.68875,-8.89,26.36,-12.704,21.512001,concentric,5,5.0,34910.0,403431.0,141226.0,11689.0,-152.0
2026-04-09 22:15:51.961715,299347,1881924235,1881926062,-1.09312,0.372832,0.003904,15.75875,15.645,-11.94375,26.36,-12.704,21.512001,concentric,5,5.0,34910.0,403431.0,141226.0,11689.0,-152.0
2026-04-09 22:15:51.964389,299348,1881933171,1881934756,-1.097024,0.3416,-0.052704,15.32125,14.21,-14.58625,26.272001,-13.232,21.968,concentric,5,5.0,34910.0,403431.0,141226.0,11689.0,-152.0
2026-04-09 22:15:51.968598,299349,1881947713,1881949740,-1.097024,0.3416,-0.052704,18.865,12.78375,-15.417501,26.272001,-13.232,21.968,concentric,5,5.0,34910.0,403431.0,141226.0,11689.0,-152.0
2026-04-09 22:15:51.968715,299350,1881956896,1881958628,-1.067744,0.37088,0.054656,23.87,11.17375,-15.417501,25.072,-12.432,21.992,concentric,5,5.0,34910.0,403431.0,141226.0,11689.0,-152.0
2026-04-09 22:15:51.971011,299351,1881967881,1881969378,-1.067744,0.37088,0.054656,24.815,11.50625,-15.89875,25.072,-12.432,21.992,concentric,5,5.0,34910.0,403431.0,141226.0,11689.0,-152.0
2026-04-09 22:15:51.978505,299352,1881976913,1881978082,-1.085312,0.394304,0.091744,21.27125,12.6525,-17.1325,24.856,-12.56,21.76,concentric,5,5.0,34910.0,403431.0,141226.0,11689.0,-152.0
2026-04-09 22:15:51.984745,299353,1881985818,1881986780,-1.085312,0.394304,0.091744,14.665,14.096251,-19.25875,24.856,-12.56,21.76,concentric,5,5.0,34910.0,403431.0,141226.0,11689.0,-152.0
2026-04-09 22:15:52.015006,299354,1882000315,1882001720,-1.067744,0.343552,0.003904,8.75,15.93375,-20.5625,25.816002,-11.816001,20.184,concentric,5,5.0,34910.0,403431.0,141226.0,11689.0,-152.0
2026-04-09 22:15:52.044589,299365,1882009260,1882010444,-1.067744,0.343552,0.003904,6.8075,17.99,-20.58,25.816002,-11.816001,20.184,concentric,5,5.0,34852.0,403431.0,141473.0,11856.0,-132.0
2026-04-09 22:15:52.046340,299366,1882018126,1882019219,-1.09312,0.335744,-0.015616,8.60125,18.935,-21.00875,25.352001,-12.080001,19.832,concentric,5,5.0,34852.0,403431.0,141473.0,11856.0,-132.0
2026-04-09 22:15:52.049114,299367,1882032815,1882034178,-1.0736,0.404064,0.050752,13.1075,18.08625,-20.95625,24.248001,-11.672001,21.68,concentric,5,5.0,34852.0,403431.0,141473.0,11856.0,-132.0
2026-04-09 22:15:52.050929,299368,1882041878,1882042930,-1.0736,0.404064,0.050752,16.94875,16.72125,-20.85125,24.248001,-11.672001,21.68,concentric,5,5.0,34852.0,403431.0,141473.0,11856.0,-132.0
2026-04-09 22:15:52.053506,299369,1882050821,1882051673,-1.0736,0.404064,0.050752,16.19625,14.91,-22.82875,24.248001,-11.672001,21.68,concentric,5,5.0,34852.0,403431.0,141473.0,11856.0,-132.0
2026-04-09 22:15:52.058556,299370,1882059809,1882060387,-1.065792,0.406016,-0.027328,11.6725,13.81625,-24.3425,24.344002,-11.56,21.024,concentric,5,5.0,34852.0,403431.0,141473.0,11856.0,-132.0
2026-04-09 22:15:52.088719,299371,1882074555,1882075342,-1.09312,0.36112,-0.027328,11.2525,13.74625,-26.38125,24.160002,-11.424001,19.0,concentric,5,5.0,34852.0,403431.0,141473.0,11856.0,-132.0
2026-04-09 22:15:52.092245,299372,1882083499,1882084096,-1.09312,0.36112,-0.027328,13.15125,13.41375,-27.95625,24.160002,-11.424001,19.0,concentric,5,5.0,34852.0,403431.0,141473.0,11856.0,-132.0
2026-04-09 22:15:52.094718,299373,1882092737,1882094872,-1.048224,0.452864,0.062464,18.0775,13.011251,-28.07,24.640001,-11.320001,18.36,concentric,5,5.0,34852.0,403431.0,141473.0,11856.0,-132.0
2026-04-09 22:15:52.128748,299383,1882107705,1882109779,-1.048224,0.452864,0.062464,22.0325,13.545,-30.5725,24.640001,-11.320001,18.36,concentric,5,5.0,35656.0,403431.0,141277.0,11417.0,-141.0
2026-04-09 22:15:52.128863,299384,1882116869,1882118580,-1.0736,0.404064,0.042944,18.89125,14.096251,-34.27375,23.344002,-11.192,19.616001,concentric,5,5.0,35656.0,403431.0,141277.0,11417.0,-141.0
2026-04-09 22:15:52.130939,299385,1882125783,1882127300,-1.0736,0.404064,0.042944,14.28,15.3825,-36.00625,23.344002,-11.192,19.616001,concentric,5,5.0,35656.0,403431.0,141277.0,11417.0,-141.0
2026-04-09 22:15:52.133448,299386,1882134762,1882135999,-1.091168,0.42944,0.005856,10.22,16.9925,-36.30375,23.36,-11.096001,19.128,concentric,5,5.0,35656.0,403431.0,141277.0,11417.0,-141.0
2026-04-09 22:15:52.163741,299387,1882149292,1882151024,-1.091168,0.42944,0.005856,8.636251,18.29625,-35.5075,23.36,-11.096001,19.128,concentric,5,5.0,35656.0,403431.0,141277.0,11417.0,-141.0
2026-04-09 22:15:52.167227,299388,1882158193,1882159715,-1.104832,0.431392,-0.03904,8.155,18.8825,-35.6125,24.36,-10.488001,17.928001,concentric,5,5.0,35656.0,403431.0,141277.0,11417.0,-141.0
2026-04-09 22:15:52.169879,299389,1882167094,1882168392,-1.104832,0.431392,-0.03904,10.2375,18.6025,-36.8375,24.36,-10.488001,17.928001,concentric,5,5.0,35656.0,403431.0,141277.0,11417.0,-141.0
2026-04-09 22:15:52.228756,299390,1882181615,1882183316,-1.10288,0.488,0.046848,12.10125,18.61125,-38.3775,23.800001,-10.072001,18.632,concentric,5,5.0,35656.0,403431.0,141277.0,11417.0,-141.0
2026-04-09 22:15:52.232270,299391,1882190521,1882192018,-1.10288,0.488,0.046848,9.1175,19.1275,-39.73375,23.800001,-10.072001,18.632,concentric,5,5.0,35656.0,403431.0,141277.0,11417.0,-141.0
2026-04-09 22:15:52.234716,299392,1882199428,1882200710,-1.098976,0.44896,-0.011712,1.51375,19.95,-41.78125,24.128,-9.744,17.464,concentric,5,5.0,35656.0,403431.0,141277.0,11417.0,-141.0
2026-04-09 22:15:52.259706,299402,1882214084,1882215678,-1.095072,0.450912,-0.044896,-2.2225,19.8625,-41.93,23.808,-9.56,17.344002,concentric,5,5.0,35356.0,403431.0,141617.0,11779.0,-128.0
2026-04-09 22:15:52.262245,299403,1882223004,1882224434,-1.095072,0.450912,-0.044896,-2.40625,18.725,-42.420002,23.808,-9.56,17.344002,concentric,5,5.0,35356.0,403431.0,141617.0,11779.0,-128.0
2026-04-09 22:15:52.264735,299404,1882231927,1882233119,-1.095072,0.450912,-0.031232,-0.98875,17.85,-43.18125,23.808,-9.56,17.344002,concentric,5,5.0,35356.0,403431.0,141617.0,11779.0,-128.0
2026-04-09 22:15:52.267376,299405,1882246440,1882248075,-1.116544,0.46848,-0.031232,0.84,16.26625,-43.8725,23.2,-9.408,16.488,concentric,5,5.0,35356.0,403431.0,141617.0,11779.0,-128.0
2026-04-09 22:15:52.269903,299406,1882255385,1882256826,-1.069696,0.45872,0.001952,1.5925,14.74375,-44.8525,22.296001,-9.144,17.800001,concentric,5,5.0,35356.0,403431.0,141617.0,11779.0,-128.0
2026-04-09 22:15:52.272220,299407,1882264316,1882265563,-1.069696,0.45872,0.001952,-0.00875,15.32125,-46.76,22.296001,-9.144,17.800001,concentric,5,5.0,35356.0,403431.0,141617.0,11779.0,-128.0
2026-04-09 22:15:52.274751,299408,1882273322,1882274298,-1.091168,0.431392,-0.017568,-5.53,15.9775,-47.565,21.672,-9.120001,16.512001,concentric,5,5.0,35356.0,403431.0,141617.0,11779.0,-128.0
2026-04-09 22:15:52.304980,299409,1882287788,1882289222,-1.091168,0.431392,-0.017568,-7.105,17.03625,-47.3725,21.672,-9.120001,16.512001,concentric,5,5.0,35356.0,403431.0,141617.0,11779.0,-128.0
2026-04-09 22:15:52.308490,299410,1882296747,1882297904,-1.095072,0.421632,-0.070272,-8.505,18.34,-47.075,22.704,-8.968,16.04,concentric,5,5.0,35356.0,403431.0,141617.0,11779.0,-128.0
2026-04-09 22:15:52.335927,299421,1882306208,1882306741,-1.095072,0.421632,-0.070272,-7.32375,17.745,-46.1125,22.704,-8.968,16.04,concentric,5,5.0,34398.0,403431.0,141344.0,11912.0,-128.0
2026-04-09 22:15:52.338497,299422,1882320776,1882321843,-1.065792,0.415776,-0.064416,-3.96375,16.75625,-45.57,22.136002,-8.856,15.920001,concentric,5,5.0,34398.0,403431.0,141344.0,11912.0,-128.0
2026-04-09 22:15:52.373709,299423,1882329836,1882330655,-1.065792,0.415776,-0.064416,-2.1175,16.21375,-45.63125,22.136002,-8.856,15.920001,concentric,5,5.0,34398.0,403431.0,141344.0,11912.0,-128.0
2026-04-09 22:15:52.377324,299424,1882338760,1882339384,-1.052128,0.433344,0.013664,-2.1875,16.51125,-44.9925,21.632002,-8.184,15.568001,concentric,5,5.0,34398.0,403431.0,141344.0,11912.0,-128.0
2026-04-09 22:15:52.379812,299425,1882348019,1882350196,-1.052128,0.433344,0.013664,-4.2,17.07125,-43.855,21.632002,-8.184,15.568001,concentric,5,5.0,34398.0,403431.0,141344.0,11912.0,-128.0
2026-04-09 22:15:52.386058,299426,1882362518,1882363082,-1.069696,0.423584,-0.040992,-8.14625,17.52625,-44.1875,21.800001,-7.768001,15.296001,concentric,5,5.0,34398.0,403431.0,141344.0,11912.0,-128.0
2026-04-09 22:15:52.388475,299427,1882371693,1882373833,-1.069696,0.423584,-0.040992,-10.2725,18.2525,-43.37375,21.800001,-7.768001,15.296001,concentric,5,5.0,34398.0,403431.0,141344.0,11912.0,-128.0
2026-04-09 22:15:52.391119,299428,1882380627,1882382543,-1.059936,0.386496,-0.101504,-9.695,17.17625,-43.513752,21.256,-7.912,15.592001,concentric,5,5.0,34398.0,403431.0,141344.0,11912.0,-128.0
2026-04-09 22:15:52.393490,299429,1882395097,1882395418,-1.046272,0.363072,-0.066368,-7.04375,15.225,-41.7025,21.6,-7.864,15.016001,concentric,5,5.0,34398.0,403431.0,141344.0,11912.0,-128.0
2026-04-09 22:15:52.453502,299439,1882404282,1882406173,-1.046272,0.363072,-0.066368,-5.62625,12.9675,-41.04625,21.6,-7.864,15.016001,concentric,5,5.0,33956.0,403431.0,140651.0,11559.0,-140.0
2026-04-09 22:15:52.455958,299440,1882413314,1882414908,-1.05408,0.437248,0.005856,-4.80375,11.6375,-39.31375,21.6,-7.864,14.736001,concentric,5,5.0,33956.0,403431.0,140651.0,11559.0,-140.0
2026-04-09 22:15:52.458504,299441,1882422273,1882423618,-1.05408,0.437248,0.005856,-2.33625,12.0575,-37.826252,20.976002,-7.528,14.736001,concentric,5,5.0,33956.0,403431.0,140651.0,11559.0,-140.0
2026-04-09 22:15:52.461016,299442,1882436734,1882438512,-0.999424,0.368928,-0.023424,-4.50625,11.795,-37.89625,20.672,-7.992001,15.088,concentric,5,5.0,33956.0,403431.0,140651.0,11559.0,-140.0
2026-04-09 22:15:52.463526,299443,1882445704,1882447245,-0.999424,0.368928,-0.023424,-11.24375,12.18,-37.4675,20.672,-7.992001,15.088,concentric,5,5.0,33956.0,403431.0,140651.0,11559.0,-140.0
2026-04-09 22:15:52.465980,299444,1882454677,1882455986,-1.009184,0.30256,-0.076128,-16.38,12.41625,-36.25125,20.352001,-7.528,13.912001,concentric,5,5.0,33956.0,403431.0,140651.0,11559.0,-140.0
2026-04-09 22:15:52.468484,299445,1882469179,1882470958,-1.009184,0.30256,-0.076128,-15.82875,12.6,-32.235,20.352001,-7.528,13.912001,concentric,5,5.0,33956.0,403431.0,140651.0,11559.0,-140.0
2026-04-09 22:15:52.528640,299446,1882478110,1882479692,-1.067744,0.386496,-0.099552,-9.7125,12.075,-28.76125,20.2,-7.8,15.328001,concentric,5,5.0,33956.0,403431.0,140651.0,11559.0,-140.0
2026-04-09 22:15:52.532274,299447,1882486977,1882488380,-1.067744,0.386496,-0.099552,-4.9525,10.2025,-25.64625,20.2,-7.8,15.328001,concentric,5,5.0,33956.0,403431.0,140651.0,11559.0,-140.0
2026-04-09 22:15:52.534695,299448,1882501477,1882503299,-1.018944,0.357216,-0.12688,-3.78875,6.32625,-23.4675,20.536001,-7.432,14.472001,concentric,5,5.0,33956.0,403431.0,140651.0,11559.0,-140.0
2026-04-09 22:15:52.562167,299458,1882510567,1882512078,-1.018944,0.357216,-0.12688,-4.31375,2.47625,-24.053751,20.536001,-7.432,14.472001,concentric,5,5.0,35271.0,403431.0,140364.0,10970.0,-138.0
2026-04-09 22:15:52.564657,299459,1882519481,1882520774,-1.01504,0.343552,-0.027328,-0.39375,0.6125,-22.02375,19.776001,-7.792,14.512001,concentric,5,5.0,35271.0,403431.0,140364.0,10970.0,-138.0
2026-04-09 22:15:52.567181,299460,1882534025,1882535692,-1.048224,0.308416,-0.062464,-1.70625,-0.21875,-21.20125,20.128,-8.096001,13.976001,concentric,5,5.0,35271.0,403431.0,140364.0,10970.0,-138.0
2026-04-09 22:15:52.572252,299461,1882543207,1882544477,-1.048224,0.308416,-0.062464,-8.2775,0.5425,-19.5475,20.128,-8.096001,13.976001,concentric,5,5.0,35271.0,403431.0,140364.0,10970.0,-138.0
2026-04-09 22:15:52.574778,299462,1882552145,1882553232,-1.048224,0.308416,-0.062464,-9.91375,2.05625,-17.7275,20.128,-8.096001,13.976001,concentric,5,5.0,35271.0,403431.0,140364.0,10970.0,-138.0
2026-04-09 22:15:52.577236,299463,1882561101,1882562004,-1.095072,0.349408,-0.085888,-9.3275,2.6775,-16.14375,19.952002,-8.072001,13.68,concentric,5,5.0,35271.0,403431.0,140364.0,10970.0,-138.0
2026-04-09 22:15:52.579691,299464,1882575793,1882576947,-1.032608,0.265472,-0.122976,-6.22125,1.505,-16.09125,19.776001,-7.872,14.016001,concentric,5,5.0,35271.0,403431.0,140364.0,10970.0,-138.0
2026-04-09 22:15:52.583502,299465,1882584936,1882585698,-1.032608,0.265472,-0.122976,-7.14,-0.27125,-18.0075,19.776001,-7.872,14.016001,concentric,5,5.0,35271.0,403431.0,140364.0,10970.0,-138.0
2026-04-09 22:15:52.613630,299466,1882594335,1882596512,-0.991616,0.267424,-0.089792,-6.755,-2.82625,-16.10875,19.672,-7.76,14.496,concentric,5,5.0,35271.0,403431.0,140364.0,10970.0,-138.0
2026-04-09 22:15:52.617238,299467,1882603295,1882605269,-0.991616,0.267424,-0.089792,-5.69625,-4.27875,-13.53625,19.672,-7.76,14.496,concentric,5,5.0,35271.0,403431.0,140364.0,10970.0,-138.0
2026-04-09 22:15:52.644663,299478,1882617851,1882618178,-1.01504,0.298656,-0.054656,-4.71625,-5.20625,-12.565,19.664001,-7.616,14.400001,concentric,5,5.0,34858.0,403431.0,138901.0,10216.0,-140.0
2026-04-09 22:15:52.647262,299479,1882627120,1882628971,-1.01504,0.298656,-0.054656,-3.03625,-4.6025,-12.8275,19.664001,-7.616,14.400001,concentric,5,5.0,34858.0,403431.0,138901.0,10216.0,-140.0
2026-04-09 22:15:52.649748,299480,1882636076,1882637711,-0.987712,0.281088,-0.066368,-0.84,-3.70125,-13.9825,20.104,-7.480001,14.392001,concentric,5,5.0,34858.0,403431.0,138901.0,10216.0,-140.0
2026-04-09 22:15:52.652257,299481,1882650578,1882652623,-0.987712,0.281088,-0.066368,2.695,-3.07125,-14.63,20.104,-7.480001,14.392001,concentric,5,5.0,34858.0,403431.0,138901.0,10216.0,-140.0
2026-04-09 22:15:52.658494,299482,1882659555,1882661400,-0.944768,0.216672,-0.12688,4.62,-2.6775,-14.77875,19.696001,-7.520001,14.448001,concentric,5,5.0,34858.0,403431.0,138901.0,10216.0,-140.0
2026-04-09 22:15:52.688659,299483,1882668537,1882670176,-0.944768,0.216672,-0.12688,3.4125,-3.5525,-14.175,19.696001,-7.520001,14.448001,concentric,5,5.0,34858.0,403431.0,138901.0,10216.0,-140.0
2026-04-09 22:15:52.692258,299484,1882683149,1882685140,-0.938912,0.240096,-0.101504,3.77125,-4.69875,-12.32875,19.584002,-7.904,14.320001,concentric,5,5.0,34858.0,403431.0,138901.0,10216.0,-140.0
2026-04-09 22:15:52.694808,299485,1882692078,1882693886,-0.938912,0.240096,-0.101504,5.06625,-4.90875,-12.1975,19.584002,-7.904,14.320001,concentric,5,5.0,34858.0,403431.0,138901.0,10216.0,-140.0
2026-04-09 22:15:52.701033,299486,1882701071,1882702613,-0.903776,0.261568,0.013664,6.92125,-3.17625,-13.2475,19.256,-7.960001,15.152,concentric,5,5.0,34858.0,403431.0,138901.0,10216.0,-140.0
2026-04-09 22:15:52.727300,299496,1882710777,1882711899,-0.903776,0.261568,0.013664,8.8025,0.7175,-14.06125,19.256,-7.960001,15.152,concentric,5,5.0,34653.0,403431.0,139546.0,10662.0,-142.0
2026-04-09 22:15:52.729742,299497,1882725306,1882726827,-0.915488,0.265472,-0.027328,4.85625,4.96125,-14.42875,19.36,-7.936,14.528001,concentric,5,5.0,34653.0,403431.0,139546.0,10662.0,-142.0
2026-04-09 22:15:52.733505,299498,1882734258,1882735542,-0.915488,0.203008,-0.189344,-2.56375,7.0175,-14.93625,19.36,-7.936,14.528001,concentric,5,5.0,34653.0,403431.0,139546.0,10662.0,-142.0
2026-04-09 22:15:52.763965,299499,1882743240,1882744302,-0.952576,0.206912,-0.189344,-6.335,5.39,-14.8925,18.872002,-7.976,16.424002,concentric,5,5.0,34653.0,403431.0,139546.0,10662.0,-142.0
2026-04-09 22:15:52.767713,299500,1882757710,1882759238,-0.944768,0.210816,-0.0976,-2.6075,2.65125,-14.58625,18.936,-8.056001,14.200001,concentric,5,5.0,34653.0,403431.0,139546.0,10662.0,-142.0
2026-04-09 22:15:52.769765,299501,1882766643,1882767938,-0.944768,0.210816,-0.0976,5.22375,-0.32375,-13.7025,18.936,-8.056001,14.200001,concentric,5,5.0,34653.0,403431.0,139546.0,10662.0,-142.0
2026-04-09 22:15:52.828760,299502,1882775598,1882776667,-0.958432,0.251808,-0.060512,9.03875,-2.8875,-11.095,18.824001,-7.472,15.144001,concentric,5,5.0,34653.0,403431.0,139546.0,10662.0,-142.0
2026-04-09 22:15:52.832293,299503,1882784511,1882785382,-0.958432,0.251808,-0.060512,9.49375,-4.235,-10.24625,18.824001,-7.472,15.144001,concentric,5,5.0,34653.0,403431.0,139546.0,10662.0,-142.0
2026-04-09 22:15:52.834740,299504,1882799016,1882800328,-0.993568,0.210816,-0.083936,7.86625,-1.93375,-11.27,18.872002,-7.832,14.176001,concentric,5,5.0,34653.0,403431.0,139546.0,10662.0,-142.0
2026-04-09 22:15:52.861020,299514,1882807973,1882809080,-0.993568,0.210816,-0.083936,4.7075,-0.56875,-12.55625,18.872002,-7.832,14.176001,concentric,5,5.0,34354.0,403431.0,141045.0,11742.0,-136.0
2026-04-09 22:15:52.863527,299515,1882816956,1882817893,-0.977952,0.18544,-0.101504,3.17625,0.09625,-11.48875,18.592001,-7.616,14.664001,concentric,5,5.0,34354.0,403431.0,141045.0,11742.0,-136.0
2026-04-09 22:15:52.865995,299516,1882831470,1882832767,-0.977952,0.18544,-0.101504,4.54125,0.62125,-10.815,18.592001,-7.616,14.664001,concentric,5,5.0,34354.0,403431.0,141045.0,11742.0,-136.0
2026-04-09 22:15:52.868513,299517,1882840424,1882841490,-1.011136,0.242048,-0.119072,3.49125,-0.63875,-8.47,18.880001,-7.496,13.976001,concentric,5,5.0,34354.0,403431.0,141045.0,11742.0,-136.0
2026-04-09 22:15:52.870998,299518,1882849385,1882850249,-1.011136,0.242048,-0.119072,5.60875,-1.2775,-6.09,18.880001,-7.496,13.976001,concentric,5,5.0,34354.0,403431.0,141045.0,11742.0,-136.0
2026-04-09 22:15:52.873488,299519,1882863887,1882865209,-0.999424,0.1952,-0.031232,6.79875,-0.67375,-8.61875,18.08,-7.424,15.696001,concentric,5,5.0,34354.0,403431.0,141045.0,11742.0,-136.0
2026-04-09 22:15:52.875978,299520,1882872836,1882873915,-0.999424,0.1952,-0.031232,4.585,1.39125,-9.86125,18.08,-7.424,15.696001,concentric,5,5.0,34354.0,403431.0,141045.0,11742.0,-136.0
2026-04-09 22:15:52.880986,299521,1882881792,1882882634,-0.96624,0.1952,0.0,2.73,4.99625,-10.4125,18.76,-7.56,14.200001,concentric,5,5.0,34354.0,403431.0,141045.0,11742.0,-136.0
2026-04-09 22:15:52.911179,299522,1882890753,1882891341,-0.96624,0.1952,0.0,-4.2,7.95375,-9.695,18.76,-7.56,14.200001,concentric,5,5.0,34354.0,403431.0,141045.0,11742.0,-136.0
2026-04-09 22:15:52.914760,299523,1882905498,1882906271,-1.087264,0.242048,-0.091744,-11.55,9.61625,-8.12,18.512001,-7.736001,14.568001,concentric,5,5.0,34354.0,403431.0,141045.0,11742.0,-136.0
2026-04-09 22:15:52.947176,299534,1882915031,1882917094,-1.087264,0.163968,-0.119072,-8.82875,9.3625,-7.14875,18.512001,-7.736001,14.568001,concentric,5,5.0,33981.0,403431.0,141227.0,11965.0,-141.0
2026-04-09 22:15:52.949751,299535,1882924062,1882925855,-1.01504,0.15616,-0.119072,-3.94625,7.5775,-11.06,18.208,-7.536,14.944,concentric,5,5.0,33981.0,403431.0,141227.0,11965.0,-141.0
2026-04-09 22:15:52.952234,299536,1882938581,1882940893,-1.009184,0.113216,-0.033184,-2.35375,5.7575,-12.32875,17.016,-7.440001,16.272001,concentric,5,5.0,33981.0,403431.0,141227.0,11965.0,-141.0
2026-04-09 22:15:52.954751,299537,1882947636,1882949618,-1.009184,0.113216,-0.033184,-0.8925,5.3725,-9.6775,17.016,-7.440001,16.272001,concentric,5,5.0,33981.0,403431.0,141227.0,11965.0,-141.0
2026-04-09 22:15:52.957231,299538,1882956609,1882958397,-1.056032,0.212768,-0.080032,-2.51125,5.29375,-7.105,17.368,-7.896,15.400001,concentric,5,5.0,33981.0,403431.0,141227.0,11965.0,-141.0
2026-04-09 22:15:52.987446,299539,1882965559,1882967151,-1.056032,0.212768,-0.080032,-4.5675,4.97,-5.81,17.368,-7.896,15.400001,concentric,5,5.0,33981.0,403431.0,141227.0,11965.0,-141.0
2026-04-09 22:15:52.991049,299540,1882980038,1882982053,-1.01504,0.179584,-0.052704,-3.9375,4.94375,-8.12,18.088001,-7.624001,14.112,concentric,5,5.0,33981.0,403431.0,141227.0,11965.0,-141.0
2026-04-09 22:15:52.993537,299541,1882988971,1882990744,-1.01504,0.179584,-0.052704,-1.70625,5.32875,-11.2175,18.088001,-7.624001,14.112,concentric,5,5.0,33981.0,403431.0,141227.0,11965.0,-141.0
2026-04-09 22:15:52.997111,299542,1882997910,1882999476,-1.028704,0.130784,-0.021472,-1.1375,5.76625,-12.425,17.888,-7.36,13.936001,concentric,5,5.0,33981.0,403431.0,141227.0,11965.0,-141.0
2026-04-09 22:15:53.049769,299552,1883012560,1883014443,-1.028704,0.130784,-0.021472,-0.1925,6.92125,-10.78875,17.888,-7.36,13.936001,concentric,5,5.0,34477.0,403431.0,141879.0,12241.0,-140.0
2026-04-09 22:15:53.052272,299553,1883021513,1883023170,-1.067744,0.220576,0.013664,-2.135,9.1875,-10.71875,18.016,-7.68,13.896001,concentric,5,5.0,34477.0,403431.0,141879.0,12241.0,-140.0
2026-04-09 22:15:53.054879,299554,1883030446,1883031900,-1.067744,0.220576,0.013664,-3.14125,10.31625,-11.17375,18.016,-7.68,13.896001,concentric,5,5.0,34477.0,403431.0,141879.0,12241.0,-140.0
2026-04-09 22:15:53.057254,299555,1883044988,1883046830,-1.032608,0.173728,-0.050752,-6.60625,10.6925,-14.91,17.736,-7.896,15.208001,concentric,5,5.0,34477.0,403431.0,141879.0,12241.0,-140.0
2026-04-09 22:15:53.059801,299556,1883054027,1883055540,-1.032608,0.173728,-0.050752,-10.71,10.7275,-17.045,17.736,-7.896,15.208001,concentric,5,5.0,34477.0,403431.0,141879.0,12241.0,-140.0
2026-04-09 22:15:53.062220,299557,1883063036,1883064257,-1.087264,0.093696,-0.122976,-12.4775,9.56375,-16.765,17.216002,-7.456,14.616001,concentric,5,5.0,34477.0,403431.0,141879.0,12241.0,-140.0
2026-04-09 22:15:53.092497,299558,1883071985,1883072961,-1.087264,0.093696,-0.122976,-9.8175,7.0,-12.17125,17.216002,-7.456,14.616001,concentric,5,5.0,34477.0,403431.0,141879.0,12241.0,-140.0
2026-04-09 22:15:53.096085,299559,1883086457,1883087856,-1.028704,0.203008,-0.064416,-3.99,4.4625,-10.33375,18.240002,-7.304,15.088,concentric,5,5.0,34477.0,403431.0,141879.0,12241.0,-140.0
2026-04-09 22:15:53.131190,299560,1883095380,1883096535,-1.028704,0.203008,-0.064416,-1.51375,2.35375,-13.877501,18.240002,-7.304,15.088,concentric,5,5.0,34477.0,403431.0,141879.0,12241.0,-140.0
2026-04-09 22:15:53.134780,299561,1883104303,1883105252,-0.979904,0.083936,0.025376,-4.96125,1.18125,-15.155,18.088001,-7.896,14.200001,concentric,5,5.0,34477.0,403431.0,141879.0,12241.0,-140.0
2026-04-09 22:15:53.159790,299571,1883118835,1883120262,-0.989664,0.228384,0.001952,-8.28625,1.56625,-13.9825,17.752,-7.776001,14.024001,concentric,5,5.0,34963.0,403431.0,141743.0,12020.0,-136.0
2026-04-09 22:15:53.162649,299572,1883127754,1883128942,-0.989664,0.228384,0.001952,-9.17875,3.52625,-11.69,17.752,-7.776001,14.024001,concentric,5,5.0,34963.0,403431.0,141743.0,12020.0,-136.0
2026-04-09 22:15:53.165058,299573,1883136662,1883137636,-1.001376,0.1464,-0.132736,-11.08625,4.6375,-14.761251,18.192001,-7.752,13.824,concentric,5,5.0,34963.0,403431.0,141743.0,12020.0,-136.0
2026-04-09 22:15:53.169007,299574,1883151172,1883152542,-1.001376,0.1464,-0.132736,-11.57625,4.1125,-16.42375,18.192001,-7.752,13.824,concentric,5,5.0,34963.0,403431.0,141743.0,12020.0,-136.0
2026-04-09 22:15:53.169790,299575,1883160214,1883161319,-1.032608,0.074176,-0.060512,-7.18375,2.17875,-17.31625,18.44,-7.632,13.848001,concentric,5,5.0,34963.0,403431.0,141743.0,12020.0,-136.0
