pc_time,serial_num,sensor_ts,host_ts,ax,ay,az,gx,gy,gz,mx,my,mz,phase,rpe,weight_kg,ppg_a,ppg_b,ppg_c,ppg_d,ppg_e
2026-04-09 22:35:36.553597,512372,3066428359,3066429864,-1.124352,-0.037088,0.035136,-0.3675,4.06,-7.04375,23.408,-28.904001,39.192,eccentric,7,5.0,33118.0,403431.0,156368.0,19554.0,-113.0
2026-04-09 22:35:36.558126,512373,3066437292,3066438573,-1.124352,-0.037088,0.035136,2.7475,2.38,-7.14875,23.560001,-28.904001,39.192,eccentric,7,5.0,33118.0,403431.0,156368.0,19554.0,-113.0
2026-04-09 22:35:36.559556,512374,3066451796,3066453534,-1.15168,0.015616,0.060512,3.96375,1.82875,-7.245,23.824001,-28.648,39.264004,eccentric,7,5.0,33118.0,403431.0,156368.0,19554.0,-113.0
2026-04-09 22:35:36.561194,512375,3066460921,3066462235,-1.15168,0.015616,0.060512,5.29375,2.2925,-7.06125,23.824001,-28.648,39.264004,eccentric,7,5.0,33118.0,403431.0,156368.0,19554.0,-113.0
2026-04-09 22:35:36.565423,512376,3066469891,3066470937,-1.14192,-0.01952,0.023424,4.85625,2.625,-7.245,23.848001,-28.448002,39.272003,eccentric,7,5.0,33118.0,403431.0,156368.0,19554.0,-113.0
2026-04-09 22:35:36.596395,512387,3066484556,3066485913,-1.14192,-0.01952,0.023424,0.79625,3.0975,-7.1925,23.848001,-28.448002,39.272003,eccentric,7,5.0,33031.0,403431.0,157643.0,20597.0,-102.0
2026-04-09 22:35:36.598296,512388,3066493497,3066494650,-1.179008,-0.05856,-0.013664,-0.39375,3.4125,-5.8975,22.728,-28.816002,41.68,eccentric,7,5.0,33031.0,403431.0,157643.0,20597.0,-102.0
2026-04-09 22:35:36.600782,512389,3066502619,3066503398,-1.179008,-0.05856,-0.013664,0.49,2.24,-4.55,22.728,-28.816002,41.68,eccentric,7,5.0,33031.0,403431.0,157643.0,20597.0,-102.0
2026-04-09 22:35:36.602362,512390,3066512104,3066514239,-1.173152,-0.023424,0.015616,3.31625,0.32375,-2.58125,23.952002,-28.624,39.688004,eccentric,7,5.0,33031.0,403431.0,157643.0,20597.0,-102.0
2026-04-09 22:35:36.610311,512391,3066526619,3066527094,-1.173152,-0.023424,0.015616,6.4225,-0.7,-1.7325,23.952002,-28.624,39.688004,eccentric,7,5.0,33031.0,403431.0,157643.0,20597.0,-102.0
2026-04-09 22:35:36.638797,512392,3066535998,3066537855,-1.175104,0.052704,0.056608,7.805,0.2625,-2.03875,23.352001,-28.968002,39.704002,eccentric,7,5.0,33031.0,403431.0,157643.0,20597.0,-102.0
2026-04-09 22:35:36.642403,512393,3066544968,3066546611,-1.175104,0.052704,0.056608,4.87375,2.00375,-2.63375,23.352001,-28.968002,39.704002,eccentric,7,5.0,33031.0,403431.0,157643.0,20597.0,-102.0
2026-04-09 22:35:36.644850,512394,3066559435,3066561511,-1.179008,-0.015616,0.015616,-1.0675,3.85875,-3.395,23.208,-29.072,39.536003,eccentric,7,5.0,33031.0,403431.0,157643.0,20597.0,-102.0
2026-04-09 22:35:36.651135,512395,3066568494,3066570253,-1.179008,-0.017568,0.007808,-2.8875,4.4625,-4.025,23.208,-29.072,39.536003,eccentric,7,5.0,33031.0,403431.0,157643.0,20597.0,-102.0
2026-04-09 22:35:36.680922,512405,3066578103,3066579073,-1.179008,-0.017568,0.007808,-0.79625,4.6725,-2.58125,22.824001,-28.856,40.24,eccentric,7,5.0,33043.0,403431.0,158372.0,21096.0,-100.0
2026-04-09 22:35:36.682416,512406,3066587059,3066587799,-1.179008,-0.017568,0.007808,2.59875,4.48875,-3.5175,22.824001,-28.856,40.24,eccentric,7,5.0,33043.0,403431.0,158372.0,21096.0,-100.0
2026-04-09 22:35:36.684881,512407,3066602081,3066602753,-1.216096,0.003904,0.0,7.25375,4.2525,-4.7775,23.256,-28.448002,39.960003,eccentric,7,5.0,33043.0,403431.0,158372.0,21096.0,-100.0
2026-04-09 22:35:36.720080,512408,3066611424,3066613530,-1.18096,0.003904,0.021472,8.39125,3.8675,-4.2875,23.320002,-28.968002,39.088,eccentric,7,5.0,33043.0,403431.0,158372.0,21096.0,-100.0
2026-04-09 22:35:36.723646,512409,3066620365,3066622281,-1.18096,0.003904,0.021472,5.78375,3.59625,-3.94625,23.320002,-28.968002,39.088,eccentric,7,5.0,33043.0,403431.0,158372.0,21096.0,-100.0
2026-04-09 22:35:36.726128,512410,3066629288,3066630979,-1.16144,-0.02928,0.013664,3.2725,3.35125,-3.50875,23.248001,-29.12,40.416,eccentric,7,5.0,33043.0,403431.0,158372.0,21096.0,-100.0
2026-04-09 22:35:36.728650,512411,3066643768,3066645867,-1.16144,-0.02928,0.013664,0.41125,3.35125,-2.40625,23.248001,-29.12,40.416,eccentric,7,5.0,33043.0,403431.0,158372.0,21096.0,-100.0
2026-04-09 22:35:36.760235,512412,3066652712,3066654601,-1.21024,-0.023424,-0.023424,0.88375,4.03375,-0.67375,22.400002,-28.880001,40.36,eccentric,7,5.0,33043.0,403431.0,158372.0,21096.0,-100.0
2026-04-09 22:35:36.762593,512413,3066661642,3066663275,-1.21024,-0.023424,-0.023424,4.375,4.13,-0.09625,22.400002,-28.880001,40.36,eccentric,7,5.0,33043.0,403431.0,158372.0,21096.0,-100.0
2026-04-09 22:35:36.787357,512423,3066676197,3066678215,-1.169248,0.021472,0.003904,6.99125,3.675,0.4375,22.864,-29.368002,39.640003,eccentric,7,5.0,33033.0,403431.0,159061.0,21650.0,-118.0
2026-04-09 22:35:36.789964,512424,3066685175,3066686974,-1.169248,0.021472,0.003904,6.93875,4.5325,1.46125,22.864,-29.368002,39.640003,eccentric,7,5.0,33033.0,403431.0,159061.0,21650.0,-118.0
2026-04-09 22:35:36.794390,512425,3066694143,3066695689,-1.14192,0.005856,0.015616,4.62,4.7775,1.95125,22.224,-28.744001,40.464,eccentric,7,5.0,33033.0,403431.0,159061.0,21650.0,-118.0
2026-04-09 22:35:36.798621,512426,3066708677,3066710607,-1.14192,0.005856,-0.021472,0.62125,5.45125,1.225,22.224,-28.744001,40.464,eccentric,7,5.0,33033.0,403431.0,159061.0,21650.0,-118.0
2026-04-09 22:35:36.801180,512427,3066717734,3066719341,-1.177056,0.013664,-0.021472,1.14625,6.58,1.33,21.528002,-29.224,40.576,eccentric,7,5.0,33033.0,403431.0,159061.0,21650.0,-118.0
2026-04-09 22:35:36.858771,512428,3066726710,3066728096,-1.177056,0.013664,-0.021472,1.98625,6.1425,1.365,21.528002,-29.224,40.576,eccentric,7,5.0,33033.0,403431.0,159061.0,21650.0,-118.0
2026-04-09 22:35:36.861088,512429,3066735625,3066736791,-1.159488,-0.003904,-0.001952,2.09125,5.29375,1.26,23.008001,-28.992,39.096,eccentric,7,5.0,33033.0,403431.0,159061.0,21650.0,-118.0
2026-04-09 22:35:36.863603,512430,3066750108,3066751694,-1.128256,0.011712,-0.007808,3.2375,5.24125,1.82875,22.664001,-29.104002,40.08,eccentric,7,5.0,33033.0,403431.0,159061.0,21650.0,-118.0
2026-04-09 22:35:36.866158,512431,3066759032,3066760392,-1.128256,0.011712,-0.007808,3.61375,5.425,2.31,22.664001,-29.104002,40.08,eccentric,7,5.0,33033.0,403431.0,159061.0,21650.0,-118.0
2026-04-09 22:35:36.868811,512432,3066767936,3066769040,-1.128256,0.011712,-0.007808,1.9425,6.0025,3.22,22.664001,-29.104002,40.08,eccentric,7,5.0,33033.0,403431.0,159061.0,21650.0,-118.0
2026-04-09 22:35:36.896281,512443,3066782460,3066784180,-1.147776,-0.00976,-0.031232,-0.48125,6.02875,3.98125,22.560001,-29.064001,38.736,eccentric,7,5.0,33031.0,403431.0,159278.0,21848.0,-107.0
2026-04-09 22:35:36.898838,512444,3066791430,3066792964,-1.124352,-0.003904,-0.017568,-0.875,6.01125,4.54125,21.768002,-29.376001,39.760002,eccentric,7,5.0,33031.0,403431.0,159278.0,21848.0,-107.0
2026-04-09 22:35:36.901139,512445,3066800463,3066801679,-1.124352,-0.003904,-0.017568,0.58625,5.11875,5.15375,21.768002,-29.376001,39.760002,eccentric,7,5.0,33031.0,403431.0,159278.0,21848.0,-107.0
2026-04-09 22:35:36.903647,512446,3066815000,3066816598,-1.097024,0.040992,0.011712,3.38625,4.7775,5.64375,21.912,-29.376001,39.344,eccentric,7,5.0,33031.0,403431.0,159278.0,21848.0,-107.0
2026-04-09 22:35:36.906141,512447,3066824007,3066825418,-1.097024,0.040992,0.011712,5.24125,4.8475,5.845,21.912,-29.376001,39.344,eccentric,7,5.0,33031.0,403431.0,159278.0,21848.0,-107.0
2026-04-09 22:35:36.936394,512448,3066832942,3066834165,-1.097024,0.005856,-0.021472,3.36875,5.24125,5.7925,21.536001,-29.352001,39.176003,eccentric,7,5.0,33031.0,403431.0,159278.0,21848.0,-107.0
2026-04-09 22:35:36.939929,512449,3066847471,3066849209,-1.097024,0.005856,-0.021472,2.8875,5.22375,5.25,21.536001,-29.352001,39.176003,eccentric,7,5.0,33031.0,403431.0,159278.0,21848.0,-107.0
2026-04-09 22:35:36.942387,512450,3066856353,3066857898,-1.10288,0.02928,-0.015616,4.41875,4.5325,4.13875,21.184002,-29.384,39.176003,eccentric,7,5.0,33031.0,403431.0,159278.0,21848.0,-107.0
2026-04-09 22:35:36.947385,512451,3066865293,3066866667,-1.10288,0.02928,-0.015616,5.39,4.97,4.4275,21.184002,-29.384,39.176003,eccentric,7,5.0,33031.0,403431.0,159278.0,21848.0,-107.0
2026-04-09 22:35:36.977630,512452,3066874238,3066875374,-1.0736,0.017568,-0.011712,4.2,5.03125,5.0225,20.552,-29.304,39.456,eccentric,7,5.0,33031.0,403431.0,159278.0,21848.0,-107.0
2026-04-09 22:35:37.004627,512462,3066888717,3066890306,-1.0736,0.017568,-0.011712,1.91625,5.24125,5.215,20.552,-29.304,39.456,eccentric,7,5.0,33143.0,403431.0,158067.0,20759.0,-112.0
2026-04-09 22:35:37.006082,512463,3066897619,3066899006,-1.06384,0.011712,-0.013664,2.10875,5.5125,4.75125,21.256,-29.112001,40.744003,eccentric,7,5.0,33143.0,403431.0,158067.0,20759.0,-112.0
2026-04-09 22:35:37.008637,512464,3066906603,3066907718,-1.06384,0.011712,-0.013664,4.795,5.985,5.74875,21.256,-29.112001,40.744003,eccentric,7,5.0,33143.0,403431.0,158067.0,20759.0,-112.0
2026-04-09 22:35:37.011130,512465,3066921099,3066922703,-1.0736,0.031232,-0.035136,6.16,6.2825,6.09,21.264002,-28.848001,39.184002,eccentric,7,5.0,33143.0,403431.0,158067.0,20759.0,-112.0
2026-04-09 22:35:37.013650,512466,3066930059,3066931464,-1.032608,0.033184,-0.007808,4.725,6.04625,6.41375,21.264002,-28.848001,39.656002,eccentric,7,5.0,33143.0,403431.0,158067.0,20759.0,-112.0
2026-04-09 22:35:37.044860,512467,3066938996,3066940212,-1.032608,0.033184,-0.007808,5.24125,5.80125,6.7025,21.336,-29.560001,39.656002,eccentric,7,5.0,33143.0,403431.0,158067.0,20759.0,-112.0
2026-04-09 22:35:37.049186,512468,3066953460,3066955114,-1.011136,0.005856,-0.001952,4.9,5.7575,7.41125,20.68,-29.600002,39.072002,eccentric,7,5.0,33143.0,403431.0,158067.0,20759.0,-112.0
2026-04-09 22:35:37.050881,512469,3066962341,3066963804,-1.011136,0.005856,-0.001952,2.625,6.60625,7.91875,20.68,-29.600002,39.072002,eccentric,7,5.0,33143.0,403431.0,158067.0,20759.0,-112.0
2026-04-09 22:35:37.052482,512470,3066971317,3066972534,-1.00528,0.023424,-0.005856,2.09125,7.875,7.76125,19.352001,-29.368002,40.784,eccentric,7,5.0,33143.0,403431.0,158067.0,20759.0,-112.0
2026-04-09 22:35:37.086691,512480,3066985836,3066987503,-1.00528,0.023424,-0.005856,5.17125,8.18125,6.7025,19.352001,-29.368002,40.784,eccentric,7,5.0,33318.0,403431.0,156210.0,19108.0,-109.0
2026-04-09 22:35:37.088680,512481,3066994779,3066996206,-0.970144,0.076128,0.005856,9.31875,8.47875,5.87125,20.104,-29.992,40.504,eccentric,7,5.0,33318.0,403431.0,156210.0,19108.0,-109.0
2026-04-09 22:35:37.090337,512482,3067003729,3067004919,-0.970144,0.076128,0.005856,11.025,7.805,4.87375,20.104,-29.992,40.504,eccentric,7,5.0,33318.0,403431.0,156210.0,19108.0,-109.0
2026-04-09 22:35:37.097989,512483,3067012742,3067013670,-0.96624,0.060512,-0.027328,7.9625,8.1375,4.3225,19.160002,-29.464,39.112003,eccentric,7,5.0,33318.0,403431.0,156210.0,19108.0,-109.0
2026-04-09 22:35:37.154826,512484,3067027249,3067028596,-0.96624,0.060512,-0.027328,2.9225,9.0825,4.34,19.160002,-29.464,39.112003,eccentric,7,5.0,33318.0,403431.0,156210.0,19108.0,-109.0
2026-04-09 22:35:37.158482,512485,3067036135,3067037283,-0.991616,0.005856,-0.031232,0.84,9.835,3.42125,20.304,-29.160002,38.912003,eccentric,7,5.0,33318.0,403431.0,156210.0,19108.0,-109.0
2026-04-09 22:35:37.161950,512486,3067045102,3067045983,-0.991616,0.005856,-0.031232,1.60125,8.8025,3.38625,20.304,-29.160002,38.912003,eccentric,7,5.0,33318.0,403431.0,156210.0,19108.0,-109.0
2026-04-09 22:35:37.163805,512487,3067059608,3067060911,-0.958432,0.021472,0.001952,4.2175,8.0675,5.03125,20.392,-29.592001,38.776,eccentric,7,5.0,33318.0,403431.0,156210.0,19108.0,-109.0
2026-04-09 22:35:37.165632,512488,3067068516,3067069610,-0.958432,0.021472,0.001952,5.74875,7.88375,6.2825,20.392,-29.592001,38.776,eccentric,7,5.0,33318.0,403431.0,156210.0,19108.0,-109.0
2026-04-09 22:35:37.193420,512499,3067078052,3067078418,-0.925248,0.037088,0.0488,7.56875,8.015,6.5625,19.784,-29.968002,39.120003,eccentric,7,5.0,33456.0,403431.0,154600.0,17710.0,-107.0
2026-04-09 22:35:37.194962,512500,3067087417,3067089234,-0.925248,0.037088,0.0488,8.47875,8.26875,7.0175,19.784,-29.968002,39.120003,eccentric,7,5.0,33456.0,403431.0,154600.0,17710.0,-107.0
2026-04-09 22:35:37.199188,512501,3067101966,3067104242,-0.964288,0.093696,-0.00976,8.5575,9.42375,7.28,18.904001,-29.896002,38.920002,eccentric,7,5.0,33456.0,403431.0,154600.0,17710.0,-107.0
2026-04-09 22:35:37.201735,512502,3067111045,3067112994,-1.016992,0.076128,-0.052704,6.13375,10.43,6.08125,19.472,-29.928001,39.736,eccentric,7,5.0,33456.0,403431.0,154600.0,17710.0,-107.0
2026-04-09 22:35:37.205321,512503,3067120062,3067121721,-1.016992,0.076128,-0.052704,4.31375,10.3775,4.375,19.472,-29.928001,39.736,eccentric,7,5.0,33456.0,403431.0,154600.0,17710.0,-107.0
2026-04-09 22:35:37.233923,512504,3067134548,3067136568,-0.999424,0.037088,-0.031232,5.565,9.33625,3.99,18.928001,-30.288002,39.504,eccentric,7,5.0,33456.0,403431.0,154600.0,17710.0,-107.0
2026-04-09 22:35:37.238783,512505,3067143503,3067145279,-0.999424,0.037088,-0.031232,7.14875,7.945,3.675,18.928001,-30.288002,39.504,eccentric,7,5.0,33456.0,403431.0,154600.0,17710.0,-107.0
2026-04-09 22:35:37.239902,512506,3067152454,3067153972,-0.968192,0.070272,0.031232,9.61625,5.94125,4.17375,18.536001,-30.160002,41.128002,eccentric,7,5.0,33456.0,403431.0,154600.0,17710.0,-107.0
2026-04-09 22:35:37.273052,512507,3067166951,3067168910,-0.968192,0.070272,0.031232,12.3025,4.62875,3.82375,18.536001,-30.160002,41.128002,eccentric,7,5.0,33456.0,403431.0,154600.0,17710.0,-107.0
2026-04-09 22:35:37.297121,512517,3067175867,3067178010,-0.981856,0.089792,0.023424,11.3925,5.38125,2.89625,18.176,-30.264002,38.712,eccentric,7,5.0,33626.0,403431.0,152888.0,16132.0,-125.0
2026-04-09 22:35:37.298645,512518,3067184775,3067186780,-0.981856,0.089792,0.023424,8.81125,6.55375,3.12375,18.176,-30.264002,38.712,eccentric,7,5.0,33626.0,403431.0,152888.0,16132.0,-125.0
2026-04-09 22:35:37.302918,512519,3067193702,3067195491,-1.046272,0.0976,-0.054656,7.35875,7.1925,2.84375,19.464,-30.272001,38.568,eccentric,7,5.0,33626.0,403431.0,152888.0,16132.0,-125.0
2026-04-09 22:35:37.304651,512520,3067208214,3067210459,-1.046272,0.0976,-0.054656,7.55125,6.79,1.995,19.464,-30.272001,38.568,eccentric,7,5.0,33626.0,403431.0,152888.0,16132.0,-125.0
2026-04-09 22:35:37.306156,512521,3067217138,3067219171,-1.048224,0.070272,-0.023424,8.33,5.67,0.58625,17.104,-30.024002,39.464,eccentric,7,5.0,33626.0,403431.0,152888.0,16132.0,-125.0
2026-04-09 22:35:37.309945,512522,3067226110,3067227919,-1.048224,0.070272,-0.023424,9.065,3.71,0.69125,17.104,-30.024002,39.464,eccentric,7,5.0,33626.0,403431.0,152888.0,16132.0,-125.0
2026-04-09 22:35:37.341498,512523,3067240677,3067242882,-0.981856,0.083936,0.052704,10.28125,2.93125,0.88375,17.824001,-30.240002,39.280003,eccentric,7,5.0,33626.0,403431.0,152888.0,16132.0,-125.0
2026-04-09 22:35:37.349156,512524,3067249588,3067251590,-0.981856,0.083936,0.052704,11.31375,3.21125,1.07625,17.824001,-30.240002,39.280003,eccentric,7,5.0,33626.0,403431.0,152888.0,16132.0,-125.0
2026-04-09 22:35:37.350803,512525,3067258588,3067260310,-1.009184,0.101504,0.017568,8.96875,4.1825,1.9425,18.568,-29.872002,38.216003,eccentric,7,5.0,33626.0,403431.0,152888.0,16132.0,-125.0
2026-04-09 22:35:37.381047,512526,3067273176,3067275201,-1.036512,0.056608,-0.02928,4.92625,5.2675,2.94875,18.424002,-30.328001,37.776,eccentric,7,5.0,33626.0,403431.0,152888.0,16132.0,-125.0
2026-04-09 22:35:37.423220,512536,3067282203,3067283965,-1.036512,0.056608,-0.02928,3.22,5.66125,2.835,18.424002,-30.328001,37.776,eccentric,7,5.0,33840.0,403431.0,150744.0,14352.0,-114.0
2026-04-09 22:35:37.456007,512537,3067291233,3067292687,-1.036512,0.064416,-0.035136,4.935,4.69875,3.7275,18.424002,-30.328001,37.776,eccentric,7,5.0,33840.0,403431.0,150744.0,14352.0,-114.0
2026-04-09 22:35:37.458327,512538,3067300238,3067301391,-1.018944,0.064416,-0.035136,7.09625,3.21125,4.71625,18.192001,-30.736002,38.032,eccentric,7,5.0,33840.0,403431.0,150744.0,14352.0,-114.0
2026-04-09 22:35:37.462988,512539,3067314820,3067316454,-0.981856,0.060512,0.011712,8.295,0.62125,5.0575,17.376001,-30.352001,39.424004,eccentric,7,5.0,33840.0,403431.0,150744.0,14352.0,-114.0
2026-04-09 22:35:37.464690,512540,3067323936,3067325161,-0.981856,0.060512,0.011712,11.36625,-0.55125,4.2525,17.376001,-30.352001,39.424004,eccentric,7,5.0,33840.0,403431.0,150744.0,14352.0,-114.0
2026-04-09 22:35:37.466233,512541,3067332921,3067333901,-0.993568,0.128832,0.013664,15.61875,-0.93625,3.61375,17.216002,-30.112001,39.552002,eccentric,7,5.0,33840.0,403431.0,150744.0,14352.0,-114.0
2026-04-09 22:35:37.470412,512542,3067347460,3067348829,-0.993568,0.128832,0.013664,16.35375,-1.16375,3.045,17.216002,-30.112001,39.552002,eccentric,7,5.0,33840.0,403431.0,150744.0,14352.0,-114.0
2026-04-09 22:35:37.472609,512543,3067356385,3067357519,-1.003328,0.119072,0.015616,13.9125,-1.68,2.16125,17.608002,-30.672,38.104,eccentric,7,5.0,33840.0,403431.0,150744.0,14352.0,-114.0
2026-04-09 22:35:37.474650,512544,3067365316,3067366199,-1.003328,0.119072,0.015616,9.31875,-1.65375,0.98875,17.608002,-30.672,38.104,eccentric,7,5.0,33840.0,403431.0,150744.0,14352.0,-114.0
2026-04-09 22:35:37.502947,512555,3067379993,3067381270,-0.999424,0.08784,0.023424,6.405,-1.9775,0.0175,17.880001,-30.880001,38.120003,eccentric,7,5.0,33940.0,403431.0,150012.0,13745.0,-129.0
2026-04-09 22:35:37.504658,512556,3067389001,3067390036,-0.999424,0.08784,0.023424,7.35,-2.625,-1.44375,17.880001,-30.880001,38.120003,eccentric,7,5.0,33940.0,403431.0,150012.0,13745.0,-129.0
2026-04-09 22:35:37.506234,512557,3067397959,3067398801,-0.993568,0.105408,0.042944,8.75875,-2.59875,-2.485,18.0,-30.304,37.760002,eccentric,7,5.0,33940.0,403431.0,150012.0,13745.0,-129.0
2026-04-09 22:35:37.510520,512558,3067406892,3067407519,-0.993568,0.105408,0.042944,8.6625,-2.3275,-3.185,18.0,-30.304,37.760002,eccentric,7,5.0,33940.0,403431.0,150012.0,13745.0,-129.0
2026-04-09 22:35:37.512158,512559,3067421765,3067422434,-0.993568,0.122976,0.0488,5.74875,-1.9775,-3.185,18.008001,-30.592001,37.848003,eccentric,7,5.0,33940.0,403431.0,150012.0,13745.0,-129.0
2026-04-09 22:35:37.513730,512560,3067431070,3067433286,-0.993568,0.122976,0.0488,1.79375,-1.18125,-4.0775,18.008001,-30.592001,37.848003,eccentric,7,5.0,33940.0,403431.0,150012.0,13745.0,-129.0
2026-04-09 22:35:37.544787,512561,3067440169,3067442024,-1.016992,0.093696,0.017568,-1.505,-0.39375,-5.3725,17.688002,-30.824001,38.408,eccentric,7,5.0,33940.0,403431.0,150012.0,13745.0,-129.0
2026-04-09 22:35:37.549298,512562,3067454675,3067456929,-1.009184,0.113216,0.00976,-0.665,-0.67375,-5.64375,17.76,-30.192001,38.160004,eccentric,7,5.0,33940.0,403431.0,150012.0,13745.0,-129.0
2026-04-09 22:35:37.550809,512563,3067463596,3067465631,-1.009184,0.113216,0.00976,0.39375,-1.4175,-5.775,17.76,-30.192001,38.160004,eccentric,7,5.0,33940.0,403431.0,150012.0,13745.0,-129.0
2026-04-09 22:35:37.558751,512564,3067472584,3067474357,-1.020896,0.111264,0.01952,-0.9275,-1.96,-6.27375,16.864,-30.184002,39.864002,eccentric,7,5.0,33940.0,403431.0,150012.0,13745.0,-129.0
2026-04-09 22:35:37.585454,512574,3067481605,3067483154,-1.020896,0.111264,0.01952,-1.9425,-2.24875,-6.79,16.864,-30.184002,39.864002,eccentric,7,5.0,33946.0,403431.0,149909.0,13587.0,-120.0
2026-04-09 22:35:37.587147,512575,3067496306,3067498123,-1.007232,0.103456,0.01952,-2.56375,-2.72125,-6.88625,17.456001,-30.296001,38.416,eccentric,7,5.0,33946.0,403431.0,149909.0,13587.0,-120.0
2026-04-09 22:35:37.588693,512576,3067505315,3067506848,-1.007232,0.103456,0.01952,-3.605,-3.745,-7.13125,17.456001,-30.296001,38.416,eccentric,7,5.0,33946.0,403431.0,149909.0,13587.0,-120.0
2026-04-09 22:35:37.618894,512577,3067514264,3067515605,-1.00528,0.115168,0.013664,-3.29,-4.2875,-6.5275,17.6,-30.632002,38.536003,eccentric,7,5.0,33946.0,403431.0,149909.0,13587.0,-120.0
2026-04-09 22:35:37.623496,512578,3067528750,3067530489,-1.00528,0.115168,0.013664,-3.535,-3.7975,-6.71125,17.6,-30.632002,38.536003,eccentric,7,5.0,33946.0,403431.0,149909.0,13587.0,-120.0
2026-04-09 22:35:37.625031,512579,3067537722,3067539206,-1.013088,0.130784,0.027328,-4.3225,-3.24625,-6.76375,17.28,-30.320002,38.496002,eccentric,7,5.0,33946.0,403431.0,149909.0,13587.0,-120.0
2026-04-09 22:35:37.633323,512580,3067546640,3067547893,-1.013088,0.130784,0.027328,-4.97875,-3.01,-7.07,17.28,-30.320002,38.496002,eccentric,7,5.0,33946.0,403431.0,149909.0,13587.0,-120.0
2026-04-09 22:35:37.696416,512581,3067561228,3067562784,-1.022848,0.11712,0.005856,-5.43375,-2.05625,-7.63,17.744001,-30.408,38.72,eccentric,7,5.0,33946.0,403431.0,149909.0,13587.0,-120.0
2026-04-09 22:35:37.699979,512582,3067570234,3067571501,-1.022848,0.11712,0.005856,-5.29375,-1.68,-8.5225,17.744001,-30.408,38.72,eccentric,7,5.0,33946.0,403431.0,149909.0,13587.0,-120.0
2026-04-09 22:35:37.757481,512592,3067579132,3067580343,-1.032608,0.10736,0.015616,-3.5175,-1.79375,-9.0125,17.888,-30.152002,38.696003,eccentric,7,5.0,33977.0,403431.0,149694.0,13365.0,-131.0
2026-04-09 22:35:37.759958,512593,3067588978,3067591113,-1.032608,0.10736,0.015616,-2.19625,-1.72375,-8.3475,17.888,-30.152002,38.696003,eccentric,7,5.0,33977.0,403431.0,149694.0,13365.0,-131.0
2026-04-09 22:35:37.762420,512594,3067603467,3067603947,-1.009184,0.105408,0.03904,-1.74125,-1.3125,-7.72625,18.232,-30.152002,38.912003,eccentric,7,5.0,33977.0,403431.0,149694.0,13365.0,-131.0
2026-04-09 22:35:37.765003,512595,3067612888,3067614705,-1.026752,0.115168,0.011712,-0.77875,-0.7175,-7.14875,17.984001,-29.744001,39.224003,eccentric,7,5.0,33977.0,403431.0,149694.0,13365.0,-131.0
2026-04-09 22:35:37.767432,512596,3067621808,3067623399,-1.026752,0.115168,0.011712,-2.23125,1.49625,-7.14875,17.984001,-29.744001,39.224003,eccentric,7,5.0,33977.0,403431.0,149694.0,13365.0,-131.0
2026-04-09 22:35:37.769913,512597,3067630778,3067632118,-1.026752,0.115168,0.011712,-2.2575,2.45,-7.13125,17.984001,-29.744001,39.224003,concentric,7,5.0,33977.0,403431.0,149694.0,13365.0,-131.0
2026-04-09 22:35:37.772415,512598,3067645303,3067647108,-1.046272,0.099552,-0.015616,-1.5575,2.695,-6.95625,16.84,-29.768002,40.048,concentric,7,5.0,33977.0,403431.0,149694.0,13365.0,-131.0
2026-04-09 22:35:37.774919,512599,3067654228,3067655864,-1.036512,0.080032,0.001952,-1.67125,2.09125,-6.5275,17.944,-30.2,37.24,concentric,7,5.0,33977.0,403431.0,149694.0,13365.0,-131.0
2026-04-09 22:35:37.777434,512600,3067663131,3067664543,-1.036512,0.080032,0.001952,-0.1575,1.42625,-5.215,17.944,-30.2,37.24,concentric,7,5.0,33977.0,403431.0,149694.0,13365.0,-131.0
2026-04-09 22:35:37.779937,512601,3067677601,3067679433,-1.020896,0.109312,0.027328,1.98625,1.39125,-4.48,17.976002,-29.768002,39.04,concentric,7,5.0,33977.0,403431.0,149694.0,13365.0,-131.0
2026-04-09 22:35:37.809928,512612,3067686599,3067688156,-1.020896,0.109312,0.027328,2.52,2.30125,-4.99625,17.976002,-29.768002,39.04,concentric,7,5.0,34006.0,403431.0,149662.0,13351.0,-132.0
2026-04-09 22:35:37.812448,512613,3067695560,3067696895,-1.042368,0.105408,-0.00976,2.49375,2.93125,-5.1625,17.160002,-30.136002,38.296,concentric,7,5.0,34006.0,403431.0,149662.0,13351.0,-132.0
2026-04-09 22:35:37.814965,512614,3067710128,3067711842,-1.042368,0.105408,-0.00976,2.1175,3.3425,-6.16875,17.160002,-30.136002,38.296,concentric,7,5.0,34006.0,403431.0,149662.0,13351.0,-132.0
2026-04-09 22:35:37.817435,512615,3067719090,3067720609,-1.04432,0.083936,0.005856,2.59875,3.0275,-6.3525,16.816,-30.336002,38.352,concentric,7,5.0,34006.0,403431.0,149662.0,13351.0,-132.0
2026-04-09 22:35:37.819903,512616,3067728026,3067729371,-1.04432,0.083936,0.005856,4.36625,2.84375,-5.25,16.816,-30.336002,38.352,concentric,7,5.0,34006.0,403431.0,149662.0,13351.0,-132.0
2026-04-09 22:35:37.823540,512617,3067737057,3067738092,-1.016992,0.111264,0.013664,5.565,2.765,-5.215,17.240002,-30.272001,38.592003,concentric,7,5.0,34006.0,403431.0,149662.0,13351.0,-132.0
2026-04-09 22:35:37.852656,512618,3067751530,3067753034,-1.016992,0.111264,0.013664,4.795,3.40375,-5.20625,17.240002,-30.272001,38.592003,concentric,7,5.0,34006.0,403431.0,149662.0,13351.0,-132.0
2026-04-09 22:35:37.856168,512619,3067760428,3067761721,-1.042368,0.099552,0.013664,2.3275,5.18,-4.935,17.848001,-30.000002,38.064003,concentric,7,5.0,34006.0,403431.0,149662.0,13351.0,-132.0
2026-04-09 22:35:37.858705,512620,3067769339,3067770433,-1.042368,0.099552,0.013664,1.21625,5.94125,-5.355,17.848001,-30.000002,38.064003,concentric,7,5.0,34006.0,403431.0,149662.0,13351.0,-132.0
2026-04-09 22:35:37.886185,512630,3067784287,3067785807,-1.020896,0.091744,-0.003904,1.75,6.475,-5.8625,17.496,-29.936,38.536003,concentric,7,5.0,33926.0,403431.0,150812.0,14279.0,-127.0
2026-04-09 22:35:37.888727,512631,3067793343,3067794608,-1.026752,0.113216,-0.023424,3.4825,6.86,-6.1425,17.496,-30.12,38.296,concentric,7,5.0,33926.0,403431.0,150812.0,14279.0,-127.0
2026-04-09 22:35:37.891185,512632,3067802301,3067803332,-1.026752,0.113216,-0.023424,4.85625,7.00875,-6.71125,16.912,-30.12,38.296,concentric,7,5.0,33926.0,403431.0,150812.0,14279.0,-127.0
2026-04-09 22:35:37.921406,512633,3067816785,3067818241,-1.0248,0.0976,0.01952,4.89125,6.755,-7.77875,17.008001,-30.432001,40.824,concentric,7,5.0,33926.0,403431.0,150812.0,14279.0,-127.0
2026-04-09 22:35:37.924958,512634,3067825691,3067826977,-1.0248,0.0976,0.01952,3.185,6.335,-8.2775,17.008001,-30.432001,40.824,concentric,7,5.0,33926.0,403431.0,150812.0,14279.0,-127.0
2026-04-09 22:35:37.927460,512635,3067834585,3067835682,-1.01504,0.101504,0.027328,1.715,7.28,-8.7675,17.68,-29.760002,38.624,concentric,7,5.0,33926.0,403431.0,150812.0,14279.0,-127.0
2026-04-09 22:35:37.929946,512636,3067843506,3067844373,-1.01504,0.101504,0.027328,-0.8575,9.73875,-9.2575,17.68,-29.760002,38.624,concentric,7,5.0,33926.0,403431.0,150812.0,14279.0,-127.0
2026-04-09 22:35:37.960177,512637,3067858037,3067859255,-1.03456,0.093696,0.007808,-1.82,10.77125,-10.28125,17.808,-30.384,38.552002,concentric,7,5.0,33926.0,403431.0,150812.0,14279.0,-127.0
2026-04-09 22:35:37.964770,512638,3067866914,3067867973,-1.03456,0.093696,0.007808,-1.7675,11.69,-11.40125,17.808,-30.384,38.552002,concentric,7,5.0,33926.0,403431.0,150812.0,14279.0,-127.0
2026-04-09 22:35:37.966142,512639,3067875826,3067876683,-1.048224,0.0976,-0.013664,-0.18375,11.13,-11.75125,18.192001,-30.296001,38.408,concentric,7,5.0,33926.0,403431.0,150812.0,14279.0,-127.0
2026-04-09 22:35:37.993712,512649,3067890956,3067891643,-1.048224,0.0976,-0.013664,0.84875,10.535,-12.41625,18.192001,-30.296001,38.408,concentric,7,5.0,33815.0,403431.0,151781.0,15038.0,-124.0
2026-04-09 22:35:37.996153,512650,3067900352,3067902399,-1.032608,0.10736,0.00976,0.63,10.29875,-13.2475,16.992,-29.600002,39.552002,concentric,7,5.0,33815.0,403431.0,151781.0,15038.0,-124.0
2026-04-09 22:35:37.998754,512651,3067909336,3067911108,-1.032608,0.10736,0.00976,-0.1225,10.73625,-13.60625,16.992,-29.600002,39.552002,concentric,7,5.0,33815.0,403431.0,151781.0,15038.0,-124.0
2026-04-09 22:35:38.001169,512652,3067918305,3067919878,-1.032608,0.081984,0.01952,-2.54625,12.20625,-14.6825,18.104,-29.592001,39.488003,concentric,7,5.0,33815.0,403431.0,151781.0,15038.0,-124.0
2026-04-09 22:35:38.051431,512653,3067932805,3067934820,-1.032608,0.081984,0.01952,-5.67,13.02,-14.56,18.104,-29.592001,39.488003,concentric,7,5.0,33815.0,403431.0,151781.0,15038.0,-124.0
2026-04-09 22:35:38.054945,512654,3067941755,3067943518,-1.046272,0.062464,-0.017568,-5.95,13.50125,-14.105001,19.008001,-30.016,38.280003,concentric,7,5.0,33815.0,403431.0,151781.0,15038.0,-124.0
2026-04-09 22:35:38.057510,512655,3067950700,3067952208,-1.046272,0.062464,-0.017568,-5.76625,12.3725,-13.7025,19.008001,-30.016,38.280003,concentric,7,5.0,33815.0,403431.0,151781.0,15038.0,-124.0
2026-04-09 22:35:38.060004,512656,3067965168,3067967118,-1.036512,0.066368,-0.015616,-4.80375,11.7075,-13.440001,19.064001,-29.856,38.320004,concentric,7,5.0,33815.0,403431.0,151781.0,15038.0,-124.0
2026-04-09 22:35:38.062425,512657,3067974078,3067975813,-1.016992,0.095648,-0.003904,-2.8175,11.33125,-12.90625,19.064001,-30.320002,37.68,concentric,7,5.0,33815.0,403431.0,151781.0,15038.0,-124.0
2026-04-09 22:35:38.089942,512668,3067983569,3067984907,-1.016992,0.095648,-0.003904,-2.52,11.43625,-12.62625,19.016,-30.320002,37.68,concentric,7,5.0,33708.0,403431.0,153207.0,16250.0,-119.0
2026-04-09 22:35:38.092446,512669,3067992626,3067993725,-1.016992,0.095648,-0.003904,-3.5525,11.06875,-12.6525,19.016,-30.320002,37.68,concentric,7,5.0,33708.0,403431.0,153207.0,16250.0,-119.0
2026-04-09 22:35:38.094888,512670,3068007165,3068008703,-1.013088,0.070272,-0.001952,-5.92375,11.515,-13.230001,18.480001,-29.736002,38.704002,concentric,7,5.0,33708.0,403431.0,153207.0,16250.0,-119.0
2026-04-09 22:35:38.098693,512671,3068016114,3068017432,-1.016992,0.05856,-0.01952,-7.49,12.06625,-13.4575,18.968,-29.624,39.600002,concentric,7,5.0,33708.0,403431.0,153207.0,16250.0,-119.0
2026-04-09 22:35:38.128879,512672,3068025116,3068026132,-1.016992,0.05856,-0.01952,-6.93875,11.71625,-13.2475,18.968,-29.624,39.600002,concentric,7,5.0,33708.0,403431.0,153207.0,16250.0,-119.0
2026-04-09 22:35:38.132450,512673,3068039566,3068041048,-1.011136,0.074176,-0.00976,-4.57625,11.05125,-12.67,19.44,-29.160002,38.152,concentric,7,5.0,33708.0,403431.0,153207.0,16250.0,-119.0
2026-04-09 22:35:38.134958,512674,3068048591,3068049794,-1.011136,0.074176,-0.00976,-3.85,10.19375,-13.2825,19.44,-29.160002,38.152,concentric,7,5.0,33708.0,403431.0,153207.0,16250.0,-119.0
2026-04-09 22:35:38.140004,512675,3068057521,3068058490,-1.011136,0.06832,0.001952,-2.44125,9.4325,-13.90375,19.152,-29.560001,39.328003,concentric,7,5.0,33708.0,403431.0,153207.0,16250.0,-119.0
2026-04-09 22:35:38.170230,512676,3068072037,3068073389,-1.011136,0.06832,0.001952,-2.5375,9.42375,-14.542501,19.152,-29.560001,39.328003,concentric,7,5.0,33708.0,403431.0,153207.0,16250.0,-119.0
2026-04-09 22:35:38.173813,512677,3068080950,3068082117,-1.018944,0.062464,-0.013664,-3.66625,9.45,-14.16625,19.416,-29.672,37.968002,concentric,7,5.0,33708.0,403431.0,153207.0,16250.0,-119.0
2026-04-09 22:35:38.203676,512687,3068089868,3068090865,-1.018944,0.062464,-0.013664,-4.71625,10.6575,-13.86875,19.416,-29.672,37.968002,concentric,7,5.0,33512.0,403431.0,154786.0,17617.0,-103.0
2026-04-09 22:35:38.205037,512688,3068104354,3068105770,-1.061888,0.06832,-0.03904,-7.4025,12.145,-13.34375,19.864,-29.912,38.640003,concentric,7,5.0,33512.0,403431.0,154786.0,17617.0,-103.0
2026-04-09 22:35:38.207509,512689,3068113319,3068114476,-1.061888,0.06832,-0.03904,-8.35625,12.635,-12.7225,19.864,-29.912,38.640003,concentric,7,5.0,33512.0,403431.0,154786.0,17617.0,-103.0
2026-04-09 22:35:38.209839,512690,3068122252,3068123249,-1.038464,0.040992,0.0,-7.6125,11.06875,-13.48375,18.640001,-29.328001,39.576,concentric,7,5.0,33512.0,403431.0,154786.0,17617.0,-103.0
2026-04-09 22:35:38.212464,512691,3068131211,3068131983,-1.038464,0.040992,0.0,-6.62375,9.80875,-12.97625,18.640001,-29.328001,39.576,concentric,7,5.0,33512.0,403431.0,154786.0,17617.0,-103.0
2026-04-09 22:35:38.245211,512692,3068146162,3068146893,-0.999424,0.03904,0.035136,-5.04,10.29,-11.20875,18.656,-29.560001,39.288002,concentric,7,5.0,33512.0,403431.0,154786.0,17617.0,-103.0
2026-04-09 22:35:38.248783,512693,3068155515,3068157651,-1.003328,0.042944,-0.035136,-5.39,10.5525,-9.45,19.976002,-29.592001,38.288002,concentric,7,5.0,33512.0,403431.0,154786.0,17617.0,-103.0
2026-04-09 22:35:38.251168,512694,3068164503,3068166375,-1.003328,0.042944,-0.035136,-7.34125,11.08625,-7.7875,19.976002,-29.592001,38.288002,concentric,7,5.0,33512.0,403431.0,154786.0,17617.0,-103.0
2026-04-09 22:35:38.281780,512695,3068179024,3068181331,-1.059936,0.037088,-0.08784,-11.27,11.655,-6.1075,19.720001,-29.160002,38.536003,concentric,7,5.0,33512.0,403431.0,154786.0,17617.0,-103.0
2026-04-09 22:35:38.307449,512705,3068188071,3068190226,-1.059936,0.037088,-0.08784,-13.25625,11.06,-5.32875,19.720001,-29.160002,38.536003,concentric,7,5.0,33234.0,403431.0,156354.0,19089.0,-107.0
2026-04-09 22:35:38.309933,512706,3068197123,3068198937,-1.0248,0.054656,-0.017568,-10.33375,9.1525,-5.34625,19.856,-29.216002,38.2,concentric,7,5.0,33234.0,403431.0,156354.0,19089.0,-107.0
2026-04-09 22:35:38.312440,512707,3068206114,3068207619,-1.0248,0.054656,-0.017568,-3.19375,7.04375,-7.8225,19.856,-29.216002,38.2,concentric,7,5.0,33234.0,403431.0,156354.0,19089.0,-107.0
2026-04-09 22:35:38.314976,512708,3068220644,3068222609,-0.974048,0.08784,0.027328,2.45,4.78625,-9.73875,18.224,-29.168001,40.464,concentric,7,5.0,33234.0,403431.0,156354.0,19089.0,-107.0
2026-04-09 22:35:38.317432,512709,3068229798,3068231361,-0.974048,0.08784,0.027328,3.9025,3.185,-10.03625,18.224,-29.168001,40.464,concentric,7,5.0,33234.0,403431.0,156354.0,19089.0,-107.0
2026-04-09 22:35:38.354041,512710,3068238826,3068240157,-0.98576,0.050752,-0.00976,1.4175,3.9725,-10.77125,19.912,-29.576002,39.768,concentric,7,5.0,33234.0,403431.0,156354.0,19089.0,-107.0
2026-04-09 22:35:38.357846,512711,3068253338,3068255072,-0.98576,0.050752,-0.00976,-3.4825,6.545,-10.94625,19.912,-29.576002,39.768,concentric,7,5.0,33234.0,403431.0,156354.0,19089.0,-107.0
2026-04-09 22:35:38.364486,512712,3068262285,3068263763,-1.001376,0.015616,-0.021472,-9.70375,7.90125,-10.54375,20.968,-29.288002,38.096,concentric,7,5.0,33234.0,403431.0,156354.0,19089.0,-107.0
2026-04-09 22:35:38.364583,512713,3068271243,3068272481,-1.001376,0.015616,-0.021472,-9.96625,7.0,-10.98125,20.968,-29.288002,38.096,concentric,7,5.0,33234.0,403431.0,156354.0,19089.0,-107.0
2026-04-09 22:35:38.364948,512714,3068280156,3068281243,-0.948672,0.031232,-0.021472,-3.57875,5.71375,-11.80375,20.904001,-29.536001,38.2,concentric,7,5.0,33234.0,403431.0,156354.0,19089.0,-107.0
2026-04-09 22:35:38.391720,512724,3068294838,3068296213,-0.948672,0.095648,-0.031232,0.63875,5.3025,-11.0775,20.904001,-29.536001,38.2,concentric,7,5.0,33119.0,403431.0,156982.0,19740.0,-117.0
2026-04-09 22:35:38.393453,512725,3068303832,3068304939,-0.962336,0.095648,-0.031232,0.7525,4.94375,-9.66875,19.888,-29.368002,39.264004,concentric,7,5.0,33119.0,403431.0,156982.0,19740.0,-117.0
2026-04-09 22:35:38.395009,512726,3068312795,3068313678,-0.962336,0.095648,-0.031232,-0.9975,5.08375,-9.68625,19.888,-29.368002,39.264004,concentric,7,5.0,33119.0,403431.0,156982.0,19740.0,-117.0
2026-04-09 22:35:38.426144,512727,3068327294,3068328584,-0.987712,0.037088,-0.083936,-5.31125,3.9025,-10.5,20.224,-29.392002,39.696003,concentric,7,5.0,33119.0,403431.0,156982.0,19740.0,-117.0
2026-04-09 22:35:38.428392,512728,3068336213,3068337310,-0.999424,-0.013664,-0.031232,-8.855001,2.98375,-10.85875,20.952002,-28.992,38.72,concentric,7,5.0,33119.0,403431.0,156982.0,19740.0,-117.0
2026-04-09 22:35:38.432973,512729,3068345131,3068346012,-0.999424,-0.013664,-0.031232,-8.715,2.1,-11.655,20.952002,-28.992,38.72,concentric,7,5.0,33119.0,403431.0,156982.0,19740.0,-117.0
2026-04-09 22:35:38.461507,512730,3068359655,3068360962,-0.960384,0.070272,-0.003904,-1.12,0.595,-11.43625,20.36,-29.128002,39.528004,concentric,7,5.0,33119.0,403431.0,156982.0,19740.0,-117.0
2026-04-09 22:35:38.464559,512731,3068368604,3068369691,-0.960384,0.070272,-0.003904,7.0875,-0.455,-10.61375,20.36,-29.128002,39.528004,concentric,7,5.0,33119.0,403431.0,156982.0,19740.0,-117.0
2026-04-09 22:35:38.468251,512732,3068377513,3068378392,-0.989664,0.050752,-0.021472,5.075,-0.28875,-10.167501,21.104,-29.232002,38.888,concentric,7,5.0,33119.0,403431.0,156982.0,19740.0,-117.0
2026-04-09 22:35:38.502546,512743,3068392091,3068393502,-0.989664,0.050752,-0.021472,1.575,0.69125,-9.42375,21.104,-29.232002,38.888,concentric,7,5.0,33059.0,403431.0,156815.0,19675.0,-107.0
2026-04-09 22:35:38.506768,512744,3068401303,3068402236,-1.032608,0.0488,-0.080032,1.4525,1.30375,-10.08875,19.904001,-29.168001,38.536003,concentric,7,5.0,33059.0,403431.0,156815.0,19675.0,-107.0
2026-04-09 22:35:38.508435,512745,3068410335,3068410985,-1.032608,0.0488,-0.080032,0.48125,1.8025,-10.31625,19.904001,-29.168001,38.536003,concentric,7,5.0,33059.0,403431.0,156815.0,19675.0,-107.0
2026-04-09 22:35:38.510053,512746,3068419586,3068421815,-1.050176,0.05856,-0.027328,-1.3125,2.0475,-11.2,20.416,-29.352001,39.456,concentric,7,5.0,33059.0,403431.0,156815.0,19675.0,-107.0
2026-04-09 22:35:38.518298,512747,3068434185,3068434695,-1.050176,0.05856,-0.027328,0.525,0.35,-11.3925,20.416,-29.352001,39.456,concentric,7,5.0,33059.0,403431.0,156815.0,19675.0,-107.0
2026-04-09 22:35:38.546459,512748,3068443627,3068445463,-1.026752,0.07808,-0.003904,4.31375,-1.28625,-12.31125,21.824001,-29.304,40.208,concentric,7,5.0,33059.0,403431.0,156815.0,19675.0,-107.0
2026-04-09 22:35:38.550942,512749,3068452550,3068454180,-1.026752,0.07808,-0.003904,4.06,-1.3475,-13.46625,21.824001,-29.304,40.208,concentric,7,5.0,33059.0,403431.0,156815.0,19675.0,-107.0
2026-04-09 22:35:38.552444,512750,3068461470,3068462904,-1.065792,0.083936,-0.031232,3.1675,-1.32125,-14.93625,21.912,-29.528002,38.176003,concentric,7,5.0,33059.0,403431.0,156815.0,19675.0,-107.0
2026-04-09 22:35:38.560438,512751,3068475984,3068477814,-1.11264,0.066368,-0.05856,2.82625,-1.1375,-15.9425,21.912,-28.752,38.36,concentric,7,5.0,33059.0,403431.0,156815.0,19675.0,-107.0
2026-04-09 22:35:38.612564,512761,3068485257,3068486612,-1.11264,0.066368,-0.05856,-1.785,1.0325,-17.6575,21.512001,-28.752,38.36,concentric,7,5.0,32988.0,403431.0,157070.0,20014.0,-113.0
2026-04-09 22:35:38.616745,512762,3068494248,3068495427,-1.11264,0.066368,-0.05856,-8.56625,2.6775,-19.88,21.512001,-28.752,38.36,concentric,7,5.0,32988.0,403431.0,157070.0,20014.0,-113.0
2026-04-09 22:35:38.618529,512763,3068508757,3068510370,-1.095072,0.052704,-0.01952,-10.3425,1.25125,-20.965,22.392,-28.576002,39.976,concentric,7,5.0,32988.0,403431.0,157070.0,20014.0,-113.0
2026-04-09 22:35:38.620816,512764,3068517715,3068519162,-1.067744,0.02928,0.001952,-9.835,-1.155,-21.49,22.208,-28.968002,38.792004,concentric,7,5.0,32988.0,403431.0,157070.0,20014.0,-113.0
2026-04-09 22:35:38.654892,512765,3068526668,3068527863,-1.067744,0.02928,0.001952,-5.36375,-2.835,-22.02375,22.208,-28.968002,38.792004,concentric,7,5.0,32988.0,403431.0,157070.0,20014.0,-113.0
2026-04-09 22:35:38.659608,512766,3068541181,3068542924,-1.067744,0.00976,-0.025376,-1.995,-3.08875,-21.735,22.640001,-29.28,38.808002,concentric,7,5.0,32988.0,403431.0,157070.0,20014.0,-113.0
2026-04-09 22:35:38.670531,512767,3068550147,3068551624,-1.067744,0.00976,-0.025376,-4.165,-3.4825,-20.62375,22.640001,-29.28,38.808002,concentric,7,5.0,32988.0,403431.0,157070.0,20014.0,-113.0
2026-04-09 22:35:38.672279,512768,3068559069,3068560319,-1.104832,-0.021472,-0.072224,-8.11125,-4.20875,-18.165,22.424002,-29.056002,39.424004,concentric,7,5.0,32988.0,403431.0,157070.0,20014.0,-113.0
2026-04-09 22:35:38.674051,512769,3068567940,3068569030,-1.104832,-0.021472,-0.072224,-12.87125,-2.91375,-16.66,22.424002,-29.056002,39.424004,concentric,7,5.0,32988.0,403431.0,157070.0,20014.0,-113.0
2026-04-09 22:35:38.678146,512770,3068582493,3068584025,-1.13216,0.003904,-0.035136,-13.230001,-2.45875,-16.28375,22.704,-28.544,39.36,concentric,7,5.0,32988.0,403431.0,157070.0,20014.0,-113.0
2026-04-09 22:35:38.703025,512780,3068591511,3068592758,-1.13216,0.003904,-0.035136,-9.33625,-3.56125,-14.0525,22.704,-28.544,39.36,concentric,7,5.0,32724.0,403431.0,158591.0,21459.0,-109.0
2026-04-09 22:35:38.704842,512781,3068600409,3068601507,-1.071648,-0.027328,-0.007808,-7.02625,-5.78375,-13.86875,21.984001,-28.296001,40.768,concentric,7,5.0,32724.0,403431.0,158591.0,21459.0,-109.0
2026-04-09 22:35:38.706280,512782,3068614976,3068616443,-1.071648,-0.027328,-0.007808,-4.9525,-7.60375,-13.886251,21.984001,-28.296001,40.768,concentric,7,5.0,32724.0,403431.0,158591.0,21459.0,-109.0
2026-04-09 22:35:38.710647,512783,3068623966,3068625213,-1.059936,0.050752,-0.005856,1.12,-8.51375,-12.32875,22.392,-28.704,40.496002,concentric,7,5.0,32724.0,403431.0,158591.0,21459.0,-109.0
2026-04-09 22:35:38.717877,512784,3068632904,3068633960,-1.059936,0.050752,-0.005856,3.5175,-7.4025,-13.08125,22.392,-28.704,40.496002,concentric,7,5.0,32724.0,403431.0,158591.0,21459.0,-109.0
2026-04-09 22:35:38.747371,512785,3068647374,3068648883,-1.095072,-0.001952,-0.052704,-2.2925,-5.57375,-14.21875,23.096,-27.872002,40.112003,concentric,7,5.0,32724.0,403431.0,158591.0,21459.0,-109.0
2026-04-09 22:35:38.751788,512786,3068656280,3068657556,-1.095072,0.001952,-0.05856,-7.105,-5.6525,-14.525,23.096,-27.872002,42.160004,concentric,7,5.0,32724.0,403431.0,158591.0,21459.0,-109.0
2026-04-09 22:35:38.753994,512787,3068665180,3068666285,-1.108736,0.001952,-0.05856,-6.58,-5.6,-14.735,23.336,-28.216002,41.160004,concentric,7,5.0,32724.0,403431.0,158591.0,21459.0,-109.0
2026-04-09 22:35:38.783691,512788,3068679710,3068681232,-1.089216,0.044896,-0.003904,-4.6725,-5.73125,-13.1775,22.304,-28.52,41.016003,concentric,7,5.0,32724.0,403431.0,158591.0,21459.0,-109.0
2026-04-09 22:35:38.812248,512799,3068689129,3068689963,-1.089216,0.044896,-0.003904,-3.50875,-5.66125,-12.2325,22.304,-28.52,41.016003,concentric,7,5.0,32688.0,403431.0,158781.0,21754.0,-113.0
2026-04-09 22:35:38.813789,512800,3068698025,3068698695,-1.059936,-0.001952,-0.017568,-1.88125,-5.64375,-12.74875,23.344002,-28.088001,41.136,concentric,7,5.0,32688.0,403431.0,158781.0,21754.0,-113.0
2026-04-09 22:35:38.818093,512801,3068707320,3068709475,-1.059936,-0.001952,-0.017568,-4.31375,-4.75125,-13.46625,23.344002,-28.088001,41.136,concentric,7,5.0,32688.0,403431.0,158781.0,21754.0,-113.0
2026-04-09 22:35:38.819763,512802,3068721848,3068722381,-1.095072,-0.015616,-0.037088,-5.705,-3.29,-14.3675,22.832,-28.128002,39.888,concentric,7,5.0,32688.0,403431.0,158781.0,21754.0,-113.0
2026-04-09 22:35:38.821420,512803,3068731382,3068733168,-1.095072,-0.015616,-0.037088,-2.87,-3.2375,-14.83125,22.832,-28.128002,39.888,concentric,7,5.0,32688.0,403431.0,158781.0,21754.0,-113.0
2026-04-09 22:35:38.825422,512804,3068740382,3068741868,-1.128256,0.023424,-0.056608,-0.13125,-3.0625,-14.096251,23.536001,-28.512001,40.104,concentric,7,5.0,32688.0,403431.0,158781.0,21754.0,-113.0
2026-04-09 22:35:38.853972,512805,3068749317,3068750593,-1.128256,0.023424,-0.056608,-1.23375,-3.5875,-12.29375,23.536001,-28.512001,40.104,concentric,7,5.0,32688.0,403431.0,158781.0,21754.0,-113.0
2026-04-09 22:35:38.858495,512806,3068763876,3068765527,-1.085312,-0.007808,-0.040992,-4.76,-4.62,-11.6025,23.848001,-28.256,40.320004,concentric,7,5.0,32688.0,403431.0,158781.0,21754.0,-113.0
2026-04-09 22:35:38.859975,512807,3068772866,3068774215,-1.085312,-0.007808,-0.040992,-5.7225,-5.0575,-11.261251,23.848001,-28.256,40.320004,concentric,7,5.0,32688.0,403431.0,158781.0,21754.0,-113.0
2026-04-09 22:35:38.866861,512808,3068781914,3068782915,-1.10288,-0.025376,-0.040992,-4.445,-4.8125,-10.01875,24.04,-27.624,40.168003,concentric,7,5.0,32688.0,403431.0,158781.0,21754.0,-113.0
2026-04-09 22:35:38.891021,512818,3068796617,3068797842,-1.10288,0.021472,-0.027328,-3.85,-3.77125,-9.1175,24.04,-27.624,40.168003,concentric,7,5.0,32646.0,403431.0,159416.0,22316.0,-96.0
2026-04-09 22:35:38.892594,512819,3068805511,3068806640,-1.100928,0.015616,-0.027328,-1.33,-2.84375,-8.3475,22.896002,-28.000002,40.376003,concentric,7,5.0,32646.0,403431.0,159416.0,22316.0,-96.0
2026-04-09 22:35:38.897076,512820,3068814501,3068815353,-1.100928,0.015616,-0.027328,-0.74375,-2.1,-8.07625,22.896002,-28.000002,40.376003,concentric,7,5.0,32646.0,403431.0,159416.0,22316.0,-96.0
2026-04-09 22:35:38.974979,512821,3068823460,3068824079,-1.097024,0.001952,-0.025376,-2.5025,-1.00625,-7.84,23.496,-28.368002,42.496002,concentric,7,5.0,32646.0,403431.0,159416.0,22316.0,-96.0
2026-04-09 22:35:38.979294,512822,3068838231,3068838953,-1.100928,-0.015616,-0.070272,-5.53,0.0,-8.05,24.248001,-28.528002,39.256,concentric,7,5.0,32646.0,403431.0,159416.0,22316.0,-96.0
2026-04-09 22:35:38.980989,512823,3068847554,3068849733,-1.100928,-0.015616,-0.070272,-7.06125,1.61,-7.1225,24.248001,-28.528002,39.256,concentric,7,5.0,32646.0,403431.0,159416.0,22316.0,-96.0
2026-04-09 22:35:38.982451,512824,3068856471,3068858433,-1.100928,-0.015616,-0.070272,-6.78125,1.98625,-6.825,24.248001,-28.528002,39.256,concentric,7,5.0,32646.0,403431.0,159416.0,22316.0,-96.0
2026-04-09 22:35:38.986815,512825,3068870972,3068871292,-1.110688,-0.01952,-0.062464,-6.20375,1.86375,-6.7025,24.256,-28.272001,40.208,concentric,7,5.0,32646.0,403431.0,159416.0,22316.0,-96.0
2026-04-09 22:35:38.988501,512826,3068880155,3068882043,-1.106784,-0.015616,-0.017568,-4.55875,1.33,-4.83,24.336,-28.320002,40.472,concentric,7,5.0,32646.0,403431.0,159416.0,22316.0,-96.0
2026-04-09 22:35:39.016274,512836,3068889469,3068890726,-1.106784,-0.015616,-0.017568,-4.7425,1.32125,-3.6575,24.336,-28.320002,40.472,concentric,7,5.0,32653.0,403431.0,159539.0,22421.0,-107.0
2026-04-09 22:35:39.020510,512837,3068898539,3068899433,-1.095072,-0.023424,-0.021472,-4.76875,1.49625,-3.5525,24.784,-28.432001,41.512,concentric,7,5.0,32653.0,403431.0,159539.0,22421.0,-107.0
2026-04-09 22:35:39.022215,512838,3068913214,3068914408,-1.095072,-0.023424,-0.021472,-3.4475,2.17,-3.85875,24.784,-28.432001,41.512,concentric,7,5.0,32653.0,403431.0,159539.0,22421.0,-107.0
2026-04-09 22:35:39.023789,512839,3068922276,3068923116,-1.095072,-0.00976,-0.044896,-2.80875,3.4125,-3.29875,23.576,-27.656002,41.568,concentric,7,5.0,32653.0,403431.0,159539.0,22421.0,-107.0
2026-04-09 22:35:39.028082,512840,3068931310,3068931836,-1.095072,-0.00976,-0.044896,-2.59,4.7075,-2.7125,23.576,-27.656002,41.568,concentric,7,5.0,32653.0,403431.0,159539.0,22421.0,-107.0
2026-04-09 22:35:39.029606,512841,3068940755,3068942611,-1.097024,-0.03904,-0.06832,-2.82625,4.40125,-2.96625,24.768002,-28.208002,40.432003,concentric,7,5.0,32653.0,403431.0,159539.0,22421.0,-107.0
2026-04-09 22:35:39.059836,512842,3068955261,3068955595,-1.097024,-0.03904,-0.06832,-3.605,4.13,-2.61625,24.768002,-28.208002,40.432003,concentric,7,5.0,32653.0,403431.0,159539.0,22421.0,-107.0
2026-04-09 22:35:39.062190,512843,3068964560,3068966361,-1.104832,-0.003904,-0.031232,-1.8725,4.795,-1.715,24.408,-28.288002,40.68,concentric,7,5.0,32653.0,403431.0,159539.0,22421.0,-107.0
2026-04-09 22:35:39.066709,512844,3068973559,3068975063,-1.104832,-0.003904,-0.031232,0.20125,3.61375,-1.19,24.408,-28.288002,40.68,concentric,7,5.0,32653.0,403431.0,159539.0,22421.0,-107.0
2026-04-09 22:35:39.097531,512855,3068988107,3068990462,-1.030656,0.01952,0.01952,0.09625,3.45625,-2.135,24.6,-28.400002,40.712,concentric,7,5.0,32699.0,403431.0,159312.0,22171.0,-99.0
2026-04-09 22:35:39.101767,512856,3068997055,3068999346,-1.030656,0.01952,0.01952,-2.695,4.83,-2.205,24.6,-28.400002,40.712,concentric,7,5.0,32699.0,403431.0,159312.0,22171.0,-99.0
2026-04-09 22:35:39.103591,512857,3069006011,3069008068,-1.098976,-0.027328,-0.066368,-6.15125,5.705,-4.01625,23.872002,-28.320002,39.144,concentric,7,5.0,32699.0,403431.0,159312.0,22171.0,-99.0
2026-04-09 22:35:39.105067,512858,3069020671,3069022979,-1.165344,-0.007808,-0.089792,-5.11,7.07,-5.41625,23.856,-28.720001,41.192,concentric,7,5.0,32699.0,403431.0,159312.0,22171.0,-99.0
2026-04-09 22:35:39.136138,512859,3069029628,3069031642,-1.165344,-0.007808,-0.089792,-1.4175,7.42875,-4.89125,23.856,-28.720001,41.192,concentric,7,5.0,32699.0,403431.0,159312.0,22171.0,-99.0
2026-04-09 22:35:39.140559,512860,3069038572,3069040363,-1.110688,-0.023424,0.015616,-2.7125,7.02625,-4.47125,24.592001,-28.416002,40.608,concentric,7,5.0,32699.0,403431.0,159312.0,22171.0,-99.0
2026-04-09 22:35:39.142118,512861,3069047532,3069049057,-1.110688,-0.023424,0.015616,-2.93125,6.3175,-3.78,24.592001,-28.416002,40.608,concentric,7,5.0,32699.0,403431.0,159312.0,22171.0,-99.0
2026-04-09 22:35:39.147905,512862,3069062055,3069063967,-1.06384,-0.060512,0.01952,-1.07625,5.39,-3.43,24.744001,-27.920002,40.480003,concentric,7,5.0,32699.0,403431.0,159312.0,22171.0,-99.0
2026-04-09 22:35:39.176497,512863,3069071003,3069072668,-1.06384,-0.060512,0.01952,-1.00625,5.2325,-2.9575,24.744001,-27.920002,40.480003,concentric,7,5.0,32699.0,403431.0,159312.0,22171.0,-99.0
2026-04-09 22:35:39.181048,512864,3069079956,3069081409,-1.110688,-0.011712,-0.017568,-3.4475,6.475,-1.53125,24.920002,-28.704,39.928,concentric,7,5.0,32699.0,403431.0,159312.0,22171.0,-99.0
2026-04-09 22:35:39.206911,512874,3069094513,3069096333,-1.110688,-0.011712,-0.017568,-4.7075,7.95375,-0.665,24.920002,-28.704,39.928,concentric,7,5.0,32780.0,403431.0,159048.0,21734.0,-105.0
2026-04-09 22:35:39.208658,512875,3069103515,3069105072,-1.167296,0.02928,-0.080032,-3.57875,9.4325,-0.98,24.824001,-28.640001,40.568,concentric,7,5.0,32780.0,403431.0,159048.0,21734.0,-105.0
2026-04-09 22:35:39.211742,512876,3069112532,3069113831,-1.167296,0.02928,-0.080032,-2.1525,9.7125,-2.58125,24.824001,-28.640001,40.568,concentric,7,5.0,32780.0,403431.0,159048.0,21734.0,-105.0
2026-04-09 22:35:39.214191,512877,3069127103,3069128845,-1.130208,0.00976,0.003904,-3.35125,9.00375,-3.5525,24.840002,-28.576002,40.84,concentric,7,5.0,32780.0,403431.0,159048.0,21734.0,-105.0
2026-04-09 22:35:39.220646,512878,3069136221,3069137593,-1.130208,0.00976,0.003904,-3.64,7.8925,-3.5,24.840002,-28.576002,40.84,concentric,7,5.0,32780.0,403431.0,159048.0,21734.0,-105.0
2026-04-09 22:35:39.253914,512879,3069145207,3069146313,-1.100928,-0.0488,-0.02928,-4.12125,6.4575,-3.78875,24.880001,-28.656002,43.08,concentric,7,5.0,32780.0,403431.0,159048.0,21734.0,-105.0
2026-04-09 22:35:39.257549,512880,3069154131,3069155037,-1.100928,-0.0488,-0.02928,-5.92375,5.62625,-4.38375,24.880001,-28.656002,43.08,concentric,7,5.0,32780.0,403431.0,159048.0,21734.0,-105.0
2026-04-09 22:35:39.259988,512881,3069168634,3069169988,-1.136064,-0.01952,-0.01952,-2.80875,5.69625,-5.41625,25.144001,-28.344002,40.312,concentric,7,5.0,32780.0,403431.0,159048.0,21734.0,-105.0
2026-04-09 22:35:39.264098,512882,3069177570,3069178753,-1.136064,-0.01952,-0.01952,1.33,5.8625,-6.37,25.144001,-28.344002,40.312,concentric,7,5.0,32780.0,403431.0,159048.0,21734.0,-105.0
2026-04-09 22:35:39.292641,512883,3069186502,3069187456,-1.139968,0.023424,-0.021472,3.22,6.7375,-7.1225,25.552002,-28.816002,40.456,concentric,7,5.0,32780.0,403431.0,159048.0,21734.0,-105.0
2026-04-09 22:35:39.327271,512893,3069201017,3069202377,-1.1224,-0.007808,-0.011712,3.33375,7.42,-7.58625,25.12,-28.576002,40.712,concentric,7,5.0,32776.0,403431.0,159226.0,21914.0,-116.0
2026-04-09 22:35:39.328780,512894,3069209948,3069211131,-1.1224,-0.007808,-0.011712,2.415,6.8075,-7.98875,25.12,-28.576002,40.712,concentric,7,5.0,32776.0,403431.0,159226.0,21914.0,-116.0
2026-04-09 22:35:39.332990,512895,3069218844,3069219822,-1.124352,-0.054656,-0.025376,0.875,6.3175,-7.7,24.376001,-28.12,41.072002,concentric,7,5.0,32776.0,403431.0,159226.0,21914.0,-116.0
2026-04-09 22:35:39.334710,512896,3069233396,3069234723,-1.124352,-0.054656,-0.025376,0.93625,4.725,-7.69125,24.376001,-28.12,41.072002,concentric,7,5.0,32776.0,403431.0,159226.0,21914.0,-116.0
2026-04-09 22:35:39.336313,512897,3069242368,3069243445,-1.194624,0.025376,-0.005856,2.68625,3.78875,-8.2425,24.936,-28.088001,42.112003,concentric,7,5.0,32776.0,403431.0,159226.0,21914.0,-116.0
2026-04-09 22:35:39.340468,512898,3069251292,3069252176,-1.194624,0.025376,-0.005856,4.38375,4.655,-8.4875,24.936,-28.088001,42.112003,concentric,7,5.0,32776.0,403431.0,159226.0,21914.0,-116.0
2026-04-09 22:35:39.342951,512899,3069260249,3069260899,-1.182912,0.003904,-0.011712,2.75625,5.285,-9.695,24.368002,-28.256,41.976,concentric,7,5.0,32776.0,403431.0,159226.0,21914.0,-116.0
2026-04-09 22:35:39.371347,512900,3069275071,3069275850,-1.182912,0.003904,-0.011712,-0.84,5.90625,-10.99,24.368002,-28.256,41.976,concentric,7,5.0,32776.0,403431.0,159226.0,21914.0,-116.0
2026-04-09 22:35:39.375991,512901,3069284497,3069286635,-1.165344,-0.037088,-0.035136,-4.38375,6.22125,-10.91125,25.52,-28.600002,40.608,concentric,7,5.0,32776.0,403431.0,159226.0,21914.0,-116.0
2026-04-09 22:35:39.418829,512912,3069293557,3069295409,-1.165344,-0.037088,-0.035136,-3.0975,5.46,-10.3425,25.52,-28.600002,40.608,concentric,7,5.0,32652.0,403431.0,160571.0,23177.0,-100.0
2026-04-09 22:35:39.423015,512913,3069308191,3069310343,-1.206336,-0.050752,-0.015616,-0.41125,4.4625,-9.9925,25.848001,-28.648,41.712,concentric,7,5.0,32652.0,403431.0,160571.0,23177.0,-100.0
2026-04-09 22:35:39.424790,512914,3069317247,3069319113,-1.206336,-0.050752,-0.015616,1.1025,2.2925,-9.835,25.848001,-28.648,41.712,concentric,7,5.0,32652.0,403431.0,160571.0,23177.0,-100.0
2026-04-09 22:35:39.426320,512915,3069326151,3069327791,-1.177056,-0.037088,0.023424,1.5225,1.645,-9.4325,25.384,-27.912,42.088,concentric,7,5.0,32652.0,403431.0,160571.0,23177.0,-100.0
2026-04-09 22:35:39.430459,512916,3069335062,3069336496,-1.177056,-0.037088,0.023424,0.25375,2.275,-8.82,25.384,-27.912,42.088,concentric,7,5.0,32652.0,403431.0,160571.0,23177.0,-100.0
2026-04-09 22:35:39.434113,512917,3069349661,3069351411,-1.204384,-0.00976,-0.013664,-0.175,3.29875,-8.9425,25.264002,-28.080002,41.120003,concentric,7,5.0,32652.0,403431.0,160571.0,23177.0,-100.0
2026-04-09 22:35:39.463592,512918,3069358602,3069360154,-1.204384,-0.00976,-0.027328,0.21875,3.42125,-9.1175,25.264002,-28.080002,41.120003,concentric,7,5.0,32652.0,403431.0,160571.0,23177.0,-100.0
2026-04-09 22:35:39.468052,512919,3069367509,3069368844,-1.212192,0.003904,-0.027328,1.82875,2.35375,-10.33375,25.624,-28.184002,39.032,concentric,7,5.0,32652.0,403431.0,160571.0,23177.0,-100.0
2026-04-09 22:35:39.469762,512920,3069381997,3069383729,-1.225856,-0.076128,-0.035136,2.82625,1.3125,-12.24125,26.272001,-28.232002,41.2,concentric,7,5.0,32652.0,403431.0,160571.0,23177.0,-100.0
2026-04-09 22:35:39.493968,512930,3069391314,3069392583,-1.225856,-0.076128,-0.035136,1.61875,0.1225,-11.9875,26.272001,-28.232002,41.2,concentric,7,5.0,32532.0,403431.0,161741.0,24330.0,-95.0
2026-04-09 22:35:39.498097,512931,3069400349,3069401393,-1.223904,-0.060512,0.011712,1.11125,-0.56,-9.79125,26.072,-28.312002,39.824,concentric,7,5.0,32532.0,403431.0,161741.0,24330.0,-95.0
2026-04-09 22:35:39.499607,512932,3069409356,3069410207,-1.223904,-0.060512,0.011712,1.6625,-0.84,-8.785,26.072,-28.312002,39.824,concentric,7,5.0,32532.0,403431.0,161741.0,24330.0,-95.0
2026-04-09 22:35:39.554936,512933,3069423891,3069425199,-1.257088,-0.025376,-0.003904,0.5425,-0.37625,-7.46375,26.112001,-28.736002,40.800003,concentric,7,5.0,32532.0,403431.0,161741.0,24330.0,-95.0
2026-04-09 22:35:39.560019,512934,3069432844,3069433901,-1.257088,-0.025376,-0.003904,-0.0875,-0.55125,-6.51,26.112001,-28.736002,40.800003,concentric,7,5.0,32532.0,403431.0,161741.0,24330.0,-95.0
2026-04-09 22:35:39.561945,512935,3069441760,3069442593,-1.241472,-0.095648,-0.01952,-1.225,-0.6825,-5.6525,25.896002,-28.160002,41.256,concentric,7,5.0,32532.0,403431.0,161741.0,24330.0,-95.0
2026-04-09 22:35:39.562778,512936,3069456217,3069457536,-1.241472,-0.095648,-0.01952,-1.40875,-0.8575,-3.36,25.896002,-28.160002,41.256,concentric,7,5.0,32532.0,403431.0,161741.0,24330.0,-95.0
