pc_time,serial_num,sensor_ts,host_ts,ax,ay,az,gx,gy,gz,mx,my,mz,phase,rpe,weight_kg,ppg_a,ppg_b,ppg_c,ppg_d,ppg_e
2026-04-09 22:35:48.749124,514657,3078646958,3078648154,-1.247328,0.001952,-0.017568,-18.5325,5.005,-2.33625,23.968,-28.432001,40.864002,eccentric,7,5.0,31295.0,403431.0,171082.0,33556.0,-5.0
2026-04-09 22:35:48.751593,514658,3078655921,3078657001,-1.262944,-0.01952,-0.093696,-18.31375,5.39875,-2.975,23.848001,-28.672,41.384003,eccentric,7,5.0,31295.0,403431.0,171082.0,33556.0,-5.0
2026-04-09 22:35:48.754089,514659,3078670424,3078671938,-1.262944,-0.01952,-0.093696,-18.69875,5.7925,-2.91375,23.848001,-28.672,41.384003,eccentric,7,5.0,31295.0,403431.0,171082.0,33556.0,-5.0
2026-04-09 22:35:48.784360,514660,3078679351,3078680640,-1.272704,-0.033184,-0.0976,-16.68625,4.27,-1.81125,24.736002,-28.368002,40.816,eccentric,7,5.0,31295.0,403431.0,171082.0,33556.0,-5.0
2026-04-09 22:35:48.787857,514661,3078688276,3078689356,-1.272704,-0.033184,-0.0976,-13.29125,0.9275,-2.16125,24.736002,-28.368002,40.816,eccentric,7,5.0,31295.0,403431.0,171082.0,33556.0,-5.0
2026-04-09 22:35:48.790379,514662,3078702752,3078704266,-1.255136,-0.046848,-0.062464,-10.45625,-1.015,-1.54,25.320002,-28.256,40.512,eccentric,7,5.0,31295.0,403431.0,171082.0,33556.0,-5.0
2026-04-09 22:35:48.795391,514663,3078711711,3078712980,-1.255136,-0.046848,-0.062464,-8.04125,-3.33375,-0.67375,25.320002,-28.256,40.512,eccentric,7,5.0,31295.0,403431.0,171082.0,33556.0,-5.0
2026-04-09 22:35:48.855555,514664,3078720626,3078721709,-1.223904,0.0,-0.023424,-5.2325,-3.59625,-1.19,25.416,-28.424002,39.912003,eccentric,7,5.0,31295.0,403431.0,171082.0,33556.0,-5.0
2026-04-09 22:35:48.859172,514665,3078735119,3078736706,-1.216096,0.037088,-0.056608,-3.5875,-2.40625,-1.81125,24.976002,-28.512001,40.728,eccentric,7,5.0,31295.0,403431.0,171082.0,33556.0,-5.0
2026-04-09 22:35:48.884096,514675,3078744441,3078745472,-1.216096,0.037088,-0.056608,-3.71,-1.3125,-1.96,24.976002,-28.512001,40.728,eccentric,7,5.0,31280.0,403431.0,171671.0,34210.0,10.0
2026-04-09 22:35:48.887492,514676,3078753407,3078754181,-1.216096,0.017568,-0.085888,-3.01875,-1.155,-2.3625,24.976002,-28.512001,40.728,eccentric,7,5.0,31280.0,403431.0,171671.0,34210.0,10.0
2026-04-09 22:35:48.889021,514677,3078762304,3078762892,-1.214144,0.017568,-0.085888,-3.56125,-1.365,-3.71875,25.112001,-28.816002,40.032,eccentric,7,5.0,31280.0,403431.0,171671.0,34210.0,10.0
2026-04-09 22:35:48.893370,514678,3078777078,3078777782,-1.204384,-0.05856,-0.027328,-6.83375,-1.58375,-4.7775,24.656002,-28.176,40.552002,eccentric,7,5.0,31280.0,403431.0,171671.0,34210.0,10.0
2026-04-09 22:35:48.895055,514679,3078786416,3078788585,-1.204384,-0.05856,-0.027328,-8.72375,-2.38875,-4.34875,24.656002,-28.176,40.552002,eccentric,7,5.0,31280.0,403431.0,171671.0,34210.0,10.0
2026-04-09 22:35:48.896644,514680,3078795346,3078797292,-1.167296,-0.013664,-0.023424,-7.56,-1.81125,-2.86125,23.872002,-28.336,40.088,eccentric,7,5.0,31280.0,403431.0,171671.0,34210.0,10.0
2026-04-09 22:35:48.900642,514681,3078809947,3078812267,-1.167296,-0.013664,-0.023424,-3.87625,-0.84,-1.81125,23.872002,-28.336,40.088,eccentric,7,5.0,31280.0,403431.0,171671.0,34210.0,10.0
2026-04-09 22:35:48.905676,514682,3078818912,3078821002,-1.202432,0.031232,-0.080032,-0.46375,0.6475,-1.6625,24.456001,-28.816002,40.696003,eccentric,7,5.0,31280.0,403431.0,171671.0,34210.0,10.0
2026-04-09 22:35:48.934212,514683,3078827828,3078829713,-1.202432,0.031232,-0.080032,-1.68875,1.54,-1.2425,24.456001,-28.816002,40.696003,eccentric,7,5.0,31280.0,403431.0,171671.0,34210.0,10.0
2026-04-09 22:35:48.937770,514684,3078836747,3078838407,-1.153632,-0.013664,-0.06832,-5.0575,0.65625,-0.63,24.2,-28.344002,40.728,eccentric,7,5.0,31280.0,403431.0,171671.0,34210.0,10.0
2026-04-09 22:35:48.966615,514694,3078851719,3078853350,-1.153632,-0.013664,-0.06832,-6.9125,-0.2975,-0.65625,24.2,-28.344002,40.728,eccentric,7,5.0,31317.0,403431.0,171385.0,33891.0,18.0
2026-04-09 22:35:48.969111,514695,3078860625,3078862075,-1.14192,0.00976,-0.052704,-4.515,-0.90125,-1.0325,24.184002,-28.688002,41.072002,eccentric,7,5.0,31317.0,403431.0,171385.0,33891.0,18.0
2026-04-09 22:35:48.971604,514696,3078869701,3078870828,-1.14192,0.00976,-0.052704,-1.04125,-0.04375,-0.97125,24.184002,-28.688002,41.072002,eccentric,7,5.0,31317.0,403431.0,171385.0,33891.0,18.0
2026-04-09 22:35:48.974175,514697,3078884254,3078885758,-1.163392,0.033184,-0.062464,-0.84875,0.2975,-1.93375,23.608002,-28.112001,42.912003,eccentric,7,5.0,31317.0,403431.0,171385.0,33891.0,18.0
2026-04-09 22:35:48.976596,514698,3078893200,3078894451,-1.163392,0.033184,-0.062464,-1.7325,1.2075,-2.66,23.608002,-28.112001,42.912003,eccentric,7,5.0,31317.0,403431.0,171385.0,33891.0,18.0
2026-04-09 22:35:49.006710,514699,3078902121,3078903148,-1.126304,-0.021472,-0.054656,-3.7275,0.21,-2.905,24.152,-27.984001,40.440002,eccentric,7,5.0,31317.0,403431.0,171385.0,33891.0,18.0
2026-04-09 22:35:49.010363,514700,3078916608,3078918127,-1.104832,0.0,-0.05856,-3.43875,0.0175,-1.9775,23.816002,-28.264002,41.280003,eccentric,7,5.0,31317.0,403431.0,171385.0,33891.0,18.0
2026-04-09 22:35:49.012895,514701,3078925525,3078926821,-1.104832,0.0,-0.05856,0.035,0.95375,-1.46125,23.816002,-28.264002,41.280003,eccentric,7,5.0,31317.0,403431.0,171385.0,33891.0,18.0
2026-04-09 22:35:49.017852,514702,3078934443,3078935526,-1.143872,0.054656,-0.076128,3.82375,1.61875,-1.1375,23.816002,-28.608002,42.288002,eccentric,7,5.0,31317.0,403431.0,171385.0,33891.0,18.0
2026-04-09 22:35:49.076621,514713,3078943889,3078944484,-1.143872,0.054656,-0.076128,3.045,2.6075,-1.42625,21.984001,-28.608002,42.288002,eccentric,7,5.0,31353.0,403431.0,171347.0,33807.0,4.0
2026-04-09 22:35:49.079396,514714,3078958501,3078959575,-1.126304,-0.01952,-0.054656,-1.3475,3.0625,-1.70625,23.840002,-28.784002,41.136,eccentric,7,5.0,31353.0,403431.0,171347.0,33807.0,4.0
2026-04-09 22:35:49.082680,514715,3078967396,3078968303,-1.126304,-0.01952,-0.054656,-4.41,2.40625,-1.96,23.840002,-28.784002,41.136,eccentric,7,5.0,31353.0,403431.0,171347.0,33807.0,4.0
2026-04-09 22:35:49.084132,514716,3078976315,3078977061,-1.081408,-0.031232,-0.046848,-4.15625,1.91625,-0.7525,23.952002,-28.488,40.304,eccentric,7,5.0,31353.0,403431.0,171347.0,33807.0,4.0
2026-04-09 22:35:49.086558,514717,3078991245,3078991984,-1.081408,-0.031232,-0.046848,-0.74375,2.31875,0.83125,23.952002,-28.488,40.304,eccentric,7,5.0,31353.0,403431.0,171347.0,33807.0,4.0
2026-04-09 22:35:49.089061,514718,3079000696,3079002777,-1.116544,0.046848,-0.080032,5.0225,2.4675,1.95125,23.320002,-28.712002,40.936,eccentric,7,5.0,31353.0,403431.0,171347.0,33807.0,4.0
2026-04-09 22:35:49.092819,514719,3079009628,3079011565,-1.116544,0.046848,-0.080032,6.64125,3.815,1.575,23.320002,-28.712002,40.936,eccentric,7,5.0,31353.0,403431.0,171347.0,33807.0,4.0
2026-04-09 22:35:49.151903,514720,3079018588,3079020295,-1.134112,0.031232,-0.109312,4.61125,4.3225,1.435,23.376001,-27.936,41.016003,eccentric,7,5.0,31353.0,403431.0,171347.0,33807.0,4.0
2026-04-09 22:35:49.155377,514721,3079033147,3079035199,-1.134112,0.031232,-0.109312,1.855,4.1125,1.21625,23.376001,-27.936,41.016003,eccentric,7,5.0,31353.0,403431.0,171347.0,33807.0,4.0
2026-04-09 22:35:49.158983,514722,3079042073,3079043912,-1.08336,-0.037088,-0.033184,-0.11375,3.80625,0.4375,23.216002,-28.232002,37.976,eccentric,7,5.0,31353.0,403431.0,171347.0,33807.0,4.0
2026-04-09 22:35:49.215562,514732,3079051035,3079052666,-1.08336,-0.037088,-0.033184,3.42125,4.235,1.1725,23.216002,-28.232002,37.976,eccentric,7,5.0,31293.0,403431.0,171543.0,34132.0,14.0
2026-04-09 22:35:49.220413,514733,3079065503,3079067559,-1.061888,0.044896,-0.017568,9.905,5.18875,1.67125,22.896002,-28.064001,40.816,eccentric,7,5.0,31293.0,403431.0,171543.0,34132.0,14.0
2026-04-09 22:35:49.225446,514734,3079074421,3079076240,-1.061888,0.076128,-0.046848,11.13875,6.69375,0.2975,22.896002,-28.064001,40.816,eccentric,7,5.0,31293.0,403431.0,171543.0,34132.0,14.0
2026-04-09 22:35:49.227820,514735,3079083389,3079084965,-1.081408,0.06832,-0.046848,9.09125,8.44375,-0.25375,22.728,-28.2,40.664,eccentric,7,5.0,31293.0,403431.0,171543.0,34132.0,14.0
2026-04-09 22:35:49.230379,514736,3079092434,3079093748,-1.081408,0.06832,-0.046848,3.50875,9.72125,-0.98,22.728,-28.2,40.664,eccentric,7,5.0,31293.0,403431.0,171543.0,34132.0,14.0
2026-04-09 22:35:49.234055,514737,3079106987,3079108672,-1.075552,-0.0488,-0.115168,-0.315,10.19375,-1.4875,22.088001,-28.376001,41.952003,eccentric,7,5.0,31293.0,403431.0,171543.0,34132.0,14.0
2026-04-09 22:35:49.240843,514738,3079115886,3079117373,-1.028704,0.00976,-0.054656,2.51125,9.12625,-0.69125,22.640001,-28.584002,41.256,eccentric,7,5.0,31293.0,403431.0,171543.0,34132.0,14.0
2026-04-09 22:35:49.243193,514739,3079124791,3079126074,-1.028704,0.00976,-0.054656,9.2225,7.81375,0.11375,22.640001,-28.584002,41.256,eccentric,7,5.0,31293.0,403431.0,171543.0,34132.0,14.0
2026-04-09 22:35:49.244396,514740,3079139293,3079141011,-1.046272,0.0488,-0.050752,12.2675,8.00625,0.81375,22.552002,-28.376001,40.696003,eccentric,7,5.0,31293.0,403431.0,171543.0,34132.0,14.0
2026-04-09 22:35:49.272902,514750,3079148707,3079149846,-1.046272,0.0488,-0.050752,9.9575,8.81125,0.91,22.552002,-28.376001,40.696003,eccentric,7,5.0,31257.0,403431.0,172126.0,34757.0,36.0
2026-04-09 22:35:49.275301,514751,3079157626,3079158556,-1.061888,0.00976,-0.062464,5.7925,9.87875,-0.14875,22.816002,-28.136002,40.4,eccentric,7,5.0,31257.0,403431.0,172126.0,34757.0,36.0
2026-04-09 22:35:49.277855,514752,3079172137,3079173522,-1.061888,0.00976,-0.062464,5.6,10.605001,-0.6475,22.816002,-28.136002,40.4,eccentric,7,5.0,31257.0,403431.0,172126.0,34757.0,36.0
2026-04-09 22:35:49.280378,514753,3079181181,3079182245,-1.028704,-0.011712,-0.056608,7.735,10.31625,-0.245,21.592001,-28.312002,41.056004,eccentric,7,5.0,31257.0,403431.0,172126.0,34757.0,36.0
2026-04-09 22:35:49.282884,514754,3079190085,3079191032,-1.028704,-0.011712,-0.056608,9.975,9.14375,0.70875,21.592001,-28.312002,41.056004,eccentric,7,5.0,31257.0,403431.0,172126.0,34757.0,36.0
2026-04-09 22:35:49.285347,514755,3079199042,3079199742,-1.009184,0.031232,-0.054656,12.0575,8.30375,1.12875,22.240002,-28.560001,40.392002,eccentric,7,5.0,31257.0,403431.0,172126.0,34757.0,36.0
2026-04-09 22:35:49.315554,514756,3079213977,3079214691,-1.009184,0.031232,-0.054656,14.096251,8.44375,0.48125,22.240002,-28.560001,40.392002,eccentric,7,5.0,31257.0,403431.0,172126.0,34757.0,36.0
2026-04-09 22:35:49.319878,514757,3079223288,3079225436,-1.020896,0.02928,-0.0488,13.4225,9.6775,-0.34125,21.816002,-28.768002,40.608,eccentric,7,5.0,31257.0,403431.0,172126.0,34757.0,36.0
2026-04-09 22:35:49.321744,514758,3079232294,3079234160,-1.020896,0.02928,-0.0488,9.26625,10.91125,-0.63875,21.816002,-28.768002,40.608,eccentric,7,5.0,31257.0,403431.0,172126.0,34757.0,36.0
2026-04-09 22:35:49.351534,514769,3079247451,3079249119,-0.974048,0.01952,-0.021472,6.5625,11.61125,0.11375,21.824001,-28.936,40.376003,eccentric,7,5.0,31175.0,403431.0,172642.0,35393.0,58.0
2026-04-09 22:35:49.354133,514770,3079256509,3079257846,-0.962336,0.035136,-0.037088,6.0375,12.6875,-0.20125,20.28,-28.44,42.936,eccentric,7,5.0,31175.0,403431.0,172642.0,35393.0,58.0
2026-04-09 22:35:49.356573,514771,3079265667,3079266601,-0.962336,0.035136,-0.037088,6.88625,13.20375,-0.53375,20.28,-28.44,42.936,eccentric,7,5.0,31175.0,403431.0,172642.0,35393.0,58.0
2026-04-09 22:35:49.359082,514772,3079274608,3079275332,-0.962336,0.035136,-0.037088,8.00625,13.25625,-1.23375,20.28,-28.44,42.936,eccentric,7,5.0,31175.0,403431.0,172642.0,35393.0,58.0
2026-04-09 22:35:49.390473,514773,3079289648,3079290279,-0.993568,0.03904,-0.091744,10.77125,12.43375,-3.045,20.04,-28.496002,40.536003,eccentric,7,5.0,31175.0,403431.0,172642.0,35393.0,58.0
2026-04-09 22:35:49.392952,514774,3079298893,3079301059,-0.997472,-0.005856,-0.093696,11.54125,11.725,-3.87625,22.000002,-28.856,39.736,eccentric,7,5.0,31175.0,403431.0,172642.0,35393.0,58.0
2026-04-09 22:35:49.395306,514775,3079307812,3079309764,-0.997472,-0.005856,-0.093696,9.58125,10.9025,-2.91375,22.000002,-28.856,39.736,eccentric,7,5.0,31175.0,403431.0,172642.0,35393.0,58.0
2026-04-09 22:35:49.400538,514776,3079316904,3079318492,-0.976,0.01952,-0.02928,8.04125,9.70375,-1.89875,21.512001,-27.976002,38.744003,eccentric,7,5.0,31175.0,403431.0,172642.0,35393.0,58.0
2026-04-09 22:35:49.453136,514777,3079331409,3079333421,-0.976,0.01952,-0.02928,10.15,9.05625,-1.4525,21.512001,-27.976002,38.744003,eccentric,7,5.0,31175.0,403431.0,172642.0,35393.0,58.0
2026-04-09 22:35:49.456689,514778,3079340438,3079342109,-0.974048,0.06832,-0.007808,12.36375,9.0825,-1.7325,21.592001,-28.584002,39.696003,eccentric,7,5.0,31175.0,403431.0,172642.0,35393.0,58.0
2026-04-09 22:35:49.482042,514788,3079349717,3079350854,-0.974048,0.06832,-0.007808,12.39875,9.7825,-2.91375,21.592001,-28.584002,39.696003,eccentric,7,5.0,31214.0,403431.0,172503.0,35168.0,49.0
2026-04-09 22:35:49.484121,514789,3079358689,3079359573,-1.011136,0.021472,-0.066368,12.075,10.2025,-4.34875,21.184002,-28.656002,39.4,eccentric,7,5.0,31214.0,403431.0,172503.0,35168.0,49.0
2026-04-09 22:35:49.486641,514790,3079373158,3079374433,-1.011136,0.021472,-0.066368,11.78625,10.0975,-4.725,21.184002,-28.656002,39.4,eccentric,7,5.0,31214.0,403431.0,172503.0,35168.0,49.0
2026-04-09 22:35:49.489143,514791,3079382134,3079383206,-1.030656,0.02928,-0.08784,11.6375,9.93125,-3.6925,21.240002,-28.696001,39.416,eccentric,7,5.0,31214.0,403431.0,172503.0,35168.0,49.0
2026-04-09 22:35:49.491735,514792,3079391138,3079391992,-1.030656,0.02928,-0.08784,11.71625,9.4325,-3.49125,21.240002,-28.696001,39.416,eccentric,7,5.0,31214.0,403431.0,172503.0,35168.0,49.0
2026-04-09 22:35:49.494291,514793,3079405642,3079406911,-0.999424,0.040992,-0.037088,11.20875,8.93375,-3.33375,20.880001,-28.912,39.984,eccentric,7,5.0,31214.0,403431.0,172503.0,35168.0,49.0
2026-04-09 22:35:49.497901,514794,3079414588,3079415691,-0.999424,0.040992,-0.037088,10.92875,8.575,-3.8675,20.880001,-28.912,39.984,eccentric,7,5.0,31214.0,403431.0,172503.0,35168.0,49.0
2026-04-09 22:35:49.528108,514795,3079423632,3079424427,-0.993568,0.066368,-0.046848,12.0225,8.30375,-5.20625,20.616001,-28.472002,40.376003,eccentric,7,5.0,31214.0,403431.0,172503.0,35168.0,49.0
2026-04-09 22:35:49.531655,514796,3079438562,3079439365,-1.048224,0.031232,-0.083936,12.59125,7.56875,-6.32625,21.408,-28.400002,39.032,eccentric,7,5.0,31214.0,403431.0,172503.0,35168.0,49.0
2026-04-09 22:35:49.561637,514806,3079447832,3079448201,-1.048224,0.031232,-0.083936,9.8525,7.44625,-6.4225,21.408,-28.400002,39.032,eccentric,7,5.0,31296.0,403431.0,172315.0,34920.0,30.0
2026-04-09 22:35:49.563111,514807,3079457225,3079459077,-1.061888,0.015616,-0.06832,10.05375,7.1225,-5.74875,20.808,-28.624,38.024002,eccentric,7,5.0,31296.0,403431.0,172315.0,34920.0,30.0
2026-04-09 22:35:49.565367,514808,3079466173,3079467868,-1.061888,0.015616,-0.06832,10.00125,6.7375,-4.3575,20.808,-28.624,38.024002,eccentric,7,5.0,31296.0,403431.0,172315.0,34920.0,30.0
2026-04-09 22:35:49.567868,514809,3079480697,3079482864,-1.00528,0.066368,-0.011712,9.47625,5.2325,-3.43875,20.432001,-28.824001,40.160004,eccentric,7,5.0,31296.0,403431.0,172315.0,34920.0,30.0
2026-04-09 22:35:49.574186,514810,3079489674,3079491571,-1.00528,0.066368,-0.011712,11.83,5.06625,-3.2375,20.432001,-28.824001,40.160004,eccentric,7,5.0,31296.0,403431.0,172315.0,34920.0,30.0
2026-04-09 22:35:49.604386,514811,3079498608,3079500293,-1.046272,0.046848,-0.052704,12.845,5.81,-3.9375,21.52,-28.320002,38.72,eccentric,7,5.0,31296.0,403431.0,172315.0,34920.0,30.0
2026-04-09 22:35:49.607981,514812,3079513138,3079515353,-1.046272,0.046848,-0.052704,12.39875,5.78375,-4.9175,21.52,-28.320002,38.72,eccentric,7,5.0,31296.0,403431.0,172315.0,34920.0,30.0
2026-04-09 22:35:49.610407,514813,3079522098,3079524083,-1.03456,0.021472,-0.025376,11.025,5.46875,-5.18,21.416,-28.728,38.576,eccentric,7,5.0,31296.0,403431.0,172315.0,34920.0,30.0
2026-04-09 22:35:49.615383,514814,3079531028,3079532786,-1.03456,0.021472,-0.025376,11.3225,4.7075,-3.78,21.416,-28.728,38.576,eccentric,7,5.0,31296.0,403431.0,172315.0,34920.0,30.0
2026-04-09 22:35:49.659336,514815,3079539942,3079541520,-1.003328,0.046848,-0.052704,11.1125,4.36625,-1.82875,21.064001,-29.008001,39.592003,eccentric,7,5.0,31296.0,403431.0,172315.0,34920.0,30.0
2026-04-09 22:35:49.687871,514826,3079554483,3079556465,-1.003328,0.046848,-0.052704,8.26875,4.34875,-0.44625,21.064001,-29.008001,39.592003,eccentric,7,5.0,31401.0,403431.0,172091.0,34554.0,28.0
2026-04-09 22:35:49.690364,514827,3079563406,3079565207,-1.013088,0.046848,-0.0976,5.32875,3.31625,-0.35,21.288,-29.04,38.68,eccentric,7,5.0,31401.0,403431.0,172091.0,34554.0,28.0
2026-04-09 22:35:49.692868,514828,3079572338,3079573900,-1.013088,0.046848,-0.0976,6.4225,1.995,-0.23625,21.288,-29.04,38.68,eccentric,7,5.0,31401.0,403431.0,172091.0,34554.0,28.0
2026-04-09 22:35:49.695361,514829,3079586927,3079588831,-1.036512,0.027328,-0.111264,8.89875,0.46375,0.76125,20.656,-28.752,38.56,eccentric,7,5.0,31401.0,403431.0,172091.0,34554.0,28.0
2026-04-09 22:35:49.697857,514830,3079595871,3079597569,-1.036512,0.027328,-0.111264,10.395,-1.51375,1.5575,20.656,-28.752,38.56,eccentric,7,5.0,31401.0,403431.0,172091.0,34554.0,28.0
2026-04-09 22:35:49.700403,514831,3079604970,3079606317,-0.997472,0.05856,-0.023424,15.09375,-3.5875,1.63625,19.080002,-28.696001,39.632004,eccentric,7,5.0,31401.0,403431.0,172091.0,34554.0,28.0
2026-04-09 22:35:49.702895,514832,3079619493,3079621299,-1.007232,0.10736,-0.025376,19.18,-4.75125,0.07,19.368,-28.712002,39.224003,eccentric,7,5.0,31401.0,403431.0,172091.0,34554.0,28.0
2026-04-09 22:35:49.753138,514833,3079628467,3079630052,-1.007232,0.10736,-0.025376,17.94625,-4.9875,-0.90125,19.368,-28.712002,39.224003,eccentric,7,5.0,31401.0,403431.0,172091.0,34554.0,28.0
2026-04-09 22:35:49.756639,514834,3079637386,3079638737,-1.057984,0.07808,-0.076128,14.49,-4.52375,-1.5925,21.016,-28.736002,38.480003,eccentric,7,5.0,31401.0,403431.0,172091.0,34554.0,28.0
2026-04-09 22:35:49.759201,514835,3079646276,3079647478,-1.057984,0.07808,-0.076128,11.1125,-4.095,-2.4675,21.016,-28.736002,38.480003,eccentric,7,5.0,31401.0,403431.0,172091.0,34554.0,28.0
2026-04-09 22:35:49.789073,514845,3079660784,3079662407,-1.056032,0.060512,-0.066368,10.77125,-4.76,-3.1325,20.784,-28.856,38.496002,eccentric,7,5.0,31714.0,403431.0,169850.0,31972.0,-35.0
2026-04-09 22:35:49.791781,514846,3079669674,3079671097,-1.056032,0.060512,-0.066368,12.8625,-4.7425,-3.3775,20.784,-28.856,38.496002,eccentric,7,5.0,31714.0,403431.0,169850.0,31972.0,-35.0
2026-04-09 22:35:49.794151,514847,3079678592,3079679788,-1.046272,0.101504,-0.013664,14.542501,-4.6375,-3.9025,20.328001,-29.072,38.136,eccentric,7,5.0,31714.0,403431.0,169850.0,31972.0,-35.0
2026-04-09 22:35:49.796622,514848,3079693150,3079694764,-1.046272,0.101504,-0.013664,14.2275,-2.7825,-4.57625,20.328001,-29.072,38.136,eccentric,7,5.0,31714.0,403431.0,169850.0,31972.0,-35.0
2026-04-09 22:35:49.800636,514849,3079702119,3079703497,-1.040416,0.076128,-0.040992,10.6225,-2.0125,-4.5325,20.832,-29.12,39.472,eccentric,7,5.0,31714.0,403431.0,169850.0,31972.0,-35.0
2026-04-09 22:35:49.802696,514850,3079711142,3079712290,-1.040416,0.076128,-0.040992,5.03125,-0.9625,-4.025,20.832,-29.12,39.472,eccentric,7,5.0,31714.0,403431.0,169850.0,31972.0,-35.0
2026-04-09 22:35:49.831873,514851,3079725669,3079727272,-1.071648,0.054656,-0.066368,3.66625,-0.79625,-3.98125,20.176,-29.368002,39.872,eccentric,7,5.0,31714.0,403431.0,169850.0,31972.0,-35.0
2026-04-09 22:35:49.835451,514852,3079734663,3079735956,-1.071648,0.054656,-0.066368,5.81875,-1.47875,-3.3775,20.176,-29.368002,39.872,eccentric,7,5.0,31714.0,403431.0,169850.0,31972.0,-35.0
2026-04-09 22:35:49.837884,514853,3079743564,3079744641,-1.042368,0.076128,-0.060512,7.37625,-2.3275,-2.8525,20.688002,-28.616001,37.960003,eccentric,7,5.0,31714.0,403431.0,169850.0,31972.0,-35.0
2026-04-09 22:35:49.863868,514863,3079758115,3079759692,-0.999424,0.064416,-0.0488,8.05875,-3.24625,-2.35375,19.232,-28.824001,37.728,eccentric,7,5.0,31773.0,403431.0,169809.0,31776.0,-39.0
2026-04-09 22:35:49.865414,514864,3079767138,3079768417,-0.999424,0.064416,-0.0488,7.21,-3.57,-1.70625,19.232,-28.824001,37.728,eccentric,7,5.0,31773.0,403431.0,169809.0,31776.0,-39.0
2026-04-09 22:35:49.869681,514865,3079776047,3079777199,-0.999424,0.064416,-0.0488,5.22375,-4.10375,-1.1375,19.232,-28.824001,37.728,eccentric,7,5.0,31773.0,403431.0,169809.0,31776.0,-39.0
2026-04-09 22:35:49.872088,514866,3079785002,3079785965,-1.009184,0.07808,-0.05856,4.76875,-3.4825,-0.84875,19.232,-29.136002,38.640003,eccentric,7,5.0,31773.0,403431.0,169809.0,31776.0,-39.0
2026-04-09 22:35:49.900639,514867,3079799519,3079800884,-1.020896,0.062464,-0.081984,3.70125,-3.14125,-1.015,20.288,-29.432001,41.272003,eccentric,7,5.0,31773.0,403431.0,169809.0,31776.0,-39.0
2026-04-09 22:35:49.904242,514868,3079808470,3079809598,-1.020896,0.062464,-0.081984,2.17,-3.42125,-0.48125,20.288,-29.432001,41.272003,eccentric,7,5.0,31773.0,403431.0,169809.0,31776.0,-39.0
2026-04-09 22:35:49.906704,514869,3079817381,3079818299,-1.020896,0.062464,-0.02928,2.96625,-5.145,-1.05,20.288,-29.432001,41.272003,eccentric,7,5.0,31773.0,403431.0,169809.0,31776.0,-39.0
2026-04-09 22:35:49.937747,514870,3079831963,3079833199,-0.981856,0.076128,-0.02928,5.8275,-5.985,-1.5575,20.688002,-29.560001,38.688004,eccentric,7,5.0,31773.0,403431.0,169809.0,31776.0,-39.0
2026-04-09 22:35:49.942232,514871,3079840845,3079841927,-0.993568,0.091744,-0.021472,8.5925,-5.87125,-2.21375,19.832,-29.008001,38.320004,eccentric,7,5.0,31773.0,403431.0,169809.0,31776.0,-39.0
2026-04-09 22:35:49.970381,514882,3079850160,3079850760,-0.993568,0.091744,-0.021472,7.30625,-4.865,-3.19375,19.832,-29.008001,38.320004,eccentric,7,5.0,31878.0,403431.0,168641.0,30518.0,-44.0
2026-04-09 22:35:49.974705,514883,3079864769,3079865834,-0.977952,0.074176,-0.052704,3.57,-4.40125,-3.84125,19.68,-29.712002,38.832,eccentric,7,5.0,31878.0,403431.0,168641.0,30518.0,-44.0
2026-04-09 22:35:49.976380,514884,3079873772,3079874599,-0.977952,0.074176,-0.052704,2.2925,-3.1675,-4.48875,19.68,-29.712002,38.832,eccentric,7,5.0,31878.0,403431.0,168641.0,30518.0,-44.0
2026-04-09 22:35:49.977994,514885,3079882840,3079883324,-0.999424,0.074176,-0.054656,2.52875,-2.1875,-5.43375,19.560001,-29.160002,38.448,eccentric,7,5.0,31878.0,403431.0,168641.0,30518.0,-44.0
2026-04-09 22:35:49.982043,514886,3079892209,3079894097,-0.999424,0.074176,-0.054656,1.46125,-1.61,-6.16875,19.560001,-29.160002,38.448,eccentric,7,5.0,31878.0,403431.0,168641.0,30518.0,-44.0
2026-04-09 22:35:50.011580,514887,3079906742,3079909083,-1.00528,0.070272,-0.076128,2.52875,-2.17,-6.5625,20.088001,-28.52,38.36,eccentric,7,5.0,31878.0,403431.0,168641.0,30518.0,-44.0
2026-04-09 22:35:50.013832,514888,3079915677,3079917771,-1.00528,0.070272,-0.076128,4.1475,-2.61625,-7.06125,20.088001,-28.52,38.36,eccentric,7,5.0,31878.0,403431.0,168641.0,30518.0,-44.0
2026-04-09 22:35:50.018436,514889,3079924595,3079926482,-1.00528,0.05856,-0.044896,3.57,-1.86375,-6.93,19.776001,-29.760002,37.792004,eccentric,7,5.0,31878.0,403431.0,168641.0,30518.0,-44.0
2026-04-09 22:35:50.054003,514890,3079939096,3079941454,-1.011136,0.081984,-0.042944,2.8525,-1.1375,-5.76625,18.240002,-29.368002,39.52,eccentric,7,5.0,31878.0,403431.0,168641.0,30518.0,-44.0
2026-04-09 22:35:50.083087,514900,3079948072,3079950111,-1.011136,0.081984,-0.042944,2.1175,-0.28,-5.74875,18.240002,-29.368002,39.52,eccentric,7,5.0,31972.0,403431.0,167825.0,29583.0,-73.0
2026-04-09 22:35:50.087177,514901,3079957010,3079958819,-1.011136,0.081984,-0.042944,1.2775,0.86625,-5.6175,18.240002,-29.368002,39.52,eccentric,7,5.0,31972.0,403431.0,167825.0,29583.0,-73.0
2026-04-09 22:35:50.088899,514902,3079965937,3079967529,-1.016992,0.062464,-0.040992,-0.7,1.82,-5.94125,19.44,-29.264002,39.192,eccentric,7,5.0,31972.0,403431.0,167825.0,29583.0,-73.0
2026-04-09 22:35:50.090572,514903,3079980665,3079982477,-1.030656,0.05856,-0.060512,-0.41125,2.00375,-6.58875,18.848001,-28.896002,39.528004,eccentric,7,5.0,31972.0,403431.0,167825.0,29583.0,-73.0
2026-04-09 22:35:50.094686,514904,3079989694,3079991222,-1.030656,0.05856,-0.060512,0.90125,1.74125,-6.125,18.848001,-28.896002,39.528004,eccentric,7,5.0,31972.0,403431.0,167825.0,29583.0,-73.0
2026-04-09 22:35:50.096651,514905,3079998672,3079999939,-1.04432,0.070272,-0.080032,1.14625,1.77625,-5.5825,19.432001,-29.184002,38.0,eccentric,7,5.0,31972.0,403431.0,167825.0,29583.0,-73.0
2026-04-09 22:35:50.100274,514906,3080013465,3080014940,-1.04432,0.070272,-0.080032,1.44375,2.45,-5.01375,19.432001,-29.184002,38.0,eccentric,7,5.0,31972.0,403431.0,167825.0,29583.0,-73.0
2026-04-09 22:35:50.107106,514907,3080022394,3080023657,-1.032608,0.083936,-0.056608,1.9775,2.91375,-5.53875,20.136002,-29.680002,38.616,eccentric,7,5.0,31972.0,403431.0,167825.0,29583.0,-73.0
2026-04-09 22:35:50.135612,514908,3080031741,3080032449,-1.032608,0.083936,-0.056608,0.98,3.045,-5.6,20.136002,-29.680002,38.616,eccentric,7,5.0,31972.0,403431.0,167825.0,29583.0,-73.0
2026-04-09 22:35:50.139125,514909,3080041127,3080043217,-1.018944,0.074176,-0.02928,-0.2275,3.92875,-5.6875,19.528002,-28.632002,38.760002,eccentric,7,5.0,31972.0,403431.0,167825.0,29583.0,-73.0
2026-04-09 22:35:50.166623,514919,3080055718,3080056088,-1.018944,0.074176,-0.02928,-0.63,4.01625,-6.8425,19.528002,-28.632002,38.760002,eccentric,7,5.0,31967.0,403431.0,167789.0,29539.0,-57.0
2026-04-09 22:35:50.169141,514920,3080065068,3080066911,-1.038464,0.060512,-0.07808,-1.40875,5.41625,-7.1925,19.424002,-29.264002,38.744003,eccentric,7,5.0,31967.0,403431.0,167789.0,29539.0,-57.0
2026-04-09 22:35:50.171638,514921,3080074088,3080075625,-1.038464,0.060512,-0.07808,-0.90125,6.32625,-7.35875,19.424002,-29.264002,38.744003,eccentric,7,5.0,31967.0,403431.0,167789.0,29539.0,-57.0
2026-04-09 22:35:50.174243,514922,3080088619,3080090540,-1.052128,0.040992,-0.072224,0.1225,6.4575,-7.665,19.696001,-29.536001,40.024002,eccentric,7,5.0,31967.0,403431.0,167789.0,29539.0,-57.0
2026-04-09 22:35:50.180469,514923,3080097645,3080099293,-1.052128,0.040992,-0.072224,-0.6125,6.11625,-7.4025,19.696001,-29.536001,40.024002,eccentric,7,5.0,31967.0,403431.0,167789.0,29539.0,-57.0
2026-04-09 22:35:50.212459,514924,3080106696,3080107995,-1.020896,0.03904,-0.031232,0.04375,5.8975,-6.29125,19.616001,-29.28,38.048,concentric,7,5.0,31967.0,403431.0,167789.0,29539.0,-57.0
2026-04-09 22:35:50.214135,514925,3080115674,3080116703,-1.020896,0.03904,-0.031232,0.84875,6.4225,-6.4225,19.616001,-29.28,38.048,concentric,7,5.0,31967.0,403431.0,167789.0,29539.0,-57.0
2026-04-09 22:35:50.216580,514926,3080130156,3080131610,-1.018944,0.08784,0.003904,1.4525,7.27125,-6.3875,20.12,-29.504002,38.888,concentric,7,5.0,31967.0,403431.0,167789.0,29539.0,-57.0
2026-04-09 22:35:50.225186,514927,3080139056,3080140320,-1.030656,0.03904,-0.01952,1.365,7.84875,-6.51,20.12,-29.032001,38.688004,concentric,7,5.0,31967.0,403431.0,167789.0,29539.0,-57.0
2026-04-09 22:35:50.253072,514928,3080148039,3080149098,-1.030656,0.03904,-0.01952,-1.39125,8.6975,-6.86,20.184,-29.032001,38.688004,concentric,7,5.0,31967.0,403431.0,167789.0,29539.0,-57.0
2026-04-09 22:35:50.281595,514939,3080162607,3080164042,-1.067744,0.005856,-0.193248,-0.7175,8.00625,-6.6675,20.288,-29.224,38.592003,concentric,7,5.0,31911.0,403431.0,168163.0,29957.0,-75.0
2026-04-09 22:35:50.284085,514940,3080171549,3080172747,-1.067744,0.005856,-0.193248,4.85625,5.1275,-6.30875,20.288,-29.224,38.592003,concentric,7,5.0,31911.0,403431.0,168163.0,29957.0,-75.0
2026-04-09 22:35:50.286634,514941,3080180509,3080181437,-1.071648,0.011712,-0.046848,12.0925,1.39125,-5.355,20.224,-28.928001,37.960003,concentric,7,5.0,31911.0,403431.0,168163.0,29957.0,-75.0
2026-04-09 22:35:50.289083,514942,3080195067,3080196418,-1.071648,0.011712,-0.046848,17.29875,-1.4,-3.115,20.224,-28.928001,37.960003,concentric,7,5.0,31911.0,403431.0,168163.0,29957.0,-75.0
2026-04-09 22:35:50.291655,514943,3080204031,3080205141,-0.968192,0.080032,0.044896,16.87875,-0.7875,-1.2425,19.712002,-29.608002,38.488003,concentric,7,5.0,31911.0,403431.0,168163.0,29957.0,-75.0
2026-04-09 22:35:50.296581,514944,3080213011,3080213867,-0.968192,0.080032,0.044896,8.37375,1.0675,0.2975,19.712002,-29.608002,38.488003,concentric,7,5.0,31911.0,403431.0,168163.0,29957.0,-75.0
2026-04-09 22:35:50.358196,514945,3080221993,3080222597,-0.970144,0.052704,-0.003904,1.40875,2.8,-0.67375,20.024,-29.936,39.832,concentric,7,5.0,31911.0,403431.0,168163.0,29957.0,-75.0
2026-04-09 22:35:50.360006,514946,3080236787,3080237445,-0.970144,0.052704,-0.003904,-4.0075,4.165,-1.225,20.024,-29.936,39.832,concentric,7,5.0,31911.0,403431.0,168163.0,29957.0,-75.0
2026-04-09 22:35:50.364703,514947,3080246070,3080248229,-1.03456,0.027328,-0.074176,-4.3575,4.29625,0.9975,19.896002,-29.328001,38.768,concentric,7,5.0,31911.0,403431.0,168163.0,29957.0,-75.0
2026-04-09 22:35:50.391691,514957,3080255138,3080256963,-1.03456,0.027328,-0.074176,-0.14875,3.605,0.6475,19.896002,-29.328001,38.768,concentric,7,5.0,31911.0,403431.0,168469.0,30282.0,-52.0
2026-04-09 22:35:50.395924,514958,3080269635,3080271871,-1.052128,0.093696,-0.115168,7.04375,2.3975,-0.8575,19.848001,-29.512001,38.2,concentric,7,5.0,31911.0,403431.0,168469.0,30282.0,-52.0
2026-04-09 22:35:50.397648,514959,3080278565,3080280562,-1.052128,0.093696,-0.115168,10.9025,1.26,-3.00125,19.848001,-29.512001,38.2,concentric,7,5.0,31911.0,403431.0,168469.0,30282.0,-52.0
2026-04-09 22:35:50.400111,514960,3080287583,3080289326,-1.011136,0.083936,-0.007808,10.15,0.49,-5.32875,19.976002,-29.576002,37.144,concentric,7,5.0,31911.0,403431.0,168469.0,30282.0,-52.0
2026-04-09 22:35:50.401569,514961,3080296522,3080298076,-1.011136,0.083936,-0.007808,7.735,0.58625,-6.79875,19.976002,-29.576002,37.144,concentric,7,5.0,31911.0,403431.0,168469.0,30282.0,-52.0
2026-04-09 22:35:50.405915,514962,3080311026,3080313043,-0.979904,0.046848,0.0488,6.36125,0.79625,-8.68875,18.152,-29.728,39.416,concentric,7,5.0,31911.0,403431.0,168469.0,30282.0,-52.0
2026-04-09 22:35:50.408899,514963,3080320077,3080321773,-0.979904,0.042944,-0.00976,4.27875,1.44375,-9.52,19.880001,-29.376001,37.544003,concentric,7,5.0,31911.0,403431.0,168469.0,30282.0,-52.0
2026-04-09 22:35:50.411701,514964,3080329011,3080330518,-0.979904,0.042944,-0.00976,4.515,2.0825,-8.9425,19.880001,-29.376001,37.544003,concentric,7,5.0,31911.0,403431.0,168469.0,30282.0,-52.0
2026-04-09 22:35:50.442219,514965,3080343506,3080345440,-1.013088,0.080032,-0.095648,5.4775,2.44125,-9.4325,20.336,-29.224,38.168003,concentric,7,5.0,31911.0,403431.0,168469.0,30282.0,-52.0
2026-04-09 22:35:50.501601,514975,3080353003,3080354365,-1.013088,0.080032,-0.095648,5.90625,2.72125,-10.3775,20.336,-29.224,38.168003,concentric,7,5.0,32012.0,403431.0,167012.0,28856.0,-63.0
2026-04-09 22:35:50.504197,514976,3080361973,3080363104,-1.032608,0.050752,-0.095648,5.4775,2.70375,-10.535,20.04,-29.784002,38.440002,concentric,7,5.0,32012.0,403431.0,167012.0,28856.0,-63.0
2026-04-09 22:35:50.506670,514977,3080370932,3080371852,-1.032608,0.050752,-0.095648,4.12125,1.74125,-10.885,20.04,-29.784002,38.440002,concentric,7,5.0,32012.0,403431.0,167012.0,28856.0,-63.0
2026-04-09 22:35:50.509175,514978,3080385424,3080386795,-1.020896,0.023424,-0.021472,1.19875,1.2425,-10.99,20.008001,-29.136002,39.440002,concentric,7,5.0,32012.0,403431.0,167012.0,28856.0,-63.0
2026-04-09 22:35:50.511709,514979,3080394324,3080395488,-1.020896,0.023424,-0.021472,2.94,1.00625,-9.9925,20.008001,-29.136002,39.440002,concentric,7,5.0,32012.0,403431.0,167012.0,28856.0,-63.0
2026-04-09 22:35:50.514191,514980,3080403258,3080404177,-1.01504,0.0976,0.035136,7.28875,1.12,-10.6575,20.496,-29.912,38.304,concentric,7,5.0,32012.0,403431.0,167012.0,28856.0,-63.0
2026-04-09 22:35:50.516647,514981,3080417729,3080419110,-1.01504,0.0976,0.035136,10.22875,0.7525,-10.885,20.496,-29.912,38.304,concentric,7,5.0,32012.0,403431.0,167012.0,28856.0,-63.0
2026-04-09 22:35:50.519940,514982,3080426651,3080427863,-1.018944,0.111264,0.011712,10.64,0.7525,-12.005,20.136002,-29.344002,38.104,concentric,7,5.0,32012.0,403431.0,167012.0,28856.0,-63.0
2026-04-09 22:35:50.526775,514983,3080435568,3080436655,-1.018944,0.111264,0.011712,7.44625,1.79375,-14.00875,20.136002,-29.344002,38.104,concentric,7,5.0,32012.0,403431.0,167012.0,28856.0,-63.0
2026-04-09 22:35:50.556889,514984,3080450072,3080451568,-1.065792,0.081984,-0.06832,2.52875,3.465,-15.4875,19.856,-29.016,39.320004,concentric,7,5.0,32012.0,403431.0,167012.0,28856.0,-63.0
2026-04-09 22:35:50.594488,514995,3080458982,3080460320,-1.065792,0.081984,-0.06832,-1.68875,4.06,-16.93125,19.856,-29.016,39.320004,concentric,7,5.0,32212.0,403431.0,163987.0,25866.0,-89.0
2026-04-09 22:35:50.596686,514996,3080467926,3080469004,-1.040416,-0.01952,-0.040992,-5.74875,2.40625,-16.38875,21.056002,-29.232002,38.064003,concentric,7,5.0,32212.0,403431.0,163987.0,25866.0,-89.0
2026-04-09 22:35:50.600643,514997,3080482432,3080483990,-1.011136,-0.031232,-0.040992,-4.57625,-0.86625,-13.36125,20.336,-29.600002,38.168003,concentric,7,5.0,32212.0,403431.0,163987.0,25866.0,-89.0
2026-04-09 22:35:50.602627,514998,3080491396,3080492737,-1.011136,-0.031232,-0.040992,5.3375,-4.3575,-12.20625,20.336,-29.600002,38.168003,concentric,7,5.0,32212.0,403431.0,163987.0,25866.0,-89.0
2026-04-09 22:35:50.604583,514999,3080500308,3080501497,-1.011136,0.220576,0.013664,17.28125,-6.32625,-11.261251,20.336,-29.600002,39.816,concentric,7,5.0,32212.0,403431.0,163987.0,25866.0,-89.0
2026-04-09 22:35:50.606672,515000,3080509317,3080510330,-1.011136,0.220576,0.013664,21.2275,-6.02,-9.5725,19.720001,-29.128002,39.816,concentric,7,5.0,32212.0,403431.0,163987.0,25866.0,-89.0
2026-04-09 22:35:50.609317,515001,3080523931,3080525293,-1.100928,0.06832,-0.046848,9.30125,-2.94875,-11.8825,20.408,-29.512001,40.600002,concentric,7,5.0,32212.0,403431.0,163987.0,25866.0,-89.0
2026-04-09 22:35:50.615497,515002,3080532957,3080534012,-1.100928,0.06832,-0.046848,-9.72125,0.51625,-16.31875,20.408,-29.512001,40.600002,concentric,7,5.0,32212.0,403431.0,163987.0,25866.0,-89.0
2026-04-09 22:35:50.656614,515003,3080541932,3080542720,-1.095072,-0.072224,-0.007808,-19.2675,1.11125,-18.20875,21.056002,-28.728,38.88,concentric,7,5.0,32212.0,403431.0,163987.0,25866.0,-89.0
2026-04-09 22:35:50.681795,515013,3080556508,3080557662,-1.095072,-0.072224,-0.007808,-16.03,-0.58625,-16.40625,21.056002,-28.728,38.88,concentric,7,5.0,32288.0,403431.0,162982.0,24864.0,-90.0
2026-04-09 22:35:50.685870,515014,3080565486,3080566375,-1.089216,0.035136,0.015616,-5.78375,-2.8525,-13.230001,20.752,-29.680002,38.336002,concentric,7,5.0,32288.0,403431.0,162982.0,24864.0,-90.0
2026-04-09 22:35:50.687687,515015,3080574386,3080575087,-1.089216,0.035136,0.015616,3.7625,-3.38625,-12.81,20.752,-29.680002,38.336002,concentric,7,5.0,32288.0,403431.0,162982.0,24864.0,-90.0
2026-04-09 22:35:50.689191,515016,3080589358,3080590070,-1.05408,0.093696,0.00976,5.25,-3.26375,-12.4425,19.720001,-29.352001,39.072002,concentric,7,5.0,32288.0,403431.0,162982.0,24864.0,-90.0
2026-04-09 22:35:50.693457,515017,3080598811,3080600938,-1.05408,0.093696,0.00976,1.82875,-2.35375,-11.7775,19.720001,-29.352001,39.072002,concentric,7,5.0,32288.0,403431.0,162982.0,24864.0,-90.0
2026-04-09 22:35:50.696009,515018,3080607731,3080609668,-1.04432,0.011712,-0.056608,-3.6925,-1.74125,-11.99625,19.912,-28.544,39.920002,concentric,7,5.0,32288.0,403431.0,162982.0,24864.0,-90.0
2026-04-09 22:35:50.702045,515019,3080616670,3080618396,-1.04432,0.011712,-0.056608,-7.16625,-1.505,-12.3725,19.912,-28.544,39.920002,concentric,7,5.0,32288.0,403431.0,162982.0,24864.0,-90.0
2026-04-09 22:35:50.725605,515020,3080631110,3080633285,-1.067744,-0.035136,-0.0976,-4.68125,-2.44125,-14.16625,21.544,-28.880001,38.312,concentric,7,5.0,32288.0,403431.0,162982.0,24864.0,-90.0
2026-04-09 22:35:50.729609,515021,3080640047,3080641985,-1.067744,-0.035136,-0.0976,2.2575,-4.89125,-13.25625,21.544,-28.880001,38.312,concentric,7,5.0,32288.0,403431.0,162982.0,24864.0,-90.0
2026-04-09 22:35:50.734789,515022,3080648972,3080650687,-1.020896,0.0488,-0.03904,6.32625,-6.685,-11.515,21.464,-29.016,39.584003,concentric,7,5.0,32288.0,403431.0,162982.0,24864.0,-90.0
2026-04-09 22:35:50.763425,515032,3080663556,3080665731,-0.987712,0.037088,0.031232,5.81,-8.2775,-11.59375,21.032001,-29.000002,39.160004,concentric,7,5.0,32218.0,403431.0,163291.0,25226.0,-95.0
2026-04-09 22:35:50.765128,515033,3080672499,3080674455,-0.987712,0.037088,0.031232,5.78375,-9.1875,-12.5825,21.032001,-29.000002,39.160004,concentric,7,5.0,32218.0,403431.0,163291.0,25226.0,-95.0
2026-04-09 22:35:50.766694,515034,3080681658,3080683232,-1.026752,0.007808,-0.035136,6.58,-8.68,-12.88,19.408,-29.288002,41.296,concentric,7,5.0,32218.0,403431.0,163291.0,25226.0,-95.0
2026-04-09 22:35:50.797836,515035,3080690609,3080691958,-1.026752,0.007808,-0.035136,6.8425,-7.9275,-13.02,19.408,-29.288002,41.296,concentric,7,5.0,32218.0,403431.0,163291.0,25226.0,-95.0
2026-04-09 22:35:50.802219,515036,3080705169,3080706864,-1.052128,-0.00976,-0.062464,5.29375,-7.4375,-12.88,21.712002,-29.04,39.408,concentric,7,5.0,32218.0,403431.0,163291.0,25226.0,-95.0
2026-04-09 22:35:50.803735,515037,3080714133,3080715543,-1.052128,-0.00976,-0.062464,7.37625,-8.225,-12.62625,21.712002,-29.04,39.408,concentric,7,5.0,32218.0,403431.0,163291.0,25226.0,-95.0
2026-04-09 22:35:50.809573,515038,3080723057,3080724237,-1.030656,0.050752,-0.017568,11.01625,-9.45,-12.50375,20.728,-29.248001,39.576,concentric,7,5.0,32218.0,403431.0,163291.0,25226.0,-95.0
2026-04-09 22:35:50.839274,515039,3080737628,3080739231,-1.030656,0.050752,-0.017568,11.235,-9.03875,-11.55,20.728,-29.248001,39.576,concentric,7,5.0,32218.0,403431.0,163291.0,25226.0,-95.0
2026-04-09 22:35:50.842938,515040,3080746521,3080747933,-1.032608,0.046848,-0.015616,7.8575,-8.435,-10.5875,22.032001,-29.024002,38.752003,concentric,7,5.0,32218.0,403431.0,163291.0,25226.0,-95.0
2026-04-09 22:35:50.871480,515050,3080756004,3080756759,-1.032608,0.046848,-0.015616,3.22,-7.28,-11.27875,22.032001,-29.024002,38.752003,concentric,7,5.0,32233.0,403431.0,162729.0,24765.0,-97.0
2026-04-09 22:35:50.872956,515051,3080765411,3080767699,-1.0736,-0.037088,-0.027328,-0.63875,-5.9675,-11.7775,21.704,-29.128002,38.72,concentric,7,5.0,32233.0,403431.0,162729.0,24765.0,-97.0
2026-04-09 22:35:50.877152,515052,3080779929,3080780593,-1.0736,-0.037088,-0.027328,2.135,-6.3,-11.1825,21.704,-29.128002,38.72,concentric,7,5.0,32233.0,403431.0,162729.0,24765.0,-97.0
2026-04-09 22:35:50.879644,515053,3080789260,3080791402,-1.046272,0.0,-0.027328,8.96875,-7.3675,-10.815,21.128,-28.864002,40.112003,concentric,7,5.0,32233.0,403431.0,162729.0,24765.0,-97.0
2026-04-09 22:35:50.885931,515054,3080798203,3080800216,-1.046272,0.0,-0.027328,12.60875,-8.04125,-10.0975,21.128,-28.864002,40.112003,concentric,7,5.0,32233.0,403431.0,162729.0,24765.0,-97.0
2026-04-09 22:35:50.914434,515055,3080812725,3080813175,-1.040416,0.031232,-0.021472,12.3375,-7.5425,-9.0125,21.28,-29.312002,40.304,concentric,7,5.0,32233.0,403431.0,162729.0,24765.0,-97.0
2026-04-09 22:35:50.922047,515056,3080822065,3080823946,-1.032608,0.046848,-0.007808,10.43,-6.57125,-8.30375,22.392,-29.184002,38.592003,concentric,7,5.0,32233.0,403431.0,162729.0,24765.0,-97.0
2026-04-09 22:35:50.958226,515057,3080830998,3080832636,-1.032608,0.046848,-0.007808,9.33625,-5.845,-8.26,22.392,-29.184002,38.592003,concentric,7,5.0,32233.0,403431.0,162729.0,24765.0,-97.0
2026-04-09 22:35:50.962715,515058,3080839922,3080841339,-1.032608,0.046848,-0.007808,6.37,-4.55,-7.7875,22.392,-29.184002,38.592003,concentric,7,5.0,32233.0,403431.0,162729.0,24765.0,-97.0
2026-04-09 22:35:50.990211,515069,3080854763,3080856332,-1.08336,0.01952,-0.105408,2.555,-2.96625,-9.14375,21.560001,-29.272001,39.048,concentric,7,5.0,32316.0,403431.0,161914.0,24060.0,-95.0
2026-04-09 22:35:50.991720,515070,3080863773,3080865111,-1.09312,0.005856,0.005856,-0.09625,-1.505,-11.7775,22.512001,-29.256,39.384003,concentric,7,5.0,32316.0,403431.0,161914.0,24060.0,-95.0
2026-04-09 22:35:50.995960,515071,3080872701,3080873821,-1.09312,0.005856,0.005856,2.1,-2.49375,-12.11,22.512001,-29.256,39.384003,concentric,7,5.0,32316.0,403431.0,161914.0,24060.0,-95.0
2026-04-09 22:35:50.998863,515072,3080887234,3080888719,-1.036512,0.011712,0.031232,4.34875,-2.96625,-10.3075,21.896002,-29.536001,39.072002,concentric,7,5.0,32316.0,403431.0,161914.0,24060.0,-95.0
2026-04-09 22:35:51.002838,515073,3080896193,3080897476,-1.036512,0.011712,0.031232,4.34,-2.66875,-9.56375,21.896002,-29.536001,39.072002,concentric,7,5.0,32316.0,403431.0,161914.0,24060.0,-95.0
2026-04-09 22:35:51.003757,515074,3080905271,3080906187,-1.118496,0.040992,-0.035136,2.68625,-0.9625,-9.35375,22.824001,-29.104002,39.280003,concentric,7,5.0,32316.0,403431.0,161914.0,24060.0,-95.0
2026-04-09 22:35:51.005833,515075,3080914314,3080915022,-1.118496,0.040992,-0.035136,-0.30625,0.1925,-7.88375,22.824001,-29.104002,39.280003,concentric,7,5.0,32316.0,403431.0,161914.0,24060.0,-95.0
2026-04-09 22:35:51.035375,515076,3080929345,3080929996,-1.128256,-0.046848,-0.105408,-4.40125,0.49875,-5.90625,22.624,-29.064001,39.608,concentric,7,5.0,32316.0,403431.0,161914.0,24060.0,-95.0
2026-04-09 22:35:51.037629,515077,3080938657,3080940815,-1.128256,-0.046848,-0.105408,-5.04875,-0.105,-8.05,22.624,-29.064001,39.608,concentric,7,5.0,32316.0,403431.0,161914.0,24060.0,-95.0
2026-04-09 22:35:51.042224,515078,3080947603,3080949507,-1.067744,-0.003904,-0.00976,0.9625,-1.5575,-8.3475,22.528002,-29.392002,39.496002,concentric,7,5.0,32316.0,403431.0,161914.0,24060.0,-95.0
2026-04-09 22:35:51.070956,515088,3080962287,3080964476,-1.046272,0.037088,0.023424,9.44125,-3.17625,-5.6525,20.480001,-29.584002,40.064003,concentric,7,5.0,32181.0,403431.0,163226.0,25359.0,-86.0
2026-04-09 22:35:51.074203,515089,3080971378,3080973329,-1.046272,0.037088,0.023424,14.42875,-3.26375,-7.14875,22.152,-29.584002,40.064003,concentric,7,5.0,32181.0,403431.0,163226.0,25359.0,-86.0
2026-04-09 22:35:51.074396,515090,3080980354,3080982049,-1.046272,0.037088,0.023424,15.14625,-1.67125,-8.54,22.152,-29.584002,40.064003,concentric,7,5.0,32181.0,403431.0,163226.0,25359.0,-86.0
2026-04-09 22:35:51.079765,515091,3080989312,3080990764,-1.08336,0.052704,-0.013664,12.87125,0.53375,-9.1,22.984001,-29.472002,40.744003,concentric,7,5.0,32181.0,403431.0,163226.0,25359.0,-86.0
2026-04-09 22:35:51.093710,515092,3081003919,3081005674,-1.089216,-0.005856,-0.011712,8.6625,3.325,-10.77125,21.048,-29.640001,40.68,concentric,7,5.0,32181.0,403431.0,163226.0,25359.0,-86.0
2026-04-09 22:35:51.097120,515093,3081012892,3081014465,-1.089216,-0.005856,-0.011712,2.38875,5.11875,-10.92,21.048,-29.640001,40.68,concentric,7,5.0,32181.0,403431.0,163226.0,25359.0,-86.0
2026-04-09 22:35:51.125683,515094,3081021879,3081023166,-1.089216,-0.005856,-0.003904,-0.83125,6.405,-10.91125,21.048,-29.640001,40.68,concentric,7,5.0,32181.0,403431.0,163226.0,25359.0,-86.0
2026-04-09 22:35:51.130176,515095,3081036381,3081038101,-1.0736,-0.042944,-0.003904,1.155,6.51875,-10.185,22.400002,-29.576002,40.168003,concentric,7,5.0,32181.0,403431.0,163226.0,25359.0,-86.0
2026-04-09 22:35:51.131635,515096,3081045286,3081046790,-1.042368,0.025376,-0.011712,4.92625,6.13375,-8.00625,23.128,-29.480001,38.464,concentric,7,5.0,32181.0,403431.0,163226.0,25359.0,-86.0
2026-04-09 22:35:51.163231,515097,3081054259,3081055526,-1.042368,0.025376,-0.011712,6.62375,6.055,-6.41375,23.128,-29.480001,38.464,concentric,7,5.0,32181.0,403431.0,163226.0,25359.0,-86.0
2026-04-09 22:35:51.195163,515107,3081063301,3081064332,-1.0736,0.033184,-0.037088,6.36125,6.8425,-7.6825,23.032001,-29.44,38.984,concentric,7,5.0,31959.0,403431.0,164794.0,26956.0,-86.0
2026-04-09 22:35:51.196739,515108,3081077812,3081079228,-1.0736,0.033184,-0.037088,3.815,7.875,-8.6625,23.032001,-29.44,38.984,concentric,7,5.0,31959.0,403431.0,164794.0,26956.0,-86.0
2026-04-09 22:35:51.200941,515109,3081086766,3081087949,-1.09312,-0.023424,-0.060512,0.34125,8.60125,-9.275,23.744001,-29.752,38.864002,concentric,7,5.0,31959.0,403431.0,164794.0,26956.0,-86.0
2026-04-09 22:35:51.203402,515110,3081095697,3081096672,-1.09312,-0.023424,-0.060512,-3.07125,8.61875,-9.12625,23.744001,-29.752,38.864002,concentric,7,5.0,31959.0,403431.0,164794.0,26956.0,-86.0
2026-04-09 22:35:51.213498,515111,3081110230,3081111632,-1.059936,-0.021472,0.007808,-0.95375,7.41125,-8.8025,22.792002,-29.36,40.312,concentric,7,5.0,31959.0,403431.0,164794.0,26956.0,-86.0
2026-04-09 22:35:51.215192,515112,3081119254,3081120335,-1.059936,-0.021472,0.007808,2.72125,6.3525,-7.385,22.792002,-29.36,40.312,concentric,7,5.0,31959.0,403431.0,164794.0,26956.0,-86.0
2026-04-09 22:35:51.216897,515113,3081128195,3081129079,-1.050176,0.035136,0.005856,5.985,6.23,-6.69375,23.04,-29.512001,39.944,concentric,7,5.0,31959.0,403431.0,164794.0,26956.0,-86.0
2026-04-09 22:35:51.255355,515114,3081142696,3081143987,-1.050176,0.0488,-0.031232,7.76125,8.12875,-7.63,23.04,-29.512001,39.944,concentric,7,5.0,31959.0,403431.0,164794.0,26956.0,-86.0
2026-04-09 22:35:51.257587,515115,3081151645,3081152702,-1.108736,0.0488,-0.031232,2.47625,9.68625,-8.575,23.032001,-29.216002,39.408,concentric,7,5.0,31959.0,403431.0,164794.0,26956.0,-86.0
2026-04-09 22:35:51.288935,515126,3081160681,3081161484,-1.108736,0.0488,-0.031232,-4.13875,10.43875,-9.4325,23.032001,-29.216002,39.408,concentric,7,5.0,31681.0,403431.0,166386.0,28662.0,-76.0
2026-04-09 22:35:51.290784,515127,3081170095,3081172243,-1.100928,-0.052704,0.001952,-8.91625,9.948751,-10.325,23.984001,-29.672,39.664,concentric,7,5.0,31681.0,403431.0,166386.0,28662.0,-76.0
2026-04-09 22:35:51.298501,515128,3081184601,3081185082,-1.097024,-0.101504,0.040992,-10.7275,9.03875,-9.2225,23.912,-29.144001,39.184002,concentric,7,5.0,31681.0,403431.0,166386.0,28662.0,-76.0
2026-04-09 22:35:51.300208,515129,3081193987,3081195872,-1.097024,-0.101504,0.040992,-8.58375,7.245,-6.5975,23.912,-29.144001,39.184002,concentric,7,5.0,31681.0,403431.0,166386.0,28662.0,-76.0
2026-04-09 22:35:51.301748,515130,3081203040,3081204643,-1.097024,-0.040992,0.027328,-4.52375,5.27625,-3.99,23.912,-29.144001,37.336002,concentric,7,5.0,31681.0,403431.0,166386.0,28662.0,-76.0
2026-04-09 22:35:51.305841,515131,3081217569,3081219680,-1.126304,-0.040992,0.027328,-1.68875,4.06875,-2.8,23.816002,-29.016,37.336002,concentric,7,5.0,31681.0,403431.0,166386.0,28662.0,-76.0
2026-04-09 22:35:51.312100,515132,3081226519,3081228442,-1.145824,-0.052704,0.052704,-3.43875,3.28125,-3.4475,23.208,-29.152002,40.320004,concentric,7,5.0,31681.0,403431.0,166386.0,28662.0,-76.0
2026-04-09 22:35:51.340694,515133,3081235451,3081237134,-1.145824,-0.052704,0.052704,-6.72875,2.3275,-5.18,23.208,-29.152002,40.320004,concentric,7,5.0,31681.0,403431.0,166386.0,28662.0,-76.0
2026-04-09 22:35:51.345263,515134,3081244358,3081245860,-1.061888,-0.00976,0.074176,-7.805,1.2775,-6.60625,23.992,-29.208002,41.384003,concentric,7,5.0,31681.0,403431.0,166386.0,28662.0,-76.0
2026-04-09 22:35:51.369278,515144,3081259231,3081260941,-1.061888,-0.00976,0.074176,-11.9,1.32125,-6.8775,23.992,-29.208002,41.384003,concentric,7,5.0,31539.0,403431.0,166944.0,29452.0,-61.0
2026-04-09 22:35:51.373466,515145,3081268264,3081269741,-1.057984,0.02928,0.064416,-17.4125,1.9075,-7.0175,24.296001,-28.928001,39.048,concentric,7,5.0,31539.0,403431.0,166944.0,29452.0,-61.0
2026-04-09 22:35:51.375203,515146,3081277217,3081278471,-1.057984,0.02928,0.064416,-22.28625,2.31875,-8.72375,24.296001,-28.928001,39.048,concentric,7,5.0,31539.0,403431.0,166944.0,29452.0,-61.0
2026-04-09 22:35:51.377564,515147,3081291775,3081293542,-1.120448,0.001952,-0.011712,-26.10125,3.2025,-10.36875,23.984001,-29.528002,40.616,concentric,7,5.0,31539.0,403431.0,166944.0,29452.0,-61.0
2026-04-09 22:35:51.407926,515148,3081300798,3081302253,-1.120448,0.001952,-0.011712,-29.39125,4.12125,-10.29875,23.984001,-29.528002,40.616,concentric,7,5.0,31539.0,403431.0,166944.0,29452.0,-61.0
2026-04-09 22:35:51.410111,515149,3081309698,3081310932,-1.091168,-0.035136,-0.031232,-29.75875,4.1475,-11.10375,24.928001,-28.848001,40.824,concentric,7,5.0,31539.0,403431.0,166944.0,29452.0,-61.0
2026-04-09 22:35:51.414796,515150,3081324147,3081325846,-1.120448,-0.017568,-0.033184,-29.435,4.96125,-13.60625,24.352001,-28.560001,40.048,concentric,7,5.0,31539.0,403431.0,166944.0,29452.0,-61.0
2026-04-09 22:35:51.416402,515151,3081333087,3081334602,-1.120448,-0.017568,-0.033184,-29.58375,5.705,-13.37875,24.352001,-28.560001,40.048,concentric,7,5.0,31539.0,403431.0,166944.0,29452.0,-61.0
2026-04-09 22:35:51.447074,515152,3081342036,3081343310,-1.120448,-0.017568,-0.033184,-29.58375,5.6875,-12.285,24.352001,-28.560001,40.048,concentric,7,5.0,31539.0,403431.0,166944.0,29452.0,-61.0
2026-04-09 22:35:51.454777,515153,3081350943,3081352032,-1.120448,-0.044896,-0.081984,-30.1525,4.40125,-12.32,24.112001,-28.240002,39.752003,concentric,7,5.0,31539.0,403431.0,166944.0,29452.0,-61.0
2026-04-09 22:35:51.481618,515163,3081365448,3081367046,-1.143872,-0.062464,-0.072224,-29.58375,4.2175,-11.480001,25.384,-28.216002,40.640003,concentric,7,5.0,31670.0,403431.0,167689.0,30025.0,-60.0
2026-04-09 22:35:51.483350,515164,3081374395,3081375736,-1.143872,-0.062464,-0.072224,-26.5475,4.17375,-11.3925,25.384,-28.216002,40.640003,concentric,7,5.0,31670.0,403431.0,167689.0,30025.0,-60.0
2026-04-09 22:35:51.490997,515165,3081383360,3081384487,-1.143872,-0.062464,-0.0488,-21.805,3.52625,-11.917501,25.384,-28.216002,40.640003,concentric,7,5.0,31670.0,403431.0,167689.0,30025.0,-60.0
2026-04-09 22:35:51.492683,515166,3081397871,3081399465,-1.14192,-0.031232,-0.0488,-18.50625,3.36875,-12.08375,24.184002,-28.240002,39.984,concentric,7,5.0,31670.0,403431.0,167689.0,30025.0,-60.0
2026-04-09 22:35:51.494258,515167,3081406804,3081408160,-1.108736,-0.005856,-0.005856,-19.005,3.01875,-11.61125,24.584002,-28.696001,41.744003,concentric,7,5.0,31670.0,403431.0,167689.0,30025.0,-60.0
2026-04-09 22:35:51.500872,515168,3081415734,3081416838,-1.108736,-0.005856,-0.005856,-21.14875,3.38625,-11.24375,24.584002,-28.696001,41.744003,concentric,7,5.0,31670.0,403431.0,167689.0,30025.0,-60.0
2026-04-09 22:35:51.554099,515169,3081430203,3081431687,-1.163392,-0.042944,-0.05856,-19.90625,4.4625,-11.2525,25.056002,-28.36,40.536003,concentric,7,5.0,31670.0,403431.0,167689.0,30025.0,-60.0
2026-04-09 22:35:51.559589,515170,3081439102,3081440375,-1.163392,-0.042944,-0.05856,-19.45125,5.29375,-12.005,25.056002,-28.36,40.536003,concentric,7,5.0,31670.0,403431.0,167689.0,30025.0,-60.0
2026-04-09 22:35:51.562821,515171,3081447998,3081449098,-1.188768,-0.021472,-0.054656,-16.1,5.62625,-12.1275,25.608002,-28.208002,40.736,concentric,7,5.0,31670.0,403431.0,167689.0,30025.0,-60.0
2026-04-09 22:35:51.588480,515182,3081462624,3081464005,-1.188768,-0.021472,-0.054656,-14.07875,4.82125,-11.29625,25.608002,-28.208002,40.736,concentric,7,5.0,31789.0,403431.0,167832.0,29997.0,-64.0
2026-04-09 22:35:51.590195,515183,3081471562,3081472744,-1.186816,-0.025376,-0.011712,-15.75875,4.6375,-10.5,25.248001,-27.672,41.768,concentric,7,5.0,31789.0,403431.0,167832.0,29997.0,-64.0
2026-04-09 22:35:51.591906,515184,3081480480,3081481446,-1.186816,-0.025376,-0.011712,-16.38,5.27625,-10.9375,25.248001,-27.672,41.768,concentric,7,5.0,31789.0,403431.0,167832.0,29997.0,-64.0
2026-04-09 22:35:51.595944,515185,3081489434,3081490229,-1.19072,-0.021472,-0.023424,-15.49625,5.46875,-10.465,25.872002,-26.904001,41.320004,concentric,7,5.0,31789.0,403431.0,167832.0,29997.0,-64.0
2026-04-09 22:35:51.597684,515186,3081504483,3081505191,-1.204384,0.0,-0.017568,-13.195,5.1625,-8.95125,25.872002,-27.616001,41.600002,concentric,7,5.0,31789.0,403431.0,167832.0,29997.0,-64.0
2026-04-09 22:35:51.599615,515187,3081513817,3081515954,-1.204384,0.0,-0.017568,-11.48875,5.2675,-8.86375,25.432001,-27.616001,41.600002,concentric,7,5.0,31789.0,403431.0,167832.0,29997.0,-64.0
2026-04-09 22:35:51.630366,515188,3081522772,3081524681,-1.204384,0.0,-0.017568,-13.335,5.48625,-7.525,25.432001,-27.616001,41.600002,concentric,7,5.0,31789.0,403431.0,167832.0,29997.0,-64.0
2026-04-09 22:35:51.634757,515189,3081537198,3081537518,-1.247328,-0.066368,-0.03904,-16.3625,5.52125,-6.41375,25.288002,-27.472002,40.576,concentric,7,5.0,31789.0,403431.0,167832.0,29997.0,-64.0
2026-04-09 22:35:51.638526,515190,3081546354,3081548279,-1.175104,-0.052704,-0.021472,-15.408751,4.90875,-6.195,26.104002,-27.664001,40.952003,concentric,7,5.0,31789.0,403431.0,167832.0,29997.0,-64.0
2026-04-09 22:35:51.641725,515191,3081555285,3081556969,-1.175104,-0.052704,-0.021472,-10.8675,3.4825,-4.03375,26.104002,-27.664001,40.952003,concentric,7,5.0,31789.0,403431.0,167832.0,29997.0,-64.0
2026-04-09 22:35:51.668027,515201,3081564294,3081565756,-1.175104,-0.013664,-0.01952,-6.90375,3.1675,-2.1875,26.104002,-27.664001,40.952003,concentric,7,5.0,31706.0,403431.0,169220.0,31301.0,-46.0
2026-04-09 22:35:51.672123,515202,3081578816,3081580693,-1.194624,-0.013664,-0.01952,-2.1525,3.19375,-1.68,24.832,-27.432001,41.544003,concentric,7,5.0,31706.0,403431.0,169220.0,31301.0,-46.0
2026-04-09 22:35:51.678375,515203,3081587733,3081589394,-1.247328,-0.021472,-0.023424,0.28,3.3775,-2.9225,24.592001,-28.008001,42.344,concentric,7,5.0,31706.0,403431.0,169220.0,31301.0,-46.0
2026-04-09 22:35:51.683310,515204,3081596676,3081598087,-1.247328,-0.021472,-0.023424,0.93625,3.255,-3.17625,24.592001,-28.008001,42.344,concentric,7,5.0,31706.0,403431.0,169220.0,31301.0,-46.0
2026-04-09 22:35:51.712451,515205,3081611186,3081613015,-1.214144,-0.056608,0.00976,-0.4025,2.86125,-2.28375,25.304,-27.512001,42.496002,concentric,7,5.0,31706.0,403431.0,169220.0,31301.0,-46.0
2026-04-09 22:35:51.716495,515206,3081620088,3081621718,-1.214144,-0.056608,0.00976,-0.39375,1.5225,-0.84,25.304,-27.512001,42.496002,concentric,7,5.0,31706.0,403431.0,169220.0,31301.0,-46.0
2026-04-09 22:35:51.717963,515207,3081629018,3081630425,-1.1712,-0.025376,0.031232,2.37125,0.28875,1.05,25.192001,-26.960001,41.104,concentric,7,5.0,31706.0,403431.0,169220.0,31301.0,-46.0
2026-04-09 22:35:51.766551,515208,3081643523,3081645349,-1.1712,-0.025376,0.031232,6.65,0.00875,2.19625,25.192001,-26.960001,41.104,concentric,7,5.0,31706.0,403431.0,169220.0,31301.0,-46.0
2026-04-09 22:35:51.768874,515209,3081652475,3081654075,-1.225856,0.03904,0.017568,9.1175,0.70875,2.21375,25.264002,-27.680002,41.776,concentric,7,5.0,31706.0,403431.0,169220.0,31301.0,-46.0
2026-04-09 22:35:51.794207,515219,3081661585,3081662861,-1.225856,0.03904,0.017568,7.42875,1.05875,2.5025,25.264002,-27.680002,41.776,concentric,7,5.0,31492.0,403431.0,171014.0,33117.0,-20.0
2026-04-09 22:35:51.798572,515220,3081670547,3081671620,-1.241472,-0.011712,-0.023424,2.135,2.1175,2.07375,25.264002,-27.496002,41.264004,concentric,7,5.0,31492.0,403431.0,171014.0,33117.0,-20.0
2026-04-09 22:35:51.800143,515221,3081685045,3081686484,-1.208288,-0.089792,-0.011712,-1.96875,1.98625,1.61875,25.264002,-27.496002,42.920002,concentric,7,5.0,31492.0,403431.0,171014.0,33117.0,-20.0
2026-04-09 22:35:51.801718,515222,3081694067,3081695256,-1.208288,-0.089792,-0.011712,-0.04375,0.56875,2.30125,24.872002,-28.28,42.920002,concentric,7,5.0,31492.0,403431.0,171014.0,33117.0,-20.0
2026-04-09 22:35:51.805926,515223,3081702971,3081704125,-1.208288,-0.089792,-0.011712,6.43125,-1.88125,3.59625,24.872002,-28.28,42.920002,concentric,7,5.0,31492.0,403431.0,171014.0,33117.0,-20.0
2026-04-09 22:35:51.808428,515224,3081717507,3081719088,-1.196576,0.005856,0.031232,13.53625,-2.87875,3.57,24.456001,-28.2,44.864002,concentric,7,5.0,31492.0,403431.0,171014.0,33117.0,-20.0
2026-04-09 22:35:51.812096,515225,3081726502,3081727810,-1.225856,0.033184,0.003904,16.54625,-2.52,3.35125,24.056002,-28.080002,42.608,concentric,7,5.0,31492.0,403431.0,171014.0,33117.0,-20.0
