pc_time,serial_num,sensor_ts,host_ts,ax,ay,az,gx,gy,gz,mx,my,mz,phase,rpe,weight_kg,ppg_a,ppg_b,ppg_c,ppg_d,ppg_e
2026-04-09 22:35:51.855611,515226,3081735535,3081736534,-1.225856,0.033184,0.003904,14.542501,-1.61,3.185,24.056002,-28.080002,42.608,eccentric,7,5.0,31492.0,403431.0,171014.0,33117.0,-20.0
2026-04-09 22:35:51.859802,515227,3081749974,3081751474,-1.202432,-0.003904,0.0,9.44125,-1.575,2.35375,24.608002,-28.696001,41.392002,eccentric,7,5.0,31492.0,403431.0,171014.0,33117.0,-20.0
2026-04-09 22:35:51.889251,515238,3081758892,3081760305,-1.202432,-0.003904,0.0,7.665,-0.6125,0.2975,24.608002,-28.696001,41.392002,eccentric,7,5.0,31239.0,403431.0,172529.0,34872.0,32.0
2026-04-09 22:35:51.893512,515239,3081767884,3081769014,-1.196576,-0.021472,0.003904,7.7875,-0.39375,-0.07,24.544,-27.992,41.52,eccentric,7,5.0,31239.0,403431.0,172529.0,34872.0,32.0
2026-04-09 22:35:51.895179,515240,3081776894,3081777705,-1.196576,-0.021472,0.003904,7.525,-1.19875,0.735,24.544,-27.992,41.52,eccentric,7,5.0,31239.0,403431.0,172529.0,34872.0,32.0
2026-04-09 22:35:51.896859,515241,3081791438,3081792639,-1.186816,-0.015616,-0.005856,8.4525,-2.38875,1.26875,24.52,-27.984001,41.424004,eccentric,7,5.0,31239.0,403431.0,172529.0,34872.0,32.0
2026-04-09 22:35:51.900935,515242,3081800330,3081801480,-1.186816,-0.015616,-0.005856,10.386251,-2.84375,0.46375,24.52,-27.984001,41.424004,eccentric,7,5.0,31239.0,403431.0,172529.0,34872.0,32.0
2026-04-09 22:35:51.902522,515243,3081809285,3081810281,-1.173152,0.003904,-0.00976,11.0775,-3.21125,0.5775,23.152,-28.392002,42.504,eccentric,7,5.0,31239.0,403431.0,172529.0,34872.0,32.0
2026-04-09 22:35:51.909564,515244,3081823903,3081825261,-1.173152,0.003904,-0.00976,11.03375,-2.49375,1.2775,23.152,-28.392002,42.504,eccentric,7,5.0,31239.0,403431.0,172529.0,34872.0,32.0
2026-04-09 22:35:51.938258,515245,3081832833,3081834045,-1.206336,0.017568,0.003904,8.82,-1.53125,0.35875,22.928001,-28.424002,42.696003,eccentric,7,5.0,31239.0,403431.0,172529.0,34872.0,32.0
2026-04-09 22:35:51.942662,515246,3081841876,3081842753,-1.206336,0.017568,0.003904,9.7125,-1.04125,-0.875,22.928001,-28.424002,42.696003,eccentric,7,5.0,31239.0,403431.0,172529.0,34872.0,32.0
2026-04-09 22:35:51.944168,515247,3081856381,3081857627,-1.216096,0.015616,-0.027328,11.375,-1.015,-1.60125,23.992,-28.800001,41.184002,eccentric,7,5.0,31239.0,403431.0,172529.0,34872.0,32.0
2026-04-09 22:35:51.970121,515257,3081865385,3081866350,-1.216096,0.015616,-0.00976,10.3075,-0.86625,-2.52,23.992,-28.800001,41.184002,eccentric,7,5.0,31084.0,403431.0,173693.0,36197.0,61.0
2026-04-09 22:35:51.971741,515258,3081874354,3081875184,-1.186816,-0.017568,-0.00976,11.89125,-1.32125,-3.29,23.424002,-28.720001,41.488003,eccentric,7,5.0,31084.0,403431.0,173693.0,36197.0,61.0
2026-04-09 22:35:51.975832,515259,3081883893,3081885985,-1.186816,-0.017568,-0.00976,14.0875,-2.42375,-4.26125,23.424002,-28.720001,41.488003,eccentric,7,5.0,31084.0,403431.0,173693.0,36197.0,61.0
2026-04-09 22:35:52.004387,515260,3081898405,3081898874,-1.192672,0.003904,-0.021472,16.51125,-2.31,-3.92875,23.088001,-28.336,44.264004,eccentric,7,5.0,31084.0,403431.0,173693.0,36197.0,61.0
2026-04-09 22:35:52.008976,515261,3081907808,3081909639,-1.21024,0.021472,-0.021472,18.235,-1.3475,-3.8675,23.864,-28.36,40.36,eccentric,7,5.0,31084.0,403431.0,173693.0,36197.0,61.0
2026-04-09 22:35:52.010426,515262,3081916805,3081918410,-1.21024,0.021472,-0.021472,18.7075,-0.30625,-4.71625,23.864,-28.36,40.36,eccentric,7,5.0,31084.0,403431.0,173693.0,36197.0,61.0
2026-04-09 22:35:52.017084,515263,3081931344,3081933309,-1.179008,0.001952,-0.023424,17.955,0.7,-5.39875,24.416,-27.880001,40.208,eccentric,7,5.0,31084.0,403431.0,173693.0,36197.0,61.0
2026-04-09 22:35:52.048575,515264,3081940284,3081942010,-1.179008,0.001952,-0.023424,16.03,2.0475,-5.71375,24.416,-27.880001,40.208,eccentric,7,5.0,31084.0,403431.0,173693.0,36197.0,61.0
2026-04-09 22:35:52.050199,515265,3081949215,3081950716,-1.182912,0.003904,-0.03904,14.533751,2.09125,-5.8975,23.488,-28.36,40.824,eccentric,7,5.0,31084.0,403431.0,173693.0,36197.0,61.0
2026-04-09 22:35:52.051754,515266,3081958123,3081959421,-1.182912,0.003904,-0.03904,15.88125,2.02125,-5.69625,23.488,-28.36,40.824,eccentric,7,5.0,31084.0,403431.0,173693.0,36197.0,61.0
2026-04-09 22:35:52.077728,515276,3081972644,3081974347,-1.194624,-0.003904,-0.03904,16.02125,1.7325,-4.7775,23.176,-28.896002,41.024002,eccentric,7,5.0,31016.0,403431.0,174388.0,36934.0,86.0
2026-04-09 22:35:52.079253,515277,3081981643,3081983139,-1.194624,-0.003904,-0.03904,15.05,1.365,-4.0075,23.176,-28.896002,41.024002,eccentric,7,5.0,31016.0,403431.0,174388.0,36934.0,86.0
2026-04-09 22:35:52.083341,515278,3081990599,3081991870,-1.186816,0.027328,-0.01952,16.80875,2.54625,-3.6575,23.208,-28.792002,40.728,eccentric,7,5.0,31016.0,403431.0,174388.0,36934.0,86.0
2026-04-09 22:35:52.111863,515279,3082005238,3082006788,-1.186816,0.027328,-0.01952,17.272501,2.51125,-3.605,23.208,-28.792002,40.728,eccentric,7,5.0,31016.0,403431.0,174388.0,36934.0,86.0
2026-04-09 22:35:52.116419,515280,3082014214,3082015495,-1.147776,-0.003904,0.003904,16.6075,2.6075,-4.13,23.168001,-28.744001,40.640003,eccentric,7,5.0,31016.0,403431.0,174388.0,36934.0,86.0
2026-04-09 22:35:52.119632,515281,3082023147,3082024219,-1.147776,-0.003904,0.003904,14.84,3.5,-3.92875,23.168001,-28.744001,40.640003,eccentric,7,5.0,31016.0,403431.0,174388.0,36934.0,86.0
2026-04-09 22:35:52.122946,515282,3082037640,3082039178,-1.128256,0.00976,-0.005856,14.8925,4.38375,-3.7625,23.04,-28.768002,40.760002,eccentric,7,5.0,31016.0,403431.0,174388.0,36934.0,86.0
2026-04-09 22:35:52.155448,515283,3082046631,3082047971,-1.138016,0.023424,-0.02928,15.2775,5.67875,-4.0425,23.04,-28.712002,40.160004,eccentric,7,5.0,31016.0,403431.0,174388.0,36934.0,86.0
2026-04-09 22:35:52.158136,515284,3082055541,3082056667,-1.138016,0.023424,-0.02928,14.2975,6.195,-3.73625,22.648,-28.712002,40.160004,eccentric,7,5.0,31016.0,403431.0,174388.0,36934.0,86.0
2026-04-09 22:35:52.185669,515295,3082064866,3082065384,-1.138016,0.023424,-0.02928,12.20625,6.13375,-3.5,22.648,-28.712002,40.160004,eccentric,7,5.0,30956.0,403431.0,175014.0,37633.0,130.0
2026-04-09 22:35:52.189730,515296,3082079879,3082080371,-1.077504,-0.013664,-0.005856,9.730001,5.95,-2.8,23.368002,-28.528002,40.4,eccentric,7,5.0,30956.0,403431.0,175014.0,37633.0,130.0
2026-04-09 22:35:52.191469,515297,3082089339,3082091184,-1.032608,-0.007808,0.0,9.61625,6.27375,-2.275,21.408,-29.096,42.088,eccentric,7,5.0,30956.0,403431.0,175014.0,37633.0,130.0
2026-04-09 22:35:52.194364,515298,3082098282,3082099892,-1.032608,-0.007808,0.0,10.7625,7.0875,-1.70625,21.408,-29.096,42.088,eccentric,7,5.0,30956.0,403431.0,175014.0,37633.0,130.0
2026-04-09 22:35:52.197140,515299,3082107310,3082108680,-1.016992,-0.005856,-0.013664,10.395,7.91875,-0.7175,21.44,-28.720001,42.848003,eccentric,7,5.0,30956.0,403431.0,175014.0,37633.0,130.0
2026-04-09 22:35:52.218674,515300,3082121797,3082123591,-1.016992,-0.005856,-0.013664,8.18125,8.09375,0.23625,21.44,-28.720001,42.848003,eccentric,7,5.0,30956.0,403431.0,175014.0,37633.0,130.0
2026-04-09 22:35:52.220966,515301,3082130711,3082132302,-1.016992,-0.005856,-0.064416,6.265,8.30375,0.3325,22.376001,-29.080002,39.768,eccentric,7,5.0,30956.0,403431.0,175014.0,37633.0,130.0
2026-04-09 22:35:52.225068,515302,3082139676,3082141030,-1.016992,-0.005856,-0.064416,6.99125,8.6975,1.77625,22.376001,-29.080002,39.768,eccentric,7,5.0,30956.0,403431.0,175014.0,37633.0,130.0
2026-04-09 22:35:52.255293,515303,3082154187,3082155962,-1.038464,0.023424,-0.042944,9.17,8.5925,2.63375,21.720001,-28.944002,39.664,eccentric,7,5.0,30956.0,403431.0,175014.0,37633.0,130.0
2026-04-09 22:35:52.284249,515313,3082163207,3082164740,-1.038464,0.023424,-0.042944,11.01625,8.09375,2.5025,21.720001,-28.944002,39.664,eccentric,7,5.0,30942.0,403431.0,174695.0,37367.0,106.0
2026-04-09 22:35:52.288433,515314,3082172204,3082173603,-1.018944,0.013664,0.021472,10.9025,7.98875,2.16125,21.848001,-29.056002,39.88,eccentric,7,5.0,30942.0,403431.0,174695.0,37367.0,106.0
2026-04-09 22:35:52.290152,515315,3082186808,3082188639,-1.018944,0.007808,0.023424,8.295,8.21625,1.4875,21.848001,-29.056002,39.88,eccentric,7,5.0,30942.0,403431.0,174695.0,37367.0,106.0
2026-04-09 22:35:52.291853,515316,3082195734,3082197348,-0.99552,0.007808,0.023424,7.28,9.3625,1.33875,20.76,-28.936,40.952003,eccentric,7,5.0,30942.0,403431.0,174695.0,37367.0,106.0
2026-04-09 22:35:52.295815,515317,3082204827,3082206052,-0.99552,0.007808,0.023424,6.30875,9.8525,1.19875,20.76,-28.936,40.952003,eccentric,7,5.0,30942.0,403431.0,174695.0,37367.0,106.0
2026-04-09 22:35:52.299565,515318,3082213724,3082214847,-0.999424,0.021472,-0.013664,4.0425,10.99,1.11125,21.432001,-28.776001,39.4,eccentric,7,5.0,30942.0,403431.0,174695.0,37367.0,106.0
2026-04-09 22:35:52.328078,515319,3082228190,3082229834,-0.972096,0.027328,-0.03904,3.47375,11.2,1.12875,21.024,-28.608002,40.232002,eccentric,7,5.0,30942.0,403431.0,174695.0,37367.0,106.0
2026-04-09 22:35:52.332616,515320,3082237110,3082238571,-0.972096,0.027328,-0.03904,3.77125,10.92875,0.27125,21.024,-28.608002,40.232002,eccentric,7,5.0,30942.0,403431.0,174695.0,37367.0,106.0
2026-04-09 22:35:52.334271,515321,3082246009,3082247250,-0.972096,0.027328,-0.03904,3.57,11.585,-0.46375,21.024,-28.608002,40.232002,eccentric,7,5.0,30942.0,403431.0,174695.0,37367.0,106.0
2026-04-09 22:35:52.364357,515322,3082260489,3082262155,-0.964288,0.005856,-0.044896,3.64875,11.41875,-0.21875,21.560001,-29.304,37.52,eccentric,7,5.0,30942.0,403431.0,174695.0,37367.0,106.0
2026-04-09 22:35:52.391375,515332,3082269448,3082270962,-0.958432,-0.033184,-0.062464,2.03,10.9375,0.385,21.592001,-29.000002,39.656002,eccentric,7,5.0,30968.0,403431.0,174387.0,37072.0,114.0
2026-04-09 22:35:52.392972,515333,3082278357,3082279658,-0.958432,-0.033184,-0.062464,-0.21,10.66625,1.86375,21.592001,-29.000002,39.656002,eccentric,7,5.0,30968.0,403431.0,174387.0,37072.0,114.0
2026-04-09 22:35:52.397263,515334,3082292836,3082294612,-0.964288,0.040992,-0.007808,0.6475,9.415,2.75625,21.216002,-28.912,39.656002,eccentric,7,5.0,30968.0,403431.0,174387.0,37072.0,114.0
2026-04-09 22:35:52.398944,515335,3082301820,3082303334,-0.964288,0.040992,-0.007808,4.52375,8.68,0.77875,21.216002,-28.912,39.656002,eccentric,7,5.0,30968.0,403431.0,174387.0,37072.0,114.0
2026-04-09 22:35:52.400498,515336,3082310779,3082312083,-0.974048,0.02928,0.013664,8.5575,7.91,-0.93625,21.016,-29.104002,39.536003,eccentric,7,5.0,30968.0,403431.0,174387.0,37072.0,114.0
2026-04-09 22:35:52.454124,515337,3082325304,3082326996,-0.974048,0.02928,0.013664,8.60125,7.2275,-1.225,21.016,-29.104002,39.536003,eccentric,7,5.0,30968.0,403431.0,174387.0,37072.0,114.0
2026-04-09 22:35:52.456345,515338,3082334237,3082335700,-0.913536,0.00976,0.00976,7.32375,6.3875,-0.67375,20.784,-29.472002,36.664,eccentric,7,5.0,30968.0,403431.0,174387.0,37072.0,114.0
2026-04-09 22:35:52.461021,515339,3082343151,3082344416,-0.913536,0.00976,0.00976,6.53625,6.1075,0.20125,20.784,-29.472002,36.664,eccentric,7,5.0,30968.0,403431.0,174387.0,37072.0,114.0
2026-04-09 22:35:52.462767,515340,3082352086,3082353150,-0.942816,0.042944,-0.027328,6.0375,7.46375,-0.62125,21.392,-29.216002,38.848003,eccentric,7,5.0,30968.0,403431.0,174387.0,37072.0,114.0
2026-04-09 22:35:52.493953,515351,3082366845,3082368063,-0.942816,0.042944,-0.027328,3.78,8.77625,-1.35625,21.392,-29.216002,38.848003,eccentric,7,5.0,31102.0,403431.0,173327.0,36016.0,61.0
2026-04-09 22:35:52.495512,515352,3082375754,3082376806,-1.018944,0.025376,-0.070272,2.56375,8.995,-2.625,20.720001,-28.992,38.52,eccentric,7,5.0,31102.0,403431.0,173327.0,36016.0,61.0
2026-04-09 22:35:52.499727,515353,3082384711,3082385573,-1.018944,0.025376,-0.070272,1.46125,7.83125,-3.5175,20.720001,-28.992,38.52,eccentric,7,5.0,31102.0,403431.0,173327.0,36016.0,61.0
2026-04-09 22:35:52.501458,515354,3082399309,3082400479,-0.972096,-0.015616,-0.011712,2.91375,5.32875,-3.35125,20.112001,-28.896002,40.048,eccentric,7,5.0,31102.0,403431.0,173327.0,36016.0,61.0
2026-04-09 22:35:52.503046,515355,3082408226,3082409228,-0.950624,0.037088,0.023424,5.52125,3.36875,-1.8025,21.104,-28.504002,36.24,eccentric,7,5.0,31102.0,403431.0,173327.0,36016.0,61.0
2026-04-09 22:35:52.507071,515356,3082417267,3082417985,-0.950624,0.037088,0.023424,5.11875,3.38625,-0.90125,21.104,-28.504002,36.24,eccentric,7,5.0,31102.0,403431.0,173327.0,36016.0,61.0
2026-04-09 22:35:52.512141,515357,3082426639,3082428790,-0.950624,0.037088,0.023424,2.44125,4.4975,-1.16375,21.104,-28.504002,36.24,eccentric,7,5.0,31102.0,403431.0,173327.0,36016.0,61.0
2026-04-09 22:35:52.540680,515358,3082441142,3082441646,-1.016992,0.035136,-0.037088,0.1575,5.43375,-2.345,20.504002,-29.616001,38.952003,eccentric,7,5.0,31102.0,403431.0,173327.0,36016.0,61.0
2026-04-09 22:35:52.545265,515359,3082450549,3082452417,-1.0248,0.011712,-0.031232,0.25375,4.8475,-3.3775,21.128,-29.208002,39.232002,eccentric,7,5.0,31102.0,403431.0,173327.0,36016.0,61.0
2026-04-09 22:35:52.546711,515360,3082459466,3082461109,-1.0248,0.011712,-0.031232,4.61125,3.15,-4.2525,21.128,-29.208002,39.232002,eccentric,7,5.0,31102.0,403431.0,173327.0,36016.0,61.0
2026-04-09 22:35:52.576458,515370,3082474113,3082476067,-0.968192,0.040992,0.007808,10.0275,1.3475,-4.27,18.872002,-28.736002,40.336002,eccentric,7,5.0,31130.0,403431.0,173303.0,35938.0,65.0
2026-04-09 22:35:52.578040,515371,3082483065,3082484782,-0.968192,0.040992,0.007808,11.9875,0.70875,-4.69,18.872002,-28.736002,40.336002,eccentric,7,5.0,31130.0,403431.0,173303.0,35938.0,65.0
2026-04-09 22:35:52.582102,515372,3082492053,3082493532,-0.952576,0.081984,0.015616,10.92,2.07375,-5.0925,20.512001,-28.888,38.976,eccentric,7,5.0,31130.0,403431.0,173303.0,35938.0,65.0
2026-04-09 22:35:52.610758,515373,3082506650,3082508475,-0.952576,0.081984,0.015616,7.39375,2.93125,-5.73125,20.512001,-28.888,38.976,eccentric,7,5.0,31130.0,403431.0,173303.0,35938.0,65.0
2026-04-09 22:35:52.615246,515374,3082515601,3082517202,-1.01504,-0.027328,-0.066368,1.1725,3.85875,-6.2475,20.088001,-29.024002,38.72,eccentric,7,5.0,31130.0,403431.0,173303.0,35938.0,65.0
2026-04-09 22:35:52.616698,515375,3082524515,3082525901,-1.01504,-0.027328,-0.066368,-1.96,3.6575,-5.92375,20.088001,-29.024002,38.72,eccentric,7,5.0,31130.0,403431.0,173303.0,35938.0,65.0
2026-04-09 22:35:52.620858,515376,3082533461,3082534622,-0.981856,0.0,-0.035136,0.56,1.4175,-4.33125,20.632002,-29.032001,39.36,eccentric,7,5.0,31130.0,403431.0,173303.0,35938.0,65.0
2026-04-09 22:35:52.649569,515377,3082547987,3082549491,-0.981856,0.046848,0.003904,5.69625,-0.0875,-2.79125,20.632002,-29.032001,39.36,eccentric,7,5.0,31130.0,403431.0,173303.0,35938.0,65.0
2026-04-09 22:35:52.654053,515378,3082556989,3082558185,-0.98576,0.046848,0.003904,7.91,-0.2625,-2.79125,20.472,-29.2,37.864002,eccentric,7,5.0,31130.0,403431.0,173303.0,35938.0,65.0
2026-04-09 22:35:52.680578,515388,3082566435,3082566927,-0.98576,0.046848,0.003904,9.1525,-0.42,-3.43875,20.472,-29.2,37.864002,eccentric,7,5.0,31305.0,403431.0,172711.0,35008.0,27.0
2026-04-09 22:35:52.682537,515389,3082575918,3082577903,-1.009184,0.056608,-0.02928,5.08375,-0.02625,-2.58125,19.880001,-28.984001,39.224003,eccentric,7,5.0,31305.0,403431.0,172711.0,35008.0,27.0
2026-04-09 22:35:52.683506,515390,3082590571,3082592836,-0.991616,0.021472,0.007808,0.175,0.49875,-1.4525,19.296001,-29.072,40.264004,eccentric,7,5.0,31305.0,403431.0,172711.0,35008.0,27.0
2026-04-09 22:35:52.687160,515391,3082599550,3082601560,-0.991616,0.021472,0.007808,-3.57875,1.96,-3.255,19.296001,-29.072,40.264004,eccentric,7,5.0,31305.0,403431.0,172711.0,35008.0,27.0
2026-04-09 22:35:52.699767,515392,3082608542,3082610293,-0.991616,0.089792,-0.050752,0.88375,2.47625,-4.61125,19.296001,-29.072,40.264004,eccentric,7,5.0,31305.0,403431.0,172711.0,35008.0,27.0
2026-04-09 22:35:52.754178,515393,3082623171,3082625273,-1.028704,0.089792,-0.050752,5.705,2.4325,-4.90875,19.048,-28.984001,40.52,eccentric,7,5.0,31305.0,403431.0,172711.0,35008.0,27.0
2026-04-09 22:35:52.756415,515394,3082632115,3082633975,-1.04432,0.027328,-0.05856,4.2175,1.79375,-6.22125,20.104,-29.328001,39.296,eccentric,7,5.0,31305.0,403431.0,172711.0,35008.0,27.0
2026-04-09 22:35:52.761746,515395,3082641087,3082642694,-1.04432,0.027328,-0.05856,1.8025,0.76125,-5.78375,20.104,-29.328001,39.296,eccentric,7,5.0,31305.0,403431.0,172711.0,35008.0,27.0
2026-04-09 22:35:52.763087,515396,3082655626,3082657585,-0.999424,0.0,-0.001952,-0.72625,0.525,-4.76875,20.320002,-28.608002,40.184002,eccentric,7,5.0,31305.0,403431.0,172711.0,35008.0,27.0
2026-04-09 22:35:52.792737,515407,3082665044,3082666269,-0.999424,0.0,-0.001952,-0.76125,0.70875,-4.4625,20.320002,-28.608002,40.184002,eccentric,7,5.0,31459.0,403431.0,171581.0,33674.0,-12.0
2026-04-09 22:35:52.794313,515408,3082674016,3082675063,-1.011136,0.060512,-0.025376,0.1575,1.33,-3.675,20.008001,-28.584002,39.168003,eccentric,7,5.0,31459.0,403431.0,171581.0,33674.0,-12.0
2026-04-09 22:35:52.798550,515409,3082683048,3082683795,-1.011136,0.060512,-0.025376,0.805,2.555,-3.84125,20.008001,-28.584002,39.168003,eccentric,7,5.0,31459.0,403431.0,171581.0,33674.0,-12.0
2026-04-09 22:35:52.801508,515410,3082698040,3082698759,-1.007232,0.0488,-0.033184,2.8175,2.275,-4.2525,20.28,-28.688002,39.04,eccentric,7,5.0,31459.0,403431.0,171581.0,33674.0,-12.0
2026-04-09 22:35:52.801584,515411,3082707382,3082709535,-1.007232,0.0488,-0.033184,4.41875,1.00625,-4.64625,20.28,-28.688002,39.04,eccentric,7,5.0,31459.0,403431.0,171581.0,33674.0,-12.0
2026-04-09 22:35:52.805951,515412,3082716444,3082718304,-1.013088,0.054656,-0.060512,5.41625,1.295,-4.4625,20.264002,-28.880001,38.328003,eccentric,7,5.0,31459.0,403431.0,171581.0,33674.0,-12.0
2026-04-09 22:35:52.810064,515413,3082725494,3082727021,-1.013088,0.054656,-0.060512,4.80375,2.38875,-5.59125,20.264002,-28.880001,38.328003,eccentric,7,5.0,31459.0,403431.0,171581.0,33674.0,-12.0
2026-04-09 22:35:52.840629,515414,3082739992,3082741921,-1.00528,0.044896,-0.025376,4.38375,2.23125,-5.9325,19.68,-28.712002,39.408,eccentric,7,5.0,31459.0,403431.0,171581.0,33674.0,-12.0
2026-04-09 22:35:52.842909,515415,3082748943,3082750617,-1.00528,0.044896,0.017568,4.34875,2.275,-5.92375,19.68,-28.712002,39.408,eccentric,7,5.0,31459.0,403431.0,171581.0,33674.0,-12.0
2026-04-09 22:35:52.847384,515416,3082757911,3082759293,-0.972096,0.044896,0.017568,3.85,2.94,-5.94125,19.848001,-29.36,39.104,eccentric,7,5.0,31459.0,403431.0,171581.0,33674.0,-12.0
2026-04-09 22:35:52.875270,515426,3082772501,3082774340,-0.987712,0.074176,-0.023424,5.64375,3.71875,-5.9675,18.336,-28.728,40.632004,eccentric,7,5.0,31533.0,403431.0,171319.0,33349.0,-20.0
2026-04-09 22:35:52.876839,515427,3082781463,3082783063,-0.987712,0.074176,-0.023424,6.37,5.11,-6.46625,18.336,-28.728,40.632004,eccentric,7,5.0,31533.0,403431.0,171319.0,33349.0,-20.0
2026-04-09 22:35:52.880869,515428,3082790459,3082791780,-1.0248,0.042944,-0.08784,3.77125,6.23875,-7.28875,19.496,-28.424002,40.68,eccentric,7,5.0,31533.0,403431.0,171319.0,33349.0,-20.0
2026-04-09 22:35:52.909407,515429,3082805105,3082806715,-1.0248,0.042944,-0.08784,1.4,6.41375,-7.0875,19.496,-28.424002,40.68,eccentric,7,5.0,31533.0,403431.0,171319.0,33349.0,-20.0
2026-04-09 22:35:52.913982,515430,3082814051,3082815414,-0.987712,0.023424,-0.040992,-0.11375,6.4225,-7.07,19.824001,-29.464,39.032,eccentric,7,5.0,31533.0,403431.0,171319.0,33349.0,-20.0
2026-04-09 22:35:52.915538,515431,3082823019,3082824139,-0.987712,0.023424,-0.040992,0.74375,5.88,-6.37,19.824001,-29.464,39.032,eccentric,7,5.0,31533.0,403431.0,171319.0,33349.0,-20.0
2026-04-09 22:35:52.920144,515432,3082831946,3082832827,-0.970144,0.072224,-0.001952,4.7425,6.16875,-6.405,20.096,-29.008001,39.152,eccentric,7,5.0,31533.0,403431.0,171319.0,33349.0,-20.0
2026-04-09 22:35:52.948235,515433,3082846459,3082847754,-0.970144,0.072224,-0.001952,5.6525,6.93,-6.34375,20.096,-29.008001,39.152,eccentric,7,5.0,31533.0,403431.0,171319.0,33349.0,-20.0
2026-04-09 22:35:52.952717,515434,3082855420,3082856469,-0.999424,0.080032,-0.02928,4.99625,7.55125,-6.37,19.792002,-29.112001,39.328003,eccentric,7,5.0,31533.0,403431.0,171319.0,33349.0,-20.0
2026-04-09 22:35:52.954191,515435,3082864322,3082865184,-0.999424,0.080032,-0.02928,4.025,8.3475,-8.04125,19.792002,-29.112001,39.328003,eccentric,7,5.0,31533.0,403431.0,171319.0,33349.0,-20.0
2026-04-09 22:35:52.981641,515445,3082879017,3082880197,-1.040416,0.050752,-0.062464,2.8175,8.82875,-8.72375,19.784,-28.992,38.496002,eccentric,7,5.0,31575.0,403431.0,170900.0,32897.0,-34.0
2026-04-09 22:35:52.985982,515446,3082888044,3082888901,-1.040416,0.050752,-0.062464,1.63625,10.05375,-9.065,19.784,-28.992,38.496002,eccentric,7,5.0,31575.0,403431.0,170900.0,32897.0,-34.0
2026-04-09 22:35:52.987703,515447,3082896956,3082897633,-1.036512,0.05856,-0.021472,1.5575,10.22,-9.765,19.104,-29.464,40.68,eccentric,7,5.0,31575.0,403431.0,170900.0,32897.0,-34.0
2026-04-09 22:35:52.989361,515448,3082906266,3082908437,-1.036512,0.05856,-0.021472,3.45625,10.17625,-9.8175,19.104,-29.464,40.68,eccentric,7,5.0,31575.0,403431.0,170900.0,32897.0,-34.0
2026-04-09 22:35:53.062837,515449,3082920780,3082921292,-1.042368,0.072224,-0.007808,3.40375,10.36,-9.835,19.728,-28.936,39.664,concentric,7,5.0,31575.0,403431.0,170900.0,32897.0,-34.0
2026-04-09 22:35:53.065396,515450,3082930192,3082932058,-1.081408,0.050752,-0.050752,1.61875,11.29625,-9.63375,19.728,-28.416002,39.064003,concentric,7,5.0,31575.0,403431.0,170900.0,32897.0,-34.0
2026-04-09 22:35:53.080652,515451,3082939095,3082940774,-1.081408,0.050752,-0.050752,-0.5075,12.88,-9.1875,20.312,-28.416002,39.064003,concentric,7,5.0,31575.0,403431.0,170900.0,32897.0,-34.0
2026-04-09 22:35:53.083915,515452,3082953609,3082955685,-1.0736,0.052704,-0.0488,-1.47,12.8975,-8.26875,20.072,-28.640001,38.552002,concentric,7,5.0,31575.0,403431.0,170900.0,32897.0,-34.0
2026-04-09 22:35:53.085601,515453,3082962546,3082964383,-1.0736,0.052704,-0.0488,-0.86625,12.25875,-7.88375,20.072,-28.640001,38.552002,concentric,7,5.0,31575.0,403431.0,170900.0,32897.0,-34.0
2026-04-09 22:35:53.120182,515464,3082971603,3082973278,-1.061888,0.040992,-0.031232,0.77,11.83875,-7.35,20.0,-28.912,38.608,concentric,7,5.0,31530.0,403431.0,171602.0,33545.0,-14.0
2026-04-09 22:35:53.121787,515465,3082986083,3082988150,-1.061888,0.040992,-0.031232,1.95125,11.54125,-7.4375,20.0,-28.912,38.608,concentric,7,5.0,31530.0,403431.0,171602.0,33545.0,-14.0
2026-04-09 22:35:53.126035,515466,3082995027,3082996862,-1.05408,0.046848,-0.033184,2.66,11.24375,-6.7025,20.648,-29.2,38.944,concentric,7,5.0,31530.0,403431.0,171602.0,33545.0,-14.0
2026-04-09 22:35:53.127786,515467,3083003948,3083005600,-1.05408,0.046848,-0.033184,2.28375,11.480001,-5.32875,20.648,-29.2,38.944,concentric,7,5.0,31530.0,403431.0,171602.0,33545.0,-14.0
2026-04-09 22:35:53.129435,515468,3083012975,3083014297,-1.040416,0.037088,-0.054656,0.0525,11.75125,-4.64625,20.616001,-28.800001,38.600002,concentric,7,5.0,31530.0,403431.0,171602.0,33545.0,-14.0
2026-04-09 22:35:53.133531,515469,3083027485,3083029331,-1.040416,0.037088,-0.054656,-1.51375,11.8825,-2.975,20.616001,-28.800001,38.600002,concentric,7,5.0,31530.0,403431.0,171602.0,33545.0,-14.0
2026-04-09 22:35:53.135331,515470,3083036465,3083038091,-1.04432,0.025376,-0.050752,-1.89,11.5325,-2.07375,19.144001,-29.336,40.440002,concentric,7,5.0,31530.0,403431.0,171602.0,33545.0,-14.0
2026-04-09 22:35:53.136832,515471,3083045524,3083046811,-1.04432,0.025376,-0.050752,-1.5575,10.6225,-1.35625,19.144001,-29.336,40.440002,concentric,7,5.0,31530.0,403431.0,171602.0,33545.0,-14.0
2026-04-09 22:35:53.167842,515472,3083060049,3083061759,-1.026752,0.031232,-0.031232,0.5425,9.33625,-0.6825,18.728,-28.904001,39.552002,concentric,7,5.0,31530.0,403431.0,171602.0,33545.0,-14.0
2026-04-09 22:35:53.193836,515482,3083069309,3083070531,-1.026752,0.031232,-0.031232,1.60125,8.61875,-0.44625,18.728,-28.904001,39.552002,concentric,7,5.0,31486.0,403431.0,171728.0,33774.0,-12.0
2026-04-09 22:35:53.199792,515483,3083078286,3083079271,-1.028704,0.044896,-0.013664,1.81125,8.54875,0.0875,21.160002,-28.720001,38.440002,concentric,7,5.0,31486.0,403431.0,171728.0,33774.0,-12.0
2026-04-09 22:35:53.201517,515484,3083087258,3083087961,-1.028704,0.044896,-0.013664,3.05375,8.435,-0.385,21.160002,-28.720001,38.440002,concentric,7,5.0,31486.0,403431.0,171728.0,33774.0,-12.0
2026-04-09 22:35:53.203213,515485,3083102277,3083102928,-1.042368,0.056608,-0.0488,3.03625,8.98625,-1.0325,20.864,-28.712002,38.152,concentric,7,5.0,31486.0,403431.0,171728.0,33774.0,-12.0
2026-04-09 22:35:53.207315,515486,3083111617,3083113747,-1.059936,0.01952,-0.054656,0.77,9.0825,-1.2425,20.528002,-28.840002,36.576,concentric,7,5.0,31486.0,403431.0,171728.0,33774.0,-12.0
2026-04-09 22:35:53.208869,515487,3083120789,3083122519,-1.059936,0.01952,-0.054656,-0.63875,8.54875,-1.86375,20.528002,-28.840002,36.576,concentric,7,5.0,31486.0,403431.0,171728.0,33774.0,-12.0
2026-04-09 22:35:53.215891,515488,3083129733,3083131275,-1.059936,0.01952,-0.054656,0.35,7.60375,-2.35375,20.528002,-28.840002,36.576,concentric,7,5.0,31486.0,403431.0,171728.0,33774.0,-12.0
2026-04-09 22:35:53.244475,515489,3083144215,3083146184,-1.040416,0.035136,-0.017568,3.045,7.16625,-2.5375,20.384,-29.016,39.128002,concentric,7,5.0,31486.0,403431.0,171728.0,33774.0,-12.0
2026-04-09 22:35:53.248979,515490,3083153124,3083154895,-1.050176,0.07808,-0.013664,3.78,7.0175,-3.3075,20.640001,-29.28,38.048,concentric,7,5.0,31486.0,403431.0,171728.0,33774.0,-12.0
2026-04-09 22:35:53.250515,515491,3083162049,3083163608,-1.050176,0.07808,-0.013664,2.70375,7.49875,-3.85,20.640001,-29.28,38.048,concentric,7,5.0,31486.0,403431.0,171728.0,33774.0,-12.0
2026-04-09 22:35:53.275542,515501,3083176882,3083178642,-1.0736,0.035136,-0.062464,-1.40875,7.77,-4.4275,19.776001,-29.152002,39.584003,concentric,7,5.0,31439.0,403431.0,172285.0,34351.0,24.0
2026-04-09 22:35:53.279797,515502,3083185829,3083187357,-1.0736,0.035136,-0.062464,-6.09,7.51625,-4.4625,19.776001,-29.152002,39.584003,concentric,7,5.0,31439.0,403431.0,172285.0,34351.0,24.0
2026-04-09 22:35:53.282262,515503,3083194786,3083196164,-1.06384,0.003904,-0.062464,-6.405,6.7375,-4.69,19.688002,-28.840002,39.632004,concentric,7,5.0,31439.0,403431.0,172285.0,34351.0,24.0
2026-04-09 22:35:53.310695,515504,3083209243,3083211126,-1.06384,0.003904,-0.062464,-4.62,5.39875,-5.11,19.688002,-28.840002,39.632004,concentric,7,5.0,31439.0,403431.0,172285.0,34351.0,24.0
2026-04-09 22:35:53.315238,515505,3083218142,3083219832,-1.036512,0.031232,-0.042944,-1.995,4.7425,-4.3225,21.456001,-28.728,37.936,concentric,7,5.0,31439.0,403431.0,172285.0,34351.0,24.0
2026-04-09 22:35:53.318257,515506,3083227101,3083228519,-1.036512,0.031232,-0.042944,-0.2975,4.1825,-4.26125,21.456001,-28.728,37.936,concentric,7,5.0,31439.0,403431.0,172285.0,34351.0,24.0
2026-04-09 22:35:53.358677,515507,3083241624,3083243501,-1.038464,0.050752,-0.040992,-0.81375,5.0225,-4.69875,20.592001,-28.528002,38.432003,concentric,7,5.0,31439.0,403431.0,172285.0,34351.0,24.0
2026-04-09 22:35:53.360314,515508,3083250537,3083252192,-1.038464,0.050752,-0.040992,-1.995,4.99625,-4.4975,20.592001,-28.528002,38.432003,concentric,7,5.0,31439.0,403431.0,172285.0,34351.0,24.0
2026-04-09 22:35:53.361803,515509,3083259447,3083260954,-1.061888,0.040992,-0.099552,-2.7475,4.22625,-5.5475,21.032001,-29.144001,40.528004,concentric,7,5.0,31439.0,403431.0,172285.0,34351.0,24.0
2026-04-09 22:35:53.394068,515520,3083268437,3083269718,-1.061888,0.040992,-0.099552,-2.38875,2.8875,-6.4225,21.032001,-29.144001,40.528004,concentric,7,5.0,31454.0,403431.0,172005.0,34079.0,7.0
2026-04-09 22:35:53.395535,515521,3083283074,3083284764,-1.052128,0.035136,-0.074176,-0.34125,1.26875,-6.335,20.448002,-28.624,38.456,concentric,7,5.0,31454.0,403431.0,172005.0,34079.0,7.0
2026-04-09 22:35:53.400667,515522,3083292052,3083293492,-1.038464,0.025376,-0.044896,1.4875,0.525,-6.93,20.84,-28.936,38.368,concentric,7,5.0,31454.0,403431.0,172005.0,34079.0,7.0
2026-04-09 22:35:53.402117,515523,3083301075,3083302231,-1.038464,0.025376,-0.044896,1.49625,0.5775,-7.3325,20.84,-28.936,38.368,concentric,7,5.0,31454.0,403431.0,172005.0,34079.0,7.0
2026-04-09 22:35:53.403456,515524,3083315686,3083317141,-1.01504,0.05856,-0.01952,2.065,0.28,-7.25375,19.912,-29.048002,40.024002,concentric,7,5.0,31454.0,403431.0,172005.0,34079.0,7.0
2026-04-09 22:35:53.409729,515525,3083324633,3083325930,-1.01504,0.05856,-0.01952,2.82625,0.5075,-7.6825,19.912,-29.048002,40.024002,concentric,7,5.0,31454.0,403431.0,172005.0,34079.0,7.0
2026-04-09 22:35:53.438422,515526,3083333568,3083334692,-1.065792,0.0488,-0.085888,2.59,1.645,-7.945,19.880001,-29.096,40.696003,concentric,7,5.0,31454.0,403431.0,172005.0,34079.0,7.0
2026-04-09 22:35:53.442787,515527,3083348054,3083349583,-1.065792,0.0488,-0.085888,-0.1575,3.38625,-8.84625,19.880001,-29.096,40.696003,concentric,7,5.0,31454.0,403431.0,172005.0,34079.0,7.0
2026-04-09 22:35:53.444290,515528,3083356973,3083358257,-1.061888,0.01952,-0.05856,-1.3475,4.235,-9.625,20.504002,-28.696001,38.584003,concentric,7,5.0,31454.0,403431.0,172005.0,34079.0,7.0
2026-04-09 22:35:53.451132,515529,3083365882,3083367016,-1.061888,0.01952,-0.05856,0.30625,3.01875,-9.91375,20.504002,-28.696001,38.584003,concentric,7,5.0,31454.0,403431.0,172005.0,34079.0,7.0
2026-04-09 22:35:53.475294,515539,3083374937,3083375795,-1.026752,0.046848,-0.00976,2.07375,2.2575,-9.7475,20.080002,-28.808,38.464,concentric,7,5.0,31419.0,403431.0,172017.0,34116.0,-2.0
2026-04-09 22:35:53.476851,515540,3083390065,3083390807,-1.026752,0.046848,-0.00976,2.96625,2.8,-9.44125,20.080002,-28.808,38.464,concentric,7,5.0,31419.0,403431.0,172017.0,34116.0,-2.0
2026-04-09 22:35:53.507916,515541,3083399420,3083401567,-1.016992,0.01952,-0.052704,1.68875,3.4475,-8.785,20.904001,-28.976002,40.24,concentric,7,5.0,31419.0,403431.0,172017.0,34116.0,-2.0
2026-04-09 22:35:53.510181,515542,3083408362,3083410325,-1.016992,0.01952,-0.052704,0.02625,3.605,-8.2775,20.904001,-28.976002,40.24,concentric,7,5.0,31419.0,403431.0,172017.0,34116.0,-2.0
2026-04-09 22:35:53.514764,515543,3083417304,3083419026,-1.057984,0.027328,-0.093696,-0.06125,3.77125,-8.26875,20.792002,-29.392002,38.2,concentric,7,5.0,31419.0,403431.0,172017.0,34116.0,-2.0
2026-04-09 22:35:53.517236,515544,3083431819,3083433920,-1.057984,0.040992,-0.046848,3.03625,2.61625,-8.33,20.792002,-29.392002,38.2,concentric,7,5.0,31419.0,403431.0,172017.0,34116.0,-2.0
2026-04-09 22:35:53.545679,515545,3083440793,3083442622,-1.028704,0.040992,-0.046848,6.72875,1.39125,-8.88125,20.536001,-29.072,39.656002,concentric,7,5.0,31419.0,403431.0,172017.0,34116.0,-2.0
2026-04-09 22:35:53.550258,515546,3083449734,3083451348,-1.028704,0.040992,-0.046848,7.23625,0.44625,-9.3275,20.536001,-29.072,39.656002,concentric,7,5.0,31419.0,403431.0,172017.0,34116.0,-2.0
2026-04-09 22:35:53.551727,515547,3083464292,3083466249,-1.020896,0.033184,-0.015616,7.56875,0.13125,-9.625,21.224,-29.216002,37.568,concentric,7,5.0,31419.0,403431.0,172017.0,34116.0,-2.0
2026-04-09 22:35:53.578628,515557,3083473463,3083475072,-1.057984,0.027328,-0.07808,8.68875,-0.11375,-9.59875,20.944,-28.728,38.832,concentric,7,5.0,31357.0,403431.0,172119.0,34350.0,5.0
2026-04-09 22:35:53.580207,515558,3083482462,3083483815,-1.057984,0.027328,-0.07808,6.3525,-0.2625,-9.3625,20.944,-28.728,38.832,concentric,7,5.0,31357.0,403431.0,172119.0,34350.0,5.0
2026-04-09 22:35:53.581925,515559,3083497067,3083499226,-1.069696,-0.017568,-0.037088,2.75625,0.32375,-9.6075,20.368,-29.296001,39.56,concentric,7,5.0,31357.0,403431.0,172119.0,34350.0,5.0
2026-04-09 22:35:53.612999,515560,3083505996,3083507937,-1.069696,-0.017568,-0.037088,1.47875,-1.3125,-8.91625,20.368,-29.296001,39.56,concentric,7,5.0,31357.0,403431.0,172119.0,34350.0,5.0
2026-04-09 22:35:53.615184,515561,3083514918,3083516627,-1.05408,0.023424,-0.007808,5.88,-2.205,-8.68875,21.456001,-28.544,38.248,concentric,7,5.0,31357.0,403431.0,172119.0,34350.0,5.0
2026-04-09 22:35:53.619879,515562,3083523864,3083525322,-1.05408,0.023424,-0.007808,9.0125,-1.95125,-7.23625,21.456001,-28.544,38.248,concentric,7,5.0,31357.0,403431.0,172119.0,34350.0,5.0
2026-04-09 22:35:53.658008,515563,3083538353,3083540232,-1.050176,0.033184,-0.044896,8.26,-1.56625,-5.34625,21.232,-29.160002,38.952003,concentric,7,5.0,31357.0,403431.0,172119.0,34350.0,5.0
2026-04-09 22:35:53.660210,515564,3083547297,3083548946,-1.050176,0.033184,-0.044896,6.7725,-0.9275,-5.0925,21.232,-29.160002,38.952003,concentric,7,5.0,31357.0,403431.0,172119.0,34350.0,5.0
2026-04-09 22:35:53.664848,515565,3083556240,3083557650,-0.993568,0.031232,-0.040992,5.39875,-1.42625,-4.59375,21.712002,-29.264002,38.152,concentric,7,5.0,31357.0,403431.0,172119.0,34350.0,5.0
2026-04-09 22:35:53.691464,515576,3083571134,3083572560,-0.993568,0.031232,-0.040992,3.35125,-0.77,-4.15625,21.712002,-29.264002,38.152,concentric,7,5.0,31276.0,403431.0,172290.0,34580.0,24.0
2026-04-09 22:35:53.693010,515577,3083580181,3083581282,-1.030656,0.054656,-0.044896,0.13125,1.53125,-4.29625,20.976002,-29.512001,37.960003,concentric,7,5.0,31276.0,403431.0,172290.0,34580.0,24.0
2026-04-09 22:35:53.695480,515578,3083589262,3083590046,-1.030656,0.054656,-0.044896,-3.85,2.03875,-6.18625,20.976002,-29.512001,37.960003,concentric,7,5.0,31276.0,403431.0,172290.0,34580.0,24.0
2026-04-09 22:35:53.699815,515579,3083598681,3083600839,-1.036512,0.017568,-0.052704,-3.40375,2.12625,-7.35875,22.208,-29.400002,38.408,concentric,7,5.0,31276.0,403431.0,172290.0,34580.0,24.0
2026-04-09 22:35:53.701474,515580,3083613222,3083613777,-1.026752,-0.007808,-0.0488,-1.085,1.5575,-8.785,21.232,-29.232002,36.424004,concentric,7,5.0,31276.0,403431.0,172290.0,34580.0,24.0
2026-04-09 22:35:53.709736,515581,3083622701,3083624569,-1.026752,-0.007808,-0.0488,3.9025,-0.06125,-8.77625,21.232,-29.232002,36.424004,concentric,7,5.0,31276.0,403431.0,172290.0,34580.0,24.0
2026-04-09 22:35:53.738298,515582,3083631739,3083633318,-1.026752,-0.007808,-0.0488,10.7625,-1.05875,-7.525,21.232,-29.232002,36.424004,concentric,7,5.0,31276.0,403431.0,172290.0,34580.0,24.0
2026-04-09 22:35:53.742741,515583,3083646240,3083648245,-1.048224,0.03904,-0.050752,13.965,-2.14375,-7.21875,21.616001,-29.544,38.808002,concentric,7,5.0,31276.0,403431.0,172290.0,34580.0,24.0
2026-04-09 22:35:53.745122,515584,3083655171,3083656958,-1.003328,0.02928,-0.011712,11.375,-2.87,-7.035,21.712002,-28.52,38.064003,concentric,7,5.0,31276.0,403431.0,172290.0,34580.0,24.0
2026-04-09 22:35:53.751128,515585,3083664111,3083665652,-1.003328,0.02928,-0.011712,8.365,-2.87,-6.15125,21.712002,-28.52,38.064003,concentric,7,5.0,31276.0,403431.0,172290.0,34580.0,24.0
2026-04-09 22:35:53.776112,515595,3083673651,3083674461,-0.99552,0.046848,-0.01952,5.69625,-1.96,-6.30875,19.768002,-28.824001,39.904003,concentric,7,5.0,31394.0,403431.0,170315.0,32602.0,-40.0
2026-04-09 22:35:53.777640,515596,3083688726,3083689393,-0.99552,0.046848,-0.01952,5.7225,-1.54,-7.14875,19.768002,-28.824001,39.904003,concentric,7,5.0,31394.0,403431.0,170315.0,32602.0,-40.0
2026-04-09 22:35:53.784691,515597,3083698025,3083700205,-1.016992,0.027328,-0.081984,8.28625,-2.12625,-8.47,20.512001,-29.432001,39.4,concentric,7,5.0,31394.0,403431.0,170315.0,32602.0,-40.0
2026-04-09 22:35:53.813283,515598,3083706964,3083708898,-1.016992,0.027328,-0.081984,11.1125,-4.0425,-9.21375,20.512001,-29.432001,39.4,concentric,7,5.0,31394.0,403431.0,170315.0,32602.0,-40.0
2026-04-09 22:35:53.817746,515599,3083715896,3083717645,-0.981856,0.050752,-0.042944,11.9875,-6.125,-9.03,22.080002,-29.368002,38.112003,concentric,7,5.0,31394.0,403431.0,170315.0,32602.0,-40.0
2026-04-09 22:35:53.819243,515600,3083730381,3083732548,-0.981856,0.050752,-0.042944,13.125,-6.30875,-8.96875,22.080002,-29.368002,38.112003,concentric,7,5.0,31394.0,403431.0,170315.0,32602.0,-40.0
2026-04-09 22:35:53.825983,515601,3083739292,3083741248,-1.007232,0.08784,0.042944,9.31,-3.01875,-9.0125,21.896002,-29.128002,37.912003,concentric,7,5.0,31394.0,403431.0,170315.0,32602.0,-40.0
2026-04-09 22:35:53.856392,515602,3083748221,3083749960,-1.007232,0.08784,0.042944,-0.14,1.2775,-10.57,21.896002,-29.128002,37.912003,concentric,7,5.0,31394.0,403431.0,170315.0,32602.0,-40.0
2026-04-09 22:35:53.857722,515603,3083762730,3083764899,-1.056032,-0.005856,0.001952,-6.02,3.0975,-12.03125,22.048,-29.400002,38.968002,concentric,7,5.0,31394.0,403431.0,170315.0,32602.0,-40.0
2026-04-09 22:35:53.883542,515613,3083772332,3083773697,-1.056032,-0.005856,0.001952,-9.79125,2.00375,-10.9725,22.048,-29.400002,38.968002,concentric,7,5.0,31460.0,403431.0,168554.0,30932.0,-41.0
2026-04-09 22:35:53.884814,515614,3083781304,3083782451,-1.016992,-0.044896,-0.074176,-10.22,-0.4025,-5.005,21.880001,-29.168001,36.344,concentric,7,5.0,31460.0,403431.0,168554.0,30932.0,-41.0
2026-04-09 22:35:53.888474,515615,3083790436,3083791171,-1.016992,-0.044896,-0.074176,-7.42,-2.2225,1.07625,21.880001,-29.168001,36.344,concentric,7,5.0,31460.0,403431.0,168554.0,30932.0,-41.0
2026-04-09 22:35:53.890180,515616,3083805456,3083806143,-1.007232,-0.011712,-0.040992,-3.52625,-3.29,2.3275,21.76,-29.304,39.096,concentric,7,5.0,31460.0,403431.0,168554.0,30932.0,-41.0
2026-04-09 22:35:53.921430,515617,3083814895,3083816933,-0.964288,0.144448,-0.011712,2.3275,-3.1325,0.23625,21.232,-29.448002,40.0,concentric,7,5.0,31460.0,403431.0,168554.0,30932.0,-41.0
2026-04-09 22:35:53.924641,515618,3083823834,3083825623,-0.964288,0.144448,-0.011712,2.975,-3.0625,-2.35375,21.232,-29.448002,40.0,concentric,7,5.0,31460.0,403431.0,168554.0,30932.0,-41.0
2026-04-09 22:35:53.926969,515619,3083832758,3083834338,-0.964288,0.144448,-0.011712,0.32375,-2.45,-3.70125,21.232,-29.448002,40.0,concentric,7,5.0,31460.0,403431.0,168554.0,30932.0,-41.0
2026-04-09 22:35:53.964429,515620,3083847273,3083849271,-0.979904,0.066368,-0.064416,-6.0375,-2.4675,-6.29125,22.648,-29.408,38.864002,concentric,7,5.0,31460.0,403431.0,168554.0,30932.0,-41.0
2026-04-09 22:35:53.968653,515621,3083856200,3083857983,-1.007232,-0.01952,-0.072224,-10.19375,-3.56125,-9.31,22.480001,-29.184002,38.84,concentric,7,5.0,31460.0,403431.0,168554.0,30932.0,-41.0
2026-04-09 22:35:53.970345,515622,3083865112,3083866679,-1.007232,-0.01952,-0.072224,-4.3575,-5.20625,-10.78875,22.480001,-29.184002,38.84,concentric,7,5.0,31460.0,403431.0,168554.0,30932.0,-41.0
2026-04-09 22:35:53.999841,515632,3083879712,3083881632,-0.989664,0.064416,-0.021472,4.6375,-6.69375,-11.515,21.744001,-29.400002,38.56,concentric,7,5.0,31353.0,403431.0,167477.0,30041.0,-72.0
2026-04-09 22:35:54.001464,515633,3083888647,3083890350,-0.989664,0.064416,-0.021472,7.0,-7.84,-11.40125,21.744001,-29.400002,38.56,concentric,7,5.0,31353.0,403431.0,167477.0,30041.0,-72.0
2026-04-09 22:35:54.003055,515634,3083897659,3083899157,-1.013088,0.066368,-0.025376,4.2525,-7.62125,-13.65,22.632002,-29.576002,39.112003,concentric,7,5.0,31353.0,403431.0,167477.0,30041.0,-72.0
2026-04-09 22:35:54.007175,515635,3083912251,3083914082,-1.013088,0.066368,-0.025376,-3.40375,-5.985,-16.59875,22.632002,-29.576002,39.112003,concentric,7,5.0,31353.0,403431.0,167477.0,30041.0,-72.0
2026-04-09 22:35:54.013595,515636,3083921213,3083922884,-1.126304,-0.003904,-0.113216,-9.03875,-4.97,-17.28125,21.480001,-29.232002,41.128002,concentric,7,5.0,31353.0,403431.0,167477.0,30041.0,-72.0
2026-04-09 22:35:54.015119,515637,3083930149,3083931583,-1.126304,-0.003904,-0.113216,-10.7275,-4.99625,-15.995,21.480001,-29.232002,41.128002,concentric,7,5.0,31353.0,403431.0,167477.0,30041.0,-72.0
2026-04-09 22:35:54.045397,515638,3083944641,3083946529,-1.061888,-0.02928,-0.042944,-11.445,-5.52125,-13.195,23.248001,-29.080002,39.128002,concentric,7,5.0,31353.0,403431.0,167477.0,30041.0,-72.0
2026-04-09 22:35:54.047700,515639,3083953562,3083955212,-1.061888,-0.02928,-0.005856,-11.97875,-5.46875,-10.36875,23.248001,-29.080002,39.128002,concentric,7,5.0,31353.0,403431.0,167477.0,30041.0,-72.0
2026-04-09 22:35:54.052250,515640,3083962473,3083963904,-1.048224,0.015616,-0.005856,-9.31,-4.4275,-9.135,23.112001,-29.112001,38.440002,concentric,7,5.0,31353.0,403431.0,167477.0,30041.0,-72.0
2026-04-09 22:35:54.080299,515651,3083971413,3083972543,-1.048224,0.015616,-0.005856,-7.3675,-3.5875,-10.00125,23.112001,-29.112001,38.440002,concentric,7,5.0,31211.0,403431.0,168596.0,31042.0,-52.0
2026-04-09 22:35:54.081848,515652,3083986689,3083987528,-1.13216,0.011712,-0.10736,-5.495,-2.8525,-11.1125,20.952002,-28.776001,40.320004,concentric,7,5.0,31211.0,403431.0,168596.0,31042.0,-52.0
2026-04-09 22:35:54.085904,515653,3083996203,3083998344,-1.09312,-0.007808,-0.091744,-2.0475,-3.605,-11.515,23.664001,-29.152002,39.632004,concentric,7,5.0,31211.0,403431.0,168596.0,31042.0,-52.0
2026-04-09 22:35:54.090992,515654,3084005128,3084007055,-1.09312,-0.007808,-0.091744,0.84,-5.11875,-12.04,23.664001,-29.152002,39.632004,concentric,7,5.0,31211.0,403431.0,168596.0,31042.0,-52.0
2026-04-09 22:35:54.120968,515655,3084014080,3084015782,-1.09312,0.033184,-0.023424,2.30125,-5.88,-12.25875,23.664001,-29.152002,39.632004,concentric,7,5.0,31211.0,403431.0,168596.0,31042.0,-52.0
2026-04-09 22:35:54.124216,515656,3084028551,3084030752,-1.050176,0.033184,-0.023424,2.75625,-4.97,-11.7075,23.112001,-29.112001,40.24,concentric,7,5.0,31211.0,403431.0,168596.0,31042.0,-52.0
2026-04-09 22:35:54.125558,515657,3084037450,3084039441,-1.097024,-0.001952,-0.042944,-0.67375,-3.08,-12.1625,23.496,-28.912,39.288002,concentric,7,5.0,31211.0,403431.0,168596.0,31042.0,-52.0
2026-04-09 22:35:54.132179,515658,3084046366,3084048121,-1.097024,-0.001952,-0.042944,-1.84625,-1.25125,-13.475,23.496,-28.912,39.288002,concentric,7,5.0,31211.0,403431.0,168596.0,31042.0,-52.0
2026-04-09 22:35:54.160848,515659,3084060856,3084063000,-1.14192,-0.037088,-0.062464,-0.30625,-0.735,-14.81375,22.936,-29.000002,40.576,concentric,7,5.0,31211.0,403431.0,168596.0,31042.0,-52.0
2026-04-09 22:35:54.165290,515660,3084069762,3084071725,-1.14192,-0.037088,-0.062464,2.6425,-1.8725,-14.3325,22.936,-29.000002,40.576,concentric,7,5.0,31211.0,403431.0,168596.0,31042.0,-52.0
2026-04-09 22:35:54.189385,515670,3084078748,3084080452,-1.091168,-0.013664,-0.033184,6.93,-2.47625,-12.64375,23.632002,-29.216002,39.72,concentric,7,5.0,31298.0,403431.0,167944.0,30353.0,-60.0
2026-04-09 22:35:54.195035,515671,3084093259,3084095407,-1.091168,-0.013664,-0.033184,8.89,-2.66,-12.34625,23.632002,-29.216002,39.72,concentric,7,5.0,31298.0,403431.0,167944.0,30353.0,-60.0
2026-04-09 22:35:54.195349,515672,3084102282,3084104184,-1.120448,-0.013664,-0.03904,8.855001,-1.86375,-11.40125,23.672,-28.528002,40.992,concentric,7,5.0,31298.0,403431.0,167944.0,30353.0,-60.0
2026-04-09 22:35:54.196860,515673,3084111253,3084112948,-1.120448,-0.013664,-0.03904,8.21625,-1.9775,-10.1325,23.672,-28.528002,40.992,concentric,7,5.0,31298.0,403431.0,167944.0,30353.0,-60.0
2026-04-09 22:35:54.260523,515674,3084125735,3084127869,-1.139968,-0.027328,-0.13664,10.0275,-3.26375,-9.1,23.392,-29.416002,40.704002,concentric,7,5.0,31298.0,403431.0,167944.0,30353.0,-60.0
2026-04-09 22:35:54.262744,515675,3084134621,3084136556,-1.139968,0.001952,0.007808,9.9925,-4.9525,-8.74125,23.392,-29.416002,40.704002,concentric,7,5.0,31298.0,403431.0,167944.0,30353.0,-60.0
2026-04-09 22:35:54.267325,515676,3084143609,3084145248,-1.120448,0.001952,0.007808,11.4975,-6.06375,-8.51375,23.768002,-29.328001,39.68,concentric,7,5.0,31298.0,403431.0,167944.0,30353.0,-60.0
2026-04-09 22:35:54.269061,515677,3084152602,3084153971,-1.120448,0.001952,0.007808,12.20625,-5.2675,-8.8025,23.768002,-29.328001,39.68,concentric,7,5.0,31298.0,403431.0,167944.0,30353.0,-60.0
2026-04-09 22:35:54.270800,515678,3084167088,3084168878,-1.11264,0.060512,0.076128,9.17875,-3.325,-9.555,23.792002,-29.096,39.952003,concentric,7,5.0,31298.0,403431.0,167944.0,30353.0,-60.0
2026-04-09 22:35:54.299845,515688,3084176493,3084177947,-1.13216,0.064416,0.001952,6.02,-0.42,-10.73625,23.936,-28.936,39.568,concentric,7,5.0,31355.0,403431.0,168804.0,31072.0,-46.0
2026-04-09 22:35:54.302645,515689,3084185416,3084186695,-1.13216,0.064416,0.001952,2.52,2.485,-12.74875,23.936,-28.936,39.568,concentric,7,5.0,31355.0,403431.0,168804.0,31072.0,-46.0
2026-04-09 22:35:54.336718,515690,3084200163,3084201667,-1.262944,-0.033184,-0.093696,-1.81125,5.13625,-14.980001,24.28,-28.656002,39.608,concentric,7,5.0,31355.0,403431.0,168804.0,31072.0,-46.0
2026-04-09 22:35:54.341096,515691,3084209229,3084210405,-1.262944,-0.033184,-0.093696,-4.165,5.94125,-16.6075,24.28,-28.656002,39.608,concentric,7,5.0,31355.0,403431.0,168804.0,31072.0,-46.0
2026-04-09 22:35:54.342769,515692,3084218162,3084219158,-1.167296,-0.02928,0.001952,1.1725,3.6925,-16.2575,24.448002,-29.160002,39.752003,concentric,7,5.0,31355.0,403431.0,168804.0,31072.0,-46.0
2026-04-09 22:35:54.344409,515693,3084227156,3084227876,-1.167296,-0.02928,0.001952,6.79,0.84875,-15.085,24.448002,-29.160002,39.752003,concentric,7,5.0,31355.0,403431.0,168804.0,31072.0,-46.0
2026-04-09 22:35:54.348640,515694,3084242060,3084242783,-1.114592,0.033184,0.056608,9.12625,-0.70875,-14.455,24.640001,-28.736002,39.120003,concentric,7,5.0,31355.0,403431.0,168804.0,31072.0,-46.0
2026-04-09 22:35:54.350344,515695,3084251393,3084253538,-1.114592,0.033184,0.056608,7.7525,1.2075,-13.3,24.640001,-28.736002,39.120003,concentric,7,5.0,31355.0,403431.0,168804.0,31072.0,-46.0
2026-04-09 22:35:54.352194,515696,3084260298,3084262264,-1.208288,0.001952,-0.080032,2.5725,3.77125,-12.705,24.736002,-28.888,39.312,concentric,7,5.0,31355.0,403431.0,168804.0,31072.0,-46.0
2026-04-09 22:35:54.382889,515707,3084275107,3084277316,-1.208288,0.001952,-0.03904,-3.185,4.71625,-13.02875,24.736002,-28.888,39.312,concentric,7,5.0,31299.0,403431.0,169417.0,31706.0,-34.0
2026-04-09 22:35:54.384484,515708,3084284256,3084286040,-1.188768,-0.07808,-0.03904,-5.15375,3.57,-12.6525,23.048,-28.832,41.344,concentric,7,5.0,31299.0,403431.0,169417.0,31706.0,-34.0
2026-04-09 22:35:54.388556,515709,3084293266,3084294802,-1.188768,-0.07808,-0.03904,-4.45375,0.6125,-10.01875,23.048,-28.832,41.344,concentric,7,5.0,31299.0,403431.0,169417.0,31706.0,-34.0
2026-04-09 22:35:54.390951,515710,3084302347,3084303540,-1.143872,-0.050752,0.042944,-0.4375,-0.6125,-6.3175,23.648,-29.072,42.096,concentric,7,5.0,31299.0,403431.0,169417.0,31706.0,-34.0
2026-04-09 22:35:54.419505,515711,3084316928,3084318465,-1.153632,0.042944,0.031232,4.24375,-1.30375,-3.77125,25.176,-29.448002,39.472,concentric,7,5.0,31299.0,403431.0,169417.0,31706.0,-34.0
2026-04-09 22:35:54.424029,515712,3084325835,3084327170,-1.153632,0.042944,0.031232,4.69875,-0.5075,-2.415,25.176,-29.448002,39.472,concentric,7,5.0,31299.0,403431.0,169417.0,31706.0,-34.0
2026-04-09 22:35:54.425530,515713,3084334759,3084335868,-1.153632,0.042944,0.031232,2.1525,1.47,-2.21375,25.176,-29.448002,39.472,concentric,7,5.0,31299.0,403431.0,169417.0,31706.0,-34.0
2026-04-09 22:35:54.456683,515714,3084349330,3084350803,-1.22,0.015616,-0.046848,-0.805,4.59375,-4.305,24.416,-28.528002,39.096,concentric,7,5.0,31299.0,403431.0,169417.0,31706.0,-34.0
2026-04-09 22:35:54.458979,515715,3084358289,3084359525,-1.20048,-0.015616,-0.015616,-1.95125,5.11,-6.67625,25.608002,-28.752,39.824,concentric,7,5.0,31299.0,403431.0,169417.0,31706.0,-34.0
2026-04-09 22:35:54.463631,515716,3084367158,3084368251,-1.20048,-0.015616,-0.015616,0.63,3.5875,-8.1725,25.608002,-28.752,39.824,concentric,7,5.0,31299.0,403431.0,169417.0,31706.0,-34.0
2026-04-09 22:35:54.493110,515726,3084376698,3084377066,-1.1712,0.003904,0.033184,4.66375,2.7825,-9.17875,25.408,-29.016,39.392002,concentric,7,5.0,31162.0,403431.0,170412.0,32754.0,-23.0
2026-04-09 22:35:54.497333,515727,3084391719,3084392110,-1.1712,0.003904,0.033184,5.5475,2.14375,-9.3975,25.408,-29.016,39.392002,concentric,7,5.0,31162.0,403431.0,170412.0,32754.0,-23.0
2026-04-09 22:35:54.498988,515728,3084401134,3084402923,-1.241472,-0.023424,-0.03904,2.835,2.9225,-9.70375,24.768002,-28.336,40.672,concentric,7,5.0,31162.0,403431.0,170412.0,32754.0,-23.0
2026-04-09 22:35:54.500571,515729,3084410111,3084411635,-1.241472,-0.023424,-0.03904,0.72625,4.17375,-8.75875,24.768002,-28.336,40.672,concentric,7,5.0,31162.0,403431.0,170412.0,32754.0,-23.0
2026-04-09 22:35:54.504743,515730,3084419097,3084420379,-1.30784,-0.05856,-0.109312,1.3825,5.18,-8.575,24.464,-29.080002,40.600002,concentric,7,5.0,31162.0,403431.0,170412.0,32754.0,-23.0
2026-04-09 22:35:54.561253,515731,3084433646,3084435423,-1.30784,-0.05856,-0.109312,3.75375,5.17125,-7.315,24.464,-29.080002,40.600002,concentric,7,5.0,31162.0,403431.0,170412.0,32754.0,-23.0
2026-04-09 22:35:54.565405,515732,3084442591,3084444129,-1.300032,-0.00976,0.044896,8.07625,4.24375,-6.11625,25.032001,-28.752,39.744003,concentric,7,5.0,31162.0,403431.0,170412.0,32754.0,-23.0
2026-04-09 22:35:54.566863,515733,3084451564,3084452832,-1.300032,-0.00976,0.044896,13.72,3.5175,-4.97875,25.032001,-28.752,39.744003,concentric,7,5.0,31162.0,403431.0,170412.0,32754.0,-23.0
2026-04-09 22:35:54.571138,515734,3084466053,3084467766,-1.264896,0.01952,0.056608,14.315001,3.6925,-4.55,25.240002,-29.032001,39.192,concentric,7,5.0,31162.0,403431.0,170412.0,32754.0,-23.0
