pc_time,serial_num,sensor_ts,host_ts,ax,ay,az,gx,gy,gz,mx,my,mz,phase,rpe,weight_kg,ppg_a,ppg_b,ppg_c,ppg_d,ppg_e
2026-04-09 22:05:52.491641,189412,1282535647,1282537140,-0.314272,0.366976,0.831552,2.31875,3.815,-5.6,-3.376,3.776,56.464005,inter_set_rest,4,3.0,44974.0,324477.0,82306.0,-176.0,-140.0
2026-04-09 22:05:52.520114,189413,1282544599,1282545905,-0.314272,0.366976,0.831552,2.33625,3.5,-6.0375,-3.376,3.776,56.464005,inter_set_rest,4,3.0,44974.0,324477.0,82306.0,-176.0,-140.0
2026-04-09 22:05:52.524679,189414,1282553533,1282554620,-0.314272,0.366976,0.831552,2.54625,3.5875,-5.81,-3.376,3.776,56.464005,inter_set_rest,4,3.0,44974.0,324477.0,82306.0,-176.0,-140.0
2026-04-09 22:05:52.552941,189425,1282568011,1282569750,-0.316224,0.365024,0.827648,2.2225,3.66625,-5.67,-3.288,4.0,55.368004,inter_set_rest,4,3.0,45070.0,323366.0,81537.0,-185.0,-136.0
2026-04-09 22:05:52.554849,189426,1282576998,1282578512,-0.31232,0.368928,0.827648,2.05625,3.78,-5.6,-4.848,4.208,59.192,inter_set_rest,4,3.0,45070.0,323366.0,81537.0,-185.0,-136.0
2026-04-09 22:05:52.556391,189427,1282586086,1282587301,-0.31232,0.368928,0.827648,2.24,3.82375,-5.20625,-4.848,4.208,59.192,inter_set_rest,4,3.0,45070.0,323366.0,81537.0,-185.0,-136.0
2026-04-09 22:05:52.560308,189428,1282594994,1282595991,-0.308416,0.366976,0.8296,2.23125,4.08625,-5.24125,-4.848,3.52,59.528004,inter_set_rest,4,3.0,45070.0,323366.0,81537.0,-185.0,-136.0
2026-04-09 22:05:52.565404,189429,1282609472,1282610954,-0.308416,0.366976,0.8296,2.10875,3.4825,-5.74,-4.872,3.52,59.528004,inter_set_rest,4,3.0,45070.0,323366.0,81537.0,-185.0,-136.0
2026-04-09 22:05:52.593843,189430,1282618405,1282619711,-0.31232,0.365024,0.8296,2.37125,3.43,-6.09875,-4.96,3.816,57.864002,inter_set_rest,4,3.0,45070.0,323366.0,81537.0,-185.0,-136.0
2026-04-09 22:05:52.598444,189431,1282627324,1282628398,-0.31232,0.365024,0.8296,2.91375,3.29875,-5.9675,-4.96,3.816,57.864002,inter_set_rest,4,3.0,45070.0,323366.0,81537.0,-185.0,-136.0
2026-04-09 22:05:52.599984,189432,1282641812,1282643288,-0.310368,0.366976,0.831552,2.98375,3.71875,-5.87125,-3.504,3.512,56.624004,inter_set_rest,4,3.0,45070.0,323366.0,81537.0,-185.0,-136.0
2026-04-09 22:05:52.607020,189433,1282650745,1282651974,-0.310368,0.366976,0.831552,2.8175,3.40375,-5.94125,-3.504,3.512,56.624004,inter_set_rest,4,3.0,45070.0,323366.0,81537.0,-185.0,-136.0
2026-04-09 22:05:52.614050,189434,1282659655,1282660730,-0.308416,0.368928,0.825696,3.19375,3.2025,-5.8625,-4.0,3.528,56.600002,inter_set_rest,4,3.0,45070.0,323366.0,81537.0,-185.0,-136.0
2026-04-09 22:05:52.679639,189444,1282674278,1282675708,-0.308416,0.368928,0.825696,2.66875,3.71875,-6.04625,-4.0,3.528,56.600002,inter_set_rest,4,3.0,45104.0,322748.0,81060.0,-174.0,-127.0
2026-04-09 22:05:52.681270,189445,1282683232,1282684421,-0.306464,0.368928,0.8296,2.56375,3.82375,-5.69625,-3.36,3.736,57.752003,inter_set_rest,4,3.0,45104.0,322748.0,81060.0,-174.0,-127.0
2026-04-09 22:05:52.685456,189446,1282692177,1282693145,-0.306464,0.368928,0.8296,2.31875,3.40375,-5.635,-3.36,3.736,57.752003,inter_set_rest,4,3.0,45104.0,322748.0,81060.0,-174.0,-127.0
2026-04-09 22:05:52.687207,189447,1282706654,1282708060,-0.308416,0.366976,0.833504,2.3975,3.57875,-5.80125,-4.016,3.752,56.448,inter_set_rest,4,3.0,45104.0,322748.0,81060.0,-174.0,-127.0
2026-04-09 22:05:52.688795,189448,1282715628,1282716768,-0.308416,0.366976,0.8296,2.23125,3.63125,-5.985,-6.064,3.688,58.488003,inter_set_rest,4,3.0,45104.0,322748.0,81060.0,-174.0,-127.0
2026-04-09 22:05:52.692978,189449,1282724556,1282725499,-0.308416,0.366976,0.8296,2.4675,3.52625,-5.53,-4.56,3.688,58.488003,inter_set_rest,4,3.0,45104.0,322748.0,81060.0,-174.0,-127.0
2026-04-09 22:05:52.694520,189450,1282733545,1282734207,-0.308416,0.366976,0.8296,2.0825,3.84125,-5.3375,-4.56,3.688,58.488003,inter_set_rest,4,3.0,45104.0,322748.0,81060.0,-174.0,-127.0
2026-04-09 22:05:52.702902,189451,1282748518,1282749240,-0.310368,0.366976,0.825696,2.05625,4.06,-5.69625,-4.44,3.632,58.008003,inter_set_rest,4,3.0,45104.0,322748.0,81060.0,-174.0,-127.0
2026-04-09 22:05:52.744769,189452,1282757848,1282760046,-0.308416,0.366976,0.823744,2.12625,3.29875,-5.45125,-4.536,3.808,58.184002,inter_set_rest,4,3.0,45104.0,322748.0,81060.0,-174.0,-127.0
2026-04-09 22:05:52.749492,189453,1282766770,1282768746,-0.308416,0.366976,0.823744,2.415,3.01875,-5.635,-4.536,3.808,58.184002,inter_set_rest,4,3.0,45104.0,322748.0,81060.0,-174.0,-127.0
2026-04-09 22:05:52.777187,189463,1282781383,1282781700,-0.308416,0.37088,0.825696,2.61625,3.0975,-5.915,-3.472,3.56,57.032,inter_set_rest,4,3.0,45107.0,322763.0,81112.0,-169.0,-124.0
2026-04-09 22:05:52.778820,189464,1282790559,1282792454,-0.308416,0.37088,0.825696,2.38875,2.8875,-6.02875,-3.472,3.56,57.032,inter_set_rest,4,3.0,45107.0,322763.0,81112.0,-169.0,-124.0
2026-04-09 22:05:52.783010,189465,1282799468,1282801172,-0.308416,0.37088,0.835456,2.21375,2.87,-6.195,-3.448,3.56,56.792004,inter_set_rest,4,3.0,45107.0,322763.0,81112.0,-169.0,-124.0
2026-04-09 22:05:52.784690,189466,1282808524,1282809970,-0.308416,0.37088,0.835456,2.31875,3.12375,-6.02,-3.448,3.56,56.792004,inter_set_rest,4,3.0,45107.0,322763.0,81112.0,-169.0,-124.0
2026-04-09 22:05:52.786286,189467,1282823030,1282824904,-0.310368,0.366976,0.823744,2.66,3.24625,-6.125,-4.528,4.048,58.024002,inter_set_rest,4,3.0,45107.0,322763.0,81112.0,-169.0,-124.0
2026-04-09 22:05:52.790442,189468,1282831972,1282833645,-0.310368,0.366976,0.823744,2.1525,3.22875,-6.04625,-4.528,4.048,58.024002,inter_set_rest,4,3.0,45107.0,322763.0,81112.0,-169.0,-124.0
2026-04-09 22:05:52.797942,189469,1282840887,1282842376,-0.316224,0.368928,0.8296,2.275,2.82625,-5.88875,-3.896,3.56,56.696003,inter_set_rest,4,3.0,45107.0,322763.0,81112.0,-169.0,-124.0
2026-04-09 22:05:52.825109,189470,1282855352,1282857264,-0.316224,0.368928,0.827648,2.2925,3.3775,-5.4425,-3.896,3.56,56.696003,inter_set_rest,4,3.0,45107.0,322763.0,81112.0,-169.0,-124.0
2026-04-09 22:05:52.829784,189471,1282864317,1282865989,-0.31232,0.368928,0.827648,2.1,3.22875,-5.43375,-3.512,3.944,57.176003,inter_set_rest,4,3.0,45107.0,322763.0,81112.0,-169.0,-124.0
2026-04-09 22:05:52.857980,189482,1282873363,1282874753,-0.31232,0.368928,0.827648,2.44125,3.10625,-5.285,-3.512,3.944,57.176003,inter_set_rest,4,3.0,45148.0,321965.0,80479.0,-181.0,-124.0
2026-04-09 22:05:52.859697,189483,1282887889,1282889712,-0.31232,0.366976,0.821792,1.70625,2.98375,-5.43375,-3.328,3.68,56.664,inter_set_rest,4,3.0,45148.0,321965.0,80479.0,-181.0,-124.0
2026-04-09 22:05:52.861238,189484,1282896862,1282898428,-0.310368,0.366976,0.81984,1.89,2.8875,-5.52125,-3.448,3.296,54.528004,inter_set_rest,4,3.0,45148.0,321965.0,80479.0,-181.0,-124.0
2026-04-09 22:05:52.865366,189485,1282905796,1282907211,-0.310368,0.366976,0.81984,2.12625,2.7475,-5.48625,-3.448,3.296,54.528004,inter_set_rest,4,3.0,45148.0,321965.0,80479.0,-181.0,-124.0
2026-04-09 22:05:52.869098,189486,1282914741,1282915929,-0.310368,0.366976,0.81984,1.5925,3.1325,-5.11875,-3.448,3.296,54.528004,inter_set_rest,4,3.0,45148.0,321965.0,80479.0,-181.0,-124.0
2026-04-09 22:05:52.897626,189487,1282929199,1282930887,-0.308416,0.368928,0.825696,1.75875,2.7825,-5.53,-3.512,3.384,55.824,inter_set_rest,4,3.0,45148.0,321965.0,80479.0,-181.0,-124.0
2026-04-09 22:05:52.902139,189488,1282938086,1282939576,-0.31232,0.365024,0.81984,2.00375,2.31,-5.8625,-3.888,4.256,56.296,inter_set_rest,4,3.0,45148.0,321965.0,80479.0,-181.0,-124.0
2026-04-09 22:05:52.903632,189489,1282946995,1282948284,-0.31232,0.365024,0.81984,1.925,2.54625,-5.92375,-3.888,4.256,56.296,inter_set_rest,4,3.0,45148.0,321965.0,80479.0,-181.0,-124.0
2026-04-09 22:05:52.934721,189490,1282961517,1282963247,-0.31232,0.366976,0.825696,2.5725,2.345,-6.3525,-3.888,3.224,56.912003,inter_set_rest,4,3.0,45148.0,321965.0,80479.0,-181.0,-124.0
2026-04-09 22:05:52.963604,189500,1282970423,1282971988,-0.31232,0.366976,0.825696,2.695,2.31875,-6.0725,-3.888,3.224,56.912003,inter_set_rest,4,3.0,45078.0,322834.0,81089.0,-189.0,-142.0
2026-04-09 22:05:52.966216,189501,1282979444,1282980708,-0.310368,0.368928,0.831552,2.49375,2.59875,-5.90625,-3.464,3.968,56.496002,inter_set_rest,4,3.0,45078.0,322834.0,81089.0,-189.0,-142.0
2026-04-09 22:05:52.967057,189502,1282994103,1282995737,-0.310368,0.368928,0.831552,2.4325,2.135,-5.67,-3.464,3.968,56.496002,inter_set_rest,4,3.0,45078.0,322834.0,81089.0,-189.0,-142.0
2026-04-09 22:05:52.969207,189503,1283003031,1283004445,-0.310368,0.365024,0.827648,2.14375,2.14375,-5.24125,-5.24,3.96,57.096004,inter_set_rest,4,3.0,45078.0,322834.0,81089.0,-189.0,-142.0
2026-04-09 22:05:52.971592,189504,1283012024,1283013239,-0.310368,0.365024,0.827648,1.855,2.59,-5.1975,-5.24,3.96,57.096004,inter_set_rest,4,3.0,45078.0,322834.0,81089.0,-189.0,-142.0
2026-04-09 22:05:52.975330,189505,1283020988,1283021995,-0.31232,0.366976,0.8296,1.89875,2.47625,-5.3375,-4.464,3.392,57.856003,inter_set_rest,4,3.0,45078.0,322834.0,81089.0,-189.0,-142.0
2026-04-09 22:05:53.003904,189506,1283035470,1283036882,-0.31232,0.366976,0.8296,1.68,2.47625,-5.0925,-4.464,3.392,57.856003,inter_set_rest,4,3.0,45078.0,322834.0,81089.0,-189.0,-142.0
2026-04-09 22:05:53.008433,189507,1283044399,1283045575,-0.314272,0.365024,0.8296,2.09125,2.2225,-5.53875,-3.4,3.896,56.248,inter_set_rest,4,3.0,45078.0,322834.0,81089.0,-189.0,-142.0
2026-04-09 22:05:53.009999,189508,1283053301,1283054262,-0.314272,0.365024,0.8296,2.5375,2.65125,-5.83625,-3.4,3.896,56.248,inter_set_rest,4,3.0,45078.0,322834.0,81089.0,-189.0,-142.0
2026-04-09 22:05:53.044835,189509,1283067809,1283069230,-0.314272,0.365024,0.827648,2.28375,2.49375,-5.90625,-3.584,3.4,56.608,inter_set_rest,4,3.0,45078.0,322834.0,81089.0,-189.0,-142.0
2026-04-09 22:05:53.080561,189519,1283076893,1283077968,-0.314272,0.366976,0.821792,2.31,1.88125,-5.7575,-3.584,3.728,57.608,inter_set_rest,4,3.0,45033.0,324160.0,82137.0,-175.0,-137.0
2026-04-09 22:05:53.082214,189520,1283085799,1283086742,-0.314272,0.366976,0.821792,2.70375,2.03,-5.87125,-3.136,3.728,57.608,inter_set_rest,4,3.0,45033.0,324160.0,82137.0,-175.0,-137.0
2026-04-09 22:05:53.083776,189521,1283100330,1283101654,-0.31232,0.365024,0.825696,2.47625,2.205,-6.1075,-3.568,3.44,56.696003,inter_set_rest,4,3.0,45033.0,324160.0,82137.0,-175.0,-137.0
2026-04-09 22:05:53.087985,189522,1283109407,1283110406,-0.31232,0.365024,0.825696,2.02125,1.855,-6.32625,-3.568,3.44,56.696003,inter_set_rest,4,3.0,45033.0,324160.0,82137.0,-175.0,-137.0
2026-04-09 22:05:53.089711,189523,1283118395,1283119192,-0.310368,0.368928,0.825696,2.0125,2.19625,-6.08125,-4.912,3.824,57.56,inter_set_rest,4,3.0,45033.0,324160.0,82137.0,-175.0,-137.0
2026-04-09 22:05:53.091320,189524,1283132922,1283134086,-0.310368,0.368928,0.825696,2.2925,2.30125,-6.01125,-4.912,3.824,57.56,inter_set_rest,4,3.0,45033.0,324160.0,82137.0,-175.0,-137.0
2026-04-09 22:05:53.097899,189525,1283141930,1283142795,-0.310368,0.365024,0.831552,2.10875,1.96,-5.915,-4.56,4.12,58.256004,inter_set_rest,4,3.0,45033.0,324160.0,82137.0,-175.0,-137.0
2026-04-09 22:05:53.104111,189526,1283150849,1283151574,-0.310368,0.365024,0.831552,2.63375,2.16125,-6.1775,-4.56,4.12,58.256004,inter_set_rest,4,3.0,45033.0,324160.0,82137.0,-175.0,-137.0
2026-04-09 22:05:53.132708,189527,1283160226,1283162352,-0.306464,0.368928,0.831552,2.42375,2.0825,-6.195,-3.784,3.728,56.464005,inter_set_rest,4,3.0,45033.0,324160.0,82137.0,-175.0,-137.0
2026-04-09 22:05:53.165125,189538,1283174879,1283175316,-0.306464,0.368928,0.831552,2.065,1.855,-6.13375,-3.784,3.728,56.464005,inter_set_rest,4,3.0,45101.0,322854.0,81189.0,-167.0,-121.0
2026-04-09 22:05:53.169274,189539,1283184387,1283186160,-0.310368,0.366976,0.831552,2.03,2.02125,-6.09,-3.648,3.968,56.56,inter_set_rest,4,3.0,45101.0,322854.0,81189.0,-167.0,-121.0
2026-04-09 22:05:53.170937,189540,1283193379,1283194903,-0.310368,0.366976,0.831552,2.63375,2.2225,-6.4225,-3.648,3.968,56.56,inter_set_rest,4,3.0,45101.0,322854.0,81189.0,-167.0,-121.0
2026-04-09 22:05:53.172508,189541,1283202350,1283203652,-0.306464,0.368928,0.831552,2.3275,2.21375,-6.50125,-4.64,3.912,58.536003,inter_set_rest,4,3.0,45101.0,322854.0,81189.0,-167.0,-121.0
2026-04-09 22:05:53.176612,189542,1283216846,1283218591,-0.306464,0.368928,0.831552,2.38,2.555,-5.915,-4.64,3.912,58.536003,inter_set_rest,4,3.0,45101.0,322854.0,81189.0,-167.0,-121.0
2026-04-09 22:05:53.180854,189543,1283225768,1283227282,-0.308416,0.368928,0.831552,2.3975,2.16125,-5.94125,-3.888,3.744,54.336002,inter_set_rest,4,3.0,45101.0,322854.0,81189.0,-167.0,-121.0
2026-04-09 22:05:53.211070,189544,1283234781,1283235990,-0.308416,0.368928,0.831552,2.8875,2.30125,-6.23875,-3.888,3.744,54.336002,inter_set_rest,4,3.0,45101.0,322854.0,81189.0,-167.0,-121.0
2026-04-09 22:05:53.215587,189545,1283249236,1283250959,-0.306464,0.366976,0.831552,2.6075,2.45,-6.04625,-3.608,3.712,57.584003,inter_set_rest,4,3.0,45101.0,322854.0,81189.0,-167.0,-121.0
2026-04-09 22:05:53.217058,189546,1283258136,1283259647,-0.30256,0.365024,0.831552,2.45,2.45875,-5.80125,-3.632,3.648,56.656002,inter_set_rest,4,3.0,45101.0,322854.0,81189.0,-167.0,-121.0
2026-04-09 22:05:53.222052,189547,1283267141,1283268343,-0.30256,0.365024,0.831552,1.995,2.21375,-5.73125,-3.632,3.648,56.656002,inter_set_rest,4,3.0,45101.0,322854.0,81189.0,-167.0,-121.0
2026-04-09 22:05:53.250549,189557,1283276677,1283277135,-0.30256,0.365024,0.831552,2.44125,2.45875,-5.8975,-3.632,3.648,56.656002,inter_set_rest,4,3.0,45074.0,322981.0,81266.0,-182.0,-152.0
2026-04-09 22:05:53.252179,189558,1283291677,1283292095,-0.30256,0.366976,0.831552,2.345,2.66,-5.9325,-4.28,3.856,57.728004,inter_set_rest,4,3.0,45074.0,322981.0,81266.0,-182.0,-152.0
2026-04-09 22:05:53.253788,189559,1283301046,1283302963,-0.304512,0.368928,0.831552,1.9075,2.345,-5.76625,-5.72,4.144,58.448,inter_set_rest,4,3.0,45074.0,322981.0,81266.0,-182.0,-152.0
2026-04-09 22:05:53.296159,189560,1283310067,1283311698,-0.304512,0.368928,0.831552,2.45875,2.415,-5.7925,-5.72,4.144,58.448,inter_set_rest,4,3.0,45074.0,322981.0,81266.0,-182.0,-152.0
2026-04-09 22:05:53.298435,189561,1283324564,1283326597,-0.306464,0.368928,0.823744,2.485,2.21375,-6.34375,-3.816,3.184,56.624004,inter_set_rest,4,3.0,45074.0,322981.0,81266.0,-182.0,-152.0
2026-04-09 22:05:53.302973,189562,1283333496,1283335300,-0.306464,0.368928,0.823744,2.6425,2.42375,-6.3525,-3.816,3.184,56.624004,inter_set_rest,4,3.0,45074.0,322981.0,81266.0,-182.0,-152.0
2026-04-09 22:05:53.304734,189563,1283342457,1283344002,-0.310368,0.366976,0.827648,2.51125,2.30125,-6.37875,-3.456,3.808,56.896004,inter_set_rest,4,3.0,45074.0,322981.0,81266.0,-182.0,-152.0
2026-04-09 22:05:53.307079,189564,1283351389,1283352751,-0.310368,0.366976,0.827648,2.23125,2.2925,-6.37875,-3.456,3.808,56.896004,inter_set_rest,4,3.0,45074.0,322981.0,81266.0,-182.0,-152.0
2026-04-09 22:05:53.348213,189565,1283365894,1283367718,-0.31232,0.368928,0.827648,2.555,2.52875,-6.265,-4.672,3.936,58.120003,inter_set_rest,4,3.0,45074.0,322981.0,81266.0,-182.0,-152.0
2026-04-09 22:05:53.372988,189575,1283375043,1283376494,-0.31232,0.368928,0.827648,2.135,2.4675,-6.2825,-4.672,3.936,58.120003,inter_set_rest,4,3.0,45089.0,322749.0,81090.0,-181.0,-135.0
2026-04-09 22:05:53.374659,189576,1283384049,1283385245,-0.306464,0.368928,0.8296,1.81125,2.38875,-6.08125,-3.96,3.56,57.256004,inter_set_rest,4,3.0,45089.0,322749.0,81090.0,-181.0,-135.0
2026-04-09 22:05:53.376268,189577,1283398538,1283400151,-0.308416,0.366976,0.827648,2.09125,2.59,-5.845,-3.192,3.336,55.04,inter_set_rest,4,3.0,45089.0,322749.0,81090.0,-181.0,-135.0
2026-04-09 22:05:53.380571,189578,1283407609,1283408889,-0.308416,0.366976,0.827648,2.02125,2.2225,-6.11625,-3.192,3.336,55.04,inter_set_rest,4,3.0,45089.0,322749.0,81090.0,-181.0,-135.0
2026-04-09 22:05:53.382223,189579,1283416539,1283417619,-0.308416,0.366976,0.827648,1.9425,2.54625,-5.99375,-3.192,3.336,55.04,inter_set_rest,4,3.0,45089.0,322749.0,81090.0,-181.0,-135.0
2026-04-09 22:05:53.383807,189580,1283431177,1283432502,-0.306464,0.368928,0.833504,2.23125,2.77375,-5.53875,-4.568,3.344,56.656002,inter_set_rest,4,3.0,45089.0,322749.0,81090.0,-181.0,-135.0
2026-04-09 22:05:53.414859,189581,1283440138,1283441240,-0.306464,0.365024,0.831552,1.82,2.07375,-5.81,-4.736,3.784,57.744003,inter_set_rest,4,3.0,45089.0,322749.0,81090.0,-181.0,-135.0
2026-04-09 22:05:53.419313,189582,1283449056,1283449915,-0.306464,0.365024,0.831552,2.1175,1.88125,-5.9325,-4.736,3.784,57.744003,inter_set_rest,4,3.0,45089.0,322749.0,81090.0,-181.0,-135.0
2026-04-09 22:05:53.420870,189583,1283457955,1283458663,-0.306464,0.368928,0.8296,1.98625,2.07375,-5.9675,-4.736,3.784,55.696003,inter_set_rest,4,3.0,45089.0,322749.0,81090.0,-181.0,-135.0
2026-04-09 22:05:53.427290,189584,1283472800,1283473544,-0.306464,0.368928,0.8296,1.995,2.0125,-5.88,-3.848,3.864,56.936,inter_set_rest,4,3.0,45089.0,322749.0,81090.0,-181.0,-135.0
2026-04-09 22:05:53.461335,189595,1283482323,1283484407,-0.310368,0.368928,0.833504,1.925,2.03875,-5.95875,-4.472,3.616,56.768,inter_set_rest,4,3.0,45111.0,321988.0,80539.0,-175.0,-120.0
2026-04-09 22:05:53.465582,189596,1283491278,1283493135,-0.310368,0.368928,0.833504,1.645,2.03,-5.85375,-4.472,3.616,56.768,inter_set_rest,4,3.0,45111.0,321988.0,80539.0,-175.0,-120.0
2026-04-09 22:05:53.468236,189597,1283505872,1283508104,-0.310368,0.37088,0.8296,1.84625,2.205,-5.81,-4.688,3.512,56.056004,inter_set_rest,4,3.0,45111.0,321988.0,80539.0,-175.0,-120.0
2026-04-09 22:05:53.474151,189598,1283514838,1283516847,-0.310368,0.37088,0.8296,2.42375,2.345,-5.6175,-4.688,3.512,56.056004,inter_set_rest,4,3.0,45111.0,321988.0,80539.0,-175.0,-120.0
2026-04-09 22:05:53.478302,189599,1283523777,1283525551,-0.306464,0.37088,0.831552,2.0825,2.44125,-5.53875,-3.584,4.192,56.56,inter_set_rest,4,3.0,45111.0,321988.0,80539.0,-175.0,-120.0
2026-04-09 22:05:53.508641,189600,1283532798,1283534304,-0.306464,0.37088,0.831552,2.45,2.2225,-5.90625,-3.584,4.192,56.56,inter_set_rest,4,3.0,45111.0,321988.0,80539.0,-175.0,-120.0
2026-04-09 22:05:53.510867,189601,1283547341,1283549245,-0.304512,0.365024,0.823744,2.3975,2.2575,-5.985,-3.904,3.152,56.840004,inter_set_rest,4,3.0,45111.0,321988.0,80539.0,-175.0,-120.0
2026-04-09 22:05:53.515665,189602,1283556253,1283557933,-0.304512,0.365024,0.823744,2.30125,2.0125,-5.8275,-3.904,3.152,56.840004,inter_set_rest,4,3.0,45111.0,321988.0,80539.0,-175.0,-120.0
2026-04-09 22:05:53.520788,189603,1283565173,1283566674,-0.306464,0.366976,0.8296,2.35375,1.95125,-5.67875,-3.824,3.744,57.616,inter_set_rest,4,3.0,45111.0,321988.0,80539.0,-175.0,-120.0
2026-04-09 22:05:53.573472,189613,1283579804,1283581852,-0.308416,0.365024,0.825696,1.86375,2.135,-5.52125,-3.776,3.816,57.680004,inter_set_rest,4,3.0,44975.0,324398.0,82269.0,-172.0,-120.0
2026-04-09 22:05:53.575029,189614,1283588844,1283590548,-0.308416,0.365024,0.825696,2.17875,2.26625,-5.7925,-3.776,3.816,57.680004,inter_set_rest,4,3.0,44975.0,324398.0,82269.0,-172.0,-120.0
2026-04-09 22:05:53.579247,189615,1283597763,1283599222,-0.308416,0.365024,0.825696,2.16125,2.0475,-5.7575,-3.776,3.816,57.680004,inter_set_rest,4,3.0,44975.0,324398.0,82269.0,-172.0,-120.0
2026-04-09 22:05:53.580946,189616,1283612327,1283614212,-0.31232,0.365024,0.825696,2.28375,2.0125,-6.125,-3.976,3.984,55.04,inter_set_rest,4,3.0,44975.0,324398.0,82269.0,-172.0,-120.0
2026-04-09 22:05:53.582539,189617,1283621320,1283622904,-0.310368,0.363072,0.821792,2.02125,2.1,-6.30875,-5.392,3.64,59.512,inter_set_rest,4,3.0,44975.0,324398.0,82269.0,-172.0,-120.0
2026-04-09 22:05:53.586650,189618,1283630261,1283631711,-0.310368,0.363072,0.821792,2.23125,2.38875,-5.97625,-5.392,3.64,59.512,inter_set_rest,4,3.0,44975.0,324398.0,82269.0,-172.0,-120.0
2026-04-09 22:05:53.647248,189619,1283639248,1283640438,-0.306464,0.366976,0.825696,2.0475,2.275,-6.13375,-5.808,3.544,57.768,inter_set_rest,4,3.0,44975.0,324398.0,82269.0,-172.0,-120.0
2026-04-09 22:05:53.651843,189620,1283653720,1283655350,-0.306464,0.366976,0.825696,1.89875,2.37125,-6.16,-5.808,3.544,57.768,inter_set_rest,4,3.0,44975.0,324398.0,82269.0,-172.0,-120.0
2026-04-09 22:05:53.662998,189621,1283662634,1283664023,-0.306464,0.363072,0.827648,2.2925,2.38875,-6.18625,-3.504,3.68,56.832005,inter_set_rest,4,3.0,44975.0,324398.0,82269.0,-172.0,-120.0
2026-04-09 22:05:53.664807,189622,1283671548,1283672745,-0.306464,0.363072,0.827648,2.2225,2.47625,-6.0025,-3.504,3.68,56.832005,inter_set_rest,4,3.0,44975.0,324398.0,82269.0,-172.0,-120.0
2026-04-09 22:05:53.688848,189632,1283686047,1283687696,-0.306464,0.365024,0.823744,2.38,2.26625,-6.30875,-3.888,3.68,55.320004,inter_set_rest,4,3.0,45019.0,323952.0,82051.0,-185.0,-130.0
2026-04-09 22:05:53.693277,189633,1283694943,1283696378,-0.306464,0.365024,0.823744,2.2225,2.26625,-6.0375,-3.888,3.68,55.320004,inter_set_rest,4,3.0,45019.0,323952.0,82051.0,-185.0,-130.0
2026-04-09 22:05:53.697172,189634,1283703876,1283705077,-0.306464,0.366976,0.821792,2.1,2.1875,-5.4775,-3.672,3.44,56.768,inter_set_rest,4,3.0,45019.0,323952.0,82051.0,-185.0,-130.0
2026-04-09 22:05:53.698751,189635,1283718366,1283720033,-0.306464,0.366976,0.821792,1.89,2.3625,-5.74,-3.672,3.44,56.768,inter_set_rest,4,3.0,45019.0,323952.0,82051.0,-185.0,-130.0
2026-04-09 22:05:53.701223,189636,1283727318,1283728786,-0.308416,0.366976,0.8296,2.2575,2.2575,-6.22125,-3.44,3.704,55.936,inter_set_rest,4,3.0,45019.0,323952.0,82051.0,-185.0,-130.0
2026-04-09 22:05:53.703757,189637,1283736249,1283737499,-0.308416,0.366976,0.8296,2.40625,2.4325,-6.36125,-3.44,3.704,55.936,inter_set_rest,4,3.0,45019.0,323952.0,82051.0,-185.0,-130.0
2026-04-09 22:05:53.706246,189638,1283750759,1283752469,-0.306464,0.365024,0.831552,2.3625,2.59,-6.5625,-3.696,3.96,58.072002,inter_set_rest,4,3.0,45019.0,323952.0,82051.0,-185.0,-130.0
2026-04-09 22:05:53.712493,189639,1283759710,1283761257,-0.30256,0.37088,0.831552,2.415,2.3625,-6.43125,-3.848,3.368,58.72,inter_set_rest,4,3.0,45019.0,323952.0,82051.0,-185.0,-130.0
2026-04-09 22:05:53.745148,189640,1283768663,1283769979,-0.30256,0.37088,0.831552,2.555,2.24,-6.78125,-3.848,3.368,58.72,inter_set_rest,4,3.0,45019.0,323952.0,82051.0,-185.0,-130.0
2026-04-09 22:05:53.773676,189651,1283777616,1283778833,-0.30256,0.37088,0.831552,2.8,2.1175,-6.51875,-3.848,3.368,58.72,inter_set_rest,4,3.0,45050.0,323133.0,81409.0,-177.0,-140.0
2026-04-09 22:05:53.776205,189652,1283792185,1283793850,-0.304512,0.366976,0.837408,2.485,2.275,-6.4575,-4.24,3.824,56.848003,inter_set_rest,4,3.0,45050.0,323133.0,81409.0,-177.0,-140.0
2026-04-09 22:05:53.778746,189653,1283801091,1283802594,-0.306464,0.368928,0.8296,2.345,2.14375,-6.58,-4.864,3.68,57.968002,inter_set_rest,4,3.0,45050.0,323133.0,81409.0,-177.0,-140.0
2026-04-09 22:05:53.781248,189654,1283810116,1283811324,-0.306464,0.368928,0.8296,2.2225,2.42375,-6.04625,-4.864,3.68,57.968002,inter_set_rest,4,3.0,45050.0,323133.0,81409.0,-177.0,-140.0
2026-04-09 22:05:53.783778,189655,1283824656,1283826264,-0.304512,0.366976,0.831552,2.1175,2.31,-5.80125,-4.432,3.72,58.184002,inter_set_rest,4,3.0,45050.0,323133.0,81409.0,-177.0,-140.0
2026-04-09 22:05:53.788701,189656,1283833575,1283834971,-0.304512,0.366976,0.831552,2.44125,2.625,-5.8275,-4.432,3.72,58.184002,inter_set_rest,4,3.0,45050.0,323133.0,81409.0,-177.0,-140.0
2026-04-09 22:05:53.794949,189657,1283842513,1283843703,-0.30256,0.366976,0.8296,2.51125,2.93125,-5.495,-3.84,3.544,56.776,inter_set_rest,4,3.0,45050.0,323133.0,81409.0,-177.0,-140.0
2026-04-09 22:05:53.826461,189658,1283856976,1283858651,-0.30256,0.366976,0.8296,2.66,2.70375,-5.7225,-3.84,3.544,56.776,inter_set_rest,4,3.0,45050.0,323133.0,81409.0,-177.0,-140.0
2026-04-09 22:05:53.832926,189659,1283865875,1283867331,-0.304512,0.366976,0.831552,2.79125,2.84375,-5.80125,-3.456,3.96,56.120003,inter_set_rest,4,3.0,45050.0,323133.0,81409.0,-177.0,-140.0
2026-04-09 22:05:53.834900,189660,1283874781,1283876038,-0.304512,0.366976,0.831552,3.17625,2.695,-6.3525,-3.456,3.96,56.120003,inter_set_rest,4,3.0,45050.0,323133.0,81409.0,-177.0,-140.0
2026-04-09 22:05:53.859934,189670,1283889312,1283891048,-0.298656,0.366976,0.831552,2.75625,2.31,-6.3175,-3.688,3.592,56.760002,inter_set_rest,4,3.0,45022.0,323310.0,81543.0,-169.0,-134.0
2026-04-09 22:05:53.862505,189671,1283898260,1283899789,-0.298656,0.366976,0.831552,2.82625,2.3275,-6.64125,-3.688,3.592,56.760002,inter_set_rest,4,3.0,45022.0,323310.0,81543.0,-169.0,-134.0
2026-04-09 22:05:53.864962,189672,1283907240,1283908492,-0.306464,0.366976,0.827648,2.24875,2.49375,-6.48375,-3.904,3.704,55.520004,inter_set_rest,4,3.0,45022.0,323310.0,81543.0,-169.0,-134.0
2026-04-09 22:05:53.868675,189673,1283916174,1283917210,-0.306464,0.366976,0.827648,2.065,2.70375,-6.37875,-3.904,3.704,55.520004,inter_set_rest,4,3.0,45022.0,323310.0,81543.0,-169.0,-134.0
2026-04-09 22:05:53.898930,189674,1283930677,1283932122,-0.304512,0.365024,0.825696,2.19625,2.5375,-6.36125,-3.848,3.856,56.4,inter_set_rest,4,3.0,45022.0,323310.0,81543.0,-169.0,-134.0
2026-04-09 22:05:53.902462,189675,1283939612,1283940827,-0.304512,0.365024,0.827648,2.065,2.275,-6.04625,-3.848,3.856,56.4,inter_set_rest,4,3.0,45022.0,323310.0,81543.0,-169.0,-134.0
2026-04-09 22:05:53.905040,189676,1283948564,1283949531,-0.306464,0.365024,0.827648,1.93375,2.40625,-5.78375,-3.496,3.472,56.432003,inter_set_rest,4,3.0,45022.0,323310.0,81543.0,-169.0,-134.0
2026-04-09 22:05:53.944864,189677,1283963089,1283964451,-0.306464,0.366976,0.827648,2.35375,1.995,-6.06375,-3.752,3.376,56.456,inter_set_rest,4,3.0,45022.0,323310.0,81543.0,-169.0,-134.0
2026-04-09 22:05:53.949379,189678,1283972020,1283973152,-0.306464,0.366976,0.827648,2.26625,2.275,-6.18625,-3.752,3.376,56.456,inter_set_rest,4,3.0,45022.0,323310.0,81543.0,-169.0,-134.0
2026-04-09 22:05:53.973495,189688,1283981134,1283982068,-0.30256,0.365024,0.827648,2.42375,2.135,-5.95875,-4.136,3.448,56.600002,inter_set_rest,4,3.0,45044.0,322810.0,81168.0,-194.0,-120.0
2026-04-09 22:05:53.975081,189689,1283995632,1283997032,-0.30256,0.365024,0.827648,2.135,2.61625,-6.02,-4.136,3.448,56.600002,inter_set_rest,4,3.0,45044.0,322810.0,81168.0,-194.0,-120.0
2026-04-09 22:05:53.978414,189690,1284004581,1284005767,-0.304512,0.366976,0.8296,1.84625,2.1175,-6.08125,-3.84,3.808,56.664,inter_set_rest,4,3.0,45044.0,322810.0,81168.0,-194.0,-120.0
2026-04-09 22:05:53.983052,189691,1284013471,1284014534,-0.304512,0.366976,0.8296,2.0125,2.45,-6.02875,-3.84,3.808,56.664,inter_set_rest,4,3.0,45044.0,322810.0,81168.0,-194.0,-120.0
2026-04-09 22:05:53.984636,189692,1284022489,1284023280,-0.30256,0.365024,0.825696,2.31,2.6775,-5.6875,-3.824,4.152,56.384003,inter_set_rest,4,3.0,45044.0,322810.0,81168.0,-194.0,-120.0
2026-04-09 22:05:53.994165,189693,1284037621,1284038255,-0.30256,0.365024,0.825696,2.26625,2.6075,-5.71375,-3.824,4.152,56.384003,inter_set_rest,4,3.0,45044.0,322810.0,81168.0,-194.0,-120.0
2026-04-09 22:05:54.022685,189694,1284046984,1284049015,-0.304512,0.368928,0.831552,1.9425,2.625,-5.88,-3.528,3.464,56.848003,inter_set_rest,4,3.0,45044.0,322810.0,81168.0,-194.0,-120.0
2026-04-09 22:05:54.027237,189695,1284055929,1284057707,-0.304512,0.368928,0.831552,1.63625,2.42375,-5.87125,-3.528,3.464,56.848003,inter_set_rest,4,3.0,45044.0,322810.0,81168.0,-194.0,-120.0
2026-04-09 22:05:54.028701,189696,1284064935,1284066438,-0.306464,0.368928,0.8296,1.3825,2.3275,-5.60875,-4.064,3.792,56.936,inter_set_rest,4,3.0,45044.0,322810.0,81168.0,-194.0,-120.0
2026-04-09 22:05:54.053843,189706,1284080090,1284081388,-0.306464,0.368928,0.8296,2.00375,1.82,-5.6175,-4.064,3.792,56.936,inter_set_rest,4,3.0,45063.0,322297.0,80745.0,-175.0,-135.0
2026-04-09 22:05:54.058057,189707,1284089205,1284090227,-0.304512,0.366976,0.833504,2.49375,2.3975,-5.94125,-4.696,3.664,58.800003,inter_set_rest,4,3.0,45063.0,322297.0,80745.0,-175.0,-135.0
2026-04-09 22:05:54.060499,189708,1284098141,1284098968,-0.304512,0.366976,0.833504,2.2925,2.65125,-5.6875,-4.696,3.664,58.800003,inter_set_rest,4,3.0,45063.0,322297.0,80745.0,-175.0,-135.0
2026-04-09 22:05:54.089201,189709,1284112687,1284113895,-0.304512,0.366976,0.833504,2.275,2.87875,-5.48625,-4.856,3.32,58.248,inter_set_rest,4,3.0,45063.0,322297.0,80745.0,-175.0,-135.0
2026-04-09 22:05:54.093475,189710,1284121613,1284122601,-0.304512,0.363072,0.833504,2.625,2.695,-5.41625,-4.448,4.104,58.768,inter_set_rest,4,3.0,45063.0,322297.0,80745.0,-175.0,-135.0
2026-04-09 22:05:54.095055,189711,1284130580,1284131291,-0.304512,0.363072,0.833504,2.26625,3.01875,-5.1275,-4.448,4.104,58.768,inter_set_rest,4,3.0,45063.0,322297.0,80745.0,-175.0,-135.0
2026-04-09 22:05:54.099268,189712,1284139909,1284142074,-0.304512,0.363072,0.833504,2.17,2.4325,-5.13625,-4.448,4.104,58.768,inter_set_rest,4,3.0,45063.0,322297.0,80745.0,-175.0,-135.0
2026-04-09 22:05:54.127717,189713,1284154483,1284154978,-0.30256,0.365024,0.837408,1.98625,2.415,-5.43375,-3.792,3.992,56.864002,inter_set_rest,4,3.0,45063.0,322297.0,80745.0,-175.0,-135.0
2026-04-09 22:05:54.132204,189714,1284163991,1284165738,-0.308416,0.365024,0.833504,2.275,2.40625,-5.36375,-3.472,4.0,56.640003,inter_set_rest,4,3.0,45063.0,322297.0,80745.0,-175.0,-135.0
2026-04-09 22:05:54.133717,189715,1284172970,1284174432,-0.308416,0.365024,0.833504,2.09125,2.35375,-5.88,-3.472,4.0,56.640003,inter_set_rest,4,3.0,45063.0,322297.0,80745.0,-175.0,-135.0
2026-04-09 22:05:54.163459,189726,1284182124,1284183247,-0.30256,0.365024,0.837408,2.1175,2.345,-5.76625,-4.056,3.464,56.600002,inter_set_rest,4,3.0,44937.0,324799.0,82605.0,-181.0,-124.0
2026-04-09 22:05:54.165798,189727,1284196648,1284198285,-0.30256,0.365024,0.837408,2.4675,2.52,-6.04625,-4.056,3.464,56.600002,inter_set_rest,4,3.0,44937.0,324799.0,82605.0,-181.0,-124.0
2026-04-09 22:05:54.168048,189728,1284205606,1284207039,-0.308416,0.365024,0.825696,3.07125,2.03875,-6.55375,-3.872,3.848,56.864002,inter_set_rest,4,3.0,44937.0,324799.0,82605.0,-181.0,-124.0
2026-04-09 22:05:54.169578,189729,1284214537,1284215782,-0.308416,0.365024,0.825696,2.7825,2.17875,-6.335,-3.872,3.848,56.864002,inter_set_rest,4,3.0,44937.0,324799.0,82605.0,-181.0,-124.0
2026-04-09 22:05:54.199932,189730,1284228996,1284230721,-0.30256,0.365024,0.8296,2.625,2.10875,-6.01125,-3.656,3.832,56.288002,inter_set_rest,4,3.0,44937.0,324799.0,82605.0,-181.0,-124.0
2026-04-09 22:05:54.202195,189731,1284237933,1284239447,-0.30256,0.365024,0.8296,2.835,2.09125,-6.1425,-3.656,3.832,56.288002,inter_set_rest,4,3.0,44937.0,324799.0,82605.0,-181.0,-124.0
2026-04-09 22:05:54.206980,189732,1284246838,1284248124,-0.304512,0.368928,0.835456,2.24875,2.4325,-6.2125,-3.976,3.496,56.968002,inter_set_rest,4,3.0,44937.0,324799.0,82605.0,-181.0,-124.0
2026-04-09 22:05:54.246161,189733,1284261404,1284263044,-0.304512,0.366976,0.835456,1.93375,2.16125,-6.16875,-6.024,3.624,57.408,inter_set_rest,4,3.0,44937.0,324799.0,82605.0,-181.0,-124.0
2026-04-09 22:05:54.248493,189734,1284270366,1284271758,-0.304512,0.366976,0.835456,2.12625,2.59,-6.265,-4.744,3.624,57.408,inter_set_rest,4,3.0,44937.0,324799.0,82605.0,-181.0,-124.0
2026-04-09 22:05:54.278489,189744,1284279320,1284280468,-0.304512,0.366976,0.835456,2.5025,2.6425,-6.08125,-4.744,3.624,57.408,inter_set_rest,4,3.0,45011.0,323821.0,81945.0,-175.0,-141.0
2026-04-09 22:05:54.280097,189745,1284293814,1284295493,-0.306464,0.366976,0.8296,2.345,2.73875,-5.97625,-4.408,3.456,56.856003,inter_set_rest,4,3.0,45011.0,323821.0,81945.0,-175.0,-141.0
2026-04-09 22:05:54.284358,189746,1284302876,1284304228,-0.30256,0.36112,0.8296,2.135,2.72125,-6.36125,-3.544,3.96,57.416004,inter_set_rest,4,3.0,45011.0,323821.0,81945.0,-175.0,-141.0
2026-04-09 22:05:54.286011,189747,1284311873,1284312967,-0.30256,0.36112,0.8296,2.1175,2.6775,-6.1425,-3.544,3.96,57.416004,inter_set_rest,4,3.0,45011.0,323821.0,81945.0,-175.0,-141.0
2026-04-09 22:05:54.287615,189748,1284320785,1284321652,-0.30256,0.36112,0.8296,2.17875,2.6775,-6.02,-3.544,3.96,57.416004,inter_set_rest,4,3.0,45011.0,323821.0,81945.0,-175.0,-141.0
2026-04-09 22:05:54.290827,189749,1284335315,1284336664,-0.306464,0.365024,0.831552,2.2225,2.7475,-6.5975,-4.8,4.064,58.600002,inter_set_rest,4,3.0,45011.0,323821.0,81945.0,-175.0,-141.0
2026-04-09 22:05:54.321245,189750,1284344241,1284345382,-0.308416,0.366976,0.8296,2.87875,3.05375,-6.3,-5.2,3.848,57.952003,inter_set_rest,4,3.0,45011.0,323821.0,81945.0,-175.0,-141.0
2026-04-09 22:05:54.325702,189751,1284353158,1284354059,-0.308416,0.366976,0.8296,2.4675,2.66875,-5.95,-5.2,3.848,57.952003,inter_set_rest,4,3.0,45011.0,323821.0,81945.0,-175.0,-141.0
2026-04-09 22:05:54.327214,189752,1284367649,1284368953,-0.298656,0.368928,0.83936,2.205,2.45875,-6.055,-3.6,3.504,56.72,inter_set_rest,4,3.0,45011.0,323821.0,81945.0,-175.0,-141.0
2026-04-09 22:05:54.328883,189753,1284376566,1284377699,-0.298656,0.368928,0.83936,2.52875,2.56375,-5.74875,-3.6,3.504,56.72,inter_set_rest,4,3.0,45011.0,323821.0,81945.0,-175.0,-141.0
2026-04-09 22:05:54.355210,189763,1284385657,1284386489,-0.304512,0.368928,0.8296,2.35375,2.75625,-5.67875,-3.912,3.4,58.04,inter_set_rest,4,3.0,45009.0,323381.0,81576.0,-173.0,-120.0
2026-04-09 22:05:54.359194,189764,1284400156,1284401507,-0.304512,0.368928,0.8296,2.30125,2.33625,-5.88875,-3.912,3.4,58.04,inter_set_rest,4,3.0,45009.0,323381.0,81576.0,-173.0,-120.0
2026-04-09 22:05:54.365511,189765,1284409080,1284410241,-0.300608,0.366976,0.8296,2.51125,2.52875,-5.775,-4.896,3.504,57.072002,inter_set_rest,4,3.0,45009.0,323381.0,81576.0,-173.0,-120.0
2026-04-09 22:05:54.371680,189766,1284418004,1284418963,-0.300608,0.366976,0.8296,2.73875,2.98375,-6.125,-4.896,3.504,57.072002,inter_set_rest,4,3.0,45009.0,323381.0,81576.0,-173.0,-120.0
2026-04-09 22:05:54.400427,189767,1284432510,1284433882,-0.304512,0.366976,0.831552,2.2575,2.77375,-6.265,-4.72,3.448,57.88,inter_set_rest,4,3.0,45009.0,323381.0,81576.0,-173.0,-120.0
2026-04-09 22:05:54.405559,189768,1284441429,1284442570,-0.304512,0.366976,0.833504,2.625,2.30125,-5.74,-4.72,3.448,57.88,inter_set_rest,4,3.0,45009.0,323381.0,81576.0,-173.0,-120.0
2026-04-09 22:05:54.407036,189769,1284450360,1284451243,-0.30256,0.366976,0.833504,2.485,2.9225,-5.5475,-3.592,4.064,56.992004,inter_set_rest,4,3.0,45009.0,323381.0,81576.0,-173.0,-120.0
2026-04-09 22:05:54.412163,189770,1284459313,1284459984,-0.30256,0.366976,0.833504,2.24,2.52875,-5.85375,-3.592,4.064,56.992004,inter_set_rest,4,3.0,45009.0,323381.0,81576.0,-173.0,-120.0
2026-04-09 22:05:54.442401,189771,1284474148,1284474939,-0.30256,0.37088,0.831552,2.205,2.7825,-5.9675,-4.224,3.84,56.736004,inter_set_rest,4,3.0,45009.0,323381.0,81576.0,-173.0,-120.0
2026-04-09 22:05:54.472689,189782,1284483621,1284485716,-0.30256,0.366976,0.833504,2.38,2.7475,-6.22125,-3.848,3.632,56.896004,inter_set_rest,4,3.0,45010.0,323256.0,81490.0,-176.0,-131.0
2026-04-09 22:05:54.473525,189783,1284492568,1284494481,-0.30256,0.366976,0.833504,2.30125,2.40625,-6.25625,-3.848,3.632,56.896004,inter_set_rest,4,3.0,45010.0,323256.0,81490.0,-176.0,-131.0
2026-04-09 22:05:54.475088,189784,1284507129,1284509393,-0.306464,0.366976,0.831552,2.52,2.0475,-6.4225,-4.048,3.432,56.768,inter_set_rest,4,3.0,45010.0,323256.0,81490.0,-176.0,-131.0
2026-04-09 22:05:54.480074,189785,1284516060,1284518132,-0.306464,0.366976,0.831552,2.73875,2.135,-5.92375,-4.048,3.432,56.768,inter_set_rest,4,3.0,45010.0,323256.0,81490.0,-176.0,-131.0
2026-04-09 22:05:54.484067,189786,1284524990,1284526766,-0.304512,0.366976,0.833504,2.59875,2.66,-6.1075,-3.88,3.68,56.808002,inter_set_rest,4,3.0,45010.0,323256.0,81490.0,-176.0,-131.0
2026-04-09 22:05:54.510312,189787,1284534009,1284535489,-0.304512,0.366976,0.833504,2.275,2.66875,-5.83625,-3.88,3.68,56.808002,inter_set_rest,4,3.0,45010.0,323256.0,81490.0,-176.0,-131.0
2026-04-09 22:05:54.548709,189788,1284548479,1284550392,-0.304512,0.365024,0.827648,1.86375,2.82625,-5.67,-3.936,3.976,56.616,inter_set_rest,4,3.0,45010.0,323256.0,81490.0,-176.0,-131.0
2026-04-09 22:05:54.551387,189789,1284557404,1284559414,-0.304512,0.365024,0.827648,2.02125,2.415,-5.39875,-3.936,3.976,56.616,inter_set_rest,4,3.0,45010.0,323256.0,81490.0,-176.0,-131.0
2026-04-09 22:05:54.556659,189790,1284566352,1284568142,-0.30256,0.366976,0.825696,1.9425,2.4675,-5.48625,-4.16,3.704,57.104004,inter_set_rest,4,3.0,45010.0,323256.0,81490.0,-176.0,-131.0
2026-04-09 22:05:54.616031,189800,1284581005,1284583329,-0.30256,0.366976,0.825696,2.02125,2.80875,-5.565,-4.16,3.704,57.104004,inter_set_rest,4,3.0,45046.0,322653.0,81020.0,-181.0,-131.0
2026-04-09 22:05:54.617716,189801,1284589933,1284592070,-0.304512,0.368928,0.8296,2.59875,2.58125,-5.94125,-3.776,3.896,57.512,inter_set_rest,4,3.0,45046.0,322653.0,81020.0,-181.0,-131.0
2026-04-09 22:05:54.621867,189802,1284598872,1284600799,-0.304512,0.368928,0.8296,2.40625,2.37125,-5.99375,-3.776,3.896,57.512,inter_set_rest,4,3.0,45046.0,322653.0,81020.0,-181.0,-131.0
2026-04-09 22:05:54.623478,189803,1284613349,1284613688,-0.298656,0.366976,0.827648,2.52875,2.45,-5.7575,-5.656,4.128,58.072002,inter_set_rest,4,3.0,45046.0,322653.0,81020.0,-181.0,-131.0
2026-04-09 22:05:54.625307,189804,1284622663,1284624450,-0.30256,0.365024,0.823744,2.14375,2.51125,-5.92375,-5.656,3.616,57.112003,inter_set_rest,4,3.0,45046.0,322653.0,81020.0,-181.0,-131.0
2026-04-09 22:05:54.645738,189805,1284631594,1284633149,-0.30256,0.365024,0.823744,1.79375,2.80875,-6.1425,-3.992,3.616,57.112003,inter_set_rest,4,3.0,45046.0,322653.0,81020.0,-181.0,-131.0
2026-04-09 22:05:54.647232,189806,1284640509,1284641876,-0.30256,0.365024,0.823744,2.1,2.72125,-6.0025,-3.992,3.616,57.112003,inter_set_rest,4,3.0,45046.0,322653.0,81020.0,-181.0,-131.0
2026-04-09 22:05:54.648839,189807,1284655031,1284656819,-0.304512,0.366976,0.823744,1.68875,2.52875,-5.25,-5.576,3.968,58.008003,inter_set_rest,4,3.0,45046.0,322653.0,81020.0,-181.0,-131.0
2026-04-09 22:05:54.652309,189808,1284664061,1284665585,-0.298656,0.365024,0.831552,1.98625,2.695,-5.5125,-4.16,3.712,56.408,inter_set_rest,4,3.0,45046.0,322653.0,81020.0,-181.0,-131.0
2026-04-09 22:05:54.665749,189809,1284673067,1284674312,-0.298656,0.365024,0.831552,1.82875,2.59875,-5.60875,-4.16,3.712,56.408,inter_set_rest,4,3.0,45046.0,322653.0,81020.0,-181.0,-131.0
2026-04-09 22:05:54.689769,189819,1284687680,1284689342,-0.298656,0.37088,0.833504,2.1875,2.485,-5.10125,-4.328,3.424,57.088,inter_set_rest,4,3.0,45065.0,322277.0,80763.0,-177.0,-139.0
2026-04-09 22:05:54.691465,189820,1284696589,1284698065,-0.298656,0.37088,0.833504,2.2575,2.40625,-5.565,-4.328,3.424,57.088,inter_set_rest,4,3.0,45065.0,322277.0,80763.0,-177.0,-139.0
2026-04-09 22:05:54.695568,189821,1284705563,1284706852,-0.30256,0.368928,0.833504,2.205,2.6425,-5.59125,-4.864,3.744,58.128002,inter_set_rest,4,3.0,45065.0,322277.0,80763.0,-177.0,-139.0
2026-04-09 22:05:54.697150,189822,1284720087,1284721852,-0.30256,0.368928,0.833504,2.415,2.8525,-5.32875,-4.864,3.744,58.128002,inter_set_rest,4,3.0,45065.0,322277.0,80763.0,-177.0,-139.0
2026-04-09 22:05:54.704196,189823,1284729078,1284730592,-0.304512,0.366976,0.833504,2.86125,2.72125,-5.41625,-4.752,4.272,58.528004,inter_set_rest,4,3.0,45065.0,322277.0,80763.0,-177.0,-139.0
2026-04-09 22:05:54.710559,189824,1284738014,1284739325,-0.304512,0.366976,0.833504,2.52,2.59875,-5.18875,-4.752,4.272,58.528004,inter_set_rest,4,3.0,45065.0,322277.0,80763.0,-177.0,-139.0
2026-04-09 22:05:54.712810,189825,1284746937,1284748104,-0.300608,0.363072,0.825696,2.1525,2.84375,-5.24125,-5.272,3.92,57.096004,inter_set_rest,4,3.0,45065.0,322277.0,80763.0,-177.0,-139.0
2026-04-09 22:05:54.719828,189826,1284761447,1284763035,-0.300608,0.363072,0.825696,2.31875,2.8525,-5.08375,-5.272,3.92,57.096004,inter_set_rest,4,3.0,45065.0,322277.0,80763.0,-177.0,-139.0
2026-04-09 22:05:54.748191,189827,1284770421,1284771770,-0.30256,0.363072,0.827648,1.93375,3.08,-5.46,-5.352,3.736,57.608,inter_set_rest,4,3.0,45065.0,322277.0,80763.0,-177.0,-139.0
2026-04-09 22:05:54.749821,189828,1284779316,1284780472,-0.30256,0.363072,0.827648,1.89,3.03625,-5.46875,-5.352,3.736,57.608,inter_set_rest,4,3.0,45065.0,322277.0,80763.0,-177.0,-139.0
2026-04-09 22:05:54.787191,189839,1284793806,1284795394,-0.30256,0.365024,0.8296,2.5375,3.1325,-5.5125,-3.48,3.736,57.08,inter_set_rest,4,3.0,44943.0,324685.0,82524.0,-167.0,-129.0
2026-04-09 22:05:54.792968,189840,1284802869,1284804166,-0.30256,0.365024,0.8296,2.625,3.08875,-5.97625,-3.48,3.736,57.08,inter_set_rest,4,3.0,44943.0,324685.0,82524.0,-167.0,-129.0
2026-04-09 22:05:54.795015,189841,1284811827,1284812953,-0.304512,0.368928,0.837408,2.21375,3.36,-5.775,-4.152,3.8,56.360004,inter_set_rest,4,3.0,44943.0,324685.0,82524.0,-167.0,-129.0
2026-04-09 22:05:54.798457,189842,1284826344,1284827898,-0.30256,0.368928,0.837408,2.59875,3.43,-5.67,-4.24,3.816,57.208004,inter_set_rest,4,3.0,44943.0,324685.0,82524.0,-167.0,-129.0
2026-04-09 22:05:54.800356,189843,1284835369,1284836619,-0.30256,0.368928,0.837408,2.79125,3.24625,-6.2475,-4.24,3.816,57.208004,inter_set_rest,4,3.0,44943.0,324685.0,82524.0,-167.0,-129.0
2026-04-09 22:05:54.803646,189844,1284844281,1284845374,-0.300608,0.368928,0.8296,3.24625,3.6225,-6.3175,-4.888,3.808,59.408,inter_set_rest,4,3.0,44943.0,324685.0,82524.0,-167.0,-129.0
2026-04-09 22:05:54.806222,189845,1284853245,1284854156,-0.300608,0.368928,0.8296,2.79125,3.815,-5.87125,-4.888,3.808,59.408,inter_set_rest,4,3.0,44943.0,324685.0,82524.0,-167.0,-129.0
2026-04-09 22:05:54.851481,189846,1284867725,1284869079,-0.30256,0.368928,0.825696,2.33625,3.815,-5.88875,-3.792,3.408,58.184002,inter_set_rest,4,3.0,44943.0,324685.0,82524.0,-167.0,-129.0
2026-04-09 22:05:54.855051,189847,1284876627,1284877772,-0.30256,0.368928,0.825696,2.31,3.36875,-5.775,-3.792,3.408,58.184002,inter_set_rest,4,3.0,44943.0,324685.0,82524.0,-167.0,-129.0
2026-04-09 22:05:54.896264,189857,1284886063,1284887072,-0.304512,0.366976,0.823744,2.47625,3.43875,-5.74,-3.92,3.912,56.584003,inter_set_rest,4,3.0,45031.0,323511.0,81688.0,-181.0,-133.0
2026-04-09 22:05:54.898813,189858,1284900677,1284902030,-0.304512,0.366976,0.823744,2.49375,3.71,-5.74,-3.92,3.912,56.584003,inter_set_rest,4,3.0,45031.0,323511.0,81688.0,-181.0,-133.0
2026-04-09 22:05:54.901356,189859,1284909641,1284910689,-0.304512,0.366976,0.8296,2.2225,3.94625,-5.31125,-4.272,3.376,56.912003,inter_set_rest,4,3.0,45031.0,323511.0,81688.0,-181.0,-133.0
2026-04-09 22:05:54.903754,189860,1284918787,1284919416,-0.304512,0.366976,0.8296,2.23125,3.82375,-5.78375,-4.272,3.376,56.912003,inter_set_rest,4,3.0,45031.0,323511.0,81688.0,-181.0,-133.0
2026-04-09 22:05:54.906297,189861,1284928105,1284930248,-0.304512,0.363072,0.831552,2.6775,3.38625,-6.1075,-6.024,3.512,58.776,inter_set_rest,4,3.0,45031.0,323511.0,81688.0,-181.0,-133.0
2026-04-09 22:05:54.908829,189862,1284942619,1284943141,-0.304512,0.363072,0.831552,2.4325,4.0075,-5.775,-6.024,3.512,58.776,inter_set_rest,4,3.0,45031.0,323511.0,81688.0,-181.0,-133.0
2026-04-09 22:05:54.911333,189863,1284952119,1284953921,-0.306464,0.365024,0.831552,2.89625,3.4475,-6.195,-5.632,3.464,58.272003,inter_set_rest,4,3.0,45031.0,323511.0,81688.0,-181.0,-133.0
2026-04-09 22:05:54.913800,189864,1284961108,1284962677,-0.306464,0.365024,0.831552,2.56375,3.3425,-6.06375,-5.632,3.464,58.272003,inter_set_rest,4,3.0,45031.0,323511.0,81688.0,-181.0,-133.0
2026-04-09 22:05:54.943989,189865,1284975627,1284977591,-0.30256,0.366976,0.833504,2.61625,3.71,-5.74,-3.936,3.56,57.248,inter_set_rest,4,3.0,45031.0,323511.0,81688.0,-181.0,-133.0
2026-04-09 22:05:54.976230,189875,1284985180,1284986341,-0.30256,0.368928,0.833504,2.58125,3.6575,-5.4775,-4.296,3.584,56.992004,inter_set_rest,4,3.0,45062.0,323046.0,81339.0,-184.0,-140.0
2026-04-09 22:05:54.978872,189876,1284994196,1284995026,-0.30256,0.368928,0.833504,2.6775,3.675,-5.67,-4.296,3.584,56.992004,inter_set_rest,4,3.0,45062.0,323046.0,81339.0,-184.0,-140.0
2026-04-09 22:05:54.981307,189877,1285003638,1285005865,-0.30256,0.368928,0.8296,2.28375,3.99,-5.39,-4.296,3.584,56.992004,inter_set_rest,4,3.0,45062.0,323046.0,81339.0,-184.0,-140.0
2026-04-09 22:05:54.987518,189878,1285018152,1285018732,-0.30256,0.368928,0.8296,2.65125,3.82375,-5.39875,-3.928,3.472,57.456,inter_set_rest,4,3.0,45062.0,323046.0,81339.0,-184.0,-140.0
2026-04-09 22:05:54.990074,189879,1285027368,1285029548,-0.304512,0.37088,0.833504,2.555,3.01,-5.81,-3.872,3.92,58.08,inter_set_rest,4,3.0,45062.0,323046.0,81339.0,-184.0,-140.0
2026-04-09 22:05:54.992509,189880,1285036327,1285038286,-0.304512,0.37088,0.833504,2.0825,3.42125,-5.59125,-3.872,3.92,58.08,inter_set_rest,4,3.0,45062.0,323046.0,81339.0,-184.0,-140.0
2026-04-09 22:05:54.998771,189881,1285045282,1285047071,-0.30256,0.368928,0.825696,1.56625,3.36875,-5.53,-4.472,3.704,58.912003,inter_set_rest,4,3.0,45062.0,323046.0,81339.0,-184.0,-140.0
2026-04-09 22:05:55.028983,189882,1285059800,1285061980,-0.30256,0.368928,0.825696,1.8375,3.47375,-5.80125,-4.472,3.704,58.912003,inter_set_rest,4,3.0,45062.0,323046.0,81339.0,-184.0,-140.0
2026-04-09 22:05:55.032514,189883,1285068744,1285070677,-0.306464,0.37088,0.825696,2.4325,3.36,-5.94125,-3.968,3.632,56.688004,inter_set_rest,4,3.0,45062.0,323046.0,81339.0,-184.0,-140.0
2026-04-09 22:05:55.036087,189884,1285077671,1285079360,-0.306464,0.37088,0.825696,2.24875,3.12375,-6.22125,-3.968,3.632,56.688004,inter_set_rest,4,3.0,45062.0,323046.0,81339.0,-184.0,-140.0
2026-04-09 22:05:55.066341,189895,1285092769,1285094457,-0.30256,0.366976,0.827648,2.63375,3.2025,-6.2125,-4.48,3.52,57.160004,inter_set_rest,4,3.0,45082.0,322853.0,81192.0,-177.0,-135.0
2026-04-09 22:05:55.068728,189896,1285101708,1285103173,-0.30256,0.366976,0.827648,2.51125,3.0275,-6.20375,-4.48,3.52,57.160004,inter_set_rest,4,3.0,45082.0,322853.0,81192.0,-177.0,-135.0
2026-04-09 22:05:55.071312,189897,1285110734,1285111905,-0.30256,0.366976,0.827648,2.70375,3.10625,-6.0725,-4.544,3.36,58.168003,inter_set_rest,4,3.0,45082.0,322853.0,81192.0,-177.0,-135.0
2026-04-09 22:05:55.076215,189898,1285119655,1285120613,-0.30256,0.366976,0.827648,2.38,3.14125,-6.04625,-4.544,3.36,58.168003,inter_set_rest,4,3.0,45082.0,322853.0,81192.0,-177.0,-135.0
2026-04-09 22:05:55.106583,189899,1285134238,1285135723,-0.306464,0.366976,0.831552,2.2925,2.94,-5.8625,-4.992,3.832,57.856003,inter_set_rest,4,3.0,45082.0,322853.0,81192.0,-177.0,-135.0
2026-04-09 22:05:55.110074,189900,1285143192,1285144449,-0.306464,0.366976,0.831552,1.925,3.33375,-5.635,-4.992,3.832,57.856003,inter_set_rest,4,3.0,45082.0,322853.0,81192.0,-177.0,-135.0
2026-04-09 22:05:55.112570,189901,1285152110,1285153181,-0.304512,0.365024,0.8296,1.9425,3.605,-5.845,-3.808,3.064,56.904003,inter_set_rest,4,3.0,45082.0,322853.0,81192.0,-177.0,-135.0
2026-04-09 22:05:55.150276,189902,1285166611,1285168121,-0.304512,0.365024,0.831552,1.715,3.4825,-5.635,-3.648,4.032,54.968002,inter_set_rest,4,3.0,45082.0,322853.0,81192.0,-177.0,-135.0
2026-04-09 22:05:55.153757,189903,1285175607,1285176827,-0.304512,0.365024,0.831552,1.75,3.08,-5.6875,-3.648,4.032,54.968002,inter_set_rest,4,3.0,45082.0,322853.0,81192.0,-177.0,-135.0
2026-04-09 22:05:55.178728,189913,1285185005,1285185652,-0.304512,0.366976,0.827648,2.35375,2.975,-5.50375,-3.648,4.032,54.968002,inter_set_rest,4,3.0,45117.0,322054.0,80612.0,-185.0,-129.0
2026-04-09 22:05:55.181448,189914,1285194304,1285196538,-0.308416,0.366976,0.827648,1.98625,3.465,-5.80125,-3.368,3.344,59.032,inter_set_rest,4,3.0,45117.0,322054.0,80612.0,-185.0,-129.0
2026-04-09 22:05:55.183729,189915,1285208824,1285209472,-0.308416,0.366976,0.825696,2.09125,3.6925,-5.8275,-4.848,3.456,59.224003,inter_set_rest,4,3.0,45117.0,322054.0,80612.0,-185.0,-129.0
2026-04-09 22:05:55.186372,189916,1285218256,1285220291,-0.308416,0.366976,0.825696,1.855,3.71,-5.27625,-4.848,3.456,59.224003,inter_set_rest,4,3.0,45117.0,322054.0,80612.0,-185.0,-129.0
2026-04-09 22:05:55.188909,189917,1285227193,1285229031,-0.306464,0.365024,0.827648,2.23125,3.54375,-5.8275,-5.208,3.696,59.696003,inter_set_rest,4,3.0,45117.0,322054.0,80612.0,-185.0,-129.0
2026-04-09 22:05:55.219886,189918,1285241736,1285243975,-0.306464,0.365024,0.827648,2.21375,3.43,-5.88875,-5.208,3.696,59.696003,inter_set_rest,4,3.0,45117.0,322054.0,80612.0,-185.0,-129.0
2026-04-09 22:05:55.222203,189919,1285250702,1285252680,-0.30256,0.368928,0.8296,2.33625,3.35125,-5.62625,-4.6,3.832,56.784004,inter_set_rest,4,3.0,45117.0,322054.0,80612.0,-185.0,-129.0
2026-04-09 22:05:55.226662,189920,1285259619,1285261412,-0.30256,0.368928,0.8296,2.5025,3.43,-5.18875,-4.6,3.832,56.784004,inter_set_rest,4,3.0,45117.0,322054.0,80612.0,-185.0,-129.0
2026-04-09 22:05:55.230455,189921,1285274132,1285276295,-0.308416,0.368928,0.825696,2.33625,3.57,-5.34625,-3.976,3.936,56.856003,inter_set_rest,4,3.0,45117.0,322054.0,80612.0,-185.0,-129.0
2026-04-09 22:05:55.282527,189931,1285283070,1285285015,-0.308416,0.368928,0.825696,2.7475,3.38625,-5.69625,-3.976,3.936,56.856003,inter_set_rest,4,3.0,45159.0,321943.0,80495.0,-179.0,-131.0
2026-04-09 22:05:55.286859,189932,1285292088,1285293786,-0.306464,0.366976,0.833504,2.52875,3.45625,-5.565,-3.552,3.816,56.856003,inter_set_rest,4,3.0,45159.0,321943.0,80495.0,-179.0,-131.0
2026-04-09 22:05:55.288527,189933,1285301021,1285302507,-0.306464,0.366976,0.833504,2.5025,3.26375,-5.2325,-3.552,3.816,56.856003,inter_set_rest,4,3.0,45159.0,321943.0,80495.0,-179.0,-131.0
2026-04-09 22:05:55.290146,189934,1285315494,1285317390,-0.306464,0.366976,0.831552,1.9775,3.10625,-5.48625,-3.232,3.56,56.664,inter_set_rest,4,3.0,45159.0,321943.0,80495.0,-179.0,-131.0
2026-04-09 22:05:55.294279,189935,1285324443,1285326129,-0.306464,0.366976,0.831552,1.77625,3.45625,-5.57375,-3.232,3.56,56.664,inter_set_rest,4,3.0,45159.0,321943.0,80495.0,-179.0,-131.0
2026-04-09 22:05:55.295929,189936,1285333391,1285334842,-0.308416,0.363072,0.8296,2.17,3.61375,-5.39,-2.76,3.992,57.344,inter_set_rest,4,3.0,45159.0,321943.0,80495.0,-179.0,-131.0
2026-04-09 22:05:55.326146,189937,1285347877,1285349766,-0.308416,0.365024,0.827648,2.3625,3.63125,-5.3725,-3.568,3.608,57.232002,inter_set_rest,4,3.0,45159.0,321943.0,80495.0,-179.0,-131.0
2026-04-09 22:05:55.328468,189938,1285356798,1285358496,-0.308416,0.365024,0.827648,2.03875,3.6225,-5.3725,-3.568,3.608,57.232002,inter_set_rest,4,3.0,45159.0,321943.0,80495.0,-179.0,-131.0
2026-04-09 22:05:55.333070,189939,1285365703,1285367199,-0.314272,0.365024,0.8296,1.96875,4.05125,-5.36375,-3.624,3.68,56.328003,inter_set_rest,4,3.0,45159.0,321943.0,80495.0,-179.0,-131.0
2026-04-09 22:05:55.335714,189940,1285380207,1285382152,-0.314272,0.365024,0.8296,2.345,3.5875,-5.5125,-3.624,3.68,56.328003,inter_set_rest,4,3.0,45159.0,321943.0,80495.0,-179.0,-131.0
2026-04-09 22:05:55.363852,189951,1285389325,1285390988,-0.31232,0.366976,0.823744,2.275,3.89375,-5.88,-4.112,3.328,57.88,inter_set_rest,4,3.0,45056.0,324017.0,82055.0,-172.0,-132.0
2026-04-09 22:05:55.370059,189952,1285398287,1285399715,-0.31232,0.366976,0.823744,2.05625,3.6575,-5.85375,-4.112,3.328,57.88,inter_set_rest,4,3.0,45056.0,324017.0,82055.0,-172.0,-132.0
2026-04-09 22:05:55.372581,189953,1285407267,1285408461,-0.31232,0.366976,0.823744,2.24875,3.70125,-5.775,-4.648,3.6,57.488003,inter_set_rest,4,3.0,45056.0,324017.0,82055.0,-172.0,-132.0
2026-04-09 22:05:55.375846,189954,1285421785,1285423397,-0.31232,0.366976,0.823744,2.415,3.395,-5.8275,-4.648,3.6,57.488003,inter_set_rest,4,3.0,45056.0,324017.0,82055.0,-172.0,-132.0
2026-04-09 22:05:55.407481,189955,1285430744,1285432108,-0.31232,0.365024,0.821792,2.205,3.6925,-5.6525,-5.232,3.416,58.224003,inter_set_rest,4,3.0,45056.0,324017.0,82055.0,-172.0,-132.0
2026-04-09 22:05:55.409738,189956,1285439700,1285440791,-0.31232,0.365024,0.821792,2.26625,3.535,-5.73125,-5.232,3.416,58.224003,inter_set_rest,4,3.0,45056.0,324017.0,82055.0,-172.0,-132.0
2026-04-09 22:05:55.414670,189957,1285454161,1285455711,-0.314272,0.366976,0.823744,1.9425,3.64875,-5.71375,-4.248,3.288,56.944004,inter_set_rest,4,3.0,45056.0,324017.0,82055.0,-172.0,-132.0
2026-04-09 22:05:55.447320,189958,1285463069,1285464479,-0.314272,0.366976,0.823744,2.17,3.52625,-5.78375,-4.248,3.288,56.944004,inter_set_rest,4,3.0,45056.0,324017.0,82055.0,-172.0,-132.0
2026-04-09 22:05:55.451919,189959,1285472041,1285473167,-0.310368,0.368928,0.835456,2.1175,3.64,-5.74,-4.576,3.712,57.856003,inter_set_rest,4,3.0,45056.0,324017.0,82055.0,-172.0,-132.0
2026-04-09 22:05:55.476821,189969,1285486957,1285488326,-0.310368,0.366976,0.833504,2.30125,3.6925,-5.95875,-3.568,3.984,58.120003,inter_set_rest,4,3.0,45130.0,322656.0,81097.0,-174.0,-127.0
2026-04-09 22:05:55.478571,189970,1285495971,1285497061,-0.310368,0.366976,0.833504,2.3975,3.43875,-5.8275,-3.568,3.984,58.120003,inter_set_rest,4,3.0,45130.0,322656.0,81097.0,-174.0,-127.0
2026-04-09 22:05:55.480092,189971,1285505002,1285505791,-0.310368,0.366976,0.833504,2.135,3.07125,-5.775,-3.568,3.984,58.120003,inter_set_rest,4,3.0,45130.0,322656.0,81097.0,-174.0,-127.0
2026-04-09 22:05:55.484381,189972,1285514467,1285516632,-0.306464,0.368928,0.833504,2.02125,2.80875,-6.5625,-4.376,3.304,58.664,inter_set_rest,4,3.0,45130.0,322656.0,81097.0,-174.0,-127.0
2026-04-09 22:05:55.485888,189973,1285528971,1285529485,-0.306464,0.368928,0.835456,2.485,2.8875,-6.51,-4.464,3.768,59.064003,inter_set_rest,4,3.0,45130.0,322656.0,81097.0,-174.0,-127.0
2026-04-09 22:05:55.515239,189974,1285538377,1285540284,-0.306464,0.368928,0.835456,2.98375,2.86125,-6.41375,-4.464,3.768,59.064003,inter_set_rest,4,3.0,45130.0,322656.0,81097.0,-174.0,-127.0
2026-04-09 22:05:55.519566,189975,1285547319,1285548973,-0.308416,0.368928,0.8296,3.12375,2.8175,-6.23875,-3.984,3.792,54.488003,inter_set_rest,4,3.0,45130.0,322656.0,81097.0,-174.0,-127.0
2026-04-09 22:05:55.522836,189976,1285556226,1285557783,-0.308416,0.368928,0.8296,3.045,3.045,-6.16875,-3.984,3.792,54.488003,inter_set_rest,4,3.0,45130.0,322656.0,81097.0,-174.0,-127.0
2026-04-09 22:05:55.525132,189977,1285570697,1285572719,-0.310368,0.37088,0.825696,2.51125,3.26375,-6.15125,-3.984,3.256,56.88,inter_set_rest,4,3.0,45130.0,322656.0,81097.0,-174.0,-127.0
2026-04-09 22:05:55.533846,189978,1285579690,1285581461,-0.310368,0.37088,0.825696,2.2225,3.3775,-6.1425,-3.984,3.256,56.88,inter_set_rest,4,3.0,45130.0,322656.0,81097.0,-174.0,-127.0
2026-04-09 22:05:55.561264,189988,1285589184,1285590223,-0.306464,0.37088,0.831552,2.37125,3.59625,-5.81875,-4.56,3.888,56.656002,inter_set_rest,4,3.0,45128.0,322434.0,80909.0,-176.0,-125.0
2026-04-09 22:05:55.563778,189989,1285603726,1285605225,-0.306464,0.37088,0.831552,2.59875,3.66625,-5.915,-4.56,3.888,56.656002,inter_set_rest,4,3.0,45128.0,322434.0,80909.0,-176.0,-125.0
2026-04-09 22:05:55.566299,189990,1285612738,1285613939,-0.304512,0.366976,0.8296,2.40625,3.4125,-5.845,-3.144,4.024,56.320004,inter_set_rest,4,3.0,45128.0,322434.0,80909.0,-176.0,-125.0
2026-04-09 22:05:55.598100,189991,1285621702,1285622650,-0.304512,0.366976,0.8296,2.38,3.52625,-5.705,-3.144,4.024,56.320004,inter_set_rest,4,3.0,45128.0,322434.0,80909.0,-176.0,-125.0
2026-04-09 22:05:55.600466,189992,1285636178,1285637538,-0.308416,0.37088,0.831552,2.37125,3.5,-5.76625,-3.528,3.456,56.888004,inter_set_rest,4,3.0,45128.0,322434.0,80909.0,-176.0,-125.0
2026-04-09 22:05:55.602753,189993,1285645134,1285646243,-0.308416,0.37088,0.831552,2.2225,3.87625,-5.915,-3.528,3.456,56.888004,inter_set_rest,4,3.0,45128.0,322434.0,80909.0,-176.0,-125.0
2026-04-09 22:05:55.607559,189994,1285654053,1285654965,-0.304512,0.374784,0.83936,2.58125,4.31375,-5.6175,-3.512,3.376,56.624004,inter_set_rest,4,3.0,45128.0,322434.0,80909.0,-176.0,-125.0
2026-04-09 22:05:55.637794,189995,1285663014,1285663687,-0.304512,0.374784,0.83936,3.19375,4.27875,-5.635,-3.512,3.376,56.624004,inter_set_rest,4,3.0,45128.0,322434.0,80909.0,-176.0,-125.0
2026-04-09 22:05:55.641311,189996,1285677837,1285678580,-0.296704,0.374784,0.845216,3.40375,4.52375,-6.13375,-3.728,3.92,56.696003,inter_set_rest,4,3.0,45128.0,322434.0,80909.0,-176.0,-125.0
2026-04-09 22:05:55.689984,190007,1285687196,1285689461,-0.2928,0.376736,0.853024,3.6925,5.29375,-6.48375,-3.688,3.68,59.640003,inter_set_rest,4,3.0,45206.0,322588.0,81034.0,-179.0,-127.0
2026-04-09 22:05:55.692570,190008,1285696253,1285698189,-0.2928,0.376736,0.853024,3.5525,6.86875,-5.99375,-3.688,3.68,59.640003,inter_set_rest,4,3.0,45206.0,322588.0,81034.0,-179.0,-127.0
2026-04-09 22:05:55.695047,190009,1285710796,1285713085,-0.298656,0.366976,0.837408,2.24875,8.21625,-3.9725,-4.288,3.624,58.064003,inter_set_rest,4,3.0,45206.0,322588.0,81034.0,-179.0,-127.0
2026-04-09 22:05:55.697563,190010,1285719790,1285721839,-0.298656,0.366976,0.837408,0.39375,9.72125,-2.7825,-4.288,3.624,58.064003,inter_set_rest,4,3.0,45206.0,322588.0,81034.0,-179.0,-127.0
2026-04-09 22:05:55.702587,190011,1285728741,1285730540,-0.31232,0.363072,0.833504,-0.9275,11.41,-2.73,-3.512,3.216,58.656002,inter_set_rest,4,3.0,45206.0,322588.0,81034.0,-179.0,-127.0
2026-04-09 22:05:55.705070,190012,1285737690,1285739281,-0.31232,0.363072,0.833504,-0.7,11.97,-2.94875,-3.512,3.216,58.656002,inter_set_rest,4,3.0,45206.0,322588.0,81034.0,-179.0,-127.0
2026-04-09 22:05:55.707624,190013,1285752307,1285754199,-0.310368,0.368928,0.81984,0.25375,11.55,-3.255,-4.008,4.096,56.392002,inter_set_rest,4,3.0,45206.0,322588.0,81034.0,-179.0,-127.0
2026-04-09 22:05:55.746532,190014,1285761453,1285762939,-0.310368,0.368928,0.81984,0.76125,11.480001,-3.77125,-4.008,4.096,56.392002,inter_set_rest,4,3.0,45206.0,322588.0,81034.0,-179.0,-127.0
2026-04-09 22:05:55.750097,190015,1285772274,1285773828,-0.327936,0.368928,0.835456,1.26,11.2175,-4.87375,-3.088,4.096,56.224003,inter_set_rest,4,3.0,45206.0,322588.0,81034.0,-179.0,-127.0
2026-04-09 22:05:55.752583,190016,1285781222,1285782558,-0.327936,0.368928,0.835456,1.60125,11.1825,-5.69625,-3.088,4.096,56.224003,inter_set_rest,4,3.0,45206.0,322588.0,81034.0,-179.0,-127.0
2026-04-09 22:05:55.777468,190026,1285796219,1285797503,-0.363072,0.36112,0.823744,2.31,10.57,-6.04625,-2.624,3.752,56.616,inter_set_rest,4,3.0,44782.0,321520.0,79862.0,-164.0,-137.0
2026-04-09 22:05:55.780284,190027,1285805243,1285806283,-0.363072,0.36112,0.823744,2.52,10.57,-6.51875,-2.624,3.752,56.616,inter_set_rest,4,3.0,44782.0,321520.0,79862.0,-164.0,-137.0
2026-04-09 22:05:55.782564,190028,1285814347,1285815017,-0.357216,0.329888,0.813984,3.2725,9.415,-6.825,-3.224,3.288,55.136,inter_set_rest,4,3.0,44782.0,321520.0,79862.0,-164.0,-137.0
2026-04-09 22:05:55.785079,190029,1285823683,1285825801,-0.357216,0.329888,0.813984,6.30875,8.14625,-5.52125,-3.224,3.288,55.136,inter_set_rest,4,3.0,44782.0,321520.0,79862.0,-164.0,-137.0
2026-04-09 22:05:55.791449,190030,1285838213,1285838689,-0.36112,0.33184,0.815936,7.55125,6.64125,-4.4625,-3.56,3.584,56.920002,inter_set_rest,4,3.0,44782.0,321520.0,79862.0,-164.0,-137.0
2026-04-09 22:05:55.821563,190031,1285847648,1285849445,-0.353312,0.349408,0.804224,7.48125,5.92375,-5.67875,-3.016,3.064,57.768,inter_set_rest,4,3.0,44782.0,321520.0,79862.0,-164.0,-137.0
2026-04-09 22:05:55.825052,190032,1285856641,1285858221,-0.353312,0.349408,0.804224,8.6275,4.68125,-5.845,-3.016,3.064,57.768,inter_set_rest,4,3.0,44782.0,321520.0,79862.0,-164.0,-137.0
2026-04-09 22:05:55.827573,190033,1285865583,1285866927,-0.353312,0.349408,0.804224,10.31625,4.17375,-5.64375,-3.016,3.064,57.768,inter_set_rest,4,3.0,44782.0,321520.0,79862.0,-164.0,-137.0
2026-04-09 22:05:55.855201,190034,1285880075,1285881813,-0.325984,0.376736,0.81984,10.87625,3.4125,-5.8975,-3.304,3.328,56.192,inter_set_rest,4,3.0,44782.0,321520.0,79862.0,-164.0,-137.0
2026-04-09 22:05:55.885077,190044,1285889249,1285890637,-0.333792,0.386496,0.821792,9.65125,3.255,-6.44875,-2.968,4.04,56.488003,inter_set_rest,4,3.0,44193.0,324705.0,81761.0,-168.0,-131.0
2026-04-09 22:05:55.887590,190045,1285898314,1285899385,-0.333792,0.386496,0.821792,8.575,3.57875,-6.74625,-2.968,4.04,56.488003,inter_set_rest,4,3.0,44193.0,324705.0,81761.0,-168.0,-131.0
2026-04-09 22:05:55.890087,190046,1285912827,1285914264,-0.327936,0.378688,0.825696,7.105,4.26125,-6.60625,-2.816,3.84,56.856003,inter_set_rest,4,3.0,44193.0,324705.0,81761.0,-168.0,-131.0
2026-04-09 22:05:55.892560,190047,1285921877,1285923015,-0.327936,0.378688,0.825696,5.81875,4.38375,-6.43125,-2.816,3.84,56.856003,inter_set_rest,4,3.0,44193.0,324705.0,81761.0,-168.0,-131.0
2026-04-09 22:05:55.895058,190048,1285930879,1285931691,-0.325984,0.382592,0.823744,5.34625,4.41,-6.405,-3.608,3.376,56.840004,inter_set_rest,4,3.0,44193.0,324705.0,81761.0,-168.0,-131.0
2026-04-09 22:05:55.897566,190049,1285939797,1285940425,-0.325984,0.382592,0.823744,4.62875,4.01625,-6.16875,-3.608,3.376,56.840004,inter_set_rest,4,3.0,44193.0,324705.0,81761.0,-168.0,-131.0
2026-04-09 22:05:55.928989,190050,1285954784,1285955398,-0.325984,0.372832,0.802272,3.82375,3.54375,-6.3175,-2.72,3.216,56.688004,inter_set_rest,4,3.0,44193.0,324705.0,81761.0,-168.0,-131.0
2026-04-09 22:05:55.932555,190051,1285964024,1285966145,-0.325984,0.372832,0.802272,2.905,2.93125,-5.59125,-2.72,3.216,56.688004,inter_set_rest,4,3.0,44193.0,324705.0,81761.0,-168.0,-131.0
2026-04-09 22:05:55.935042,190052,1285972935,1285974819,-0.320128,0.37088,0.802272,1.82,2.37125,-6.04625,-3.032,3.248,57.160004,inter_set_rest,4,3.0,44193.0,324705.0,81761.0,-168.0,-131.0
2026-04-09 22:05:55.970000,190063,1285987463,1285989724,-0.320128,0.374784,0.827648,2.03875,1.9075,-6.405,-3.032,3.248,57.160004,inter_set_rest,4,3.0,44061.0,328636.0,84663.0,-168.0,-142.0
2026-04-09 22:05:55.972588,190064,1285996467,1285998489,-0.33184,0.374784,0.827648,1.75,1.3825,-5.495,-3.144,3.6,56.232002,inter_set_rest,4,3.0,44061.0,328636.0,84663.0,-168.0,-142.0
2026-04-09 22:05:55.975070,190065,1286005583,1286007218,-0.33184,0.374784,0.827648,2.975,1.1725,-5.18875,-3.144,3.6,56.232002,inter_set_rest,4,3.0,44061.0,328636.0,84663.0,-168.0,-142.0
2026-04-09 22:05:55.977569,190066,1286014512,1286015929,-0.320128,0.368928,0.817888,4.8825,0.13125,-4.24375,-2.888,3.472,58.024002,inter_set_rest,4,3.0,44061.0,328636.0,84663.0,-168.0,-142.0
2026-04-09 22:05:55.983860,190067,1286028991,1286030824,-0.318176,0.376736,0.812032,5.5475,-0.175,-3.2725,-2.808,3.464,58.064003,inter_set_rest,4,3.0,44061.0,328636.0,84663.0,-168.0,-142.0
2026-04-09 22:05:56.047059,190068,1286037950,1286039570,-0.318176,0.376736,0.812032,6.58875,-0.21875,-1.785,-2.808,3.464,58.064003,inter_set_rest,4,3.0,44061.0,328636.0,84663.0,-168.0,-142.0
2026-04-09 22:05:56.048631,190069,1286046878,1286048281,-0.318176,0.376736,0.812032,6.15125,-1.2075,-0.2975,-2.808,3.464,58.064003,inter_set_rest,4,3.0,44061.0,328636.0,84663.0,-168.0,-142.0
2026-04-09 22:05:56.050142,190070,1286061297,1286063170,-0.324032,0.37088,0.802272,6.86875,-1.785,-0.32375,-3.104,3.504,56.752003,inter_set_rest,4,3.0,44061.0,328636.0,84663.0,-168.0,-142.0
2026-04-09 22:05:56.054360,190071,1286070230,1286071847,-0.31232,0.388448,0.792512,6.76375,-2.1,0.4375,-3.36,2.888,56.928,inter_set_rest,4,3.0,44061.0,328636.0,84663.0,-168.0,-142.0
2026-04-09 22:05:56.056132,190072,1286079165,1286080564,-0.31232,0.388448,0.792512,6.13375,-2.59,0.91,-3.36,2.888,56.928,inter_set_rest,4,3.0,44061.0,328636.0,84663.0,-168.0,-142.0
2026-04-09 22:05:56.082595,190082,1286093817,1286095836,-0.306464,0.402112,0.808128,5.075,-2.28375,0.91875,-3.712,3.592,56.728004,inter_set_rest,4,3.0,44461.0,328022.0,84455.0,-154.0,-134.0
2026-04-09 22:05:56.085151,190083,1286102832,1286104558,-0.306464,0.402112,0.808128,3.66625,-1.96875,0.9625,-3.712,3.592,56.728004,inter_set_rest,4,3.0,44461.0,328022.0,84455.0,-154.0,-134.0
2026-04-09 22:05:56.086021,190084,1286111824,1286113343,-0.300608,0.425536,0.841312,2.94,-2.4325,1.19875,-4.216,2.88,58.24,inter_set_rest,4,3.0,44461.0,328022.0,84455.0,-154.0,-134.0
2026-04-09 22:05:56.087626,190085,1286126334,1286128290,-0.300608,0.425536,0.841312,3.52625,-2.3275,2.0125,-4.216,2.88,58.24,inter_set_rest,4,3.0,44461.0,328022.0,84455.0,-154.0,-134.0
2026-04-09 22:05:56.090875,190086,1286135276,1286136981,-0.296704,0.41968,0.831552,3.325,-1.58375,2.47625,-4.368,3.192,58.624004,inter_set_rest,4,3.0,44461.0,328022.0,84455.0,-154.0,-134.0
2026-04-09 22:05:56.099287,190087,1286144213,1286145738,-0.296704,0.41968,0.831552,2.80875,-0.41125,3.45625,-4.368,3.192,58.624004,inter_set_rest,4,3.0,44461.0,328022.0,84455.0,-154.0,-134.0
2026-04-09 22:05:56.127973,190088,1286153167,1286154458,-0.298656,0.404064,0.8296,1.47,0.49,3.08875,-3.4,2.904,57.184002,inter_set_rest,4,3.0,44461.0,328022.0,84455.0,-154.0,-134.0
2026-04-09 22:05:56.132301,190089,1286167641,1286169369,-0.298656,0.404064,0.8296,0.4375,0.86625,2.58125,-3.4,2.904,57.184002,inter_set_rest,4,3.0,44461.0,328022.0,84455.0,-154.0,-134.0
2026-04-09 22:05:56.133781,190090,1286176539,1286178050,-0.308416,0.402112,0.823744,-0.76125,2.135,2.835,-3.104,3.256,56.4,inter_set_rest,4,3.0,44461.0,328022.0,84455.0,-154.0,-134.0
2026-04-09 22:05:56.141950,190091,1286185461,1286186780,-0.308416,0.402112,0.823744,-1.65375,2.49375,3.35125,-3.104,3.256,56.4,inter_set_rest,4,3.0,44461.0,328022.0,84455.0,-154.0,-134.0
2026-04-09 22:05:56.166839,190101,1286200049,1286201747,-0.31232,0.394304,0.81984,-2.21375,2.3625,3.2025,-3.008,3.44,56.712,inter_set_rest,4,3.0,44702.0,326901.0,83825.0,-170.0,-145.0
2026-04-09 22:05:56.168619,190102,1286208977,1286210481,-0.32208,0.378688,0.821792,-2.56375,2.38875,2.9925,-4.256,3.24,59.424004,inter_set_rest,4,3.0,44702.0,326901.0,83825.0,-170.0,-145.0
2026-04-09 22:05:56.170944,190103,1286217946,1286219209,-0.32208,0.378688,0.821792,-2.70375,1.86375,3.4475,-4.256,3.24,59.424004,inter_set_rest,4,3.0,44702.0,326901.0,83825.0,-170.0,-145.0
2026-04-09 22:05:56.201369,190104,1286232492,1286234170,-0.325984,0.38064,0.817888,-2.05625,1.26,4.13,-3.208,3.144,58.224003,inter_set_rest,4,3.0,44702.0,326901.0,83825.0,-170.0,-145.0
2026-04-09 22:05:56.203526,190105,1286241400,1286242909,-0.325984,0.38064,0.817888,-1.295,0.77,5.04875,-3.208,3.144,58.224003,inter_set_rest,4,3.0,44702.0,326901.0,83825.0,-170.0,-145.0
2026-04-09 22:05:56.208004,190106,1286250307,1286251605,-0.337696,0.382592,0.831552,-0.25375,-0.5075,5.50375,-3.392,2.872,56.840004,inter_set_rest,4,3.0,44702.0,326901.0,83825.0,-170.0,-145.0
2026-04-09 22:05:56.236864,190107,1286264860,1286266571,-0.337696,0.382592,0.831552,0.455,-1.68875,4.87375,-3.392,2.872,56.840004,inter_set_rest,4,3.0,44702.0,326901.0,83825.0,-170.0,-145.0
2026-04-09 22:05:56.240660,190108,1286273772,1286275301,-0.345504,0.384544,0.821792,1.70625,-2.4675,4.41,-3.008,3.248,56.976,inter_set_rest,4,3.0,44702.0,326901.0,83825.0,-170.0,-145.0
2026-04-09 22:05:56.243468,190109,1286282694,1286284007,-0.345504,0.384544,0.821792,3.395,-3.8675,3.885,-3.008,3.248,56.976,inter_set_rest,4,3.0,44702.0,326901.0,83825.0,-170.0,-145.0
2026-04-09 22:05:56.270016,190120,1286291704,1286292987,-0.339648,0.372832,0.802272,4.8125,-5.10125,3.43,-2.856,3.016,56.792004,inter_set_rest,4,3.0,44863.0,324977.0,82576.0,-183.0,-124.0
2026-04-09 22:05:56.272601,190121,1286306228,1286308048,-0.339648,0.372832,0.802272,5.87125,-6.67625,2.31875,-2.856,3.016,56.792004,inter_set_rest,4,3.0,44863.0,324977.0,82576.0,-183.0,-124.0
2026-04-09 22:05:56.275017,190122,1286315159,1286316758,-0.339648,0.38064,0.806176,6.7725,-8.96875,2.2225,-4.144,3.568,58.176003,inter_set_rest,4,3.0,44863.0,324977.0,82576.0,-183.0,-124.0
2026-04-09 22:05:56.279008,190123,1286324195,1286325497,-0.339648,0.38064,0.806176,6.97375,-10.57,1.9075,-4.144,3.568,58.176003,inter_set_rest,4,3.0,44863.0,324977.0,82576.0,-183.0,-124.0
2026-04-09 22:05:56.310333,190124,1286338678,1286340449,-0.335744,0.415776,0.841312,7.595,-12.69625,0.84,-4.736,3.328,58.168003,inter_set_rest,4,3.0,44863.0,324977.0,82576.0,-183.0,-124.0
2026-04-09 22:05:56.345352,190125,1286347584,1286349160,-0.335744,0.415776,0.841312,7.84,-14.63,-1.33,-4.736,3.328,58.168003,inter_set_rest,4,3.0,44863.0,324977.0,82576.0,-183.0,-124.0
2026-04-09 22:05:56.348932,190126,1286356499,1286357852,-0.325984,0.40016,0.83936,8.68,-16.70375,-3.84125,-3.824,3.344,57.064003,inter_set_rest,4,3.0,44863.0,324977.0,82576.0,-183.0,-124.0
2026-04-09 22:05:56.351354,190127,1286371004,1286372775,-0.32208,0.398208,0.845216,9.87,-19.425,-5.0575,-4.072,3.024,57.064003,inter_set_rest,4,3.0,44863.0,324977.0,82576.0,-183.0,-124.0
2026-04-09 22:05:56.353877,190128,1286379947,1286381490,-0.32208,0.398208,0.845216,10.99875,-21.65625,-5.80125,-4.072,3.024,57.064003,inter_set_rest,4,3.0,44863.0,324977.0,82576.0,-183.0,-124.0
2026-04-09 22:05:56.356400,190129,1286388876,1286390205,-0.32208,0.3904,0.847168,10.63125,-23.275,-6.2475,-4.072,3.024,57.064003,inter_set_rest,4,3.0,44863.0,324977.0,82576.0,-183.0,-124.0
2026-04-09 22:05:56.381389,190139,1286397797,1286398908,-0.318176,0.3904,0.847168,9.511251,-24.955,-6.93,-4.856,2.904,56.304,inter_set_rest,4,3.0,44971.0,323631.0,81776.0,-175.0,-137.0
2026-04-09 22:05:56.383786,190140,1286412378,1286413842,-0.31232,0.388448,0.847168,8.23375,-25.45375,-6.23875,-4.904,2.728,58.664,inter_set_rest,4,3.0,44971.0,323631.0,81776.0,-175.0,-137.0
2026-04-09 22:05:56.386368,190141,1286421307,1286422547,-0.31232,0.388448,0.847168,6.16,-25.08625,-5.495,-4.904,2.728,58.664,inter_set_rest,4,3.0,44971.0,323631.0,81776.0,-175.0,-137.0
2026-04-09 22:05:56.388879,190142,1286430255,1286431275,-0.298656,0.394304,0.85888,4.68125,-25.47125,-5.565,-5.792,2.336,58.160004,inter_set_rest,4,3.0,44971.0,323631.0,81776.0,-175.0,-137.0
2026-04-09 22:05:56.419199,190143,1286444774,1286446196,-0.298656,0.394304,0.85888,3.6925,-25.66375,-5.18,-5.792,2.336,58.160004,inter_set_rest,4,3.0,44971.0,323631.0,81776.0,-175.0,-137.0
2026-04-09 22:05:56.422625,190144,1286453701,1286454888,-0.294752,0.3904,0.866688,2.38875,-24.45625,-4.96125,-5.32,3.432,57.232002,inter_set_rest,4,3.0,44971.0,323631.0,81776.0,-175.0,-137.0
2026-04-09 22:05:56.425123,190145,1286462630,1286463585,-0.294752,0.3904,0.866688,0.4025,-22.39125,-3.85875,-5.32,3.432,57.232002,inter_set_rest,4,3.0,44971.0,323631.0,81776.0,-175.0,-137.0
2026-04-09 22:05:56.430153,190146,1286477164,1286478530,-0.279136,0.36112,0.851072,-1.86375,-20.1075,-3.045,-5.168,3.552,57.136,inter_set_rest,4,3.0,44971.0,323631.0,81776.0,-175.0,-137.0
2026-04-09 22:05:56.460333,190147,1286486193,1286487231,-0.279136,0.36112,0.851072,-2.6425,-19.01375,-2.45875,-5.168,3.552,57.136,inter_set_rest,4,3.0,44971.0,323631.0,81776.0,-175.0,-137.0
2026-04-09 22:05:56.491324,190157,1286495254,1286496076,-0.257664,0.349408,0.837408,-3.78,-17.8325,-1.155,-5.344,3.224,57.104004,inter_set_rest,4,3.0,45246.0,324341.0,82435.0,-173.0,-127.0
2026-04-09 22:05:56.493821,190158,1286504289,1286504892,-0.257664,0.349408,0.837408,-3.56125,-16.96625,-1.07625,-5.344,3.224,57.104004,inter_set_rest,4,3.0,45246.0,324341.0,82435.0,-173.0,-127.0
2026-04-09 22:05:56.496375,190159,1286519425,1286519898,-0.247904,0.35136,0.833504,-2.84375,-16.1,-2.58125,-5.648,2.624,56.752003,inter_set_rest,4,3.0,45246.0,324341.0,82435.0,-173.0,-127.0
2026-04-09 22:05:56.502706,190160,1286528835,1286530769,-0.247904,0.35136,0.833504,-1.0675,-15.855001,-4.655,-5.648,2.624,56.752003,inter_set_rest,4,3.0,45246.0,324341.0,82435.0,-173.0,-127.0
2026-04-09 22:05:56.505045,190161,1286537755,1286539494,-0.232288,0.359168,0.827648,2.02125,-16.45,-7.1225,-7.28,3.16,59.624004,inter_set_rest,4,3.0,45246.0,324341.0,82435.0,-173.0,-127.0
2026-04-09 22:05:56.507588,190162,1286552232,1286554415,-0.226432,0.355264,0.8296,4.34875,-16.68625,-8.3475,-7.68,2.928,59.536003,inter_set_rest,4,3.0,45246.0,324341.0,82435.0,-173.0,-127.0
2026-04-09 22:05:56.537743,190163,1286561291,1286563106,-0.226432,0.355264,0.8296,6.8425,-16.9925,-9.12625,-7.68,2.928,59.536003,inter_set_rest,4,3.0,45246.0,324341.0,82435.0,-173.0,-127.0
2026-04-09 22:05:56.541421,190164,1286570322,1286571814,-0.216672,0.368928,0.835456,8.54,-17.5175,-9.9925,-6.88,3.432,56.432003,inter_set_rest,4,3.0,45246.0,324341.0,82435.0,-173.0,-127.0
2026-04-09 22:05:56.543795,190165,1286579298,1286580516,-0.216672,0.368928,0.835456,10.0275,-18.48,-10.87625,-6.88,3.432,56.432003,inter_set_rest,4,3.0,45246.0,324341.0,82435.0,-173.0,-127.0
2026-04-09 22:05:56.571326,190176,1286594198,1286595474,-0.206912,0.388448,0.847168,11.13875,-18.99625,-11.261251,-6.616,2.912,56.984,inter_set_rest,4,3.0,45166.0,324063.0,82234.0,-177.0,-124.0
2026-04-09 22:05:56.573797,190177,1286603235,1286604297,-0.206912,0.388448,0.847168,11.78625,-19.67,-11.1125,-6.616,2.912,56.984,inter_set_rest,4,3.0,45166.0,324063.0,82234.0,-177.0,-124.0
2026-04-09 22:05:56.576315,190178,1286612196,1286613050,-0.203008,0.3904,0.833504,11.865,-20.64125,-11.41875,-8.824,2.52,58.728004,inter_set_rest,4,3.0,45166.0,324063.0,82234.0,-177.0,-124.0
2026-04-09 22:05:56.578814,190179,1286621780,1286623817,-0.203008,0.3904,0.833504,12.18,-21.02625,-11.40125,-8.824,2.52,58.728004,inter_set_rest,4,3.0,45166.0,324063.0,82234.0,-177.0,-124.0
2026-04-09 22:05:56.609138,190180,1286636298,1286636672,-0.181536,0.392352,0.808128,11.59375,-21.44625,-10.54375,-8.928,3.016,58.56,inter_set_rest,4,3.0,45166.0,324063.0,82234.0,-177.0,-124.0
2026-04-09 22:05:56.612654,190181,1286645579,1286647486,-0.181536,0.392352,0.808128,12.2325,-21.18375,-10.64875,-8.928,3.016,58.56,inter_set_rest,4,3.0,45166.0,324063.0,82234.0,-177.0,-124.0
2026-04-09 22:05:56.647677,190182,1286654497,1286656178,-0.160064,0.406016,0.804224,12.32,-20.81625,-10.68375,-7.960001,2.304,57.016003,inter_set_rest,4,3.0,45166.0,324063.0,82234.0,-177.0,-124.0
2026-04-09 22:05:56.650167,190183,1286669045,1286671080,-0.160064,0.406016,0.804224,12.845,-19.897501,-11.2525,-7.960001,2.304,57.016003,inter_set_rest,4,3.0,45166.0,324063.0,82234.0,-177.0,-124.0
2026-04-09 22:05:56.652573,190184,1286677963,1286679783,-0.154208,0.415776,0.806176,13.50125,-18.43625,-12.17125,-8.0,2.512,56.840004,inter_set_rest,4,3.0,45166.0,324063.0,82234.0,-177.0,-124.0
2026-04-09 22:05:56.666448,190185,1286686896,1286688470,-0.154208,0.415776,0.806176,14.16625,-17.745,-12.69625,-8.0,2.512,56.840004,inter_set_rest,4,3.0,45166.0,324063.0,82234.0,-177.0,-124.0
2026-04-09 22:05:56.693149,190195,1286696197,1286697288,-0.1464,0.427488,0.821792,14.55125,-16.45875,-13.23875,-8.168,2.288,56.736004,inter_set_rest,4,3.0,45040.0,322090.0,80651.0,-167.0,-127.0
2026-04-09 22:05:56.694869,190196,1286710751,1286712244,-0.144448,0.435296,0.808128,14.735,-14.63,-13.53625,-8.84,2.36,57.928,inter_set_rest,4,3.0,45040.0,322090.0,80651.0,-167.0,-127.0
2026-04-09 22:05:56.696455,190197,1286719695,1286720940,-0.144448,0.435296,0.808128,15.05,-13.83375,-13.58875,-8.84,2.36,57.928,inter_set_rest,4,3.0,45040.0,322090.0,80651.0,-167.0,-127.0
2026-04-09 22:05:56.699875,190198,1286728705,1286729723,-0.144448,0.435296,0.808128,15.81125,-12.8275,-14.2975,-8.84,2.36,57.928,inter_set_rest,4,3.0,45040.0,322090.0,80651.0,-167.0,-127.0
2026-04-09 22:05:56.701434,190199,1286743306,1286744722,-0.142496,0.435296,0.81008,16.3275,-12.06625,-14.2275,-9.8,1.912,60.176003,inter_set_rest,4,3.0,45040.0,322090.0,80651.0,-167.0,-127.0
2026-04-09 22:05:56.706772,190200,1286752240,1286753433,-0.150304,0.433344,0.7808,17.185,-10.7975,-14.1925,-9.272,1.944,56.4,inter_set_rest,4,3.0,45040.0,322090.0,80651.0,-167.0,-127.0
2026-04-09 22:05:56.735322,190201,1286761200,1286762129,-0.150304,0.433344,0.7808,17.59625,-9.49375,-13.55375,-9.272,1.944,56.4,inter_set_rest,4,3.0,45040.0,322090.0,80651.0,-167.0,-127.0
2026-04-09 22:05:56.744491,190202,1286775692,1286776996,-0.158112,0.482144,0.813984,16.82625,-8.3475,-12.2675,-8.072001,1.752,56.976,inter_set_rest,4,3.0,45040.0,322090.0,80651.0,-167.0,-127.0
2026-04-09 22:05:56.746231,190203,1286784617,1286785732,-0.158112,0.482144,0.813984,16.0475,-7.60375,-11.03375,-8.072001,1.752,56.976,inter_set_rest,4,3.0,45040.0,322090.0,80651.0,-167.0,-127.0
2026-04-09 22:05:56.778596,190213,1286794106,1286794486,-0.158112,0.50752,0.823744,15.627501,-7.02625,-11.13875,-9.0,1.464,57.376003,inter_set_rest,4,3.0,44586.0,321502.0,79902.0,-180.0,-130.0
2026-04-09 22:05:56.780484,190214,1286803492,1286805361,-0.158112,0.50752,0.823744,15.05,-6.685,-11.3225,-9.0,1.464,57.376003,inter_set_rest,4,3.0,44586.0,321502.0,79902.0,-180.0,-130.0
2026-04-09 22:05:56.784423,190215,1286818002,1286820312,-0.158112,0.489952,0.798368,14.86625,-6.57125,-11.15625,-8.936001,1.728,57.272003,inter_set_rest,4,3.0,44586.0,321502.0,79902.0,-180.0,-130.0
2026-04-09 22:05:56.786869,190216,1286826947,1286829056,-0.158112,0.489952,0.798368,15.7325,-5.87125,-10.5,-8.936001,1.728,57.272003,inter_set_rest,4,3.0,44586.0,321502.0,79902.0,-180.0,-130.0
2026-04-09 22:05:56.793382,190217,1286835886,1286837747,-0.158112,0.491904,0.80032,16.7125,-5.6,-9.8175,-10.392,1.2,60.024002,inter_set_rest,4,3.0,44586.0,321502.0,79902.0,-180.0,-130.0
2026-04-09 22:05:56.821592,190218,1286850410,1286850748,-0.158112,0.491904,0.769088,17.7275,-6.11625,-9.80875,-10.392,1.2,60.024002,inter_set_rest,4,3.0,44586.0,321502.0,79902.0,-180.0,-130.0
2026-04-09 22:05:56.826109,190219,1286859641,1286861570,-0.148352,0.46848,0.77104,18.7775,-5.0925,-9.695,-9.608001,0.696,56.472004,inter_set_rest,4,3.0,44586.0,321502.0,79902.0,-180.0,-130.0
2026-04-09 22:05:56.827573,190220,1286868556,1286870299,-0.148352,0.46848,0.77104,18.90875,-3.045,-9.87,-9.608001,0.696,56.472004,inter_set_rest,4,3.0,44586.0,321502.0,79902.0,-180.0,-130.0
2026-04-09 22:05:56.834292,190221,1286877476,1286879028,-0.150304,0.489952,0.796416,17.31625,-1.47,-9.065,-9.56,0.456,57.280003,inter_set_rest,4,3.0,44586.0,321502.0,79902.0,-180.0,-130.0
2026-04-09 22:05:56.889875,190232,1286892014,1286894077,-0.160064,0.52704,0.831552,15.81125,-0.70875,-7.1225,-10.816001,1.0,58.888004,inter_set_rest,4,3.0,43527.0,323778.0,80563.0,-182.0,-133.0
2026-04-09 22:05:56.891458,190233,1286900957,1286902775,-0.160064,0.52704,0.831552,13.85125,-0.77,-5.46875,-10.816001,1.0,58.888004,inter_set_rest,4,3.0,43527.0,323778.0,80563.0,-182.0,-133.0
2026-04-09 22:05:56.895693,190234,1286909858,1286911503,-0.160064,0.52704,0.831552,12.6525,-0.665,-4.55875,-10.816001,1.0,58.888004,inter_set_rest,4,3.0,43527.0,323778.0,80563.0,-182.0,-133.0
2026-04-09 22:05:56.897394,190235,1286924357,1286926432,-0.152256,0.488,0.815936,13.83375,-1.35625,-2.5025,-9.328,0.896,60.648003,inter_set_rest,4,3.0,43527.0,323778.0,80563.0,-182.0,-133.0
2026-04-09 22:05:56.898891,190236,1286933393,1286935136,-0.138592,0.445056,0.786656,16.28375,-1.1725,-0.735,-9.88,0.088,57.088,inter_set_rest,4,3.0,43527.0,323778.0,80563.0,-182.0,-133.0
2026-04-09 22:05:56.903063,190237,1286942342,1286943862,-0.138592,0.445056,0.786656,17.36,-0.06125,1.32125,-9.88,0.088,57.088,inter_set_rest,4,3.0,43527.0,323778.0,80563.0,-182.0,-133.0
2026-04-09 22:05:56.946978,190238,1286956877,1286958832,-0.121024,0.484096,0.778848,17.08,1.51375,3.5,-9.424001,-0.224,57.344,inter_set_rest,4,3.0,43527.0,323778.0,80563.0,-182.0,-133.0
2026-04-09 22:05:56.948616,190239,1286965801,1286967519,-0.121024,0.484096,0.778848,14.9275,4.61125,4.8475,-9.424001,-0.224,57.344,inter_set_rest,4,3.0,43527.0,323778.0,80563.0,-182.0,-133.0
2026-04-09 22:05:56.950241,190240,1286974735,1286976238,-0.199104,0.523136,0.798368,9.49375,6.65,4.5325,-9.128,0.2,57.72,inter_set_rest,4,3.0,43527.0,323778.0,80563.0,-182.0,-133.0
2026-04-09 22:05:56.954497,190241,1286983634,1286984934,-0.199104,0.523136,0.798368,4.27875,5.88875,5.5825,-9.128,0.2,57.72,inter_set_rest,4,3.0,43527.0,323778.0,80563.0,-182.0,-133.0
2026-04-09 22:05:56.978585,190251,1286998322,1287000000,-0.162016,0.509472,0.772992,-1.2775,3.68375,7.8575,-9.440001,-0.104,57.304,inter_set_rest,4,3.0,41289.0,328069.0,81243.0,-173.0,-138.0
2026-04-09 22:05:56.980130,190252,1287007293,1287008867,-0.162016,0.509472,0.772992,-4.36625,0.14,9.0125,-9.440001,-0.104,57.304,inter_set_rest,4,3.0,41289.0,328069.0,81243.0,-173.0,-138.0
2026-04-09 22:05:56.984401,190253,1287016209,1287017601,-0.111264,0.482144,0.79056,-5.355,-2.14375,9.59875,-10.456,-0.088,58.472004,inter_set_rest,4,3.0,41289.0,328069.0,81243.0,-173.0,-138.0
2026-04-09 22:05:56.986912,190254,1287030711,1287032569,-0.111264,0.482144,0.79056,-6.25625,-2.275,8.89875,-10.456,-0.088,58.472004,inter_set_rest,4,3.0,41289.0,328069.0,81243.0,-173.0,-138.0
2026-04-09 22:05:57.015265,190255,1287039648,1287041284,-0.124928,0.552416,0.876448,-7.91875,-2.5025,9.5025,-10.344001,-0.184,58.272003,inter_set_rest,4,3.0,41289.0,328069.0,81243.0,-173.0,-138.0
2026-04-09 22:05:57.019803,190256,1287048547,1287049955,-0.124928,0.552416,0.876448,-8.25125,-3.78,10.63125,-10.344001,-0.184,58.272003,inter_set_rest,4,3.0,41289.0,328069.0,81243.0,-173.0,-138.0
2026-04-09 22:05:57.021378,190257,1287063062,1287064887,-0.140544,0.538752,0.856928,-7.035,-6.36125,10.605001,-9.76,0.608,57.104004,inter_set_rest,4,3.0,41289.0,328069.0,81243.0,-173.0,-138.0
2026-04-09 22:05:57.027968,190258,1287071999,1287073615,-0.115168,0.476288,0.788608,-4.99625,-7.51625,11.55,-9.76,0.336,58.808002,inter_set_rest,4,3.0,41289.0,328069.0,81243.0,-173.0,-138.0
2026-04-09 22:05:57.039239,190259,1287080920,1287082317,-0.115168,0.476288,0.788608,-3.00125,-8.35625,11.6375,-10.080001,0.336,58.808002,inter_set_rest,4,3.0,41289.0,328069.0,81243.0,-173.0,-138.0
2026-04-09 22:05:57.096954,190269,1287096085,1287097445,-0.089792,0.40992,0.759328,-1.89,-8.02375,11.025,-9.728001,0.152,57.328003,inter_set_rest,4,3.0,39274.0,324877.0,76477.0,-175.0,-125.0
2026-04-09 22:05:57.098671,190270,1287105051,1287106182,-0.089792,0.40992,0.759328,-1.015,-6.4575,9.31875,-9.728001,0.152,57.328003,inter_set_rest,4,3.0,39274.0,324877.0,76477.0,-175.0,-125.0
2026-04-09 22:05:57.100263,190271,1287113972,1287114869,-0.138592,0.474336,0.837408,-0.44625,-5.11,8.2425,-9.672001,0.216,57.04,inter_set_rest,4,3.0,39274.0,324877.0,76477.0,-175.0,-125.0
2026-04-09 22:05:57.104520,190272,1287122898,1287123561,-0.138592,0.474336,0.837408,-0.5425,-5.34625,8.89875,-9.672001,0.216,57.04,inter_set_rest,4,3.0,39274.0,324877.0,76477.0,-175.0,-125.0
2026-04-09 22:05:57.106121,190273,1287137727,1287138540,-0.216672,0.482144,0.845216,-0.70875,-7.27125,10.50875,-10.672001,0.616,58.056004,inter_set_rest,4,3.0,39274.0,324877.0,76477.0,-175.0,-125.0
2026-04-09 22:05:57.107665,190274,1287146640,1287147254,-0.216672,0.482144,0.845216,0.91,-10.92875,10.89375,-10.672001,0.616,58.056004,inter_set_rest,4,3.0,39274.0,324877.0,76477.0,-175.0,-125.0
2026-04-09 22:05:57.112317,190275,1287155873,1287158046,-0.140544,0.368928,0.646112,1.28625,-14.4725,5.24125,-10.104,0.36,56.992004,inter_set_rest,4,3.0,39274.0,324877.0,76477.0,-175.0,-125.0
2026-04-09 22:05:57.137091,190276,1287164829,1287166739,-0.140544,0.368928,0.646112,3.68375,-16.16125,5.31125,-10.104,0.36,56.992004,inter_set_rest,4,3.0,39274.0,324877.0,76477.0,-175.0,-125.0
2026-04-09 22:05:57.138498,190277,1287179292,1287179620,-0.142496,0.411872,0.745664,-3.73625,-16.135,13.886251,-10.096001,0.152,56.728004,inter_set_rest,4,3.0,39274.0,324877.0,76477.0,-175.0,-125.0
2026-04-09 22:05:57.144278,190278,1287188471,1287190374,-0.142496,0.411872,0.745664,-7.49,-15.365,2.24,-10.096001,0.152,56.728004,inter_set_rest,4,3.0,39274.0,324877.0,76477.0,-175.0,-125.0
2026-04-09 22:05:57.173594,190289,1287197637,1287199200,-0.191296,0.486048,0.895968,-9.31,-14.90125,3.54375,-9.648001,0.744,56.536003,inter_set_rest,4,3.0,38837.0,308012.0,64809.0,-184.0,-134.0
2026-04-09 22:05:57.175551,190290,1287212190,1287214110,-0.191296,0.3416,0.884256,-13.3175,-14.4375,9.5375,-9.648001,0.744,56.536003,inter_set_rest,4,3.0,38837.0,308012.0,64809.0,-184.0,-134.0
2026-04-09 22:05:57.179298,190291,1287221074,1287222816,-0.193248,0.3416,0.884256,-10.00125,-16.31,5.215,-10.192,0.392,57.008003,inter_set_rest,4,3.0,38837.0,308012.0,64809.0,-184.0,-134.0
2026-04-09 22:05:57.207832,190292,1287230068,1287231559,-0.193248,0.3416,0.884256,-0.49875,-20.5275,4.1125,-10.192,0.392,57.008003,inter_set_rest,4,3.0,38837.0,308012.0,64809.0,-184.0,-134.0
2026-04-09 22:05:57.211476,190293,1287244553,1287246512,-0.15616,0.44896,0.81008,6.37875,-23.59,5.66125,-11.152,0.496,54.520004,inter_set_rest,4,3.0,38837.0,308012.0,64809.0,-184.0,-134.0
2026-04-09 22:05:57.248837,190294,1287253459,1287255192,-0.134688,0.45872,0.833504,9.03,-24.84125,2.03,-10.736,-0.088,57.232002,inter_set_rest,4,3.0,38837.0,308012.0,64809.0,-184.0,-134.0
2026-04-09 22:05:57.251095,190295,1287262377,1287263879,-0.134688,0.45872,0.833504,14.51625,-22.61,0.81375,-10.736,-0.088,57.232002,inter_set_rest,4,3.0,38837.0,308012.0,64809.0,-184.0,-134.0
2026-04-09 22:05:57.255697,190296,1287271292,1287272575,-0.134688,0.45872,0.833504,5.39,-19.7575,3.01875,-10.736,-0.088,57.232002,inter_set_rest,4,3.0,38837.0,308012.0,64809.0,-184.0,-134.0
2026-04-09 22:05:57.257475,190297,1287285784,1287287525,-0.15616,0.417728,0.915488,-6.055,-16.82625,9.68625,-10.968,-0.008,57.800003,inter_set_rest,4,3.0,38837.0,308012.0,64809.0,-184.0,-134.0
2026-04-09 22:05:57.280541,190307,1287294702,1287296372,-0.16592,0.425536,0.83936,-4.61125,-17.745,12.3375,-11.224001,0.216,57.04,inter_set_rest,4,3.0,41084.0,295258.0,59080.0,-193.0,-132.0
2026-04-09 22:05:57.285571,190308,1287303685,1287305139,-0.16592,0.425536,0.83936,2.9225,-20.25625,8.26875,-11.224001,0.216,57.04,inter_set_rest,4,3.0,41084.0,295258.0,59080.0,-193.0,-132.0
2026-04-09 22:05:57.286398,190309,1287318292,1287320162,-0.10736,0.534848,0.821792,5.495,-23.10875,10.28125,-12.552001,-0.32,58.304005,inter_set_rest,4,3.0,41084.0,295258.0,59080.0,-193.0,-132.0
2026-04-09 22:05:57.289850,190310,1287327218,1287328901,-0.10736,0.534848,0.821792,6.0025,-26.460001,12.46,-12.552001,-0.32,58.304005,inter_set_rest,4,3.0,41084.0,295258.0,59080.0,-193.0,-132.0
2026-04-09 22:05:57.291748,190311,1287336199,1287337601,-0.109312,0.476288,0.862784,6.79875,-28.5425,11.33125,-12.472,0.552,58.416004,inter_set_rest,4,3.0,41084.0,295258.0,59080.0,-193.0,-132.0
2026-04-09 22:05:57.321650,190312,1287350695,1287352466,-0.109312,0.476288,0.862784,12.38125,-31.43875,10.42125,-12.472,0.552,58.416004,inter_set_rest,4,3.0,41084.0,295258.0,59080.0,-193.0,-132.0
2026-04-09 22:05:57.326122,190313,1287359635,1287361187,-0.07808,0.368928,0.890112,17.78,-34.50125,10.167501,-12.192,0.288,56.944004,inter_set_rest,4,3.0,41084.0,295258.0,59080.0,-193.0,-132.0
2026-04-09 22:05:57.327697,190314,1287368570,1287369891,-0.07808,0.368928,0.890112,22.46125,-38.54375,13.58,-12.192,0.288,56.944004,inter_set_rest,4,3.0,41084.0,295258.0,59080.0,-193.0,-132.0
2026-04-09 22:05:57.359778,190315,1287383097,1287384863,-0.015616,0.470432,0.882304,27.64125,-43.68875,10.1325,-12.8,-0.4,57.072002,inter_set_rest,4,3.0,41084.0,295258.0,59080.0,-193.0,-132.0
2026-04-09 22:05:57.360349,190316,1287392061,1287393627,-0.015616,0.470432,0.882304,27.36125,-48.06375,12.565,-12.8,-0.4,57.072002,inter_set_rest,4,3.0,41084.0,295258.0,59080.0,-193.0,-132.0
2026-04-09 22:05:57.387410,190326,1287401105,1287402437,0.003904,0.454816,0.864736,26.7575,-52.01,12.17125,-13.264001,-0.04,56.904003,inter_set_rest,4,3.0,40221.0,312317.0,70880.0,-180.0,-124.0
2026-04-09 22:05:57.388998,190327,1287410122,1287411158,0.003904,0.454816,0.864736,29.225,-55.5625,12.3025,-13.264001,-0.04,56.904003,inter_set_rest,4,3.0,40221.0,312317.0,70880.0,-180.0,-124.0
2026-04-09 22:05:57.393206,190328,1287424760,1287426086,0.052704,0.501664,0.804224,34.62375,-57.81125,15.51375,-14.728001,-0.72,56.608,inter_set_rest,4,3.0,40221.0,312317.0,70880.0,-180.0,-124.0
2026-04-09 22:05:57.394935,190329,1287433708,1287434839,0.064416,0.548512,0.8296,37.826252,-59.5525,15.23375,-14.480001,-0.496,57.088,inter_set_rest,4,3.0,40221.0,312317.0,70880.0,-180.0,-124.0
2026-04-09 22:05:57.396410,190330,1287442736,1287443570,0.064416,0.548512,0.8296,36.19875,-60.03375,17.78875,-14.480001,-0.496,57.088,inter_set_rest,4,3.0,40221.0,312317.0,70880.0,-180.0,-124.0
2026-04-09 22:05:57.430055,190331,1287457743,1287458474,0.119072,0.488,0.786656,34.79,-60.8825,18.45375,-15.136001,-1.272,56.784004,inter_set_rest,4,3.0,40221.0,312317.0,70880.0,-180.0,-124.0
2026-04-09 22:05:57.434466,190332,1287467066,1287469324,0.119072,0.488,0.786656,37.14375,-62.25625,17.4825,-15.136001,-1.272,56.784004,inter_set_rest,4,3.0,40221.0,312317.0,70880.0,-180.0,-124.0
2026-04-09 22:05:57.436045,190333,1287475989,1287478015,0.111264,0.511424,0.753472,40.15375,-62.95625,19.94125,-15.224001,-1.088,56.216003,inter_set_rest,4,3.0,40221.0,312317.0,70880.0,-180.0,-124.0
2026-04-09 22:05:57.440626,190334,1287484960,1287486769,0.111264,0.511424,0.753472,38.0975,-63.4725,21.1575,-15.224001,-1.088,56.216003,inter_set_rest,4,3.0,40221.0,312317.0,70880.0,-180.0,-124.0
2026-04-09 22:05:57.492668,190344,1287500163,1287501730,0.150304,0.460672,0.76128,34.99125,-63.58625,20.22125,-16.312,-1.232,55.992004,inter_set_rest,4,3.0,38499.0,339027.0,87375.0,-139.0,-130.0
2026-04-09 22:05:57.496949,190345,1287509157,1287510515,0.150304,0.460672,0.76128,38.50875,-64.5225,22.2425,-16.312,-1.232,55.992004,inter_set_rest,4,3.0,38499.0,339027.0,87375.0,-139.0,-130.0
2026-04-09 22:05:57.498738,190346,1287518096,1287519220,0.187392,0.548512,0.749568,44.765,-66.3425,24.22875,-17.344002,-1.424,56.064003,inter_set_rest,4,3.0,38499.0,339027.0,87375.0,-139.0,-130.0
2026-04-09 22:05:57.500191,190347,1287527057,1287527939,0.187392,0.548512,0.749568,50.02375,-66.6225,25.13,-17.344002,-1.424,56.064003,inter_set_rest,4,3.0,38499.0,339027.0,87375.0,-139.0,-130.0
2026-04-09 22:05:57.504424,190348,1287541789,1287542879,0.22448,0.552416,0.710528,51.56375,-66.3425,24.928751,-19.408,-1.768,58.064003,inter_set_rest,4,3.0,38499.0,339027.0,87375.0,-139.0,-130.0
2026-04-09 22:05:57.506872,190349,1287550704,1287551630,0.22448,0.552416,0.710528,52.40375,-65.485,25.9,-19.408,-1.768,58.064003,inter_set_rest,4,3.0,38499.0,339027.0,87375.0,-139.0,-130.0
2026-04-09 22:05:57.552622,190350,1287559660,1287560348,0.245952,0.548512,0.714432,54.9325,-65.6775,27.02875,-20.568,-2.504,57.048004,inter_set_rest,4,3.0,38499.0,339027.0,87375.0,-139.0,-130.0
2026-04-09 22:05:57.556923,190351,1287574531,1287575230,0.269376,0.57584,0.69296,57.68875,-66.045,29.60125,-19.192001,-3.288,55.712,inter_set_rest,4,3.0,38499.0,339027.0,87375.0,-139.0,-130.0
2026-04-09 22:05:57.558662,190352,1287583814,1287586003,0.269376,0.57584,0.69296,60.05125,-65.835,30.9225,-19.192001,-3.288,55.712,inter_set_rest,4,3.0,38499.0,339027.0,87375.0,-139.0,-130.0
2026-04-09 22:05:57.560217,190353,1287592759,1287594720,0.269376,0.57584,0.69296,64.5575,-66.1675,32.2525,-19.192001,-3.288,55.712,inter_set_rest,4,3.0,38499.0,339027.0,87375.0,-139.0,-130.0
2026-04-09 22:05:57.588678,190364,1287601830,1287603513,0.294752,0.618784,0.646112,69.34375,-65.42375,33.013752,-19.136002,-3.032,56.328003,inter_set_rest,4,3.0,37529.0,358257.0,99252.0,260.0,-145.0
2026-04-09 22:05:57.590451,190365,1287616446,1287618479,0.343552,0.64416,0.6344,73.35125,-64.3125,34.81625,-20.672,-3.408,56.2,inter_set_rest,4,3.0,37529.0,358257.0,99252.0,260.0,-145.0
2026-04-09 22:05:57.602736,190366,1287625460,1287627295,0.343552,0.64416,0.6344,72.1875,-62.30875,36.2775,-20.672,-3.408,56.2,inter_set_rest,4,3.0,37529.0,358257.0,99252.0,260.0,-145.0
2026-04-09 22:05:57.603626,190367,1287634494,1287636003,0.36112,0.571936,0.65392,64.16375,-59.395,36.785,-21.000002,-3.664,56.128002,inter_set_rest,4,3.0,37529.0,358257.0,99252.0,260.0,-145.0
2026-04-09 22:05:57.605219,190368,1287649024,1287650904,0.36112,0.571936,0.65392,58.40625,-56.2625,38.535,-21.000002,-3.664,56.128002,inter_set_rest,4,3.0,37529.0,358257.0,99252.0,260.0,-145.0
2026-04-09 22:05:57.636326,190369,1287657965,1287659608,0.382592,0.642208,0.646112,57.65375,-54.57375,40.8975,-21.84,-4.248,55.632004,inter_set_rest,4,3.0,37529.0,358257.0,99252.0,260.0,-145.0
2026-04-09 22:05:57.638633,190370,1287666889,1287668317,0.382592,0.642208,0.646112,59.28125,-52.17625,41.36125,-21.84,-4.248,55.632004,inter_set_rest,4,3.0,37529.0,358257.0,99252.0,260.0,-145.0
2026-04-09 22:05:57.643221,190371,1287681390,1287683203,0.392352,0.636352,0.571936,57.74125,-49.53375,40.20625,-21.424002,-4.272,54.352,inter_set_rest,4,3.0,37529.0,358257.0,99252.0,260.0,-145.0
2026-04-09 22:05:57.645655,190372,1287690329,1287691985,0.392352,0.636352,0.571936,54.50375,-46.8825,37.135,-21.424002,-4.272,54.352,inter_set_rest,4,3.0,37529.0,358257.0,99252.0,260.0,-145.0
2026-04-09 22:05:57.699535,190382,1287699565,1287700879,0.413824,0.61488,0.540704,54.29375,-45.21125,38.36875,-23.408,-4.272,55.448,inter_set_rest,4,3.0,36647.0,375899.0,110243.0,1179.0,-137.0
2026-04-09 22:05:57.702310,190383,1287708532,1287709642,0.413824,0.61488,0.540704,54.25,-44.77375,40.80125,-23.408,-4.272,55.448,inter_set_rest,4,3.0,36647.0,375899.0,110243.0,1179.0,-137.0
2026-04-09 22:05:57.706999,190384,1287723023,1287724618,0.431392,0.6344,0.568032,52.5175,-43.12875,45.4125,-22.312,-4.136,54.104004,inter_set_rest,4,3.0,36647.0,375899.0,110243.0,1179.0,-137.0
2026-04-09 22:05:57.708676,190385,1287731981,1287733378,0.431392,0.6344,0.568032,50.05875,-41.055,51.40625,-22.312,-4.136,54.104004,inter_set_rest,4,3.0,36647.0,375899.0,110243.0,1179.0,-137.0
2026-04-09 22:05:57.710235,190386,1287740913,1287742075,0.425536,0.610976,0.564128,43.88125,-39.48875,51.24875,-22.608002,-4.432,53.616,inter_set_rest,4,3.0,36647.0,375899.0,110243.0,1179.0,-137.0
2026-04-09 22:05:57.714302,190387,1287755450,1287757006,0.447008,0.622688,0.484096,36.89,-37.625,52.40375,-22.560001,-4.592,54.960003,inter_set_rest,4,3.0,36647.0,375899.0,110243.0,1179.0,-137.0
2026-04-09 22:05:57.719343,190388,1287764405,1287765766,0.447008,0.622688,0.484096,37.37125,-38.05375,52.045002,-22.560001,-4.592,54.960003,inter_set_rest,4,3.0,36647.0,375899.0,110243.0,1179.0,-137.0
2026-04-09 22:05:57.747873,190389,1287773326,1287774482,0.447008,0.622688,0.484096,40.11875,-39.41875,51.835,-22.560001,-4.592,54.960003,inter_set_rest,4,3.0,36647.0,375899.0,110243.0,1179.0,-137.0
2026-04-09 22:05:57.752990,190390,1287787846,1287789398,0.456768,0.620736,0.46848,41.23875,-40.6175,53.08625,-22.808,-4.368,54.584003,inter_set_rest,4,3.0,36647.0,375899.0,110243.0,1179.0,-137.0
2026-04-09 22:05:57.772104,190391,1287796746,1287798070,0.45872,0.630496,0.476288,37.905,-41.4925,55.79,-23.352001,-4.608,53.320004,inter_set_rest,4,3.0,36647.0,375899.0,110243.0,1179.0,-137.0
2026-04-09 22:05:57.798766,190401,1287805704,1287806842,0.45872,0.630496,0.476288,29.32125,-41.1775,57.60125,-23.352001,-4.608,53.320004,inter_set_rest,4,3.0,36130.0,382956.0,114632.0,1813.0,-146.0
2026-04-09 22:05:57.800215,190402,1287814611,1287815539,0.45872,0.591456,0.488,19.83625,-40.11,58.47625,-23.352001,-4.608,53.320004,inter_set_rest,4,3.0,36130.0,382956.0,114632.0,1813.0,-146.0
2026-04-09 22:05:57.804513,190403,1287829200,1287830564,0.474336,0.591456,0.488,15.33875,-38.85,61.6875,-23.528002,-3.584,52.56,inter_set_rest,4,3.0,36130.0,382956.0,114632.0,1813.0,-146.0
2026-04-09 22:05:57.806170,190404,1287838126,1287839322,0.464576,0.591456,0.464576,13.97375,-38.2725,64.855,-24.032001,-3.72,52.320004,inter_set_rest,4,3.0,36130.0,382956.0,114632.0,1813.0,-146.0
2026-04-09 22:05:57.807669,190405,1287847096,1287848048,0.464576,0.591456,0.464576,14.28,-38.045002,66.10625,-24.032001,-3.72,52.320004,inter_set_rest,4,3.0,36130.0,382956.0,114632.0,1813.0,-146.0
2026-04-09 22:05:57.846355,190406,1287861625,1287863061,0.482144,0.607072,0.4392,14.21,-37.4325,67.76875,-23.840002,-3.28,50.096,inter_set_rest,4,3.0,36130.0,382956.0,114632.0,1813.0,-146.0
2026-04-09 22:05:57.848612,190407,1287870537,1287871767,0.482144,0.607072,0.4392,10.77125,-36.68875,67.69875,-23.840002,-3.28,50.096,inter_set_rest,4,3.0,36130.0,382956.0,114632.0,1813.0,-146.0
2026-04-09 22:05:57.853214,190408,1287879476,1287880467,0.486048,0.57584,0.441152,8.25125,-35.70875,66.38625,-24.104002,-2.68,51.960003,inter_set_rest,4,3.0,36130.0,382956.0,114632.0,1813.0,-146.0
2026-04-09 22:05:57.854909,190409,1287894000,1287895362,0.486048,0.57584,0.441152,5.495,-34.685,67.0775,-24.104002,-2.68,51.960003,inter_set_rest,4,3.0,36130.0,382956.0,114632.0,1813.0,-146.0
2026-04-09 22:05:57.888735,190420,1287903049,1287904216,0.499712,0.534848,0.441152,-0.07,-32.94375,68.11,-23.944,-1.984,49.624,inter_set_rest,4,3.0,35956.0,384225.0,115314.0,1941.0,-137.0
2026-04-09 22:05:57.891267,190421,1287912095,1287912931,0.499712,0.534848,0.441152,-6.055,-31.5175,69.37875,-23.944,-1.984,49.624,inter_set_rest,4,3.0,35956.0,384225.0,115314.0,1941.0,-137.0
2026-04-09 22:05:57.892738,190422,1287921126,1287921663,0.493856,0.54656,0.42944,-10.05375,-30.835001,70.25375,-24.992,-1.456,52.552002,inter_set_rest,4,3.0,35956.0,384225.0,115314.0,1941.0,-137.0
2026-04-09 22:05:57.896813,190423,1287936151,1287936545,0.540704,0.523136,0.3904,-12.5475,-31.2375,70.34125,-24.840002,-0.944,50.928,inter_set_rest,4,3.0,35956.0,384225.0,115314.0,1941.0,-137.0
2026-04-09 22:05:57.901879,190424,1287945445,1287947341,0.540704,0.523136,0.3904,-16.3625,-31.92,69.6675,-24.840002,-0.944,50.928,inter_set_rest,4,3.0,35956.0,384225.0,115314.0,1941.0,-137.0
2026-04-09 22:05:57.930400,190425,1287954359,1287956042,0.540704,0.523136,0.3904,-19.03125,-31.43875,69.11625,-24.840002,-0.944,50.928,inter_set_rest,4,3.0,35956.0,384225.0,115314.0,1941.0,-137.0
2026-04-09 22:05:57.934857,190426,1287968861,1287970936,0.560224,0.474336,0.40992,-19.5125,-31.19375,68.69625,-24.312,-0.568,51.680004,inter_set_rest,4,3.0,35956.0,384225.0,115314.0,1941.0,-137.0
2026-04-09 22:05:57.937220,190427,1287977770,1287979668,0.583648,0.44896,0.417728,-20.41375,-31.85,68.92375,-24.840002,1.184,50.688004,inter_set_rest,4,3.0,35956.0,384225.0,115314.0,1941.0,-137.0
2026-04-09 22:05:57.943161,190428,1287986720,1287988356,0.583648,0.44896,0.417728,-22.35625,-32.095,69.37875,-24.840002,1.184,50.688004,inter_set_rest,4,3.0,35956.0,384225.0,115314.0,1941.0,-137.0
2026-04-09 22:05:57.971626,190429,1287995687,1287997076,0.60512,0.40016,0.415776,-23.835001,-31.36,70.21,-24.840002,1.344,50.712,inter_set_rest,4,3.0,35956.0,384225.0,115314.0,1941.0,-137.0
2026-04-09 22:05:57.999705,190439,1288010296,1288012011,0.60512,0.40016,0.415776,-26.69625,-30.6425,70.30625,-25.552002,1.344,50.712,inter_set_rest,4,3.0,36014.0,382729.0,114494.0,1850.0,-152.0
2026-04-09 22:05:58.000763,190440,1288019210,1288020728,0.62464,0.445056,0.376736,-28.49,-30.14375,70.105,-24.512001,2.0,49.920002,inter_set_rest,4,3.0,36014.0,382729.0,114494.0,1850.0,-152.0
2026-04-09 22:05:58.004495,190441,1288028152,1288029431,0.62464,0.445056,0.376736,-27.23,-31.01,69.58,-24.512001,2.0,49.920002,inter_set_rest,4,3.0,36014.0,382729.0,114494.0,1850.0,-152.0
2026-04-09 22:05:58.006211,190442,1288042658,1288044414,0.62464,0.38064,0.359168,-27.3,-32.3925,67.76,-25.688002,2.792,50.552002,inter_set_rest,4,3.0,36014.0,382729.0,114494.0,1850.0,-152.0
2026-04-09 22:05:58.007749,190443,1288051601,1288053132,0.62464,0.38064,0.359168,-27.9475,-33.99375,66.6225,-25.688002,2.792,50.552002,inter_set_rest,4,3.0,36014.0,382729.0,114494.0,1850.0,-152.0
2026-04-09 22:05:58.038912,190444,1288060634,1288061920,0.628544,0.347456,0.392352,-26.845,-35.8925,66.2025,-24.872002,3.592,49.696003,inter_set_rest,4,3.0,36014.0,382729.0,114494.0,1850.0,-152.0
2026-04-09 22:05:58.041146,190445,1288075106,1288076878,0.628544,0.347456,0.392352,-27.04625,-36.5925,66.7275,-24.872002,3.592,49.696003,inter_set_rest,4,3.0,36014.0,382729.0,114494.0,1850.0,-152.0
2026-04-09 22:05:58.045746,190446,1288084037,1288085584,0.6344,0.343552,0.38064,-31.61375,-36.65375,67.375,-24.928001,4.76,48.736004,inter_set_rest,4,3.0,36014.0,382729.0,114494.0,1850.0,-152.0
2026-04-09 22:05:58.048169,190447,1288092978,1288094315,0.6344,0.343552,0.38064,-35.44625,-36.513752,64.82,-24.928001,4.76,48.736004,inter_set_rest,4,3.0,36014.0,382729.0,114494.0,1850.0,-152.0
2026-04-09 22:05:58.077848,190457,1288107514,1288109301,0.646112,0.294752,0.349408,-33.915,-37.21375,64.575,-24.608002,4.8,47.72,inter_set_rest,4,3.0,36201.0,378719.0,112075.0,1490.0,-156.0
2026-04-09 22:05:58.080666,190458,1288116468,1288118097,0.679296,0.308416,0.365024,-28.13125,-38.85875,65.19625,-25.184002,5.28,50.456,inter_set_rest,4,3.0,36201.0,378719.0,112075.0,1490.0,-156.0
2026-04-09 22:05:58.081228,190459,1288125442,1288126796,0.679296,0.308416,0.365024,-24.08,-40.04,64.74125,-25.184002,5.28,50.456,inter_set_rest,4,3.0,36201.0,378719.0,112075.0,1490.0,-156.0
2026-04-09 22:05:58.111707,190460,1288134374,1288135498,0.679296,0.308416,0.365024,-25.76875,-40.85375,64.68,-25.184002,5.28,50.456,inter_set_rest,4,3.0,36201.0,378719.0,112075.0,1490.0,-156.0
2026-04-09 22:05:58.147626,190461,1288148862,1288150432,0.69296,0.281088,0.378688,-28.09625,-41.23875,64.60125,-24.864,6.008,48.616,inter_set_rest,4,3.0,36201.0,378719.0,112075.0,1490.0,-156.0
2026-04-09 22:05:58.153706,190462,1288157807,1288159118,0.700768,0.271328,0.366976,-29.9075,-41.78125,63.95375,-24.464,6.704001,44.760002,inter_set_rest,4,3.0,36201.0,378719.0,112075.0,1490.0,-156.0
2026-04-09 22:05:58.162212,190463,1288166740,1288167812,0.700768,0.271328,0.366976,-33.425,-41.69375,62.72,-24.464,6.704001,44.760002,inter_set_rest,4,3.0,36201.0,378719.0,112075.0,1490.0,-156.0
2026-04-09 22:05:58.165072,190464,1288181231,1288182718,0.694912,0.242048,0.353312,-34.27375,-41.50125,60.96125,-24.496,7.256001,46.168003,inter_set_rest,4,3.0,36201.0,378719.0,112075.0,1490.0,-156.0
2026-04-09 22:05:58.165439,190465,1288190229,1288191428,0.694912,0.242048,0.353312,-31.68375,-41.55375,59.68375,-24.496,7.256001,46.168003,inter_set_rest,4,3.0,36201.0,378719.0,112075.0,1490.0,-156.0
2026-04-09 22:05:58.169507,190466,1288199160,1288200164,0.700768,0.228384,0.345504,-26.78375,-41.3175,59.52625,-24.312,8.368,45.784,inter_set_rest,4,3.0,36201.0,378719.0,112075.0,1490.0,-156.0
2026-04-09 22:05:58.195380,190477,1288213674,1288215111,0.700768,0.228384,0.345504,-25.2175,-42.9275,60.4625,-24.312,8.368,45.784,inter_set_rest,4,3.0,36088.0,379345.0,112332.0,1507.0,-151.0
2026-04-09 22:05:58.199513,190478,1288222626,1288223835,0.728096,0.216672,0.333792,-26.53,-43.89,63.1575,-25.184002,8.792001,46.792004,inter_set_rest,4,3.0,36088.0,379345.0,112332.0,1507.0,-151.0
2026-04-09 22:05:58.201217,190479,1288231695,1288232623,0.728096,0.216672,0.333792,-29.68875,-44.66,65.28375,-25.184002,8.792001,46.792004,inter_set_rest,4,3.0,36088.0,379345.0,112332.0,1507.0,-151.0
2026-04-09 22:05:58.203087,190480,1288246248,1288247548,0.75152,0.181536,0.3416,-35.76125,-44.02125,64.23375,-24.912,9.408,46.104004,inter_set_rest,4,3.0,36088.0,379345.0,112332.0,1507.0,-151.0
2026-04-09 22:05:58.210589,190481,1288255185,1288256250,0.75152,0.181536,0.3416,-41.23875,-42.83125,62.545002,-24.912,9.408,46.104004,inter_set_rest,4,3.0,36088.0,379345.0,112332.0,1507.0,-151.0
2026-04-09 22:05:58.240303,190482,1288264121,1288264951,0.755424,0.142496,0.37088,-43.365,-41.4225,62.48375,-24.912,10.240001,48.472004,inter_set_rest,4,3.0,36088.0,379345.0,112332.0,1507.0,-151.0
2026-04-09 22:05:58.244056,190483,1288273055,1288273717,0.755424,0.142496,0.37088,-46.97875,-40.46875,61.9675,-24.912,10.240001,48.472004,inter_set_rest,4,3.0,36088.0,379345.0,112332.0,1507.0,-151.0
2026-04-09 22:05:58.246945,190484,1288287989,1288288614,0.765184,0.076128,0.318176,-50.04125,-40.29375,62.23875,-24.072,10.544001,43.776,inter_set_rest,4,3.0,36088.0,379345.0,112332.0,1507.0,-151.0
2026-04-09 22:05:58.275466,190485,1288297210,1288299394,0.782752,0.052704,0.245952,-49.46375,-41.2825,62.685,-24.848001,10.896001,43.864002,inter_set_rest,4,3.0,36088.0,379345.0,112332.0,1507.0,-151.0
2026-04-09 22:05:58.303211,190495,1288306231,1288308294,0.782752,0.052704,0.245952,-49.58625,-42.44625,63.1575,-24.848001,10.896001,43.864002,inter_set_rest,4,3.0,35872.0,381675.0,113599.0,1702.0,-143.0
2026-04-09 22:05:58.304964,190496,1288320767,1288321215,0.774944,0.060512,0.308416,-51.59,-42.84875,62.2475,-23.568,11.392,42.2,inter_set_rest,4,3.0,35872.0,381675.0,113599.0,1702.0,-143.0
2026-04-09 22:05:58.306510,190497,1288330168,1288332049,0.774944,0.060512,0.308416,-53.7075,-42.0175,60.27,-23.568,11.392,42.2,inter_set_rest,4,3.0,35872.0,381675.0,113599.0,1702.0,-143.0
2026-04-09 22:05:58.310755,190498,1288339089,1288340766,0.769088,-0.0976,0.327936,-53.12125,-40.5125,57.75,-24.312,13.392,42.568,inter_set_rest,4,3.0,35872.0,381675.0,113599.0,1702.0,-143.0
2026-04-09 22:05:58.313503,190499,1288348094,1288349498,0.769088,-0.0976,0.327936,-54.10125,-37.70375,54.66125,-24.312,13.392,42.568,inter_set_rest,4,3.0,35872.0,381675.0,113599.0,1702.0,-143.0
2026-04-09 22:05:58.318430,190500,1288362662,1288364444,0.815936,-0.109312,0.261568,-51.16125,-34.93,55.02,-24.208002,12.928,42.152,inter_set_rest,4,3.0,35872.0,381675.0,113599.0,1702.0,-143.0
2026-04-09 22:05:58.347658,190501,1288371683,1288373167,0.815936,-0.109312,0.261568,-49.84,-32.576252,56.41125,-24.208002,12.928,42.152,inter_set_rest,4,3.0,35872.0,381675.0,113599.0,1702.0,-143.0
2026-04-09 22:05:58.352018,190502,1288380670,1288381876,0.85888,-0.042944,0.232288,-51.75625,-29.26875,57.435,-22.800001,13.856001,39.944,inter_set_rest,4,3.0,35872.0,381675.0,113599.0,1702.0,-143.0
2026-04-09 22:05:58.353775,190503,1288395140,1288396775,0.85888,-0.042944,0.232288,-60.69875,-25.9875,55.81625,-22.800001,13.856001,39.944,inter_set_rest,4,3.0,35872.0,381675.0,113599.0,1702.0,-143.0
2026-04-09 22:05:58.379627,190513,1288404227,1288405834,0.886208,-0.091744,0.314272,-73.2725,-23.33625,51.170002,-22.68,14.104001,39.896004,inter_set_rest,4,3.0,35498.0,385884.0,115802.0,2018.0,-133.0
2026-04-09 22:05:58.381255,190514,1288413379,1288414627,0.886208,-0.091744,0.314272,-79.23125,-21.18375,47.90625,-22.68,14.104001,39.896004,inter_set_rest,4,3.0,35498.0,385884.0,115802.0,2018.0,-133.0
2026-04-09 22:05:58.383068,190515,1288422342,1288423406,0.864736,-0.216672,0.335744,-81.01625,-17.955,44.9925,-22.744001,14.792001,38.864002,inter_set_rest,4,3.0,35498.0,385884.0,115802.0,2018.0,-133.0
2026-04-09 22:05:58.453943,190516,1288436859,1288438309,0.864736,-0.216672,0.275232,-77.840004,-18.235,43.82875,-22.744001,14.792001,38.864002,inter_set_rest,4,3.0,35498.0,385884.0,115802.0,2018.0,-133.0
2026-04-09 22:05:58.458508,190517,1288445891,1288446998,0.894016,-0.208864,0.275232,-76.71125,-19.075,44.10875,-22.288,15.760001,37.456,inter_set_rest,4,3.0,35498.0,385884.0,115802.0,2018.0,-133.0
2026-04-09 22:05:58.468452,190518,1288454851,1288455743,0.894016,-0.208864,0.275232,-80.8325,-17.91125,44.24875,-22.288,15.760001,37.456,inter_set_rest,4,3.0,35498.0,385884.0,115802.0,2018.0,-133.0
2026-04-09 22:05:58.469998,190519,1288469405,1288470644,1.007232,-0.339648,0.13664,-84.9625,-15.417501,44.10875,-21.752,15.792001,36.112003,inter_set_rest,4,3.0,35498.0,385884.0,115802.0,2018.0,-133.0
2026-04-09 22:05:58.472708,190520,1288478298,1288479386,0.940864,-0.447008,0.197152,-88.06,-10.01875,43.3125,-21.352001,16.616001,38.648003,inter_set_rest,4,3.0,35498.0,385884.0,115802.0,2018.0,-133.0
2026-04-09 22:05:58.475807,190521,1288487232,1288488056,0.940864,-0.447008,0.197152,-82.34625,-4.97875,43.5225,-21.352001,16.616001,38.648003,inter_set_rest,4,3.0,35498.0,385884.0,115802.0,2018.0,-133.0
2026-04-09 22:05:58.502542,190532,1288501804,1288503043,0.929152,-0.402112,0.08784,-71.02375,-2.905,47.013752,-21.048,17.504002,35.440002,inter_set_rest,4,3.0,35045.0,388775.0,116841.0,2150.0,-151.0
2026-04-09 22:05:58.503988,190533,1288511754,1288513830,0.929152,-0.402112,0.08784,-68.285,-3.2725,49.201252,-21.048,17.504002,35.440002,inter_set_rest,4,3.0,35045.0,388775.0,116841.0,2150.0,-151.0
2026-04-09 22:05:58.508262,190534,1288520707,1288522596,0.950624,-0.484096,-0.044896,-75.85375,-5.62625,49.98,-20.968,17.808,35.08,inter_set_rest,4,3.0,35045.0,388775.0,116841.0,2150.0,-151.0
2026-04-09 22:05:58.509949,190535,1288529659,1288531368,0.950624,-0.484096,-0.044896,-85.42625,-10.43,51.9575,-20.968,17.808,35.08,inter_set_rest,4,3.0,35045.0,388775.0,116841.0,2150.0,-151.0
2026-04-09 22:05:58.511487,190536,1288544261,1288546346,0.952576,-0.404064,-0.027328,-89.94125,-15.53125,52.64875,-21.400002,18.048,35.168003,inter_set_rest,4,3.0,35045.0,388775.0,116841.0,2150.0,-151.0
2026-04-09 22:05:58.515795,190537,1288553247,1288555064,0.952576,-0.404064,-0.027328,-87.2375,-19.3725,52.115,-21.400002,18.048,35.168003,inter_set_rest,4,3.0,35045.0,388775.0,116841.0,2150.0,-151.0
2026-04-09 22:05:58.518218,190538,1288562235,1288563824,0.925248,-0.294752,0.033184,-79.75625,-20.65875,48.3,-20.936,18.36,34.424,inter_set_rest,4,3.0,35045.0,388775.0,116841.0,2150.0,-151.0
2026-04-09 22:05:58.526863,190539,1288571183,1288572556,0.925248,-0.294752,0.033184,-77.81375,-19.18875,40.04875,-20.936,18.36,34.424,inter_set_rest,4,3.0,35045.0,388775.0,116841.0,2150.0,-151.0
2026-04-09 22:05:58.556466,190540,1288585682,1288587482,0.798368,-0.482144,0.081984,-81.375,-14.8225,32.7775,-19.872002,18.656,32.488003,inter_set_rest,4,3.0,35045.0,388775.0,116841.0,2150.0,-151.0
2026-04-09 22:05:58.560017,190541,1288594605,1288596192,0.798368,-0.482144,0.081984,-83.58,-9.37125,29.75875,-19.872002,18.656,32.488003,inter_set_rest,4,3.0,35045.0,388775.0,116841.0,2150.0,-151.0
2026-04-09 22:05:58.584060,190551,1288603559,1288604908,0.757376,-0.579744,-0.251808,-81.41,-5.495,30.8875,-19.76,19.008001,31.664001,inter_set_rest,4,3.0,35124.0,378915.0,110104.0,1193.0,-148.0
2026-04-09 22:05:58.588244,190552,1288618079,1288619857,0.704672,-0.445056,-0.279136,-74.55,-4.52375,34.825,-19.76,19.248001,32.192,inter_set_rest,4,3.0,35124.0,378915.0,110104.0,1193.0,-148.0
2026-04-09 22:05:58.589992,190553,1288627096,1288628615,0.704672,-0.445056,-0.279136,-69.5625,-7.06125,36.79375,-20.320002,19.248001,32.192,inter_set_rest,4,3.0,35124.0,378915.0,110104.0,1193.0,-148.0
2026-04-09 22:05:58.591546,190554,1288636044,1288637337,0.704672,-0.445056,-0.279136,-63.79625,-10.15875,34.475,-20.320002,19.248001,32.192,inter_set_rest,4,3.0,35124.0,378915.0,110104.0,1193.0,-148.0
2026-04-09 22:05:58.622623,190555,1288650533,1288652308,0.77104,-0.261568,-0.121024,-63.455,-10.63125,24.3075,-20.184,20.368,29.824001,inter_set_rest,4,3.0,35124.0,378915.0,110104.0,1193.0,-148.0
2026-04-09 22:05:58.624871,190556,1288659573,1288661052,0.72224,-0.441152,0.003904,-72.2225,-9.12625,12.18,-19.160002,20.096,28.544,inter_set_rest,4,3.0,35124.0,378915.0,110104.0,1193.0,-148.0
2026-04-09 22:05:58.629445,190557,1288668475,1288669735,0.72224,-0.441152,0.003904,-81.29625,-7.98,6.01125,-19.160002,20.096,28.544,inter_set_rest,4,3.0,35124.0,378915.0,110104.0,1193.0,-148.0
2026-04-09 22:05:58.657979,190558,1288683025,1288684694,0.70272,-0.493856,-0.121024,-87.3075,-6.50125,2.835,-19.800001,19.672,30.064001,inter_set_rest,4,3.0,35124.0,378915.0,110104.0,1193.0,-148.0
2026-04-09 22:05:58.662414,190559,1288691989,1288693408,0.70272,-0.493856,-0.121024,-84.07875,-3.815,1.96875,-19.800001,19.672,30.064001,inter_set_rest,4,3.0,35124.0,378915.0,110104.0,1193.0,-148.0
2026-04-09 22:05:58.663901,190560,1288700906,1288702116,0.675392,-0.460672,-0.132736,-75.871254,-2.80875,1.19,-18.704,19.096,27.6,inter_set_rest,4,3.0,35124.0,378915.0,110104.0,1193.0,-148.0
2026-04-09 22:05:58.690721,190570,1288709879,1288710897,0.675392,-0.460672,-0.132736,-73.027504,-5.10125,-0.28875,-18.704,19.096,27.6,inter_set_rest,4,3.0,35726.0,369768.0,104587.0,632.0,-144.0
2026-04-09 22:05:58.692452,190571,1288724397,1288725846,0.689056,-0.427488,-0.212768,-71.6625,-11.01625,-2.8525,-18.832,19.128,26.808,inter_set_rest,4,3.0,35726.0,369768.0,104587.0,632.0,-144.0
2026-04-09 22:05:58.694035,190572,1288733320,1288734593,0.689056,-0.427488,-0.212768,-71.5225,-19.241251,-5.50375,-18.832,19.128,26.808,inter_set_rest,4,3.0,35726.0,369768.0,104587.0,632.0,-144.0
2026-04-09 22:05:58.698093,190573,1288742282,1288743332,0.745664,-0.41968,-0.193248,-71.63625,-27.8775,-7.315,-18.560001,19.432001,26.304,inter_set_rest,4,3.0,35726.0,369768.0,104587.0,632.0,-144.0
2026-04-09 22:05:58.745467,190574,1288756784,1288758238,0.745664,-0.41968,-0.193248,-71.96,-33.9675,-9.948751,-18.560001,19.432001,26.304,inter_set_rest,4,3.0,35726.0,369768.0,104587.0,632.0,-144.0
2026-04-09 22:05:58.749012,190575,1288765689,1288766975,0.776896,-0.33184,-0.052704,-68.97625,-37.275,-10.89375,-18.728,19.456001,23.648,inter_set_rest,4,3.0,35726.0,369768.0,104587.0,632.0,-144.0
2026-04-09 22:05:58.751479,190576,1288774587,1288775677,0.776896,-0.33184,-0.052704,-69.15125,-37.3975,-11.655,-18.728,19.456001,23.648,inter_set_rest,4,3.0,35726.0,369768.0,104587.0,632.0,-144.0
2026-04-09 22:05:58.753971,190577,1288789109,1288790604,0.718336,-0.404064,0.035136,-72.65125,-35.49,-15.6975,-18.616001,19.672,24.544,inter_set_rest,4,3.0,35726.0,369768.0,104587.0,632.0,-144.0
2026-04-09 22:05:58.756490,190578,1288798017,1288799338,0.718336,-0.404064,-0.121024,-73.77125,-33.845,-19.3375,-18.616001,19.672,24.544,inter_set_rest,4,3.0,35726.0,369768.0,104587.0,632.0,-144.0
2026-04-09 22:05:58.783985,190589,1288807588,1288808131,0.778848,-0.384544,-0.122976,-70.245,-31.7625,-22.33,-19.008001,19.36,24.320002,inter_set_rest,4,3.0,35908.0,366225.0,102506.0,480.0,-139.0
2026-04-09 22:05:58.786506,190590,1288817044,1288819005,0.778848,-0.384544,-0.122976,-62.88625,-32.1475,-26.25875,-19.008001,19.36,24.320002,inter_set_rest,4,3.0,35908.0,366225.0,102506.0,480.0,-139.0
2026-04-09 22:05:58.788994,190591,1288831539,1288831952,0.747616,-0.363072,-0.171776,-52.8675,-32.4975,-27.973751,-19.336,18.560001,23.136002,inter_set_rest,4,3.0,35908.0,366225.0,102506.0,480.0,-139.0
2026-04-09 22:05:58.795225,190592,1288840818,1288842723,0.743712,-0.38064,-0.105408,-43.7675,-31.885,-28.44625,-19.392,19.032001,22.480001,inter_set_rest,4,3.0,35908.0,366225.0,102506.0,480.0,-139.0
2026-04-09 22:05:58.825468,190593,1288849718,1288851408,0.743712,-0.38064,-0.105408,-43.5925,-28.9625,-27.2125,-19.392,19.032001,22.480001,inter_set_rest,4,3.0,35908.0,366225.0,102506.0,480.0,-139.0
2026-04-09 22:05:58.829006,190594,1288858735,1288860192,0.71248,-0.306464,-0.089792,-49.7525,-25.64625,-26.03125,-19.392,19.032001,19.576,inter_set_rest,4,3.0,35908.0,366225.0,102506.0,480.0,-139.0
2026-04-09 22:05:58.831512,190595,1288873193,1288875094,0.706624,-0.306464,-0.089792,-49.35,-23.5725,-26.9675,-19.048,18.168001,19.576,inter_set_rest,4,3.0,35908.0,366225.0,102506.0,480.0,-139.0
2026-04-09 22:05:58.836517,190596,1288882106,1288883788,0.710528,-0.240096,-0.081984,-41.7725,-21.315,-28.32375,-19.400002,18.264,21.856,inter_set_rest,4,3.0,35908.0,366225.0,102506.0,480.0,-139.0
2026-04-09 22:05:58.866664,190597,1288891156,1288892501,0.710528,-0.240096,-0.081984,-33.50375,-18.795,-30.5375,-19.400002,18.264,21.856,inter_set_rest,4,3.0,35908.0,366225.0,102506.0,480.0,-139.0
2026-04-09 22:05:58.892680,190607,1288906104,1288907528,0.726144,-0.208864,-0.1464,-26.13625,-17.0975,-33.97625,-19.872002,18.648,21.904001,inter_set_rest,4,3.0,35506.0,370532.0,104693.0,624.0,-140.0
2026-04-09 22:05:58.895233,190608,1288915078,1288916244,0.726144,-0.208864,-0.1464,-22.68,-14.28875,-36.225,-19.872002,18.648,21.904001,inter_set_rest,4,3.0,35506.0,370532.0,104693.0,624.0,-140.0
2026-04-09 22:05:58.897803,190609,1288924006,1288924948,0.737856,-0.320128,-0.148352,-24.31625,-10.61375,-36.67125,-20.168001,18.112001,21.176,inter_set_rest,4,3.0,35506.0,370532.0,104693.0,624.0,-140.0
2026-04-09 22:05:58.902816,190610,1288938502,1288939879,0.737856,-0.320128,-0.226432,-26.34625,-8.75,-34.895,-20.168001,18.112001,21.176,inter_set_rest,4,3.0,35506.0,370532.0,104693.0,624.0,-140.0
2026-04-09 22:05:58.905251,190611,1288947426,1288948615,0.786656,-0.20496,-0.222528,-23.72125,-7.83125,-30.70375,-20.752,18.144001,23.304,inter_set_rest,4,3.0,35506.0,370532.0,104693.0,624.0,-140.0
2026-04-09 22:05:58.910196,190612,1288956352,1288957320,0.786656,-0.20496,-0.222528,-19.075,-6.41375,-27.9475,-20.752,18.144001,23.304,inter_set_rest,4,3.0,35506.0,370532.0,104693.0,624.0,-140.0
2026-04-09 22:05:58.940437,190613,1288965277,1288966025,0.813984,-0.240096,-0.03904,-16.73,-4.96125,-26.71375,-21.264002,17.52,20.192001,inter_set_rest,4,3.0,35506.0,370532.0,104693.0,624.0,-140.0
2026-04-09 22:05:58.944023,190614,1288980211,1288980971,0.80032,-0.2928,-0.083936,-21.8575,-3.5875,-22.82875,-20.704,17.640001,21.736002,inter_set_rest,4,3.0,35506.0,370532.0,104693.0,624.0,-140.0
2026-04-09 22:05:58.946446,190615,1288989559,1288991727,0.80032,-0.2928,-0.083936,-26.565,-3.26375,-19.495,-20.704,17.640001,21.736002,inter_set_rest,4,3.0,35506.0,370532.0,104693.0,624.0,-140.0
2026-04-09 22:05:58.952978,190616,1288998489,1289000414,0.80032,-0.2928,-0.083936,-21.84875,-4.34875,-20.09,-20.704,17.640001,21.736002,inter_set_rest,4,3.0,35506.0,370532.0,104693.0,624.0,-140.0
2026-04-09 22:05:58.990865,190626,1289012987,1289013347,0.831552,-0.284992,-0.12688,-15.1025,-5.1975,-20.79875,-21.336,17.256,21.176,inter_set_rest,4,3.0,35381.0,371029.0,104715.0,635.0,-143.0
2026-04-09 22:05:58.992492,190627,1289022244,1289024160,0.841312,-0.226432,-0.15616,-14.42,-5.97625,-18.0075,-21.880001,17.016,21.184002,inter_set_rest,4,3.0,35381.0,371029.0,104715.0,635.0,-143.0
2026-04-09 22:05:58.994032,190628,1289031172,1289032877,0.841312,-0.226432,-0.15616,-16.8525,-6.04625,-14.06125,-21.880001,17.016,21.184002,inter_set_rest,4,3.0,35381.0,371029.0,104715.0,635.0,-143.0
2026-04-09 22:05:58.998154,190629,1289040194,1289041572,0.86864,-0.181536,-0.128832,-17.91125,-5.88875,-13.13375,-21.04,16.752,21.76,inter_set_rest,4,3.0,35381.0,371029.0,104715.0,635.0,-143.0
2026-04-09 22:05:59.043927,190630,1289054687,1289056483,0.86864,-0.181536,-0.128832,-17.928751,-7.665,-16.8175,-21.04,16.752,21.76,inter_set_rest,4,3.0,35381.0,371029.0,104715.0,635.0,-143.0
2026-04-09 22:05:59.048319,190631,1289063685,1289065186,0.895968,-0.310368,-0.171776,-16.6425,-10.49125,-21.6125,-21.192001,16.544,19.272001,inter_set_rest,4,3.0,35381.0,371029.0,104715.0,635.0,-143.0
2026-04-09 22:05:59.049961,190632,1289072644,1289073906,0.895968,-0.310368,-0.171776,-12.8275,-14.0875,-22.5575,-21.192001,16.544,19.272001,inter_set_rest,4,3.0,35381.0,371029.0,104715.0,635.0,-143.0
2026-04-09 22:05:59.051646,190633,1289087103,1289088839,0.88816,-0.290848,-0.0976,-6.72,-16.4675,-17.1675,-21.136002,17.336,19.088001,inter_set_rest,4,3.0,35381.0,371029.0,104715.0,635.0,-143.0
2026-04-09 22:05:59.054851,190634,1289096064,1289097587,0.88816,-0.290848,-0.0976,-6.8075,-16.23125,-13.71125,-21.136002,17.336,19.088001,inter_set_rest,4,3.0,35381.0,371029.0,104715.0,635.0,-143.0
2026-04-09 22:05:59.086481,190645,1289105015,1289106404,0.874496,-0.32208,-0.134688,-9.59875,-16.10875,-11.90875,-23.104002,16.960001,20.488,inter_set_rest,4,3.0,35313.0,371595.0,104871.0,603.0,-141.0
2026-04-09 22:05:59.089012,190646,1289119567,1289121348,0.874496,-0.259616,-0.203008,-8.6625,-17.10625,-11.48875,-23.104002,16.960001,20.488,inter_set_rest,4,3.0,35313.0,371595.0,104871.0,603.0,-141.0
2026-04-09 22:05:59.091634,190647,1289128558,1289130120,0.923296,-0.255712,-0.203008,-6.41375,-18.025,-9.82625,-23.632002,16.768002,20.76,inter_set_rest,4,3.0,35313.0,371595.0,104871.0,603.0,-141.0
2026-04-09 22:05:59.093976,190648,1289137531,1289138877,0.923296,-0.255712,-0.203008,-3.2725,-19.94125,-12.31125,-23.632002,16.768002,20.76,inter_set_rest,4,3.0,35313.0,371595.0,104871.0,603.0,-141.0
2026-04-09 22:05:59.124212,190649,1289146487,1289147577,0.95648,-0.335744,-0.265472,2.4675,-20.685,-14.9275,-22.44,16.784,19.984001,inter_set_rest,4,3.0,35313.0,371595.0,104871.0,603.0,-141.0
2026-04-09 22:05:59.127701,190650,1289160991,1289162521,0.919392,-0.2928,-0.07808,0.7,-19.897501,-14.30625,-21.512001,16.744001,18.480001,inter_set_rest,4,3.0,35313.0,371595.0,104871.0,603.0,-141.0
2026-04-09 22:05:59.130235,190651,1289169931,1289171236,0.919392,-0.2928,-0.07808,-1.65375,-15.715,-12.71375,-21.512001,16.744001,18.480001,inter_set_rest,4,3.0,35313.0,371595.0,104871.0,603.0,-141.0
2026-04-09 22:05:59.132788,190652,1289178865,1289179960,0.919392,-0.2928,-0.07808,-0.41125,-10.33375,-11.94375,-21.512001,16.744001,18.480001,inter_set_rest,4,3.0,35313.0,371595.0,104871.0,603.0,-141.0
2026-04-09 22:05:59.162951,190653,1289193372,1289194908,0.940864,-0.245952,-0.222528,-1.365,-5.5125,-14.595,-21.112001,16.704,18.392,inter_set_rest,4,3.0,35313.0,371595.0,104871.0,603.0,-141.0
2026-04-09 22:05:59.166477,190654,1289202287,1289203605,0.905728,-0.255712,-0.269376,1.8025,-4.75125,-18.33125,-20.896002,16.240002,18.768002,inter_set_rest,4,3.0,35313.0,371595.0,104871.0,603.0,-141.0
