pc_time,serial_num,sensor_ts,host_ts,ax,ay,az,gx,gy,gz,mx,my,mz,phase,rpe,weight_kg,ppg_a,ppg_b,ppg_c,ppg_d,ppg_e
2026-04-07 17:50:48.256581,242216,1318598151,1318599459,-1.071648,0.052704,-0.066368,1.26875,3.52625,-5.03125,45.368004,8.280001,32.168003,inter_set_rest,4,3.0,22940.0,325610.0,292824.0,343661.0,301919.0
2026-04-07 17:50:48.256940,242217,1318607130,1318608166,-1.071648,0.052704,-0.066368,0.90125,3.07125,-5.81875,45.368004,8.280001,32.168003,inter_set_rest,4,3.0,22940.0,325610.0,292824.0,343661.0,301919.0
2026-04-07 17:50:48.272228,242227,1318621723,1318623157,-1.071648,0.054656,-0.074176,1.085,3.22,-5.6525,45.048,8.312,33.592003,inter_set_rest,4,3.0,22958.0,325877.0,293061.0,343956.0,302220.0
2026-04-07 17:50:48.282565,242228,1318630632,1318631881,-1.085312,0.056608,-0.080032,1.33875,3.1325,-5.46,45.072002,8.536,33.056,inter_set_rest,4,3.0,22958.0,325877.0,293061.0,343956.0,302220.0
2026-04-07 17:50:48.282642,242229,1318639612,1318640558,-1.085312,0.056608,-0.080032,1.35625,3.10625,-5.10125,45.072002,8.536,33.056,inter_set_rest,4,3.0,22958.0,325877.0,293061.0,343956.0,302220.0
2026-04-07 17:50:48.283219,242230,1318648517,1318649240,-1.069696,0.06832,-0.060512,1.67125,3.0625,-5.01375,45.072002,8.536,33.056,inter_set_rest,4,3.0,22958.0,325877.0,293061.0,343956.0,302220.0
2026-04-07 17:50:48.291215,242231,1318663478,1318664304,-1.06384,0.06832,-0.060512,2.28375,2.7825,-5.5125,44.336002,7.808001,34.760002,inter_set_rest,4,3.0,22958.0,325877.0,293061.0,343956.0,302220.0
2026-04-07 17:50:48.292921,242232,1318672427,1318673046,-1.081408,0.060512,-0.076128,2.75625,3.0975,-5.39875,44.184002,8.032001,34.144,inter_set_rest,4,3.0,22958.0,325877.0,293061.0,343956.0,302220.0
2026-04-07 17:50:48.294430,242233,1318681705,1318683842,-1.081408,0.060512,-0.076128,1.4525,3.29875,-5.6,44.184002,8.032001,34.144,inter_set_rest,4,3.0,22958.0,325877.0,293061.0,343956.0,302220.0
2026-04-07 17:50:48.324604,242234,1318696213,1318696705,-1.079456,0.0488,-0.070272,1.0325,3.2025,-5.4775,44.568,8.0,32.960003,inter_set_rest,4,3.0,22958.0,325877.0,293061.0,343956.0,302220.0
2026-04-07 17:50:48.328115,242235,1318707441,1318709644,-1.079456,0.0488,-0.070272,1.32125,3.49125,-5.25,44.568,8.0,32.960003,inter_set_rest,4,3.0,22958.0,325877.0,293061.0,343956.0,302220.0
2026-04-07 17:50:48.353111,242245,1318716493,1318718398,-1.069696,0.066368,-0.062464,2.45,4.06,-5.11875,44.944,8.152,32.832,inter_set_rest,4,3.0,22974.0,326024.0,293204.0,344117.0,302350.0
2026-04-07 17:50:48.355731,242246,1318725416,1318727075,-1.069696,0.066368,-0.062464,3.42125,3.45625,-5.53,44.944,8.152,32.832,inter_set_rest,4,3.0,22974.0,326024.0,293204.0,344117.0,302350.0
2026-04-07 17:50:48.358197,242247,1318734519,1318735797,-1.06384,0.07808,-0.06832,3.35125,3.45625,-5.45125,44.800003,8.192,33.744003,inter_set_rest,4,3.0,22974.0,326024.0,293204.0,344117.0,302350.0
2026-04-07 17:50:48.360752,242248,1318749047,1318750772,-1.079456,0.06832,-0.072224,2.52,3.15875,-5.5825,44.800003,8.192,33.904003,inter_set_rest,4,3.0,22974.0,326024.0,293204.0,344117.0,302350.0
2026-04-07 17:50:48.399622,242249,1318757962,1318759469,-1.079456,0.06832,-0.072224,1.23375,3.7275,-5.4775,44.704002,8.536,33.904003,inter_set_rest,4,3.0,22974.0,326024.0,293204.0,344117.0,302350.0
2026-04-07 17:50:48.405656,242250,1318766904,1318768147,-1.079456,0.06832,-0.072224,0.23625,3.9025,-5.74,44.704002,8.536,33.904003,inter_set_rest,4,3.0,22974.0,326024.0,293204.0,344117.0,302350.0
2026-04-07 17:50:48.406925,242251,1318781384,1318783074,-1.08336,0.050752,-0.080032,-0.2625,3.99,-5.88875,45.112003,8.400001,32.424,inter_set_rest,4,3.0,22974.0,326024.0,293204.0,344117.0,302350.0
2026-04-07 17:50:48.409346,242252,1318790274,1318791772,-1.071648,0.054656,-0.07808,0.81375,3.045,-6.265,45.088,8.128,32.384003,inter_set_rest,4,3.0,22974.0,326024.0,293204.0,344117.0,302350.0
2026-04-07 17:50:48.411927,242253,1318799222,1318800459,-1.071648,0.054656,-0.07808,1.58375,3.115,-5.97625,45.088,8.128,32.384003,inter_set_rest,4,3.0,22974.0,326024.0,293204.0,344117.0,302350.0
2026-04-07 17:50:48.441949,242264,1318814296,1318815515,-1.071648,0.056608,-0.066368,2.9925,3.8325,-5.5125,44.888,8.208,32.920002,inter_set_rest,4,3.0,22965.0,325900.0,293085.0,343996.0,302264.0
2026-04-07 17:50:48.444575,242265,1318823300,1318824206,-1.071648,0.056608,-0.066368,2.6425,3.7975,-5.39875,44.888,8.208,32.920002,inter_set_rest,4,3.0,22965.0,325900.0,293085.0,343996.0,302264.0
2026-04-07 17:50:48.450626,242266,1318832218,1318832944,-1.0736,0.062464,-0.074176,2.49375,3.7625,-4.9525,45.448,8.240001,32.656002,inter_set_rest,4,3.0,22965.0,325900.0,293085.0,343996.0,302264.0
2026-04-07 17:50:48.453158,242267,1318841512,1318843711,-1.0736,0.062464,-0.074176,3.1675,4.08625,-4.76,45.448,8.240001,32.656002,inter_set_rest,4,3.0,22965.0,325900.0,293085.0,343996.0,302264.0
2026-04-07 17:50:48.484538,242268,1318856006,1318856585,-1.061888,0.062464,-0.064416,3.36,4.03375,-4.66375,44.816,8.168,32.984,inter_set_rest,4,3.0,22965.0,325900.0,293085.0,343996.0,302264.0
2026-04-07 17:50:48.496980,242269,1318865188,1318867333,-1.061888,0.062464,-0.064416,2.49375,3.6575,-4.725,44.816,8.168,32.984,inter_set_rest,4,3.0,22965.0,325900.0,293085.0,343996.0,302264.0
2026-04-07 17:50:48.499384,242270,1318874148,1318876020,-1.071648,0.05856,-0.072224,2.205,3.8325,-4.68125,45.128002,8.176001,32.600002,inter_set_rest,4,3.0,22965.0,325900.0,293085.0,343996.0,302264.0
2026-04-07 17:50:48.502128,242271,1318883070,1318884728,-1.071648,0.05856,-0.072224,2.19625,4.2,-4.305,45.128002,8.176001,32.600002,inter_set_rest,4,3.0,22965.0,325900.0,293085.0,343996.0,302264.0
2026-04-07 17:50:48.504531,242272,1318897561,1318899616,-1.0736,0.046848,-0.076128,2.7475,3.6925,-4.12125,44.640003,8.528001,33.384003,inter_set_rest,4,3.0,22965.0,325900.0,293085.0,343996.0,302264.0
2026-04-07 17:50:48.534655,242273,1318906515,1318908308,-1.0736,0.046848,-0.076128,3.61375,3.6575,-4.2175,44.640003,8.528001,33.384003,inter_set_rest,4,3.0,22965.0,325900.0,293085.0,343996.0,302264.0
2026-04-07 17:50:48.564303,242283,1318915586,1318917076,-1.077504,0.046848,-0.089792,5.0925,3.6575,-4.24375,44.544003,8.296001,33.232002,inter_set_rest,4,3.0,22924.0,325597.0,292858.0,343779.0,302072.0
2026-04-07 17:50:48.565723,242284,1318930090,1318932002,-1.089216,0.046848,-0.080032,5.62625,3.92875,-4.4975,46.592003,8.688001,33.256,inter_set_rest,4,3.0,22924.0,325597.0,292858.0,343779.0,302072.0
2026-04-07 17:50:48.569406,242285,1318939055,1318940709,-1.089216,0.046848,-0.080032,5.915,4.01625,-4.01625,45.392002,8.688001,33.256,inter_set_rest,4,3.0,22924.0,325597.0,292858.0,343779.0,302072.0
2026-04-07 17:50:48.574410,242286,1318948069,1318949408,-1.089216,0.046848,-0.080032,5.41625,3.92,-4.095,45.392002,8.688001,33.256,inter_set_rest,4,3.0,22924.0,325597.0,292858.0,343779.0,302072.0
2026-04-07 17:50:48.576883,242287,1318962597,1318964339,-1.09312,0.037088,-0.06832,4.585,4.27875,-4.025,44.408,8.52,33.808002,inter_set_rest,4,3.0,22924.0,325597.0,292858.0,343779.0,302072.0
2026-04-07 17:50:48.579386,242288,1318971683,1318973093,-1.097024,0.03904,-0.054656,4.4975,3.3775,-4.2525,44.008003,8.264,33.048,inter_set_rest,4,3.0,22924.0,325597.0,292858.0,343779.0,302072.0
2026-04-07 17:50:48.585750,242289,1318980719,1318981814,-1.097024,0.03904,-0.054656,4.445,3.815,-4.15625,44.008003,8.264,33.048,inter_set_rest,4,3.0,22924.0,325597.0,292858.0,343779.0,302072.0
2026-04-07 17:50:48.615834,242290,1318989667,1318990522,-1.097024,0.03904,-0.052704,3.70125,4.33125,-3.47375,44.008003,8.264,33.048,inter_set_rest,4,3.0,22924.0,325597.0,292858.0,343779.0,302072.0
2026-04-07 17:50:48.619366,242291,1319004169,1319005404,-1.118496,0.050752,-0.052704,2.17875,4.8125,-2.80875,44.616,7.776001,33.256,inter_set_rest,4,3.0,22924.0,325597.0,292858.0,343779.0,302072.0
2026-04-07 17:50:48.647855,242302,1319013435,1319014212,-1.110688,0.027328,-0.044896,-0.02625,4.7775,-2.5025,45.144,8.088,32.488003,inter_set_rest,4,3.0,22841.0,324715.0,292060.0,342879.0,301344.0
2026-04-07 17:50:48.649404,242303,1319022623,1319023168,-1.110688,0.027328,-0.044896,-1.9775,4.6725,-1.72375,45.144,8.088,32.488003,inter_set_rest,4,3.0,22841.0,324715.0,292060.0,342879.0,301344.0
2026-04-07 17:50:48.653727,242304,1319032075,1319033996,-1.128256,0.011712,-0.072224,-2.1,4.095,-2.21375,44.952003,8.056001,33.632,inter_set_rest,4,3.0,22841.0,324715.0,292060.0,342879.0,301344.0
2026-04-07 17:50:48.655278,242305,1319046666,1319048953,-1.128256,0.011712,-0.072224,-1.88125,5.005,-2.38,44.952003,8.056001,33.632,inter_set_rest,4,3.0,22841.0,324715.0,292060.0,342879.0,301344.0
2026-04-07 17:50:48.693448,242306,1319055588,1319057682,-1.139968,0.001952,-0.10736,-2.0825,5.1275,-2.03,45.032,7.688,34.936,inter_set_rest,4,3.0,22841.0,324715.0,292060.0,342879.0,301344.0
2026-04-07 17:50:48.698674,242307,1319064515,1319066387,-1.139968,0.001952,-0.10736,-1.05875,4.83875,-1.6975,45.032,7.688,34.936,inter_set_rest,4,3.0,22841.0,324715.0,292060.0,342879.0,301344.0
2026-04-07 17:50:48.700363,242308,1319079018,1319081280,-1.114592,0.017568,-0.083936,0.72625,3.9725,-2.24875,44.800003,7.904,32.600002,inter_set_rest,4,3.0,22841.0,324715.0,292060.0,342879.0,301344.0
2026-04-07 17:50:48.701900,242309,1319087934,1319089977,-1.114592,0.017568,-0.083936,2.205,3.80625,-2.14375,44.800003,7.904,32.600002,inter_set_rest,4,3.0,22841.0,324715.0,292060.0,342879.0,301344.0
2026-04-07 17:50:48.706115,242310,1319096865,1319098709,-1.143872,0.00976,-0.085888,2.05625,4.095,-2.1,45.032,7.984,32.256,inter_set_rest,4,3.0,22841.0,324715.0,292060.0,342879.0,301344.0
2026-04-07 17:50:48.766668,242320,1319111456,1319113698,-1.143872,-0.005856,-0.064416,1.2425,4.15625,-1.7325,45.264004,7.848001,31.824001,inter_set_rest,4,3.0,22655.0,322964.0,290550.0,341087.0,299881.0
2026-04-07 17:50:48.768170,242321,1319120443,1319122563,-1.143872,-0.005856,-0.064416,-0.525,4.38375,-0.98875,45.264004,7.848001,31.824001,inter_set_rest,4,3.0,22655.0,322964.0,290550.0,341087.0,299881.0
2026-04-07 17:50:48.772492,242322,1319129373,1319131283,-1.143872,-0.005856,-0.064416,-1.75,5.32875,-0.90125,45.264004,7.848001,31.824001,inter_set_rest,4,3.0,22655.0,322964.0,290550.0,341087.0,299881.0
2026-04-07 17:50:48.774212,242323,1319143908,1319146209,-1.16144,-0.0488,-0.06832,-3.40375,4.76875,-0.385,45.544003,8.032001,33.048,inter_set_rest,4,3.0,22655.0,322964.0,290550.0,341087.0,299881.0
2026-04-07 17:50:48.775733,242324,1319153009,1319154918,-1.153632,-0.07808,-0.074176,-4.375,3.78,0.9975,45.376003,8.048,31.840002,inter_set_rest,4,3.0,22655.0,322964.0,290550.0,341087.0,299881.0
2026-04-07 17:50:48.779902,242325,1319162019,1319163585,-1.153632,-0.07808,-0.074176,-4.38375,4.5675,3.5,45.376003,8.048,31.840002,inter_set_rest,4,3.0,22655.0,322964.0,290550.0,341087.0,299881.0
2026-04-07 17:50:48.781537,242326,1319170952,1319172365,-1.169248,-0.091744,-0.074176,-2.7125,5.31125,6.02,45.376003,8.048,30.464,inter_set_rest,4,3.0,22655.0,322964.0,290550.0,341087.0,299881.0
2026-04-07 17:50:48.811734,242327,1319185508,1319187272,-1.165344,-0.091744,-0.074176,-1.19,5.57375,8.19,45.728,8.568001,30.464,inter_set_rest,4,3.0,22655.0,322964.0,290550.0,341087.0,299881.0
2026-04-07 17:50:48.814102,242328,1319194440,1319195959,-1.159488,-0.054656,-0.066368,1.75875,5.6875,10.24625,45.752003,7.408001,32.424,inter_set_rest,4,3.0,22655.0,322964.0,290550.0,341087.0,299881.0
2026-04-07 17:50:48.818770,242329,1319203420,1319204683,-1.159488,-0.054656,-0.066368,4.26125,5.6875,11.025,45.752003,7.408001,32.424,inter_set_rest,4,3.0,22655.0,322964.0,290550.0,341087.0,299881.0
2026-04-07 17:50:48.847450,242339,1319218171,1319219726,-1.169248,-0.015616,-0.06832,5.2675,5.7575,11.1825,45.232002,7.584001,31.976002,inter_set_rest,4,3.0,22243.0,319085.0,287308.0,337367.0,296784.0
2026-04-07 17:50:48.849223,242340,1319227137,1319228486,-1.169248,-0.015616,-0.06832,5.3375,5.635,10.43875,45.232002,7.584001,31.976002,inter_set_rest,4,3.0,22243.0,319085.0,287308.0,337367.0,296784.0
2026-04-07 17:50:48.850671,242341,1319236129,1319237192,-1.169248,0.0,-0.093696,4.8475,5.31125,9.45875,45.032,7.24,33.504,inter_set_rest,4,3.0,22243.0,319085.0,287308.0,337367.0,296784.0
2026-04-07 17:50:48.854893,242342,1319245035,1319245979,-1.169248,0.0,-0.093696,2.93125,5.45125,9.2225,45.032,7.24,33.504,inter_set_rest,4,3.0,22243.0,319085.0,287308.0,337367.0,296784.0
2026-04-07 17:50:48.890538,242343,1319259508,1319260888,-1.19072,-0.01952,-0.093696,0.5425,6.23875,9.3975,45.552002,7.184001,33.552002,inter_set_rest,4,3.0,22243.0,319085.0,287308.0,337367.0,296784.0
2026-04-07 17:50:48.892811,242344,1319268482,1319269569,-1.19072,-0.01952,-0.093696,-1.015,5.9325,9.26625,45.552002,7.184001,33.552002,inter_set_rest,4,3.0,22243.0,319085.0,287308.0,337367.0,296784.0
2026-04-07 17:50:48.896655,242345,1319277380,1319278249,-1.188768,-0.037088,-0.093696,-2.77375,5.8275,9.10875,46.184002,7.56,32.496002,inter_set_rest,4,3.0,22243.0,319085.0,287308.0,337367.0,296784.0
2026-04-07 17:50:48.898175,242346,1319291866,1319293189,-1.184864,-0.05856,-0.0976,-6.29125,5.34625,9.26625,45.2,7.384,32.376003,inter_set_rest,4,3.0,22243.0,319085.0,287308.0,337367.0,296784.0
2026-04-07 17:50:48.929406,242347,1319300844,1319301883,-1.184864,-0.05856,-0.0976,-7.9275,5.48625,8.44375,45.2,7.384,32.376003,inter_set_rest,4,3.0,22243.0,319085.0,287308.0,337367.0,296784.0
2026-04-07 17:50:48.931535,242348,1319309745,1319310572,-1.184864,-0.05856,-0.0976,-6.78125,5.34625,8.0325,45.2,7.384,32.376003,inter_set_rest,4,3.0,22243.0,319085.0,287308.0,337367.0,296784.0
2026-04-07 17:50:48.960436,242358,1319324415,1319325493,-1.184864,-0.033184,-0.10736,-4.12125,5.01375,7.0875,45.784,7.68,31.36,inter_set_rest,4,3.0,21852.0,315274.0,284170.0,333796.0,293813.0
2026-04-07 17:50:48.961992,242359,1319333514,1319334212,-1.169248,0.023424,-0.101504,0.35875,5.36375,4.8825,45.528004,7.496,31.408,inter_set_rest,4,3.0,21852.0,315274.0,284170.0,333796.0,293813.0
2026-04-07 17:50:48.998177,242360,1319342930,1319345049,-1.169248,0.023424,-0.101504,3.6575,4.9875,3.00125,45.528004,7.496,31.408,inter_set_rest,4,3.0,21852.0,315274.0,284170.0,333796.0,293813.0
2026-04-07 17:50:49.000710,242361,1319351876,1319353758,-1.157536,0.056608,-0.101504,3.7975,4.2175,0.51625,45.528004,7.496,33.920002,inter_set_rest,4,3.0,21852.0,315274.0,284170.0,333796.0,293813.0
2026-04-07 17:50:49.006888,242362,1319366469,1319368675,-1.157536,0.056608,-0.101504,3.9375,3.675,-2.38875,45.600002,7.104001,33.920002,inter_set_rest,4,3.0,21852.0,315274.0,284170.0,333796.0,293813.0
2026-04-07 17:50:49.009431,242363,1319375401,1319377409,-1.128256,0.066368,-0.076128,2.8875,3.395,-5.5825,45.696003,7.696001,31.992,inter_set_rest,4,3.0,21852.0,315274.0,284170.0,333796.0,293813.0
2026-04-07 17:50:49.011966,242364,1319384316,1319386112,-1.128256,0.066368,-0.076128,0.7175,3.0975,-9.14375,45.696003,7.696001,31.992,inter_set_rest,4,3.0,21852.0,315274.0,284170.0,333796.0,293813.0
2026-04-07 17:50:49.014409,242365,1319398782,1319400992,-1.110688,0.050752,-0.081984,-0.72625,2.91375,-12.7225,45.792004,7.856,32.016003,inter_set_rest,4,3.0,21852.0,315274.0,284170.0,333796.0,293813.0
2026-04-07 17:50:49.017114,242366,1319407705,1319409664,-1.110688,0.050752,-0.081984,-0.2975,1.925,-16.2925,45.792004,7.856,32.016003,inter_set_rest,4,3.0,21852.0,315274.0,284170.0,333796.0,293813.0
2026-04-07 17:50:49.044405,242377,1319416920,1319418487,-1.126304,0.056608,-0.089792,-0.105,1.855,-19.81875,45.304,7.992001,32.024002,inter_set_rest,4,3.0,21712.0,313761.0,282784.0,332015.0,292197.0
2026-04-07 17:50:49.046907,242378,1319431508,1319433427,-1.126304,0.056608,-0.089792,0.3325,1.96,-22.89875,45.304,7.992001,32.024002,inter_set_rest,4,3.0,21712.0,313761.0,282784.0,332015.0,292197.0
2026-04-07 17:50:49.049398,242379,1319440497,1319442118,-1.1224,0.044896,-0.113216,0.7175,2.17875,-26.2325,45.192,8.400001,32.856003,inter_set_rest,4,3.0,21712.0,313761.0,282784.0,332015.0,292197.0
2026-04-07 17:50:49.079740,242380,1319449431,1319450840,-1.1224,0.044896,-0.113216,-0.06125,3.36875,-28.70875,45.192,8.400001,32.856003,inter_set_rest,4,3.0,21712.0,313761.0,282784.0,332015.0,292197.0
2026-04-07 17:50:49.083188,242381,1319458370,1319459542,-1.14192,0.035136,-0.091744,-1.26,4.29625,-29.25125,45.056004,8.496,32.528,inter_set_rest,4,3.0,21712.0,313761.0,282784.0,332015.0,292197.0
2026-04-07 17:50:49.085680,242382,1319472857,1319474437,-1.14192,0.035136,-0.08784,-2.2925,5.04,-32.22625,45.008003,9.080001,31.264002,inter_set_rest,4,3.0,21712.0,313761.0,282784.0,332015.0,292197.0
2026-04-07 17:50:49.088174,242383,1319481774,1319483133,-1.14192,0.035136,-0.08784,-2.16125,4.935,-35.14,45.008003,9.080001,31.264002,inter_set_rest,4,3.0,21712.0,313761.0,282784.0,332015.0,292197.0
2026-04-07 17:50:49.120881,242384,1319490686,1319491819,-1.14192,0.035136,-0.08784,-1.04125,5.46,-36.93375,45.008003,9.080001,31.264002,inter_set_rest,4,3.0,21712.0,313761.0,282784.0,332015.0,292197.0
2026-04-07 17:50:49.124391,242385,1319505183,1319506757,-1.139968,0.025376,-0.10736,0.315,6.39625,-39.165,43.944,9.064,32.984,inter_set_rest,4,3.0,21712.0,313761.0,282784.0,332015.0,292197.0
2026-04-07 17:50:49.152162,242395,1319514088,1319515705,-1.149728,0.027328,-0.093696,-1.02375,7.8225,-40.075,43.808002,10.056001,31.840002,inter_set_rest,4,3.0,21900.0,315472.0,284169.0,333434.0,293460.0
2026-04-07 17:50:49.154413,242396,1319523025,1319524492,-1.149728,0.027328,-0.093696,-4.01625,8.3825,-42.385,43.808002,10.056001,31.840002,inter_set_rest,4,3.0,21900.0,315472.0,284169.0,333434.0,293460.0
2026-04-07 17:50:49.156926,242397,1319537566,1319539411,-1.165344,0.037088,-0.091744,-5.1975,8.54,-45.115,43.328003,10.248,33.264,inter_set_rest,4,3.0,21900.0,315472.0,284169.0,333434.0,293460.0
2026-04-07 17:50:49.159407,242398,1319546447,1319548103,-1.165344,0.037088,-0.091744,-3.745,7.65625,-45.701252,43.328003,10.248,33.264,inter_set_rest,4,3.0,21900.0,315472.0,284169.0,333434.0,293460.0
2026-04-07 17:50:49.161986,242399,1319555363,1319556815,-1.139968,0.044896,-0.11712,-2.03875,7.4375,-47.06625,42.416,10.496,32.960003,inter_set_rest,4,3.0,21900.0,315472.0,284169.0,333434.0,293460.0
2026-04-07 17:50:49.192081,242400,1319569889,1319571765,-1.139968,0.044896,-0.11712,-1.95125,8.53125,-48.4575,42.416,10.496,32.960003,concentric,4,3.0,21900.0,315472.0,284169.0,333434.0,293460.0
2026-04-07 17:50:49.195633,242401,1319578794,1319580456,-1.186816,0.037088,-0.111264,-4.1475,9.205,-51.59,43.128002,11.320001,31.864002,concentric,4,3.0,21900.0,315472.0,284169.0,333434.0,293460.0
2026-04-07 17:50:49.198293,242402,1319587687,1319589154,-1.186816,0.037088,-0.111264,-7.07875,10.03625,-54.64375,43.128002,11.320001,31.864002,concentric,4,3.0,21900.0,315472.0,284169.0,333434.0,293460.0
2026-04-07 17:50:49.204027,242403,1319596612,1319597832,-1.204384,0.035136,-0.101504,-6.335,10.5525,-54.853752,42.576,11.992001,31.848001,concentric,4,3.0,21900.0,315472.0,284169.0,333434.0,293460.0
2026-04-07 17:50:49.234334,242404,1319611106,1319612827,-1.204384,0.035136,-0.101504,-5.69625,11.45375,-55.755,42.576,11.992001,31.848001,concentric,4,3.0,21900.0,315472.0,284169.0,333434.0,293460.0
2026-04-07 17:50:49.261235,242414,1319620141,1319621578,-1.260992,-0.001952,-0.080032,-5.20625,11.69,-56.32375,41.688004,12.464001,31.808,concentric,4,3.0,22057.0,316723.0,285262.0,334602.0,294603.0
2026-04-07 17:50:49.263970,242415,1319629070,1319630286,-1.260992,-0.001952,-0.080032,-4.92625,11.29625,-55.5275,41.688004,12.464001,31.808,concentric,4,3.0,22057.0,316723.0,285262.0,334602.0,294603.0
2026-04-07 17:50:49.300682,242416,1319643586,1319645200,-1.255136,-0.023424,-0.163968,-5.145,10.33375,-54.46,41.376003,12.920001,31.304,concentric,4,3.0,22057.0,316723.0,285262.0,334602.0,294603.0
2026-04-07 17:50:49.305698,242417,1319652603,1319653986,-1.255136,-0.023424,-0.148352,-4.585,11.2,-54.11,41.376003,12.920001,31.304,concentric,4,3.0,22057.0,316723.0,285262.0,334602.0,294603.0
2026-04-07 17:50:49.306784,242418,1319661545,1319662726,-1.253184,-0.011712,-0.142496,-1.33,12.3725,-54.6,40.144,13.040001,31.984001,concentric,4,3.0,22057.0,316723.0,285262.0,334602.0,294603.0
2026-04-07 17:50:49.308384,242419,1319676022,1319677638,-1.218048,0.0,-0.122976,0.56875,12.5825,-54.25,39.696003,13.352,31.552002,concentric,4,3.0,22057.0,316723.0,285262.0,334602.0,294603.0
2026-04-07 17:50:49.313066,242420,1319684906,1319686340,-1.218048,0.0,-0.122976,-1.58375,13.27375,-53.515,39.696003,13.352,31.552002,concentric,4,3.0,22057.0,316723.0,285262.0,334602.0,294603.0
2026-04-07 17:50:49.314273,242421,1319693818,1319695051,-1.21024,-0.005856,-0.105408,-4.12125,13.230001,-53.45375,39.304,14.456,29.112001,concentric,4,3.0,22057.0,316723.0,285262.0,334602.0,294603.0
2026-04-07 17:50:49.316146,242422,1319708259,1319710029,-1.21024,-0.005856,-0.105408,-3.71875,13.71125,-52.85875,39.304,14.456,29.112001,concentric,4,3.0,22057.0,316723.0,285262.0,334602.0,294603.0
2026-04-07 17:50:49.350411,242433,1319717725,1319719015,-1.16144,-0.044896,-0.081984,-2.93125,13.83375,-51.1525,38.480003,14.592001,31.288002,concentric,4,3.0,22043.0,316901.0,285554.0,335050.0,294996.0
2026-04-07 17:50:49.351938,242434,1319726767,1319727779,-1.16144,-0.044896,-0.081984,-2.9925,12.69625,-48.95625,38.480003,14.592001,31.288002,concentric,4,3.0,22043.0,316901.0,285554.0,335050.0,294996.0
2026-04-07 17:50:49.356324,242435,1319735708,1319736552,-1.098976,-0.076128,-0.091744,-6.13375,9.8175,-46.59375,38.112003,15.216001,32.104,concentric,4,3.0,22043.0,316901.0,285554.0,335050.0,294996.0
2026-04-07 17:50:49.358678,242436,1319750329,1319751474,-1.098976,-0.076128,-0.091744,-8.0675,7.84,-42.98875,38.112003,15.216001,32.104,concentric,4,3.0,22043.0,316901.0,285554.0,335050.0,294996.0
2026-04-07 17:50:49.389375,242437,1319759249,1319760198,-1.059936,-0.054656,-0.10736,-8.54875,6.11625,-39.48875,37.856003,15.320001,32.056,concentric,4,3.0,22043.0,316901.0,285554.0,335050.0,294996.0
2026-04-07 17:50:49.392405,242438,1319768174,1319768922,-1.059936,-0.054656,-0.10736,-7.49,4.59375,-38.2375,37.856003,15.320001,32.056,concentric,4,3.0,22043.0,316901.0,285554.0,335050.0,294996.0
2026-04-07 17:50:49.396129,242439,1319783142,1319783824,-1.16144,0.050752,-0.144448,-4.41,3.59625,-36.58375,37.264,16.048,30.888002,concentric,4,3.0,22043.0,316901.0,285554.0,335050.0,294996.0
2026-04-07 17:50:49.400205,242440,1319792498,1319794578,-1.16144,0.050752,-0.144448,2.555,2.8525,-36.715,37.264,16.048,30.888002,concentric,4,3.0,22043.0,316901.0,285554.0,335050.0,294996.0
2026-04-07 17:50:49.430501,242441,1319801444,1319803258,-1.13216,0.121024,-0.105408,9.45,3.24625,-37.42375,36.352,15.904,30.976002,concentric,4,3.0,22043.0,316901.0,285554.0,335050.0,294996.0
2026-04-07 17:50:49.435025,242442,1319810399,1319811972,-1.13216,0.121024,-0.105408,11.97,2.5725,-38.78,36.352,15.904,30.976002,concentric,4,3.0,22043.0,316901.0,285554.0,335050.0,294996.0
2026-04-07 17:50:49.458164,242452,1319824933,1319826919,-1.179008,-0.005856,-0.138592,6.79875,1.9075,-38.745,36.152,16.176,31.056002,concentric,4,3.0,21985.0,316014.0,284672.0,333910.0,293904.0
2026-04-07 17:50:49.460731,242453,1319833879,1319835614,-1.179008,-0.08784,-0.08784,-2.45875,-0.09625,-37.72125,36.152,16.176,33.104,concentric,4,3.0,21985.0,316014.0,284672.0,333910.0,293904.0
2026-04-07 17:50:49.463280,242454,1319842834,1319844314,-1.177056,-0.08784,-0.08784,-6.8425,-1.72375,-35.53375,35.776,16.12,34.688004,concentric,4,3.0,21985.0,316014.0,284672.0,333910.0,293904.0
2026-04-07 17:50:49.465819,242455,1319857411,1319859235,-1.196576,-0.027328,-0.101504,-4.2175,-1.40875,-32.66375,34.832,16.560001,32.144,concentric,4,3.0,21985.0,316014.0,284672.0,333910.0,293904.0
2026-04-07 17:50:49.472355,242456,1319866357,1319867943,-1.196576,-0.027328,-0.101504,2.03,-0.53375,-33.18875,34.832,16.560001,32.144,concentric,4,3.0,21985.0,316014.0,284672.0,333910.0,293904.0
2026-04-07 17:50:49.502111,242457,1319875277,1319876662,-1.216096,0.0,-0.220576,7.5075,-1.40875,-34.16,35.440002,16.272001,31.032001,concentric,4,3.0,21985.0,316014.0,284672.0,333910.0,293904.0
2026-04-07 17:50:49.505696,242458,1319884209,1319885360,-1.216096,0.0,-0.220576,10.40375,-4.3925,-28.97125,35.440002,16.272001,31.032001,concentric,4,3.0,21985.0,316014.0,284672.0,333910.0,293904.0
2026-04-07 17:50:49.546007,242459,1319898734,1319900249,-1.138016,-0.021472,-0.203008,12.24125,-7.81375,-26.355,34.944,16.776001,31.520002,concentric,4,3.0,21985.0,316014.0,284672.0,333910.0,293904.0
2026-04-07 17:50:49.549488,242460,1319907759,1319908997,-1.138016,-0.021472,-0.203008,13.58875,-10.395,-27.06375,34.944,16.776001,31.520002,concentric,4,3.0,21985.0,316014.0,284672.0,333910.0,293904.0
2026-04-07 17:50:49.609429,242470,1319916666,1319917941,-1.0736,-0.013664,-0.144448,11.698751,-12.6,-26.55625,35.640003,17.712,31.352001,concentric,4,3.0,21857.0,315072.0,283924.0,333154.0,293284.0
2026-04-07 17:50:49.611886,242471,1319931234,1319932847,-1.0736,-0.013664,-0.144448,10.19375,-13.69375,-28.2275,35.640003,17.712,31.352001,concentric,4,3.0,21857.0,315072.0,283924.0,333154.0,293284.0
2026-04-07 17:50:49.614441,242472,1319940146,1319941540,-1.081408,-0.00976,-0.06832,9.948751,-14.34125,-29.91625,34.048,17.104,31.536001,concentric,4,3.0,21857.0,315072.0,283924.0,333154.0,293284.0
2026-04-07 17:50:49.616879,242473,1319949076,1319950358,-1.081408,-0.00976,-0.06832,10.0975,-13.93,-29.1725,34.048,17.104,31.536001,concentric,4,3.0,21857.0,315072.0,283924.0,333154.0,293284.0
2026-04-07 17:50:49.619384,242474,1319963678,1319965362,-1.016992,0.003904,-0.027328,6.615,-12.76625,-25.43625,33.896,17.096,31.216002,concentric,4,3.0,21857.0,315072.0,283924.0,333154.0,293284.0
2026-04-07 17:50:49.622130,242475,1319972706,1319974090,-1.016992,0.003904,-0.027328,3.03625,-11.90875,-27.4925,33.896,17.096,31.216002,concentric,4,3.0,21857.0,315072.0,283924.0,333154.0,293284.0
2026-04-07 17:50:49.624471,242476,1319981699,1319982809,-0.976,-0.064416,-0.033184,2.98375,-10.85,-28.1225,33.168003,17.352001,32.264,concentric,4,3.0,21857.0,315072.0,283924.0,333154.0,293284.0
2026-04-07 17:50:49.627000,242477,1319996206,1319998048,-0.925248,-0.089792,-0.052704,3.40375,-11.06,-24.7275,33.208,17.496,32.016003,concentric,4,3.0,21857.0,315072.0,283924.0,333154.0,293284.0
2026-04-07 17:50:49.629482,242478,1320005189,1320006895,-0.925248,-0.089792,-0.052704,4.85625,-10.54375,-25.71625,33.208,17.496,32.016003,concentric,4,3.0,21857.0,315072.0,283924.0,333154.0,293284.0
2026-04-07 17:50:49.631966,242479,1320014157,1320015603,-0.925248,-0.089792,-0.037088,7.04375,-8.58375,-24.96375,33.208,17.496,32.016003,concentric,4,3.0,21857.0,315072.0,283924.0,333154.0,293284.0
2026-04-07 17:50:49.659496,242490,1320023314,1320024868,-0.851072,-0.044896,-0.046848,8.7325,-6.02875,-25.4275,32.464,17.184,33.056,concentric,4,3.0,21651.0,313304.0,282538.0,331718.0,292044.0
2026-04-07 17:50:49.665700,242491,1320037870,1320039841,-0.84912,-0.0488,-0.003904,7.18375,-3.49125,-26.0925,32.552002,17.688002,32.72,concentric,4,3.0,21651.0,313304.0,282538.0,331718.0,292044.0
2026-04-07 17:50:49.668158,242492,1320046899,1320048622,-0.84912,-0.0488,-0.003904,2.73,-2.3625,-26.5825,32.552002,17.688002,32.72,concentric,4,3.0,21651.0,313304.0,282538.0,331718.0,292044.0
2026-04-07 17:50:49.670719,242493,1320055933,1320057349,-0.864736,-0.07808,-0.007808,-2.24875,-1.21625,-26.1275,32.32,17.456001,32.72,concentric,4,3.0,21651.0,313304.0,282538.0,331718.0,292044.0
2026-04-07 17:50:49.676996,242494,1320070493,1320072287,-0.864736,-0.07808,-0.007808,-3.2025,-0.37625,-23.96625,32.32,17.456001,32.72,concentric,4,3.0,21651.0,313304.0,282538.0,331718.0,292044.0
2026-04-07 17:50:49.707122,242495,1320079602,1320080985,-0.749568,-0.142496,0.021472,0.58625,0.95375,-21.647501,31.752,17.04,31.504002,concentric,4,3.0,21651.0,313304.0,282538.0,331718.0,292044.0
2026-04-07 17:50:49.710847,242496,1320088569,1320089642,-0.749568,-0.142496,0.021472,2.31,2.31,-20.27375,31.752,17.04,31.504002,concentric,4,3.0,21651.0,313304.0,282538.0,331718.0,292044.0
2026-04-07 17:50:49.713168,242497,1320097461,1320098344,-0.687104,-0.201056,0.011712,-2.2925,3.64875,-19.6175,31.936,17.584002,31.408,concentric,4,3.0,21651.0,313304.0,282538.0,331718.0,292044.0
2026-04-07 17:50:49.718135,242498,1320112000,1320113219,-0.687104,-0.201056,0.011712,-7.21,3.29875,-19.13625,31.936,17.584002,31.408,concentric,4,3.0,21651.0,313304.0,282538.0,331718.0,292044.0
2026-04-07 17:50:49.758107,242508,1320121122,1320121959,-0.69296,-0.119072,-0.025376,-7.63,2.44125,-16.625,31.896002,17.464,31.304,concentric,4,3.0,21235.0,310105.0,280140.0,329385.0,290293.0
2026-04-07 17:50:49.760711,242509,1320130124,1320130765,-0.69296,-0.119072,-0.025376,-4.9875,2.44125,-12.6,31.896002,17.464,31.304,concentric,4,3.0,21235.0,310105.0,280140.0,329385.0,290293.0
2026-04-07 17:50:49.763152,242510,1320144984,1320145695,-0.66368,-0.07808,-0.05856,-3.77125,2.415,-9.84375,31.384,17.624,31.368002,concentric,4,3.0,21235.0,310105.0,280140.0,329385.0,290293.0
2026-04-07 17:50:49.765691,242511,1320154329,1320156470,-0.66368,-0.07808,-0.05856,-5.88,0.79625,-8.54,31.384,17.624,31.368002,concentric,4,3.0,21235.0,310105.0,280140.0,329385.0,290293.0
2026-04-07 17:50:49.770717,242512,1320163376,1320165214,-0.716384,-0.16592,-0.103456,-7.41125,-2.10875,-7.65625,31.416002,17.28,30.608002,concentric,4,3.0,21235.0,310105.0,280140.0,329385.0,290293.0
2026-04-07 17:50:49.801782,242513,1320172402,1320173932,-0.716384,-0.16592,-0.103456,-3.5875,-4.82125,-4.62875,31.416002,17.28,30.608002,concentric,4,3.0,21235.0,310105.0,280140.0,329385.0,290293.0
2026-04-07 17:50:49.806255,242514,1320186910,1320188837,-0.583648,-0.201056,-0.042944,0.98,-6.3,-2.59875,31.352001,16.944,32.896,concentric,4,3.0,21235.0,310105.0,280140.0,329385.0,290293.0
2026-04-07 17:50:49.807750,242515,1320195857,1320197538,-0.667584,-0.203008,0.01952,3.91125,-7.11375,-2.485,31.352001,18.232,30.824001,concentric,4,3.0,21235.0,310105.0,280140.0,329385.0,290293.0
2026-04-07 17:50:49.813636,242516,1320204766,1320206248,-0.667584,-0.203008,0.01952,6.01125,-7.63875,-0.56875,31.824001,18.232,30.824001,concentric,4,3.0,21235.0,310105.0,280140.0,329385.0,290293.0
2026-04-07 17:50:49.900409,242526,1320219468,1320221051,-0.677344,-0.101504,-0.025376,7.34125,-7.9275,4.2525,31.552002,17.608002,31.656002,concentric,4,3.0,20960.0,308011.0,278563.0,327818.0,288821.0
2026-04-07 17:50:49.902830,242527,1320228647,1320229922,-0.677344,-0.101504,-0.025376,6.895,-8.19,8.23375,31.552002,17.608002,31.656002,concentric,4,3.0,20960.0,308011.0,278563.0,327818.0,288821.0
2026-04-07 17:50:49.905354,242528,1320237542,1320238682,-0.651968,-0.113216,-0.042944,3.24625,-8.365,9.2575,31.872002,17.2,31.416002,concentric,4,3.0,20960.0,308011.0,278563.0,327818.0,288821.0
2026-04-07 17:50:49.906940,242529,1320246547,1320247379,-0.651968,-0.113216,-0.042944,-0.86625,-7.5075,9.835,31.872002,17.2,31.416002,concentric,4,3.0,20960.0,308011.0,278563.0,327818.0,288821.0
2026-04-07 17:50:49.911188,242530,1320261124,1320262345,-0.679296,-0.16592,0.013664,-1.645,-4.85625,11.7075,32.256,17.432001,31.760002,concentric,4,3.0,20960.0,308011.0,278563.0,327818.0,288821.0
2026-04-07 17:50:49.912858,242531,1320270061,1320271031,-0.679296,-0.16592,0.013664,-1.7675,-1.855,13.86875,32.256,17.432001,31.760002,concentric,4,3.0,20960.0,308011.0,278563.0,327818.0,288821.0
2026-04-07 17:50:49.914447,242532,1320278981,1320279715,-0.75152,-0.187392,0.005856,-3.5,-0.6825,16.33625,31.920002,17.312,31.392002,concentric,4,3.0,20960.0,308011.0,278563.0,327818.0,288821.0
2026-04-07 17:50:49.918655,242533,1320293870,1320294609,-0.75152,-0.187392,0.005856,-4.095,-1.14625,18.97,31.920002,17.312,31.392002,concentric,4,3.0,20960.0,308011.0,278563.0,327818.0,288821.0
2026-04-07 17:50:49.920364,242534,1320303329,1320305485,-0.710528,-0.130784,-0.00976,-1.81125,-0.44625,21.7875,32.688,17.064001,29.760002,concentric,4,3.0,20960.0,308011.0,278563.0,327818.0,288821.0
2026-04-07 17:50:49.922059,242535,1320312279,1320314195,-0.710528,-0.130784,-0.00976,-3.10625,1.04125,24.75375,32.688,17.064001,29.760002,concentric,4,3.0,20960.0,308011.0,278563.0,327818.0,288821.0
2026-04-07 17:50:49.954092,242546,1320321824,1320322945,-0.657824,-0.12688,-0.017568,-7.245,2.17,25.20875,32.616,16.768002,32.272003,concentric,4,3.0,20822.0,306805.0,277529.0,326664.0,287600.0
2026-04-07 17:50:49.955673,242547,1320336460,1320337952,-0.667584,-0.163968,-0.037088,-13.37,4.55875,26.022501,34.664,16.504002,32.120003,concentric,4,3.0,20822.0,306805.0,277529.0,326664.0,287600.0
2026-04-07 17:50:49.960090,242548,1320345393,1320346689,-0.667584,-0.163968,-0.037088,-18.6025,8.0675,27.43125,33.128002,16.504002,32.120003,concentric,4,3.0,20822.0,306805.0,277529.0,326664.0,287600.0
2026-04-07 17:50:49.961551,242549,1320354338,1320355414,-0.667584,-0.163968,-0.037088,-20.51875,11.27875,28.20125,33.128002,16.504002,32.120003,concentric,4,3.0,20822.0,306805.0,277529.0,326664.0,287600.0
2026-04-07 17:50:49.991750,242550,1320368931,1320370307,-0.76128,-0.12688,-0.00976,-17.43,13.65,30.0125,34.08,16.552,31.912,concentric,4,3.0,20822.0,306805.0,277529.0,326664.0,287600.0
2026-04-07 17:50:49.994053,242551,1320377855,1320379020,-0.735904,-0.099552,-0.056608,-13.71125,14.14875,31.08,34.328003,16.464,29.064001,concentric,4,3.0,20822.0,306805.0,277529.0,326664.0,287600.0
2026-04-07 17:50:49.998656,242552,1320386750,1320387688,-0.735904,-0.099552,-0.056608,-16.23125,15.627501,30.38875,34.328003,16.464,29.064001,concentric,4,3.0,20822.0,306805.0,277529.0,326664.0,287600.0
2026-04-07 17:50:50.002712,242553,1320395690,1320396389,-0.735904,-0.099552,-0.056608,-22.63625,18.235,29.05,34.328003,16.464,29.064001,concentric,4,3.0,20822.0,306805.0,277529.0,326664.0,287600.0
2026-04-07 17:50:50.033054,242554,1320410549,1320411305,-0.772992,-0.099552,-0.062464,-27.62375,19.60875,27.5625,34.472,16.168001,30.408,concentric,4,3.0,20822.0,306805.0,277529.0,326664.0,287600.0
2026-04-07 17:50:50.060051,242564,1320419885,1320422070,-0.909632,-0.025376,-0.060512,-24.29875,21.25375,25.9,35.328003,15.952001,30.264002,concentric,4,3.0,20387.0,302829.0,274288.0,323371.0,284546.0
2026-04-07 17:50:50.061652,242565,1320429298,1320430777,-0.909632,-0.025376,-0.060512,-17.6225,23.59875,25.26125,35.328003,15.952001,30.264002,concentric,4,3.0,20387.0,302829.0,274288.0,323371.0,284546.0
