pc_time,serial_num,sensor_ts,host_ts,ax,ay,az,gx,gy,gz,mx,my,mz,phase,rpe,weight_kg,ppg_a,ppg_b,ppg_c,ppg_d,ppg_e
2026-04-07 17:51:14.768277,247169,1345134963,1345136436,-0.532896,-0.122976,-0.18544,-9.87875,-11.57625,13.76375,34.144,16.816,27.12,eccentric,4,3.0,19942.0,300838.0,274354.0,327569.0,292731.0
2026-04-07 17:51:14.771868,247170,1345143886,1345145130,-0.532896,-0.122976,-0.18544,-7.91875,-12.845,16.03,34.144,16.816,27.12,eccentric,4,3.0,19942.0,300838.0,274354.0,327569.0,292731.0
2026-04-07 17:51:14.801817,247180,1345158318,1345160494,-0.509472,-0.199104,-0.10736,-6.16,-13.93875,19.25,33.576,16.784,28.072,eccentric,4,3.0,20267.0,303449.0,276242.0,329073.0,293490.0
2026-04-07 17:51:14.804286,247181,1345167234,1345169192,-0.542656,-0.20496,-0.0976,-5.76625,-12.775,22.86375,33.824,16.512001,28.688002,eccentric,4,3.0,20267.0,303449.0,276242.0,329073.0,293490.0
2026-04-07 17:51:14.806789,247182,1345176183,1345177929,-0.542656,-0.20496,-0.0976,-8.575,-12.32875,25.96125,33.824,16.512001,28.688002,eccentric,4,3.0,20267.0,303449.0,276242.0,329073.0,293490.0
2026-04-07 17:51:14.809326,247183,1345190676,1345192885,-0.49776,-0.154208,-0.163968,-10.61375,-12.27625,29.6625,33.776,15.752001,27.688002,eccentric,4,3.0,20267.0,303449.0,276242.0,329073.0,293490.0
2026-04-07 17:51:14.811812,247184,1345199603,1345201603,-0.49776,-0.154208,-0.163968,-9.2575,-10.77125,31.15,33.776,15.752001,27.688002,eccentric,4,3.0,20267.0,303449.0,276242.0,329073.0,293490.0
2026-04-07 17:51:14.815534,247185,1345208568,1345210356,-0.579744,-0.132736,-0.177632,-7.805,-9.205,30.380001,34.784,15.720001,28.072,eccentric,4,3.0,20267.0,303449.0,276242.0,329073.0,293490.0
2026-04-07 17:51:14.845825,247186,1345223078,1345225289,-0.579744,-0.132736,-0.177632,-7.48125,-9.28375,29.14625,34.784,15.720001,28.072,eccentric,4,3.0,20267.0,303449.0,276242.0,329073.0,293490.0
2026-04-07 17:51:14.849368,247187,1345231984,1345233972,-0.679296,-0.140544,-0.10736,-6.1775,-9.26625,28.07875,34.640003,15.608001,27.616001,eccentric,4,3.0,20267.0,303449.0,276242.0,329073.0,293490.0
2026-04-07 17:51:14.851765,247188,1345240897,1345242658,-0.679296,-0.140544,-0.10736,-5.88,-9.42375,27.79,34.640003,15.608001,27.616001,eccentric,4,3.0,20267.0,303449.0,276242.0,329073.0,293490.0
2026-04-07 17:51:14.882027,247189,1345255371,1345257615,-0.696864,-0.074176,-0.12688,-7.49,-8.81125,28.79625,35.960003,15.648001,28.52,eccentric,4,3.0,20267.0,303449.0,276242.0,329073.0,293490.0
2026-04-07 17:51:14.910912,247200,1345264398,1345266364,-0.696864,-0.074176,-0.12688,-9.8875,-6.60625,27.92125,35.960003,15.648001,28.52,eccentric,4,3.0,20027.0,300946.0,274048.0,326516.0,291333.0
2026-04-07 17:51:14.913267,247201,1345273419,1345275088,-0.704672,-0.099552,-0.134688,-12.6525,-3.77125,25.69875,36.16,16.04,27.776001,eccentric,4,3.0,20027.0,300946.0,274048.0,326516.0,291333.0
2026-04-07 17:51:14.915537,247202,1345282339,1345283797,-0.704672,-0.099552,-0.134688,-14.7875,-0.77875,23.30125,36.16,16.04,27.776001,eccentric,4,3.0,20027.0,300946.0,274048.0,326516.0,291333.0
2026-04-07 17:51:14.917998,247203,1345296936,1345298882,-0.759328,-0.105408,-0.163968,-13.39625,3.0275,21.647501,35.624,15.120001,28.832,eccentric,4,3.0,20027.0,300946.0,274048.0,326516.0,291333.0
2026-04-07 17:51:14.920513,247204,1345305904,1345307675,-0.759328,-0.105408,-0.163968,-8.67125,5.005,21.1225,35.624,15.120001,28.832,eccentric,4,3.0,20027.0,300946.0,274048.0,326516.0,291333.0
2026-04-07 17:51:14.923083,247205,1345314824,1345316419,-0.876448,-0.023424,-0.1464,-5.5125,5.18,21.5775,35.640003,14.880001,27.816002,eccentric,4,3.0,20027.0,300946.0,274048.0,326516.0,291333.0
2026-04-07 17:51:14.953234,247206,1345329352,1345331360,-0.895968,0.0,-0.187392,-6.11625,3.9025,20.60625,36.480003,15.264001,27.160002,eccentric,4,3.0,20027.0,300946.0,274048.0,326516.0,291333.0
2026-04-07 17:51:14.956784,247207,1345338280,1345340091,-0.895968,0.0,-0.187392,-9.84375,2.6075,18.375,36.480003,15.264001,27.160002,eccentric,4,3.0,20027.0,300946.0,274048.0,326516.0,291333.0
2026-04-07 17:51:14.959200,247208,1345347225,1345348742,-0.864736,-0.050752,-0.277184,-13.67625,0.88375,13.055,37.2,15.160001,27.160002,eccentric,4,3.0,20027.0,300946.0,274048.0,326516.0,291333.0
2026-04-07 17:51:14.993058,247218,1345362191,1345363819,-0.864736,-0.050752,-0.277184,-15.67125,-0.98875,9.54625,37.2,15.160001,27.160002,eccentric,4,3.0,19778.0,298592.0,271994.0,324468.0,289781.0
2026-04-07 17:51:14.995484,247219,1345371256,1345372546,-1.00528,0.0,-0.162016,-11.13875,-1.8375,6.685,36.704002,14.784,28.864002,eccentric,4,3.0,19778.0,298592.0,271994.0,324468.0,289781.0
2026-04-07 17:51:14.998033,247220,1345380208,1345381312,-1.00528,0.0,-0.162016,-4.48,-3.36,5.01375,36.704002,14.784,28.864002,eccentric,4,3.0,19778.0,298592.0,271994.0,324468.0,289781.0
2026-04-07 17:51:15.000594,247221,1345389121,1345390068,-1.057984,0.015616,-0.152256,-5.355,-7.72625,3.68375,36.88,14.688001,29.608002,eccentric,4,3.0,19778.0,298592.0,271994.0,324468.0,289781.0
2026-04-07 17:51:15.030695,247222,1345403695,1345404992,-1.057984,0.015616,-0.152256,-6.7725,-11.31375,2.625,36.88,14.688001,29.608002,eccentric,4,3.0,19778.0,298592.0,271994.0,324468.0,289781.0
2026-04-07 17:51:15.034338,247223,1345412618,1345413686,-1.022848,-0.011712,-0.152256,-7.9975,-12.915,1.1725,37.52,14.880001,28.160002,eccentric,4,3.0,19778.0,298592.0,271994.0,324468.0,289781.0
2026-04-07 17:51:15.068267,247224,1345421525,1345422389,-1.022848,-0.011712,-0.152256,-10.9025,-12.55625,-0.65625,37.52,14.880001,28.160002,eccentric,4,3.0,19778.0,298592.0,271994.0,324468.0,289781.0
2026-04-07 17:51:15.071951,247225,1345436031,1345437334,-0.999424,-0.070272,-0.154208,-14.23625,-9.91375,-1.8375,37.88,14.64,27.104002,eccentric,4,3.0,19778.0,298592.0,271994.0,324468.0,289781.0
2026-04-07 17:51:15.074316,247226,1345444986,1345446061,-0.999424,-0.070272,-0.154208,-11.73375,-5.6525,-2.8525,37.88,14.64,27.104002,eccentric,4,3.0,19778.0,298592.0,271994.0,324468.0,289781.0
2026-04-07 17:51:15.078574,247227,1345453894,1345454773,-1.163392,-0.005856,-0.062464,-4.515,0.175,-0.37625,37.832,14.848001,27.392002,eccentric,4,3.0,19778.0,298592.0,271994.0,324468.0,289781.0
2026-04-07 17:51:15.104255,247237,1345468434,1345469716,-1.118496,0.017568,-0.085888,-1.05875,4.13,2.485,38.568,15.008,28.160002,eccentric,4,3.0,19477.0,295559.0,269283.0,321467.0,287456.0
2026-04-07 17:51:15.140678,247238,1345477366,1345478533,-1.118496,0.017568,-0.085888,-2.2225,7.7,3.4825,38.568,15.008,28.160002,eccentric,4,3.0,19477.0,295559.0,269283.0,321467.0,287456.0
2026-04-07 17:51:15.144866,247239,1345486292,1345487266,-1.118496,0.017568,-0.085888,-3.5,10.5175,3.255,38.568,15.008,28.160002,eccentric,4,3.0,19477.0,295559.0,269283.0,321467.0,287456.0
2026-04-07 17:51:15.147529,247240,1345495287,1345495998,-1.126304,0.023424,-0.115168,-4.85625,13.78125,2.05625,38.04,14.400001,29.784002,eccentric,4,3.0,19477.0,295559.0,269283.0,321467.0,287456.0
2026-04-07 17:51:15.152124,247241,1345510268,1345510901,-1.114592,0.017568,-0.197152,-5.99375,16.89625,1.00625,38.624,15.120001,26.888,eccentric,4,3.0,19477.0,295559.0,269283.0,321467.0,287456.0
2026-04-07 17:51:15.153258,247242,1345519486,1345521655,-1.114592,0.017568,-0.197152,-5.2675,17.2375,-1.1025,38.624,15.120001,26.888,eccentric,4,3.0,19477.0,295559.0,269283.0,321467.0,287456.0
2026-04-07 17:51:15.157315,247243,1345528403,1345530371,-1.155584,-0.00976,-0.173728,-3.63125,16.45875,-3.87625,39.064003,14.432001,27.176,eccentric,4,3.0,19477.0,295559.0,269283.0,321467.0,287456.0
2026-04-07 17:51:15.158981,247244,1345543002,1345545335,-1.155584,-0.00976,-0.173728,-1.04125,13.667501,-2.1875,39.064003,14.432001,27.176,eccentric,4,3.0,19477.0,295559.0,269283.0,321467.0,287456.0
2026-04-07 17:51:15.160592,247245,1345551957,1345554044,-1.120448,0.021472,-0.128832,3.6225,10.63125,-1.4,39.656002,14.568001,28.328001,eccentric,4,3.0,19477.0,295559.0,269283.0,321467.0,287456.0
2026-04-07 17:51:15.221696,247256,1345561057,1345562770,-1.120448,0.021472,-0.128832,7.97125,9.03875,0.595,39.656002,14.568001,28.328001,eccentric,4,3.0,19290.0,293816.0,267885.0,320268.0,286658.0
2026-04-07 17:51:15.224016,247257,1345570031,1345571462,-1.179008,0.083936,-0.142496,9.45875,8.72375,1.435,39.760002,15.304001,26.712002,eccentric,4,3.0,19290.0,293816.0,267885.0,320268.0,286658.0
2026-04-07 17:51:15.226475,247258,1345584510,1345586388,-1.179008,0.083936,-0.142496,11.025,8.96875,-0.0875,39.760002,15.304001,26.712002,eccentric,4,3.0,19290.0,293816.0,267885.0,320268.0,286658.0
2026-04-07 17:51:15.228142,247259,1345593513,1345595095,-1.114592,0.013664,-0.167872,9.4675,10.12375,-2.555,39.488003,14.6,27.408,eccentric,4,3.0,19290.0,293816.0,267885.0,320268.0,286658.0
2026-04-07 17:51:15.232576,247260,1345602596,1345603819,-1.114592,0.013664,-0.167872,8.2075,11.9,-5.34625,39.488003,14.6,27.408,eccentric,4,3.0,19290.0,293816.0,267885.0,320268.0,286658.0
2026-04-07 17:51:15.234005,247261,1345617270,1345618818,-1.126304,-0.056608,-0.154208,5.25,12.08375,-5.355,38.88,14.472001,27.064001,eccentric,4,3.0,19290.0,293816.0,267885.0,320268.0,286658.0
2026-04-07 17:51:15.236379,247262,1345626198,1345627533,-1.126304,-0.056608,-0.154208,2.3975,10.64,-3.24625,38.88,14.472001,27.064001,eccentric,4,3.0,19290.0,293816.0,267885.0,320268.0,286658.0
2026-04-07 17:51:15.243497,247263,1345635188,1345636254,-1.204384,0.054656,-0.122976,4.725,9.30125,-0.67375,39.648003,14.544001,28.056002,eccentric,4,3.0,19290.0,293816.0,267885.0,320268.0,286658.0
2026-04-07 17:51:15.272012,247264,1345649710,1345651151,-1.169248,0.066368,-0.167872,12.11,8.98625,2.38875,39.816,14.048,26.912,eccentric,4,3.0,19290.0,293816.0,267885.0,320268.0,286658.0
2026-04-07 17:51:15.276554,247265,1345658616,1345659842,-1.169248,0.066368,-0.167872,11.96125,8.015,1.89,39.816,14.048,26.912,eccentric,4,3.0,19290.0,293816.0,267885.0,320268.0,286658.0
2026-04-07 17:51:15.302831,247275,1345667666,1345668601,-1.169248,0.066368,-0.167872,7.14,7.8575,0.00875,39.816,14.048,26.912,eccentric,4,3.0,19343.0,294497.0,268594.0,321307.0,287555.0
2026-04-07 17:51:15.303935,247276,1345676592,1345677363,-1.059936,-0.050752,-0.201056,3.08875,9.44125,-0.32375,39.648003,14.200001,27.12,eccentric,4,3.0,19343.0,294497.0,268594.0,321307.0,287555.0
2026-04-07 17:51:15.307316,247277,1345691603,1345692281,-1.022848,-0.03904,-0.197152,-3.1675,10.56125,-0.5775,39.544003,13.920001,29.208002,eccentric,4,3.0,19343.0,294497.0,268594.0,321307.0,287555.0
2026-04-07 17:51:15.311800,247278,1345700934,1345703088,-1.022848,-0.03904,-0.197152,-8.05875,8.61875,-1.1025,39.544003,13.920001,29.208002,eccentric,4,3.0,19343.0,294497.0,268594.0,321307.0,287555.0
2026-04-07 17:51:15.369854,247279,1345709882,1345711858,-1.138016,0.0488,-0.212768,-4.8475,3.98125,-1.81125,40.232002,14.528001,27.792002,eccentric,4,3.0,19343.0,294497.0,268594.0,321307.0,287555.0
2026-04-07 17:51:15.371543,247280,1345718835,1345720544,-1.138016,0.0488,-0.212768,1.4525,-0.6475,-1.505,40.232002,14.528001,27.792002,eccentric,4,3.0,19343.0,294497.0,268594.0,321307.0,287555.0
2026-04-07 17:51:15.373095,247281,1345733319,1345735409,-1.272704,0.105408,-0.1464,8.8375,-3.78,-0.4025,40.616,14.696001,27.152,eccentric,4,3.0,19343.0,294497.0,268594.0,321307.0,287555.0
2026-04-07 17:51:15.376787,247282,1345742273,1345744106,-1.272704,0.105408,-0.1464,17.98125,-6.15125,-1.54875,40.616,14.696001,27.152,eccentric,4,3.0,19343.0,294497.0,268594.0,321307.0,287555.0
2026-04-07 17:51:15.381998,247283,1345751218,1345752804,-1.108736,-0.056608,-0.162016,19.1275,-7.175,-4.20875,40.536003,14.080001,27.544,eccentric,4,3.0,19343.0,294497.0,268594.0,321307.0,287555.0
2026-04-07 17:51:15.406798,247293,1345766369,1345768110,-1.108736,-0.056608,-0.162016,12.005,-6.67625,-8.23375,40.536003,14.080001,27.544,eccentric,4,3.0,19281.0,295034.0,269326.0,322644.0,289048.0
2026-04-07 17:51:15.409227,247294,1345775491,1345776894,-1.179008,-0.072224,-0.121024,7.6125,-4.90875,-7.70875,40.280003,14.240001,28.880001,eccentric,4,3.0,19281.0,295034.0,269326.0,322644.0,289048.0
2026-04-07 17:51:15.411795,247295,1345784417,1345785589,-1.179008,-0.072224,-0.121024,8.435,-3.96375,-5.73125,40.280003,14.240001,28.880001,eccentric,4,3.0,19281.0,295034.0,269326.0,322644.0,289048.0
2026-04-07 17:51:15.414552,247296,1345793377,1345794340,-1.24928,0.021472,-0.080032,12.775,-2.94,-2.8525,40.432003,13.8,28.000002,eccentric,4,3.0,19281.0,295034.0,269326.0,322644.0,289048.0
2026-04-07 17:51:15.423139,247297,1345807876,1345809349,-1.24928,0.021472,-0.080032,15.14625,-2.05625,0.11375,40.432003,13.8,28.000002,eccentric,4,3.0,19281.0,295034.0,269326.0,322644.0,289048.0
2026-04-07 17:51:15.425512,247298,1345816815,1345818048,-1.145824,-0.007808,-0.130784,10.395,-1.47,0.245,40.912003,14.080001,27.480001,eccentric,4,3.0,19281.0,295034.0,269326.0,322644.0,289048.0
2026-04-07 17:51:15.455685,247299,1345825696,1345826792,-1.145824,-0.007808,-0.130784,4.59375,-0.30625,-0.56,40.912003,14.080001,27.480001,eccentric,4,3.0,19281.0,295034.0,269326.0,322644.0,289048.0
2026-04-07 17:51:15.459286,247300,1345840148,1345841681,-1.196576,-0.025376,-0.140544,5.2325,1.3825,0.63875,41.176003,13.352,28.984001,eccentric,4,3.0,19281.0,295034.0,269326.0,322644.0,289048.0
2026-04-07 17:51:15.461864,247301,1345849080,1345850390,-1.182912,0.033184,-0.167872,5.55625,1.0325,1.1025,41.176003,13.352,27.808,eccentric,4,3.0,19281.0,295034.0,269326.0,322644.0,289048.0
2026-04-07 17:51:15.464362,247302,1345857976,1345859105,-1.182912,0.033184,-0.167872,6.39625,0.0525,-0.60375,41.36,13.776001,27.808,eccentric,4,3.0,19281.0,295034.0,269326.0,322644.0,289048.0
2026-04-07 17:51:15.494377,247313,1345873046,1345874180,-1.186816,0.021472,-0.144448,12.0225,-0.4375,-1.14625,40.792004,13.328001,28.864002,eccentric,4,3.0,19019.0,291775.0,266554.0,319709.0,286314.0
2026-04-07 17:51:15.496784,247314,1345882021,1345882866,-1.186816,0.021472,-0.144448,11.83,-1.07625,-1.60125,40.792004,13.328001,28.864002,eccentric,4,3.0,19019.0,291775.0,266554.0,319709.0,286314.0
2026-04-07 17:51:15.499333,247315,1345890999,1345891644,-1.20048,-0.033184,-0.11712,8.72375,-1.6275,-1.96,40.928,13.696001,29.272001,eccentric,4,3.0,19019.0,291775.0,266554.0,319709.0,286314.0
2026-04-07 17:51:15.529488,247316,1345900309,1345902424,-1.20048,-0.033184,-0.11712,7.2975,-1.8025,-0.41125,40.928,13.696001,29.272001,eccentric,4,3.0,19019.0,291775.0,266554.0,319709.0,286314.0
2026-04-07 17:51:15.533011,247317,1345914810,1345915265,-1.175104,-0.02928,-0.122976,8.225,-2.21375,1.7675,41.72,13.632001,27.960001,eccentric,4,3.0,19019.0,291775.0,266554.0,319709.0,286314.0
2026-04-07 17:51:15.535563,247318,1345924130,1345926010,-1.175104,-0.02928,-0.122976,8.96875,-3.31625,2.82625,41.72,13.632001,27.960001,eccentric,4,3.0,19019.0,291775.0,266554.0,319709.0,286314.0
2026-04-07 17:51:15.539302,247319,1345933138,1345934714,-1.153632,0.007808,-0.115168,10.26375,-2.40625,2.86125,41.944,13.240001,28.208002,eccentric,4,3.0,19019.0,291775.0,266554.0,319709.0,286314.0
2026-04-07 17:51:15.572015,247320,1345947639,1345949670,-1.153632,0.007808,-0.115168,9.37125,-1.26875,3.395,41.944,13.240001,28.208002,eccentric,4,3.0,19019.0,291775.0,266554.0,319709.0,286314.0
2026-04-07 17:51:15.575611,247321,1345956547,1345958363,-1.157536,0.011712,-0.132736,5.04875,-2.1,5.7225,42.2,12.744,28.208002,eccentric,4,3.0,19019.0,291775.0,266554.0,319709.0,286314.0
2026-04-07 17:51:15.600543,247331,1345965845,1345967287,-1.157536,0.011712,-0.132736,-0.0175,-4.20875,7.93625,42.2,12.744,28.208002,eccentric,4,3.0,19207.0,293920.0,268477.0,321718.0,287803.0
2026-04-07 17:51:15.603014,247332,1345974844,1345976046,-1.1712,0.017568,-0.1464,-1.04125,-6.16875,10.7275,42.464,12.584001,28.504002,eccentric,4,3.0,19207.0,293920.0,268477.0,321718.0,287803.0
2026-04-07 17:51:15.605537,247333,1345989370,1345991094,-1.1712,0.017568,-0.148352,1.19875,-7.91,13.3,42.464,12.584001,28.504002,eccentric,4,3.0,19207.0,293920.0,268477.0,321718.0,287803.0
2026-04-07 17:51:15.608002,247334,1345998354,1345999785,-1.108736,0.021472,-0.148352,2.5375,-9.03,13.0725,43.048,12.688001,29.640001,eccentric,4,3.0,19207.0,293920.0,268477.0,321718.0,287803.0
2026-04-07 17:51:15.613050,247335,1346007277,1346008510,-1.108736,0.021472,-0.148352,8.26,-7.77,11.89125,43.048,12.688001,29.640001,eccentric,4,3.0,19207.0,293920.0,268477.0,321718.0,287803.0
2026-04-07 17:51:15.668231,247336,1346021829,1346024145,-1.153632,0.091744,-0.111264,15.14625,-6.58875,10.9725,42.648003,12.320001,28.480001,eccentric,4,3.0,19207.0,293920.0,268477.0,321718.0,287803.0
2026-04-07 17:51:15.671855,247337,1346030929,1346032885,-1.237568,0.023424,-0.163968,17.395,-7.0875,10.63125,42.672,11.824,29.160002,eccentric,4,3.0,19207.0,293920.0,268477.0,321718.0,287803.0
2026-04-07 17:51:15.674221,247338,1346039839,1346041594,-1.237568,0.023424,-0.163968,15.61875,-10.99875,12.39875,42.672,11.824,29.160002,eccentric,4,3.0,19207.0,293920.0,268477.0,321718.0,287803.0
2026-04-07 17:51:15.676748,247339,1346054318,1346056501,-1.095072,-0.021472,-0.197152,11.83875,-15.77625,16.0825,43.000004,11.856001,29.424002,eccentric,4,3.0,19207.0,293920.0,268477.0,321718.0,287803.0
2026-04-07 17:51:15.715233,247349,1346063232,1346065596,-1.095072,-0.021472,-0.197152,13.055,-17.6925,18.47125,43.000004,11.856001,29.424002,eccentric,4,3.0,20073.0,301802.0,275035.0,327129.0,291172.0
2026-04-07 17:51:15.717010,247350,1346072175,1346074294,-1.126304,0.060512,-0.113216,16.94,-16.70375,19.45125,42.888,11.192,30.504002,eccentric,4,3.0,20073.0,301802.0,275035.0,327129.0,291172.0
2026-04-07 17:51:15.724892,247351,1346081135,1346083071,-1.126304,0.060512,-0.113216,20.78125,-16.178751,20.65,42.888,11.192,30.504002,eccentric,4,3.0,20073.0,301802.0,275035.0,327129.0,291172.0
2026-04-07 17:51:15.727281,247352,1346095686,1346097997,-1.227808,0.060512,-0.05856,24.68375,-16.905,21.32375,43.320004,10.448001,31.016,eccentric,4,3.0,20073.0,301802.0,275035.0,327129.0,291172.0
2026-04-07 17:51:15.728087,247353,1346104668,1346106703,-1.227808,0.060512,-0.05856,25.13,-19.67,25.33125,43.320004,10.448001,31.016,eccentric,4,3.0,20073.0,301802.0,275035.0,327129.0,291172.0
2026-04-07 17:51:15.732159,247354,1346113633,1346115415,-1.149728,0.064416,-0.109312,25.15625,-22.12875,30.616251,43.392002,9.968,31.104002,eccentric,4,3.0,20073.0,301802.0,275035.0,327129.0,291172.0
2026-04-07 17:51:15.737202,247355,1346128142,1346130380,-1.149728,0.064416,-0.109312,26.18875,-21.945,31.96375,43.392002,9.968,31.104002,eccentric,4,3.0,20073.0,301802.0,275035.0,327129.0,291172.0
2026-04-07 17:51:15.765703,247356,1346137068,1346139081,-1.100928,0.052704,-0.103456,23.7825,-19.845,30.54625,43.504,9.984,30.800001,eccentric,4,3.0,20073.0,301802.0,275035.0,327129.0,291172.0
2026-04-07 17:51:15.770226,247357,1346146002,1346147758,-1.100928,0.052704,-0.103456,20.0025,-16.96625,27.772501,43.504,9.984,30.800001,eccentric,4,3.0,20073.0,301802.0,275035.0,327129.0,291172.0
2026-04-07 17:51:15.772517,247358,1346160462,1346162757,-1.147776,0.085888,-0.103456,18.7075,-14.752501,25.26125,44.416,9.736,30.800001,eccentric,4,3.0,20073.0,301802.0,275035.0,327129.0,291172.0
2026-04-07 17:51:15.811859,247369,1346169489,1346171524,-1.147776,0.085888,-0.103456,15.56625,-12.67875,25.366251,44.416,9.736,30.800001,eccentric,4,3.0,20490.0,304478.0,275919.0,326090.0,289309.0
2026-04-07 17:51:15.814281,247370,1346178563,1346180337,-1.1712,0.031232,-0.115168,8.77625,-12.845,26.95,44.56,8.504001,31.072002,eccentric,4,3.0,20490.0,304478.0,275919.0,326090.0,289309.0
2026-04-07 17:51:15.816810,247371,1346193120,1346195281,-1.169248,0.0488,-0.074176,6.67625,-13.7025,27.553751,43.296,8.624001,32.936,eccentric,4,3.0,20490.0,304478.0,275919.0,326090.0,289309.0
2026-04-07 17:51:15.819399,247372,1346202024,1346203973,-1.169248,0.0488,-0.074176,8.5575,-14.1575,26.81,43.296,8.624001,32.936,eccentric,4,3.0,20490.0,304478.0,275919.0,326090.0,289309.0
2026-04-07 17:51:15.826758,247373,1346210999,1346212688,-1.1712,0.042944,-0.08784,12.95875,-13.50125,26.43375,43.296,8.536,31.304,eccentric,4,3.0,20490.0,304478.0,275919.0,326090.0,289309.0
2026-04-07 17:51:15.829310,247374,1346220083,1346221443,-1.1712,0.042944,-0.08784,14.21875,-12.845,24.87625,44.792004,8.536,31.304,eccentric,4,3.0,20490.0,304478.0,275919.0,326090.0,289309.0
2026-04-07 17:51:15.859469,247375,1346234609,1346236413,-1.163392,0.046848,-0.074176,11.38375,-12.6875,24.675,45.440002,7.464,31.328001,eccentric,4,3.0,20490.0,304478.0,275919.0,326090.0,289309.0
2026-04-07 17:51:15.863121,247376,1346243535,1346245114,-1.163392,0.046848,-0.074176,7.41125,-12.1275,25.4625,45.440002,7.464,31.328001,eccentric,4,3.0,20490.0,304478.0,275919.0,326090.0,289309.0
2026-04-07 17:51:15.865538,247377,1346252463,1346253809,-1.157536,-0.023424,-0.085888,5.34625,-12.075,27.055,45.568,7.592001,32.312,eccentric,4,3.0,20490.0,304478.0,275919.0,326090.0,289309.0
2026-04-07 17:51:15.922966,247387,1346267536,1346268883,-1.157536,-0.023424,-0.085888,7.00875,-12.18,29.02375,45.568,7.592001,32.312,eccentric,4,3.0,21085.0,309836.0,280036.0,329896.0,292482.0
2026-04-07 17:51:15.925480,247388,1346276556,1346277645,-1.095072,-0.025376,-0.085888,8.23375,-12.573751,30.03,45.184002,7.024,31.456001,eccentric,4,3.0,21085.0,309836.0,280036.0,329896.0,292482.0
2026-04-07 17:51:15.928009,247389,1346285509,1346286406,-1.095072,-0.025376,-0.085888,9.31,-11.025,28.4725,45.184002,7.024,31.456001,eccentric,4,3.0,21085.0,309836.0,280036.0,329896.0,292482.0
2026-04-07 17:51:15.930526,247390,1346294538,1346295125,-1.153632,0.095648,-0.072224,8.51375,-8.7325,26.6,45.928,7.168,32.0,eccentric,4,3.0,21085.0,309836.0,280036.0,329896.0,292482.0
2026-04-07 17:51:15.933017,247391,1346309304,1346310139,-1.153632,0.095648,-0.072224,3.73625,-7.18375,25.15625,45.928,7.168,32.0,eccentric,4,3.0,21085.0,309836.0,280036.0,329896.0,292482.0
2026-04-07 17:51:15.970712,247392,1346318224,1346318866,-1.169248,0.044896,-0.040992,-3.3425,-7.56,25.17375,46.144,6.456,32.224003,eccentric,4,3.0,21085.0,309836.0,280036.0,329896.0,292482.0
2026-04-07 17:51:15.974236,247393,1346327587,1346329689,-1.169248,0.044896,-0.040992,-9.17875,-9.10875,27.4925,46.144,6.456,32.224003,eccentric,4,3.0,21085.0,309836.0,280036.0,329896.0,292482.0
2026-04-07 17:51:15.976802,247394,1346342109,1346342534,-1.10288,-0.02928,-0.06832,-9.54625,-9.66875,27.02875,45.968002,5.704001,32.792,eccentric,4,3.0,21085.0,309836.0,280036.0,329896.0,292482.0
2026-04-07 17:51:15.979263,247395,1346351410,1346353313,-1.089216,0.001952,-0.085888,-7.1575,-9.19625,24.40375,45.968002,6.216,31.984001,eccentric,4,3.0,21085.0,309836.0,280036.0,329896.0,292482.0
2026-04-07 17:51:15.981817,247396,1346360354,1346362003,-1.089216,0.001952,-0.085888,-4.64625,-7.53375,21.39375,45.768,6.216,31.984001,eccentric,4,3.0,21085.0,309836.0,280036.0,329896.0,292482.0
2026-04-07 17:51:16.017971,247406,1346369837,1346370790,-1.089216,0.001952,-0.085888,-2.66,-4.8125,18.82125,45.768,6.216,31.984001,eccentric,4,3.0,21456.0,313059.0,282628.0,332584.0,294498.0
2026-04-07 17:51:16.024454,247407,1346384496,1346385753,-1.10288,0.064416,-0.093696,-2.86125,-3.64,17.045,46.848003,5.616,33.816,eccentric,4,3.0,21456.0,313059.0,282628.0,332584.0,294498.0
2026-04-07 17:51:16.026793,247408,1346393584,1346394487,-1.114592,0.050752,-0.076128,-5.17125,-5.31125,16.0825,46.048,5.64,33.072002,eccentric,4,3.0,21456.0,313059.0,282628.0,332584.0,294498.0
2026-04-07 17:51:16.031154,247409,1346402526,1346403197,-1.114592,0.050752,-0.076128,-6.41375,-5.6,16.42375,46.048,5.64,33.072002,eccentric,4,3.0,21456.0,313059.0,282628.0,332584.0,294498.0
2026-04-07 17:51:16.031928,247410,1346411815,1346414106,-1.1224,0.027328,-0.062464,-7.7,-5.10125,14.42875,46.048,5.424,32.384003,eccentric,4,3.0,21456.0,313059.0,282628.0,332584.0,294498.0
2026-04-07 17:51:16.034263,247411,1346426331,1346426978,-1.1224,0.027328,-0.062464,-9.975,-4.9,11.66375,46.696003,5.424,32.384003,eccentric,4,3.0,21456.0,313059.0,282628.0,332584.0,294498.0
2026-04-07 17:51:16.064462,247412,1346435689,1346437775,-1.167296,0.01952,-0.070272,-12.41625,-4.36625,9.511251,46.768,4.88,33.384003,eccentric,4,3.0,21456.0,313059.0,282628.0,332584.0,294498.0
2026-04-07 17:51:16.068022,247413,1346444648,1346446497,-1.167296,0.01952,-0.070272,-11.05125,-4.61125,7.14875,46.768,4.88,33.384003,eccentric,4,3.0,21456.0,313059.0,282628.0,332584.0,294498.0
2026-04-07 17:51:16.070534,247414,1346459130,1346461376,-1.163392,-0.00976,-0.081984,-9.63375,-4.865,6.57125,46.592003,5.184,31.768002,eccentric,4,3.0,21456.0,313059.0,282628.0,332584.0,294498.0
2026-04-07 17:51:16.108321,247425,1346468421,1346470231,-1.163392,-0.00976,-0.081984,-8.95125,-5.43375,5.69625,46.592003,5.184,31.768002,eccentric,4,3.0,21898.0,316385.0,285430.0,335738.0,296643.0
2026-04-07 17:51:16.114264,247426,1346477428,1346479098,-1.128256,-0.035136,-0.083936,-8.155,-5.2325,6.71125,46.992,4.888,32.640003,eccentric,4,3.0,21898.0,316385.0,285430.0,335738.0,296643.0
2026-04-07 17:51:16.116739,247427,1346486393,1346487797,-1.128256,-0.035136,-0.083936,-8.02375,-4.8125,8.26,46.992,4.888,32.640003,eccentric,4,3.0,21898.0,316385.0,285430.0,335738.0,296643.0
2026-04-07 17:51:16.119231,247428,1346500923,1346502722,-1.149728,-0.005856,-0.099552,-8.715,-3.99,7.945,46.264004,4.776,33.480003,eccentric,4,3.0,21898.0,316385.0,285430.0,335738.0,296643.0
2026-04-07 17:51:16.121822,247429,1346509896,1346511493,-1.149728,-0.005856,-0.099552,-10.17625,-2.31875,6.97375,46.264004,4.776,33.480003,eccentric,4,3.0,21898.0,316385.0,285430.0,335738.0,296643.0
2026-04-07 17:51:16.125529,247430,1346518909,1346520240,-1.175104,0.031232,-0.076128,-11.8475,-1.26,6.825,46.696003,4.4,34.784,eccentric,4,3.0,21898.0,316385.0,285430.0,335738.0,296643.0
2026-04-07 17:51:16.155763,247431,1346533400,1346535211,-1.186816,0.013664,-0.076128,-15.12875,-0.8575,6.22125,46.744003,5.096,33.464,eccentric,4,3.0,21898.0,316385.0,285430.0,335738.0,296643.0
2026-04-07 17:51:16.159339,247432,1346542313,1346543891,-1.186816,0.013664,-0.076128,-17.35125,0.4025,5.38125,46.744003,5.096,33.464,eccentric,4,3.0,21898.0,316385.0,285430.0,335738.0,296643.0
2026-04-07 17:51:16.162042,247433,1346551252,1346552604,-1.186816,0.013664,-0.076128,-17.6575,0.84,4.76,46.744003,5.096,33.464,eccentric,4,3.0,21898.0,316385.0,285430.0,335738.0,296643.0
2026-04-07 17:51:16.196676,247434,1346565781,1346567638,-1.165344,-0.011712,-0.095648,-17.4825,1.04125,3.73625,46.712,4.88,32.352,eccentric,4,3.0,21898.0,316385.0,285430.0,335738.0,296643.0
2026-04-07 17:51:16.225644,247444,1346574714,1346576399,-1.139968,0.003904,-0.103456,-15.3825,2.2575,3.05375,46.976,4.552,31.912,eccentric,4,3.0,21868.0,316043.0,285054.0,335314.0,296272.0
2026-04-07 17:51:16.229729,247445,1346583665,1346585160,-1.139968,0.003904,-0.103456,-12.355001,2.8875,1.365,46.976,4.552,31.912,eccentric,4,3.0,21868.0,316043.0,285054.0,335314.0,296272.0
2026-04-07 17:51:16.231532,247446,1346592579,1346593846,-1.134112,0.050752,-0.080032,-9.765,3.70125,1.00625,46.976,4.84,31.016,eccentric,4,3.0,21868.0,316043.0,285054.0,335314.0,296272.0
2026-04-07 17:51:16.233013,247447,1346607359,1346608860,-1.134112,0.050752,-0.080032,-10.24625,5.1275,0.76125,47.088,4.84,31.016,eccentric,4,3.0,21868.0,316043.0,285054.0,335314.0,296272.0
2026-04-07 17:51:16.236573,247448,1346616313,1346617611,-1.149728,0.013664,-0.06832,-14.30625,6.48375,0.09625,46.760002,4.432,32.704002,eccentric,4,3.0,21868.0,316043.0,285054.0,335314.0,296272.0
2026-04-07 17:51:16.272900,247449,1346625263,1346626324,-1.149728,0.013664,-0.06832,-18.15625,8.16375,-0.77,46.760002,4.432,32.704002,eccentric,4,3.0,21868.0,316043.0,285054.0,335314.0,296272.0
2026-04-07 17:51:16.275165,247450,1346639775,1346641275,-1.134112,0.00976,-0.076128,-19.66125,8.68,-1.7675,46.976,4.864,31.608002,eccentric,4,3.0,21868.0,316043.0,285054.0,335314.0,296272.0
2026-04-07 17:51:16.279812,247451,1346648765,1346649990,-1.134112,0.00976,-0.076128,-17.43875,9.38875,-3.42125,46.976,4.864,31.608002,eccentric,4,3.0,21868.0,316043.0,285054.0,335314.0,296272.0
2026-04-07 17:51:16.281612,247452,1346657738,1346658753,-1.120448,0.033184,-0.076128,-13.9475,9.93125,-5.53875,46.600002,4.664,31.128002,eccentric,4,3.0,21868.0,316043.0,285054.0,335314.0,296272.0
2026-04-07 17:51:16.309319,247462,1346672474,1346673686,-1.120448,0.0488,-0.089792,-11.06,9.5725,-8.33875,46.600002,4.664,31.128002,eccentric,4,3.0,21263.0,311047.0,280786.0,330482.0,292718.0
2026-04-07 17:51:16.313635,247463,1346681484,1346682513,-1.108736,0.060512,-0.089792,-9.09125,9.31875,-11.2525,47.024002,4.632,31.864002,eccentric,4,3.0,21263.0,311047.0,280786.0,330482.0,292718.0
2026-04-07 17:51:16.315342,247464,1346690424,1346691224,-1.108736,0.060512,-0.089792,-6.58875,9.0125,-13.7375,47.024002,4.632,31.864002,eccentric,4,3.0,21263.0,311047.0,280786.0,330482.0,292718.0
2026-04-07 17:51:16.316834,247465,1346699382,1346700059,-1.104832,0.064416,-0.08784,-5.95,10.185,-14.77,46.264004,4.776,31.808,eccentric,4,3.0,21263.0,311047.0,280786.0,330482.0,292718.0
2026-04-07 17:51:16.323470,247466,1346714251,1346714990,-1.116544,0.031232,-0.074176,-8.56625,10.47375,-16.37125,47.000004,5.448,29.616001,eccentric,4,3.0,21263.0,311047.0,280786.0,330482.0,292718.0
2026-04-07 17:51:16.352028,247467,1346723715,1346725803,-1.116544,0.031232,-0.074176,-10.45625,10.6225,-18.61125,47.000004,5.448,29.616001,concentric,4,3.0,21263.0,311047.0,280786.0,330482.0,292718.0
2026-04-07 17:51:16.356606,247468,1346732661,1346734484,-1.116544,0.031232,-0.076128,-9.56375,11.01625,-20.67625,47.000004,5.448,29.616001,concentric,4,3.0,21263.0,311047.0,280786.0,330482.0,292718.0
2026-04-07 17:51:16.358537,247469,1346741636,1346743166,-1.14192,0.031232,-0.076128,-6.51875,11.1825,-21.95375,47.2,6.344,32.696003,concentric,4,3.0,21263.0,311047.0,280786.0,330482.0,292718.0
2026-04-07 17:51:16.365992,247470,1346756155,1346758127,-1.120448,0.021472,-0.099552,-5.74875,12.25,-23.5025,46.504,5.272,31.576002,concentric,4,3.0,21263.0,311047.0,280786.0,330482.0,292718.0
2026-04-07 17:51:16.406655,247471,1346765081,1346766840,-1.120448,0.021472,-0.099552,-6.16,13.2825,-25.55875,46.504,5.272,31.576002,concentric,4,3.0,21263.0,311047.0,280786.0,330482.0,292718.0
2026-04-07 17:51:16.433520,247481,1346774143,1346775883,-1.130208,0.011712,-0.070272,-4.9175,14.035,-28.11375,46.808002,6.232,28.560001,concentric,4,3.0,20693.0,305875.0,276585.0,326278.0,289252.0
2026-04-07 17:51:16.435236,247482,1346788628,1346790857,-1.130208,0.011712,-0.070272,-0.11375,14.62125,-29.855,46.808002,6.232,28.560001,concentric,4,3.0,20693.0,305875.0,276585.0,326278.0,289252.0
2026-04-07 17:51:16.436797,247483,1346797545,1346799538,-1.163392,0.035136,-0.101504,3.22875,15.12,-30.415,46.04,6.584,30.024002,concentric,4,3.0,20693.0,305875.0,276585.0,326278.0,289252.0
2026-04-07 17:51:16.441078,247484,1346806470,1346808199,-1.163392,0.035136,-0.101504,5.215,15.96875,-31.3075,46.04,6.584,30.024002,concentric,4,3.0,20693.0,305875.0,276585.0,326278.0,289252.0
2026-04-07 17:51:16.442696,247485,1346821024,1346823179,-1.167296,0.044896,-0.07808,5.6,17.01875,-31.92,45.744003,6.904,30.008001,concentric,4,3.0,20693.0,305875.0,276585.0,326278.0,289252.0
2026-04-07 17:51:16.444358,247486,1346829997,1346831888,-1.167296,0.044896,-0.07808,3.75375,17.77125,-32.6025,45.744003,6.904,30.008001,concentric,4,3.0,20693.0,305875.0,276585.0,326278.0,289252.0
2026-04-07 17:51:16.448411,247487,1346838935,1346840581,-1.20048,0.021472,-0.072224,2.0125,17.77125,-32.576252,45.920002,7.072001,29.664001,concentric,4,3.0,20693.0,305875.0,276585.0,326278.0,289252.0
2026-04-07 17:51:16.482866,247488,1346853478,1346855507,-1.184864,0.021472,-0.0976,1.96,17.2025,-31.7625,45.920002,7.072001,30.528002,concentric,4,3.0,20693.0,305875.0,276585.0,326278.0,289252.0
2026-04-07 17:51:16.487780,247489,1346862437,1346864223,-1.173152,0.021472,-0.0976,3.5525,16.63375,-31.5875,45.480003,7.496,30.528002,concentric,4,3.0,20693.0,305875.0,276585.0,326278.0,289252.0
2026-04-07 17:51:16.517773,247500,1346871889,1346872972,-1.173152,0.021472,-0.0976,5.145,16.09125,-33.11,45.480003,7.496,30.528002,concentric,4,3.0,20386.0,303011.0,274505.0,324630.0,287980.0
2026-04-07 17:51:16.519312,247501,1346880870,1346881691,-1.15168,0.060512,-0.085888,4.1825,16.21375,-33.87125,45.648003,7.512001,29.504002,concentric,4,3.0,20386.0,303011.0,274505.0,324630.0,287980.0
2026-04-07 17:51:16.523583,247502,1346895388,1346896685,-1.216096,0.066368,-0.066368,3.82375,17.17625,-33.25,45.592003,7.984,29.536001,concentric,4,3.0,20386.0,303011.0,274505.0,324630.0,287980.0
2026-04-07 17:51:16.525556,247503,1346904325,1346905392,-1.216096,0.066368,-0.066368,3.22875,18.13,-33.52125,45.592003,7.984,29.536001,concentric,4,3.0,20386.0,303011.0,274505.0,324630.0,287980.0
2026-04-07 17:51:16.527305,247504,1346913255,1346914118,-1.216096,0.066368,-0.050752,2.24875,16.65125,-31.885,45.592003,7.984,29.536001,concentric,4,3.0,20386.0,303011.0,274505.0,324630.0,287980.0
2026-04-07 17:51:16.567880,247505,1346927740,1346928995,-1.255136,0.042944,-0.050752,2.835,14.56875,-28.77,45.208004,8.248,28.184002,concentric,4,3.0,20386.0,303011.0,274505.0,324630.0,287980.0
2026-04-07 17:51:16.571052,247506,1346936656,1346937731,-1.186816,0.0,-0.144448,4.865,12.48625,-27.93,45.096,8.704,30.400002,concentric,4,3.0,20386.0,303011.0,274505.0,324630.0,287980.0
2026-04-07 17:51:16.574765,247507,1346945551,1346946421,-1.186816,0.0,-0.144448,5.3725,12.60875,-29.19,45.096,8.704,30.400002,concentric,4,3.0,20386.0,303011.0,274505.0,324630.0,287980.0
2026-04-07 17:51:16.576458,247508,1346960037,1346961311,-1.23952,0.044896,-0.121024,5.08375,14.542501,-29.70625,45.112003,8.704,29.312002,concentric,4,3.0,20386.0,303011.0,274505.0,324630.0,287980.0
2026-04-07 17:51:16.578041,247509,1346968930,1346970059,-1.23952,0.044896,-0.121024,5.46,14.72625,-29.741251,45.112003,8.704,29.312002,concentric,4,3.0,20386.0,303011.0,274505.0,324630.0,287980.0
2026-04-07 17:51:16.604813,247519,1346977981,1346978840,-1.309792,0.083936,-0.08784,6.60625,15.1725,-28.34125,44.224003,9.04,29.256,concentric,4,3.0,20282.0,301829.0,273550.0,323774.0,287522.0
2026-04-07 17:51:16.606470,247520,1346986981,1346987640,-1.309792,0.083936,-0.08784,6.04625,14.875,-26.6175,44.224003,9.04,29.256,concentric,4,3.0,20282.0,301829.0,273550.0,323774.0,287522.0
2026-04-07 17:51:16.608028,247521,1347001935,1347002663,-1.25904,0.07808,-0.080032,3.0275,13.04625,-25.4975,43.728,9.176001,29.288002,concentric,4,3.0,20282.0,301829.0,273550.0,323774.0,287522.0
2026-04-07 17:51:16.639211,247522,1347011446,1347013479,-1.25904,0.07808,-0.080032,-1.365,12.7575,-26.48625,43.728,9.176001,29.288002,concentric,4,3.0,20282.0,301829.0,273550.0,323774.0,287522.0
2026-04-07 17:51:16.644421,247523,1347020380,1347022189,-1.260992,0.085888,-0.099552,-0.02625,14.04375,-29.09375,44.416,9.952001,29.2,concentric,4,3.0,20282.0,301829.0,273550.0,323774.0,287522.0
2026-04-07 17:51:16.649296,247524,1347029303,1347030876,-1.260992,0.085888,-0.099552,2.7475,15.07625,-29.723751,44.416,9.952001,29.2,concentric,4,3.0,20282.0,301829.0,273550.0,323774.0,287522.0
2026-04-07 17:51:16.653443,247525,1347043823,1347045819,-1.257088,0.13664,-0.033184,3.85875,15.9775,-29.67125,44.944,10.272,28.920002,concentric,4,3.0,20282.0,301829.0,273550.0,323774.0,287522.0
2026-04-07 17:51:16.682067,247526,1347052792,1347054573,-1.257088,0.13664,-0.033184,3.675,17.50875,-30.2225,44.944,10.272,28.920002,concentric,4,3.0,20282.0,301829.0,273550.0,323774.0,287522.0
2026-04-07 17:51:16.686529,247527,1347061861,1347063283,-1.25904,0.06832,-0.021472,-0.20125,19.241251,-29.35625,43.440002,10.928,29.136002,concentric,4,3.0,20282.0,301829.0,273550.0,323774.0,287522.0
2026-04-07 17:51:16.710698,247537,1347076494,1347078244,-1.262944,0.013664,-0.074176,-7.35,20.36125,-28.2975,43.072002,10.712001,28.032001,concentric,4,3.0,20133.0,300819.0,272927.0,323491.0,287637.0
2026-04-07 17:51:16.714868,247538,1347085411,1347086983,-1.262944,0.013664,-0.074176,-12.6875,21.2275,-27.60625,43.072002,10.712001,28.032001,concentric,4,3.0,20133.0,300819.0,272927.0,323491.0,287637.0
2026-04-07 17:51:16.716524,247539,1347094504,1347095734,-1.262944,0.081984,-0.113216,-12.22375,22.9425,-26.915,43.072002,10.712001,30.080002,concentric,4,3.0,20133.0,300819.0,272927.0,323491.0,287637.0
2026-04-07 17:51:16.718365,247540,1347109008,1347110675,-1.223904,0.081984,-0.113216,-8.11125,23.7125,-26.95,43.320004,11.112,30.112001,concentric,4,3.0,20133.0,300819.0,272927.0,323491.0,287637.0
2026-04-07 17:51:16.749144,247541,1347117930,1347119382,-1.243424,0.160064,-0.109312,-3.87625,24.54375,-26.81875,42.600002,11.264001,28.368002,concentric,4,3.0,20133.0,300819.0,272927.0,323491.0,287637.0
2026-04-07 17:51:16.750656,247542,1347126867,1347128068,-1.243424,0.160064,-0.109312,0.67375,25.9,-24.47375,42.600002,11.264001,28.368002,concentric,4,3.0,20133.0,300819.0,272927.0,323491.0,287637.0
2026-04-07 17:51:16.756070,247543,1347135784,1347136749,-1.208288,0.134688,-0.023424,2.40625,26.7925,-23.275,42.4,12.184001,25.248001,concentric,4,3.0,20133.0,300819.0,272927.0,323491.0,287637.0
2026-04-07 17:51:16.757644,247544,1347150270,1347151708,-1.208288,0.134688,-0.023424,1.21625,29.81125,-24.605,42.4,12.184001,25.248001,concentric,4,3.0,20133.0,300819.0,272927.0,323491.0,287637.0
2026-04-07 17:51:16.787890,247545,1347159211,1347160455,-1.241472,0.083936,-0.111264,-2.9575,29.46125,-27.50125,42.184002,11.952001,28.736002,concentric,4,3.0,20133.0,300819.0,272927.0,323491.0,287637.0
2026-04-07 17:51:16.790168,247546,1347168084,1347169178,-1.241472,0.083936,-0.111264,-5.7925,27.51875,-29.3125,42.184002,11.952001,28.736002,concentric,4,3.0,20133.0,300819.0,272927.0,323491.0,287637.0
2026-04-07 17:51:16.819019,247557,1347182644,1347184514,-1.19072,0.142496,-0.111264,-2.1,29.14625,-27.02,41.896004,12.432,27.096,concentric,4,3.0,19799.0,297577.0,270578.0,321977.0,287119.0
2026-04-07 17:51:16.820774,247558,1347191616,1347193247,-1.19072,0.142496,-0.111264,-1.19875,31.96375,-25.375,41.896004,12.432,27.096,concentric,4,3.0,19799.0,297577.0,270578.0,321977.0,287119.0
2026-04-07 17:51:16.824091,247559,1347200593,1347201979,-1.118496,0.173728,-0.01952,-5.1625,35.63,-27.3875,40.872,13.216001,27.312002,concentric,4,3.0,19799.0,297577.0,270578.0,321977.0,287119.0
2026-04-07 17:51:16.825587,247560,1347215112,1347216965,-1.10288,0.121024,-0.021472,-8.33875,42.0,-29.82875,40.872,13.216001,27.328001,concentric,4,3.0,19799.0,297577.0,270578.0,321977.0,287119.0
2026-04-07 17:51:16.832808,247561,1347224064,1347225698,-1.108736,0.121024,-0.021472,-9.205,48.58,-33.145,41.280003,12.968,27.328001,concentric,4,3.0,19799.0,297577.0,270578.0,321977.0,287119.0
2026-04-07 17:51:16.867873,247562,1347232997,1347234417,-1.108736,0.121024,-0.021472,-12.8625,52.08,-36.513752,41.280003,12.968,27.328001,concentric,4,3.0,19799.0,297577.0,270578.0,321977.0,287119.0
2026-04-07 17:51:16.872349,247563,1347247486,1347249311,-1.100928,0.109312,-0.134688,-14.35875,54.62625,-39.357502,40.912003,13.272,25.816002,concentric,4,3.0,19799.0,297577.0,270578.0,321977.0,287119.0
2026-04-07 17:51:16.874012,247564,1347256419,1347258025,-1.114592,0.119072,-0.226432,-10.56125,56.91,-41.46625,39.856003,13.704,24.792002,concentric,4,3.0,19799.0,297577.0,270578.0,321977.0,287119.0
2026-04-07 17:51:16.875773,247565,1347265326,1347266734,-1.114592,0.119072,-0.226432,-5.59125,56.56,-43.1375,39.856003,13.704,24.792002,concentric,4,3.0,19799.0,297577.0,270578.0,321977.0,287119.0
2026-04-07 17:51:16.900706,247575,1347274542,1347275499,-1.114592,0.119072,-0.226432,0.6125,55.545002,-42.79625,39.856003,13.704,24.792002,concentric,4,3.0,19884.0,298975.0,272205.0,324675.0,289845.0
2026-04-07 17:51:16.905034,247576,1347289209,1347290494,-1.04432,0.081984,-0.33184,5.29375,53.655,-42.69125,38.992,13.832001,25.824001,concentric,4,3.0,19884.0,298975.0,272205.0,324675.0,289845.0
2026-04-07 17:51:16.906418,247577,1347298138,1347299277,-1.016992,0.040992,-0.238144,6.58,52.99,-44.275,38.264,14.376,25.832,concentric,4,3.0,19884.0,298975.0,272205.0,324675.0,289845.0
2026-04-07 17:51:16.936617,247578,1347307092,1347307984,-1.016992,0.040992,-0.238144,6.65875,53.24375,-45.885,38.264,14.376,25.832,concentric,4,3.0,19884.0,298975.0,272205.0,324675.0,289845.0
2026-04-07 17:51:16.941064,247579,1347321607,1347322900,-1.138016,0.080032,-0.247904,7.90125,52.68375,-46.3225,39.016003,14.464001,24.160002,concentric,4,3.0,19884.0,298975.0,272205.0,324675.0,289845.0
2026-04-07 17:51:16.942561,247580,1347330516,1347331591,-1.138016,0.080032,-0.247904,9.63375,49.7875,-46.68125,39.016003,14.464001,24.160002,concentric,4,3.0,19884.0,298975.0,272205.0,324675.0,289845.0
2026-04-07 17:51:16.948368,247581,1347339481,1347340278,-1.077504,0.050752,-0.3416,10.47375,47.03125,-46.9525,37.68,14.904,24.352001,concentric,4,3.0,19884.0,298975.0,272205.0,324675.0,289845.0
2026-04-07 17:51:16.976952,247582,1347353969,1347355267,-1.077504,0.050752,-0.3416,12.24125,44.0825,-46.64625,37.68,14.904,24.352001,concentric,4,3.0,19884.0,298975.0,272205.0,324675.0,289845.0
2026-04-07 17:51:16.981652,247583,1347362898,1347363961,-1.046272,-0.001952,-0.325984,15.33,41.88625,-47.29375,37.576,15.320001,25.000002,concentric,4,3.0,19884.0,298975.0,272205.0,324675.0,289845.0
2026-04-07 17:51:17.006502,247593,1347371835,1347373116,-1.046272,-0.001952,-0.325984,20.81625,39.585,-47.80125,37.576,15.320001,25.000002,concentric,4,3.0,20074.0,301144.0,274218.0,327327.0,292238.0
2026-04-07 17:51:17.008050,247594,1347380820,1347381830,-1.085312,0.025376,-0.284992,26.01375,37.275,-46.78625,36.736,15.288001,24.664001,concentric,4,3.0,20074.0,301144.0,274218.0,327327.0,292238.0
2026-04-07 17:51:17.012349,247595,1347395422,1347396819,-1.085312,0.025376,-0.25376,26.46875,34.46625,-44.02125,36.736,15.288001,24.664001,concentric,4,3.0,20074.0,301144.0,274218.0,327327.0,292238.0
2026-04-07 17:51:17.015016,247596,1347404433,1347405545,-1.06384,-0.005856,-0.257664,27.2125,33.04,-41.405,34.832,15.944001,26.984001,concentric,4,3.0,20074.0,301144.0,274218.0,327327.0,292238.0
2026-04-07 17:51:17.022262,247597,1347413391,1347414278,-1.06384,-0.005856,-0.257664,27.43125,33.20625,-38.36875,34.832,15.944001,26.984001,concentric,4,3.0,20074.0,301144.0,274218.0,327327.0,292238.0
2026-04-07 17:51:17.050669,247598,1347427913,1347429216,-1.040416,-0.007808,-0.249856,26.985,33.31125,-35.0875,35.184002,15.968,24.496,concentric,4,3.0,20074.0,301144.0,274218.0,327327.0,292238.0
2026-04-07 17:51:17.055303,247599,1347436839,1347437916,-1.038464,-0.042944,-0.28304,28.4375,32.9525,-32.9,34.952003,16.256,24.864,concentric,4,3.0,20074.0,301144.0,274218.0,327327.0,292238.0
2026-04-07 17:51:17.056833,247600,1347445746,1347446602,-1.038464,-0.042944,-0.28304,30.135,33.53,-29.7675,34.952003,16.256,24.864,concentric,4,3.0,20074.0,301144.0,274218.0,327327.0,292238.0
2026-04-07 17:51:17.087913,247601,1347460259,1347461489,-1.036512,-0.023424,-0.284992,30.6775,32.38375,-25.99625,34.888,17.064001,24.480001,concentric,4,3.0,20074.0,301144.0,274218.0,327327.0,292238.0
2026-04-07 17:51:17.090177,247602,1347469162,1347470238,-1.036512,-0.023424,-0.284992,32.8475,31.92,-21.74375,34.888,17.064001,24.480001,concentric,4,3.0,20074.0,301144.0,274218.0,327327.0,292238.0
2026-04-07 17:51:17.117932,247613,1347478150,1347479002,-0.972096,0.05856,-0.245952,33.71375,32.69875,-19.29375,34.248,16.84,24.568,concentric,4,3.0,20037.0,301100.0,274348.0,327728.0,292764.0
2026-04-07 17:51:17.120509,247614,1347492657,1347493943,-0.972096,0.05856,-0.245952,33.64375,33.232502,-19.71375,34.248,16.84,24.568,concentric,4,3.0,20037.0,301100.0,274348.0,327728.0,292764.0
2026-04-07 17:51:17.123107,247615,1347501558,1347502668,-0.979904,0.023424,-0.281088,32.55,32.38375,-19.985,33.832,16.528,25.944002,concentric,4,3.0,20037.0,301100.0,274348.0,327728.0,292764.0
2026-04-07 17:51:17.125480,247616,1347510578,1347511396,-0.979904,0.023424,-0.281088,31.15875,31.40375,-20.895,33.832,16.528,25.944002,concentric,4,3.0,20037.0,301100.0,274348.0,327728.0,292764.0
2026-04-07 17:51:17.128006,247617,1347519507,1347520139,-0.903776,0.017568,-0.259616,31.7275,30.86125,-21.02625,33.504,16.528,26.328001,concentric,4,3.0,20037.0,301100.0,274348.0,327728.0,292764.0
2026-04-07 17:51:17.167005,247618,1347534494,1347535106,-0.903776,0.017568,-0.259616,34.88625,28.5425,-21.18375,33.504,16.528,26.328001,concentric,4,3.0,20037.0,301100.0,274348.0,327728.0,292764.0
2026-04-07 17:51:17.170503,247619,1347543729,1347545809,-0.876448,0.015616,-0.306464,34.81625,24.675,-21.27125,33.448,16.552,22.720001,concentric,4,3.0,20037.0,301100.0,274348.0,327728.0,292764.0
2026-04-07 17:51:17.173082,247620,1347552679,1347554491,-0.876448,0.015616,-0.306464,31.36,19.6,-19.845,33.448,16.552,22.720001,concentric,4,3.0,20037.0,301100.0,274348.0,327728.0,292764.0
2026-04-07 17:51:17.175497,247621,1347567174,1347569374,-0.739808,-0.001952,-0.269376,31.85,16.16125,-19.69625,33.536003,16.432001,25.256,concentric,4,3.0,20037.0,301100.0,274348.0,327728.0,292764.0
2026-04-07 17:51:17.209302,247631,1347576689,1347578430,-0.724192,-0.017568,-0.177632,32.10375,16.38875,-19.94125,33.536003,16.432001,25.792002,concentric,4,3.0,20496.0,305916.0,278556.0,332818.0,297124.0
2026-04-07 17:51:17.211785,247632,1347585819,1347587218,-0.720288,-0.017568,-0.177632,30.98375,16.8525,-19.2675,33.264,17.240002,25.792002,concentric,4,3.0,20496.0,305916.0,278556.0,332818.0,297124.0
2026-04-07 17:51:17.214279,247633,1347594733,1347595972,-0.720288,-0.017568,-0.177632,28.4025,16.82625,-18.9525,33.264,17.240002,25.792002,concentric,4,3.0,20496.0,305916.0,278556.0,332818.0,297124.0
2026-04-07 17:51:17.216719,247634,1347609258,1347610874,-0.72224,-0.025376,-0.22448,24.99,14.63,-16.6075,33.016003,17.44,25.560001,concentric,4,3.0,20496.0,305916.0,278556.0,332818.0,297124.0
2026-04-07 17:51:17.246995,247635,1347618172,1347619591,-0.5856,-0.005856,-0.226432,23.2575,10.80625,-15.1725,32.376003,16.952002,27.856,concentric,4,3.0,20496.0,305916.0,278556.0,332818.0,297124.0
2026-04-07 17:51:17.250583,247636,1347627081,1347628293,-0.5856,-0.005856,-0.226432,23.19625,9.3275,-14.14875,32.376003,16.952002,27.856,concentric,4,3.0,20496.0,305916.0,278556.0,332818.0,297124.0
2026-04-07 17:51:17.253014,247637,1347641622,1347643186,-0.552416,-0.064416,-0.162016,22.8375,9.93125,-13.36125,33.112003,17.072,26.144001,concentric,4,3.0,20496.0,305916.0,278556.0,332818.0,297124.0
2026-04-07 17:51:17.258009,247638,1347650549,1347651876,-0.552416,-0.064416,-0.162016,20.44,11.52375,-11.82125,33.112003,17.072,26.144001,concentric,4,3.0,20496.0,305916.0,278556.0,332818.0,297124.0
2026-04-07 17:51:17.288162,247639,1347659464,1347660634,-0.577792,-0.128832,-0.167872,15.855001,11.2525,-8.5575,32.592003,16.888,27.152,concentric,4,3.0,20496.0,305916.0,278556.0,332818.0,297124.0
2026-04-07 17:51:17.291718,247640,1347668370,1347669348,-0.577792,-0.128832,-0.167872,12.88,10.3425,-3.6575,32.592003,16.888,27.152,concentric,4,3.0,20496.0,305916.0,278556.0,332818.0,297124.0
2026-04-07 17:51:17.316790,247650,1347683323,1347684327,-0.603168,-0.080032,-0.22448,9.44125,7.035,0.1575,32.864002,17.072,26.000002,concentric,4,3.0,20841.0,309685.0,281942.0,336862.0,300451.0
2026-04-07 17:51:17.323106,247651,1347692306,1347693042,-0.603168,-0.080032,-0.22448,7.3675,1.89,4.69,32.864002,17.072,26.000002,concentric,4,3.0,20841.0,309685.0,281942.0,336862.0,300451.0
2026-04-07 17:51:17.325555,247652,1347701749,1347703861,-0.501664,-0.13664,-0.277184,3.255,-3.08875,9.19625,31.960001,16.560001,27.720001,concentric,4,3.0,20841.0,309685.0,281942.0,336862.0,300451.0
2026-04-07 17:51:17.328067,247653,1347716399,1347716743,-0.501664,-0.13664,-0.277184,-4.305,-7.58625,10.00125,31.960001,16.560001,27.720001,concentric,4,3.0,20841.0,309685.0,281942.0,336862.0,300451.0
2026-04-07 17:51:17.332979,247654,1347725680,1347727674,-0.435296,-0.22448,-0.249856,-12.92375,-11.97,12.18,32.712,16.432001,26.640001,concentric,4,3.0,20841.0,309685.0,281942.0,336862.0,300451.0
2026-04-07 17:51:17.364159,247655,1347734620,1347736465,-0.435296,-0.22448,-0.249856,-16.58125,-14.1575,16.12625,32.712,16.432001,26.640001,concentric,4,3.0,20841.0,309685.0,281942.0,336862.0,300451.0
2026-04-07 17:51:17.365609,247656,1347743522,1347745159,-0.542656,-0.152256,-0.1952,-15.846251,-16.98375,19.88875,33.632,16.792002,25.736002,concentric,4,3.0,20841.0,309685.0,281942.0,336862.0,300451.0
2026-04-07 17:51:17.370110,247657,1347758008,1347760134,-0.659776,-0.066368,-0.183488,-12.4425,-19.7575,24.2375,34.648003,16.136002,25.256,concentric,4,3.0,20841.0,309685.0,281942.0,336862.0,300451.0
2026-04-07 17:51:17.375918,247658,1347766928,1347768860,-0.659776,-0.066368,-0.183488,-10.99,-23.7125,26.8275,34.648003,16.136002,25.256,concentric,4,3.0,20841.0,309685.0,281942.0,336862.0,300451.0
2026-04-07 17:51:17.408020,247669,1347776154,1347777810,-0.659776,-0.066368,-0.183488,-11.78625,-30.5375,27.48375,34.648003,16.136002,25.256,concentric,4,3.0,20662.0,307622.0,279958.0,334118.0,297957.0
2026-04-07 17:51:17.412296,247670,1347790741,1347792743,-0.638304,-0.085888,-0.306464,-13.83375,-36.8725,28.02625,34.336002,15.768001,27.552002,concentric,4,3.0,20662.0,307622.0,279958.0,334118.0,297957.0
