pc_time,serial_num,sensor_ts,host_ts,ax,ay,az,gx,gy,gz,mx,my,mz,phase,rpe,weight_kg,ppg_a,ppg_b,ppg_c,ppg_d,ppg_e
2026-04-07 17:51:04.918013,245327,1335251647,1335252177,-0.7808,-0.158112,-0.27328,-7.67375,-18.31375,25.50625,31.864002,17.720001,25.992,eccentric,4,3.0,21014.0,308492.0,279179.0,329828.0,290816.0
2026-04-07 17:51:04.920379,245328,1335261187,1335262956,-0.7808,-0.158112,-0.27328,-7.34125,-20.9125,25.38375,31.864002,17.720001,25.992,eccentric,4,3.0,21014.0,308492.0,279179.0,329828.0,290816.0
2026-04-07 17:51:04.933650,245329,1335270141,1335271662,-0.813984,-0.111264,-0.25376,-7.105,-23.4675,25.31375,32.256,17.456001,26.888,eccentric,4,3.0,21014.0,308492.0,279179.0,329828.0,290816.0
2026-04-07 17:51:04.935285,245330,1335279055,1335280334,-0.813984,-0.111264,-0.25376,-8.085,-25.7075,25.8825,32.256,17.456001,26.888,eccentric,4,3.0,21014.0,308492.0,279179.0,329828.0,290816.0
2026-04-07 17:51:04.936953,245331,1335293535,1335295267,-0.827648,-0.1464,-0.222528,-12.6525,-27.81625,27.48375,32.112003,17.816,26.152,eccentric,4,3.0,21014.0,308492.0,279179.0,329828.0,290816.0
2026-04-07 17:51:04.970334,245341,1335302450,1335304279,-0.827648,-0.121024,-0.189344,-17.21125,-30.31,28.20125,32.112003,17.816,26.152,eccentric,4,3.0,20875.0,307133.0,278015.0,328616.0,290049.0
2026-04-07 17:51:04.972777,245342,1335311402,1335312964,-0.864736,-0.121024,-0.189344,-16.9225,-32.4275,28.56,32.992,17.216002,26.208002,eccentric,4,3.0,20875.0,307133.0,278015.0,328616.0,290049.0
2026-04-07 17:51:04.974396,245343,1335325860,1335327882,-0.8784,-0.083936,-0.208864,-15.295,-34.06375,28.5425,33.84,16.832,26.28,eccentric,4,3.0,20875.0,307133.0,278015.0,328616.0,290049.0
2026-04-07 17:51:04.977763,245344,1335334796,1335336577,-0.8784,-0.083936,-0.208864,-14.175,-35.21,27.01125,33.84,16.832,26.28,eccentric,4,3.0,20875.0,307133.0,278015.0,328616.0,290049.0
2026-04-07 17:51:04.979547,245345,1335343874,1335345297,-0.864736,-0.085888,-0.296704,-14.81375,-37.75625,25.78625,32.936,16.664001,27.864002,eccentric,4,3.0,20875.0,307133.0,278015.0,328616.0,290049.0
2026-04-07 17:51:04.983750,245346,1335358579,1335360334,-0.864736,-0.085888,-0.296704,-14.096251,-38.9025,25.20875,32.936,16.664001,27.864002,eccentric,4,3.0,20875.0,307133.0,278015.0,328616.0,290049.0
2026-04-07 17:51:04.985419,245347,1335367493,1335369028,-0.84912,-0.0976,-0.300608,-12.95875,-40.24125,24.395,33.904003,16.944,26.688002,eccentric,4,3.0,20875.0,307133.0,278015.0,328616.0,290049.0
2026-04-07 17:51:04.987773,245348,1335376436,1335377728,-0.84912,-0.0976,-0.300608,-12.34625,-43.28625,22.05875,33.904003,16.944,26.688002,eccentric,4,3.0,20875.0,307133.0,278015.0,328616.0,290049.0
2026-04-07 17:51:04.994727,245349,1335385381,1335386432,-1.011136,0.001952,-0.189344,-11.06,-48.78125,19.9675,34.584003,16.736,27.784,eccentric,4,3.0,20875.0,307133.0,278015.0,328616.0,290049.0
2026-04-07 17:51:05.023278,245350,1335399842,1335401347,-1.011136,0.001952,-0.189344,-1.95125,-52.2725,21.1225,34.584003,16.736,27.784,eccentric,4,3.0,20875.0,307133.0,278015.0,328616.0,290049.0
2026-04-07 17:51:05.052746,245361,1335408919,1335410133,-1.032608,-0.027328,-0.203008,9.765,-51.87,24.045,35.224003,16.560001,27.152,eccentric,4,3.0,20654.0,304684.0,275677.0,325567.0,287357.0
2026-04-07 17:51:05.054355,245362,1335417840,1335418809,-1.032608,-0.027328,-0.203008,7.28,-50.155,22.3825,35.224003,16.560001,27.152,eccentric,4,3.0,20654.0,304684.0,275677.0,325567.0,287357.0
2026-04-07 17:51:05.058581,245363,1335432344,1335433702,-1.003328,-0.162016,-0.152256,-5.73125,-47.57375,20.4575,35.952003,16.624,27.304,eccentric,4,3.0,20654.0,304684.0,275677.0,325567.0,287357.0
2026-04-07 17:51:05.060461,245364,1335443132,1335443507,-1.003328,-0.162016,-0.152256,-12.792501,-43.18125,20.475,35.952003,16.624,27.304,eccentric,4,3.0,20654.0,304684.0,275677.0,325567.0,287357.0
2026-04-07 17:51:05.062077,245365,1335452526,1335454323,-0.997472,-0.138592,-0.150304,-11.4275,-36.79375,22.9775,35.664,16.472,27.28,eccentric,4,3.0,20654.0,304684.0,275677.0,325567.0,287357.0
2026-04-07 17:51:05.069796,245366,1335461469,1335463068,-0.997472,-0.138592,-0.150304,-9.35375,-31.98125,25.13875,35.664,16.472,27.28,eccentric,4,3.0,20654.0,304684.0,275677.0,325567.0,287357.0
2026-04-07 17:51:05.098304,245367,1335470444,1335471754,-1.091168,-0.011712,-0.089792,-4.0775,-26.10125,26.8275,36.008003,16.128,27.464,eccentric,4,3.0,20654.0,304684.0,275677.0,325567.0,287357.0
2026-04-07 17:51:05.102763,245368,1335484936,1335486752,-1.221952,0.025376,-0.060512,-1.3475,-20.8425,28.0175,37.008003,15.904,29.904001,eccentric,4,3.0,20654.0,304684.0,275677.0,325567.0,287357.0
2026-04-07 17:51:05.104309,245369,1335493848,1335495447,-1.221952,0.025376,-0.060512,0.37625,-16.44125,28.14875,37.008003,15.904,29.904001,eccentric,4,3.0,20654.0,304684.0,275677.0,325567.0,287357.0
2026-04-07 17:51:05.111147,245370,1335502797,1335504148,-1.221952,0.025376,-0.060512,-0.88375,-10.68375,28.67375,37.008003,15.904,29.904001,eccentric,4,3.0,20654.0,304684.0,275677.0,325567.0,287357.0
2026-04-07 17:51:05.135329,245380,1335517294,1335519169,-1.018944,-0.089792,-0.115168,-11.4275,-6.3,25.66375,37.184002,15.504001,26.608002,eccentric,4,3.0,20471.0,302857.0,274056.0,323672.0,285845.0
2026-04-07 17:51:05.136860,245381,1335526215,1335527858,-1.139968,-0.121024,-0.11712,-17.255,-2.7125,21.46375,37.568,15.848001,27.208002,eccentric,4,3.0,20471.0,302857.0,274056.0,323672.0,285845.0
2026-04-07 17:51:05.144920,245382,1335535216,1335536559,-1.139968,-0.121024,-0.11712,-11.64625,-0.07875,21.7175,37.568,15.848001,27.208002,eccentric,4,3.0,20471.0,302857.0,274056.0,323672.0,285845.0
2026-04-07 17:51:05.194301,245383,1335549707,1335551499,-1.116544,-0.015616,-0.249856,-9.31,-0.4375,22.9775,37.656002,15.232,29.664001,eccentric,4,3.0,20471.0,302857.0,274056.0,323672.0,285845.0
2026-04-07 17:51:05.196550,245384,1335558615,1335560226,-1.116544,-0.015616,-0.249856,-9.84375,-1.54875,21.28,37.656002,15.232,29.664001,eccentric,4,3.0,20471.0,302857.0,274056.0,323672.0,285845.0
2026-04-07 17:51:05.201167,245385,1335567548,1335568903,-1.106784,0.054656,-0.220576,-0.69125,-1.54875,19.425,38.24,15.016001,27.544,eccentric,4,3.0,20471.0,302857.0,274056.0,323672.0,285845.0
2026-04-07 17:51:05.202818,245386,1335582036,1335583802,-1.106784,0.054656,-0.220576,5.6525,-1.86375,19.04,38.24,15.016001,27.544,eccentric,4,3.0,20471.0,302857.0,274056.0,323672.0,285845.0
2026-04-07 17:51:05.204393,245387,1335590985,1335592507,-1.157536,-0.050752,-0.121024,2.98375,-2.94,13.86875,39.280003,14.800001,27.672,eccentric,4,3.0,20471.0,302857.0,274056.0,323672.0,285845.0
2026-04-07 17:51:05.208409,245388,1335599923,1335601200,-1.157536,-0.050752,-0.121024,0.00875,-3.68375,11.0775,39.280003,14.800001,27.672,eccentric,4,3.0,20471.0,302857.0,274056.0,323672.0,285845.0
2026-04-07 17:51:05.237381,245398,1335609286,1335610248,-1.06384,-0.138592,-0.150304,-4.3575,-5.88875,9.93125,39.192,14.848001,27.272001,eccentric,4,3.0,20480.0,303037.0,274223.0,323907.0,286077.0
2026-04-07 17:51:05.239046,245399,1335623877,1335625132,-1.06384,-0.099552,-0.169824,-7.35875,-5.95,8.56625,39.192,14.848001,27.272001,eccentric,4,3.0,20480.0,303037.0,274223.0,323907.0,286077.0
2026-04-07 17:51:05.241800,245400,1335632832,1335633864,-1.001376,-0.099552,-0.169824,-3.395,-3.9025,8.09375,38.08,14.192,27.208002,eccentric,4,3.0,20480.0,303037.0,274223.0,323907.0,286077.0
2026-04-07 17:51:05.270752,245401,1335641793,1335642589,-1.001376,-0.099552,-0.169824,-1.46125,-3.6225,5.915,38.08,14.192,27.208002,eccentric,4,3.0,20480.0,303037.0,274223.0,323907.0,286077.0
2026-04-07 17:51:05.275282,245402,1335656335,1335657466,-1.071648,0.037088,-0.201056,0.27125,-4.15625,4.235,39.320004,14.264001,26.736002,eccentric,4,3.0,20480.0,303037.0,274223.0,323907.0,286077.0
2026-04-07 17:51:05.276863,245403,1335665310,1335666166,-1.026752,0.001952,-0.189344,7.42,-4.59375,3.71875,39.84,14.752001,27.616001,eccentric,4,3.0,20480.0,303037.0,274223.0,323907.0,286077.0
2026-04-07 17:51:05.280191,245404,1335674243,1335674858,-1.026752,0.001952,-0.189344,8.47,-7.00875,1.58375,39.84,14.752001,27.616001,eccentric,4,3.0,20480.0,303037.0,274223.0,323907.0,286077.0
2026-04-07 17:51:05.311172,245405,1335683502,1335685628,-1.026752,0.001952,-0.189344,3.01875,-11.0775,-1.3825,39.84,14.752001,27.616001,eccentric,4,3.0,20480.0,303037.0,274223.0,323907.0,286077.0
2026-04-07 17:51:05.320851,245406,1335697993,1335698470,-1.118496,-0.03904,-0.124928,4.71625,-13.85125,-1.785,39.800003,14.296001,28.648,eccentric,4,3.0,20480.0,303037.0,274223.0,323907.0,286077.0
2026-04-07 17:51:05.340613,245417,1335707398,1335709256,-1.118496,-0.00976,-0.189344,4.68125,-16.66,-1.88125,39.984,14.304001,28.376001,eccentric,4,3.0,20536.0,303555.0,274672.0,324321.0,286323.0
2026-04-07 17:51:05.346839,245418,1335716435,1335718013,-1.118496,-0.00976,-0.189344,3.98125,-17.52625,-5.88875,39.984,14.304001,28.376001,eccentric,4,3.0,20536.0,303555.0,274672.0,324321.0,286323.0
2026-04-07 17:51:05.349372,245419,1335730998,1335732995,-1.104832,-0.007808,-0.169824,10.4475,-13.36125,-6.6325,39.808002,14.128,29.272001,eccentric,4,3.0,20536.0,303555.0,274672.0,324321.0,286323.0
2026-04-07 17:51:05.351854,245420,1335740107,1335741819,-1.104832,-0.007808,-0.169824,13.65,-9.52875,-6.65875,39.808002,14.128,29.272001,eccentric,4,3.0,20536.0,303555.0,274672.0,324321.0,286323.0
2026-04-07 17:51:05.356854,245421,1335749135,1335750533,-1.165344,-0.023424,-0.12688,8.9075,-6.93875,-8.505,40.016003,14.344001,28.192001,eccentric,4,3.0,20536.0,303555.0,274672.0,324321.0,286323.0
2026-04-07 17:51:05.387039,245422,1335758126,1335759260,-1.165344,-0.023424,-0.12688,9.02125,-3.29,-7.3325,40.016003,14.344001,28.192001,eccentric,4,3.0,20536.0,303555.0,274672.0,324321.0,286323.0
2026-04-07 17:51:05.390768,245423,1335772638,1335774140,-1.1712,-0.046848,-0.10736,7.6125,-1.3125,-5.565,39.920002,14.272,28.600002,eccentric,4,3.0,20536.0,303555.0,274672.0,324321.0,286323.0
2026-04-07 17:51:05.393505,245424,1335781556,1335782852,-1.1712,-0.046848,-0.10736,2.54625,-0.56,-6.195,39.920002,14.272,28.600002,eccentric,4,3.0,20536.0,303555.0,274672.0,324321.0,286323.0
2026-04-07 17:51:05.396744,245425,1335790495,1335791601,-1.196576,-0.035136,-0.1464,2.2925,-0.27125,-5.43375,40.344,14.016001,28.448002,eccentric,4,3.0,20536.0,303555.0,274672.0,324321.0,286323.0
2026-04-07 17:51:05.428424,245426,1335804989,1335806476,-1.22,0.033184,-0.134688,2.7825,-0.945,-2.9575,40.344,13.848001,28.696001,eccentric,4,3.0,20536.0,303555.0,274672.0,324321.0,286323.0
2026-04-07 17:51:05.485521,245436,1335813921,1335815229,-1.22,0.033184,-0.134688,2.555,-1.3125,-0.58625,39.952003,13.848001,28.696001,eccentric,4,3.0,20476.0,302970.0,274200.0,323841.0,285995.0
2026-04-07 17:51:05.488040,245437,1335822875,1335823978,-1.22,0.033184,-0.134688,8.46125,0.28,0.8575,39.952003,13.848001,28.696001,eccentric,4,3.0,20476.0,302970.0,274200.0,323841.0,285995.0
2026-04-07 17:51:05.490842,245438,1335837379,1335838898,-1.159488,-0.023424,-0.099552,11.94375,0.49875,2.1,40.872,13.856001,28.048002,eccentric,4,3.0,20476.0,302970.0,274200.0,323841.0,285995.0
2026-04-07 17:51:05.493029,245439,1335846314,1335847608,-1.100928,-0.015616,-0.122976,9.555,-0.0175,3.255,40.496002,13.68,28.768002,eccentric,4,3.0,20476.0,302970.0,274200.0,323841.0,285995.0
2026-04-07 17:51:05.495624,245440,1335855259,1335856318,-1.100928,-0.015616,-0.122976,7.02625,-1.1725,3.885,40.496002,13.68,28.768002,eccentric,4,3.0,20476.0,302970.0,274200.0,323841.0,285995.0
2026-04-07 17:51:05.498129,245441,1335869826,1335871243,-1.108736,0.015616,-0.152256,4.7775,-2.51125,3.19375,41.08,13.416,28.272001,eccentric,4,3.0,20476.0,302970.0,274200.0,323841.0,285995.0
2026-04-07 17:51:05.500510,245442,1335878929,1335879960,-1.108736,0.015616,-0.152256,3.78,-1.2775,2.49375,41.08,13.416,28.272001,eccentric,4,3.0,20476.0,302970.0,274200.0,323841.0,285995.0
2026-04-07 17:51:05.503019,245443,1335887862,1335888695,-1.175104,0.003904,-0.132736,4.69,-0.805,1.72375,41.016003,14.256001,28.656002,eccentric,4,3.0,20476.0,302970.0,274200.0,323841.0,285995.0
2026-04-07 17:51:05.505614,245444,1335896844,1335897397,-1.175104,0.003904,-0.132736,5.635,-1.8725,1.65375,41.016003,14.256001,28.656002,eccentric,4,3.0,20476.0,302970.0,274200.0,323841.0,285995.0
2026-04-07 17:51:05.534288,245454,1335911784,1335912449,-1.198528,0.023424,-0.111264,5.92375,-3.85875,0.455,41.464,13.096001,28.896002,eccentric,4,3.0,20638.0,304446.0,275389.0,325085.0,286822.0
2026-04-07 17:51:05.536766,245455,1335921106,1335923293,-1.198528,0.023424,-0.111264,11.8825,-5.59125,1.14625,41.464,13.096001,28.896002,eccentric,4,3.0,20638.0,304446.0,275389.0,325085.0,286822.0
2026-04-07 17:51:05.539337,245456,1335930066,1335932033,-1.087264,0.02928,-0.0976,17.35125,-6.4925,1.18125,41.176003,12.648001,30.12,eccentric,4,3.0,20638.0,304446.0,275389.0,325085.0,286822.0
2026-04-07 17:51:05.569506,245457,1335939013,1335940769,-1.087264,0.02928,-0.0976,16.38,-6.50125,-1.16375,41.176003,12.648001,30.12,eccentric,4,3.0,20638.0,304446.0,275389.0,325085.0,286822.0
2026-04-07 17:51:05.573203,245458,1335953504,1335955621,-1.071648,0.0,-0.072224,10.3775,-6.50125,-2.00375,41.992,12.960001,29.36,eccentric,4,3.0,20638.0,304446.0,275389.0,325085.0,286822.0
2026-04-07 17:51:05.575597,245459,1335962443,1335964323,-1.071648,0.0,-0.072224,4.2875,-6.04625,0.245,41.992,12.960001,29.36,eccentric,4,3.0,20638.0,304446.0,275389.0,325085.0,286822.0
2026-04-07 17:51:05.578141,245460,1335971386,1335973005,-1.149728,-0.027328,-0.037088,1.0325,-5.32,3.4475,42.04,12.808001,29.368002,eccentric,4,3.0,20638.0,304446.0,275389.0,325085.0,286822.0
2026-04-07 17:51:05.608239,245461,1335985845,1335987921,-1.184864,-0.001952,-0.044896,-2.1875,-6.39625,7.14,42.096,12.944,28.672,eccentric,4,3.0,20638.0,304446.0,275389.0,325085.0,286822.0
2026-04-07 17:51:05.611830,245462,1335994772,1335996645,-1.184864,-0.001952,-0.044896,-1.32125,-8.5925,10.73625,42.096,12.944,28.672,eccentric,4,3.0,20638.0,304446.0,275389.0,325085.0,286822.0
2026-04-07 17:51:05.614306,245463,1336003699,1336005331,-1.184864,-0.001952,-0.044896,2.77375,-11.7075,13.83375,42.096,12.944,28.672,eccentric,4,3.0,20638.0,304446.0,275389.0,325085.0,286822.0
2026-04-07 17:51:05.645528,245474,1336018256,1336020350,-1.173152,0.03904,-0.0976,7.0,-14.5775,13.55375,42.424004,12.352,29.240002,eccentric,4,3.0,21099.0,308567.0,278702.0,328519.0,289755.0
2026-04-07 17:51:05.648117,245475,1336027288,1336029065,-1.18096,0.083936,-0.158112,9.42375,-15.70625,12.32875,42.936,12.120001,29.640001,eccentric,4,3.0,21099.0,308567.0,278702.0,328519.0,289755.0
2026-04-07 17:51:05.650499,245476,1336036258,1336037780,-1.18096,0.083936,-0.158112,8.00625,-15.75875,10.45625,42.936,12.120001,29.640001,eccentric,4,3.0,21099.0,308567.0,278702.0,328519.0,289755.0
2026-04-07 17:51:05.680738,245477,1336050838,1336052669,-1.21024,0.089792,-0.11712,8.1025,-16.09125,8.8725,43.52,12.072001,31.048002,eccentric,4,3.0,21099.0,308567.0,278702.0,328519.0,289755.0
2026-04-07 17:51:05.684283,245478,1336059769,1336061367,-1.21024,0.089792,-0.11712,8.96875,-16.3275,6.895,43.52,12.072001,31.048002,eccentric,4,3.0,21099.0,308567.0,278702.0,328519.0,289755.0
2026-04-07 17:51:05.686807,245479,1336068701,1336070071,-1.280512,0.0488,-0.044896,8.25125,-16.397501,5.52125,42.792004,11.120001,30.272001,eccentric,4,3.0,21099.0,308567.0,278702.0,328519.0,289755.0
2026-04-07 17:51:05.689287,245480,1336077627,1336078759,-1.280512,0.0488,-0.044896,8.0675,-16.56375,3.9025,42.792004,11.120001,30.272001,eccentric,4,3.0,21099.0,308567.0,278702.0,328519.0,289755.0
2026-04-07 17:51:05.719566,245481,1336092144,1336093681,-1.241472,0.070272,0.017568,13.83375,-15.18125,2.555,43.192,11.728001,30.032001,eccentric,4,3.0,21099.0,308567.0,278702.0,328519.0,289755.0
2026-04-07 17:51:05.723152,245482,1336101088,1336102372,-1.241472,0.070272,0.017568,16.12625,-13.02,1.32125,43.192,11.728001,30.032001,eccentric,4,3.0,21099.0,308567.0,278702.0,328519.0,289755.0
2026-04-07 17:51:05.784107,245492,1336110458,1336111315,-1.206336,0.056608,-0.0488,12.7225,-12.3725,0.62125,43.368004,11.552001,30.152002,eccentric,4,3.0,21924.0,315641.0,284418.0,334347.0,294703.0
2026-04-07 17:51:05.786654,245493,1336125011,1336126220,-1.206336,0.056608,-0.0488,3.73625,-11.06875,-0.98875,43.368004,11.552001,30.152002,eccentric,4,3.0,21924.0,315641.0,284418.0,334347.0,294703.0
2026-04-07 17:51:05.788282,245494,1336134006,1336134943,-1.23952,0.013664,-0.066368,-6.1425,-10.3425,-1.91625,42.448,10.944,32.800003,eccentric,4,3.0,21924.0,315641.0,284418.0,334347.0,294703.0
2026-04-07 17:51:05.791762,245495,1336142922,1336143644,-1.23952,0.013664,-0.066368,-10.28125,-9.37125,-0.5075,42.448,10.944,32.800003,eccentric,4,3.0,21924.0,315641.0,284418.0,334347.0,294703.0
2026-04-07 17:51:05.796576,245496,1336152319,1336154461,-1.276608,-0.074176,-0.109312,-8.8725,-9.68625,2.31875,43.496002,11.64,30.520002,eccentric,4,3.0,21924.0,315641.0,284418.0,334347.0,294703.0
2026-04-07 17:51:05.798029,245497,1336166922,1336167305,-1.202432,-0.1464,-0.11712,-5.87125,-12.27625,7.62125,43.288002,11.272,29.984001,eccentric,4,3.0,21924.0,315641.0,284418.0,334347.0,294703.0
2026-04-07 17:51:05.802364,245498,1336176212,1336178076,-1.202432,-0.1464,-0.11712,0.67375,-15.33875,14.84,43.288002,11.272,29.984001,eccentric,4,3.0,21924.0,315641.0,284418.0,334347.0,294703.0
2026-04-07 17:51:05.804081,245499,1336185164,1336186805,-1.202432,-0.1464,-0.11712,14.4725,-16.4325,21.62125,43.288002,11.272,29.984001,eccentric,4,3.0,21924.0,315641.0,284418.0,334347.0,294703.0
2026-04-07 17:51:05.805714,245500,1336199657,1336201731,-1.143872,-0.03904,-0.093696,26.32,-15.5575,25.9525,42.768,10.896001,29.232002,eccentric,4,3.0,21924.0,315641.0,284418.0,334347.0,294703.0
2026-04-07 17:51:05.863197,245510,1336208605,1336210451,-1.159488,0.031232,-0.021472,27.58875,-14.41125,28.0175,43.752003,9.96,32.304,eccentric,4,3.0,22857.0,323794.0,290949.0,341332.0,299950.0
2026-04-07 17:51:05.867372,245511,1336218014,1336219193,-1.159488,0.031232,-0.021472,19.13625,-13.23875,29.42625,43.752003,9.96,32.304,eccentric,4,3.0,22857.0,323794.0,290949.0,341332.0,299950.0
2026-04-07 17:51:05.869060,245512,1336226899,1336227888,-1.179008,0.005856,0.00976,5.13625,-12.3375,30.975,44.136,9.712001,31.544,eccentric,4,3.0,22857.0,323794.0,290949.0,341332.0,299950.0
2026-04-07 17:51:05.872155,245513,1336241368,1336242791,-1.179008,0.005856,0.00976,-7.9625,-11.92625,32.99625,44.136,9.712001,31.544,eccentric,4,3.0,22857.0,323794.0,290949.0,341332.0,299950.0
2026-04-07 17:51:05.874870,245514,1336250327,1336251542,-1.159488,-0.113216,-0.035136,-14.752501,-11.76875,34.0025,44.632004,8.904,31.232002,eccentric,4,3.0,22857.0,323794.0,290949.0,341332.0,299950.0
2026-04-07 17:51:05.877284,245515,1336259239,1336260333,-1.159488,-0.113216,-0.035136,-15.23375,-10.7975,33.5825,44.632004,8.904,31.232002,eccentric,4,3.0,22857.0,323794.0,290949.0,341332.0,299950.0
2026-04-07 17:51:05.881354,245516,1336273729,1336275226,-1.091168,-0.05856,-0.074176,-14.245,-10.7975,33.39875,44.232002,8.696,31.584002,eccentric,4,3.0,22857.0,323794.0,290949.0,341332.0,299950.0
2026-04-07 17:51:05.911692,245517,1336282661,1336283951,-1.091168,-0.05856,-0.074176,-12.0575,-10.45625,32.095,44.232002,8.696,31.584002,eccentric,4,3.0,22857.0,323794.0,290949.0,341332.0,299950.0
2026-04-07 17:51:05.914032,245518,1336291577,1336292660,-1.114592,0.0488,-0.091744,-11.9,-9.9925,31.465,45.208004,8.392,32.472,eccentric,4,3.0,22857.0,323794.0,290949.0,341332.0,299950.0
2026-04-07 17:51:05.918639,245519,1336306039,1336307536,-1.114592,0.0488,-0.091744,-15.2425,-9.68625,30.87875,45.208004,8.392,32.472,eccentric,4,3.0,22857.0,323794.0,290949.0,341332.0,299950.0
2026-04-07 17:51:05.945444,245530,1336315114,1336316369,-1.155584,0.046848,-0.076128,-20.4575,-10.19375,29.9775,44.792004,8.512,31.240002,eccentric,4,3.0,23345.0,328546.0,294893.0,345705.0,303450.0
2026-04-07 17:51:05.946889,245531,1336324053,1336325205,-1.155584,0.046848,-0.076128,-25.03375,-10.94625,29.33875,44.792004,8.512,31.240002,eccentric,4,3.0,23345.0,328546.0,294893.0,345705.0,303450.0
2026-04-07 17:51:05.952118,245532,1336338570,1336340177,-1.179008,-0.03904,-0.033184,-27.76375,-10.8675,28.20125,45.352,7.864,32.144,eccentric,4,3.0,23345.0,328546.0,294893.0,345705.0,303450.0
2026-04-07 17:51:05.955972,245533,1336347505,1336348892,-1.159488,-0.081984,-0.021472,-26.38125,-11.76875,27.25625,45.152,7.72,32.192,eccentric,4,3.0,23345.0,328546.0,294893.0,345705.0,303450.0
2026-04-07 17:51:05.984561,245534,1336356506,1336357623,-1.159488,-0.081984,-0.021472,-20.9825,-13.13375,26.29375,45.152,7.72,32.192,eccentric,4,3.0,23345.0,328546.0,294893.0,345705.0,303450.0
2026-04-07 17:51:05.989888,245535,1336365429,1336366320,-1.159488,-0.081984,-0.021472,-15.1725,-14.1575,25.55875,45.152,7.72,32.192,eccentric,4,3.0,23345.0,328546.0,294893.0,345705.0,303450.0
2026-04-07 17:51:05.991472,245536,1336379883,1336381210,-1.114592,-0.089792,-0.066368,-9.82625,-14.06125,24.5875,45.848003,7.32,30.248001,eccentric,4,3.0,23345.0,328546.0,294893.0,345705.0,303450.0
2026-04-07 17:51:05.997244,245537,1336388776,1336389896,-1.110688,-0.00976,-0.076128,-3.99875,-12.8975,22.855,45.832,6.992,31.552002,eccentric,4,3.0,23345.0,328546.0,294893.0,345705.0,303450.0
2026-04-07 17:51:06.026000,245538,1336397761,1336398598,-1.110688,-0.00976,-0.076128,-2.59875,-10.36,20.25625,45.832,6.992,31.552002,eccentric,4,3.0,23345.0,328546.0,294893.0,345705.0,303450.0
2026-04-07 17:51:06.087338,245548,1336412615,1336413627,-1.147776,0.0,-0.083936,-5.985,-9.02125,17.68375,45.936,6.968,31.192001,eccentric,4,3.0,23756.0,332313.0,298129.0,349376.0,306543.0
2026-04-07 17:51:06.089034,245549,1336421676,1336422398,-1.147776,0.0,-0.083936,-13.76375,-8.2775,16.205,45.936,6.968,31.192001,eccentric,4,3.0,23756.0,332313.0,298129.0,349376.0,306543.0
2026-04-07 17:51:06.090581,245550,1336431131,1336433166,-1.143872,-0.044896,-0.044896,-19.678751,-7.46375,15.37375,45.192,5.960001,33.576,eccentric,4,3.0,23756.0,332313.0,298129.0,349376.0,306543.0
2026-04-07 17:51:06.094875,245551,1336440062,1336441879,-1.143872,-0.044896,-0.044896,-20.51,-7.1225,14.28875,45.192,5.960001,33.576,eccentric,4,3.0,23756.0,332313.0,298129.0,349376.0,306543.0
2026-04-07 17:51:06.096523,245552,1336454603,1336456788,-1.157536,-0.06832,-0.044896,-18.2525,-7.07875,12.85375,45.448,6.64,31.304,eccentric,4,3.0,23756.0,332313.0,298129.0,349376.0,306543.0
2026-04-07 17:51:06.098085,245553,1336463510,1336465479,-1.157536,-0.06832,-0.044896,-14.41125,-7.105,10.94625,45.448,6.64,31.304,eccentric,4,3.0,23756.0,332313.0,298129.0,349376.0,306543.0
2026-04-07 17:51:06.100661,245554,1336472414,1336474188,-1.128256,-0.015616,-0.037088,-10.01875,-6.18625,8.54875,46.160004,6.528,30.992,eccentric,4,3.0,23756.0,332313.0,298129.0,349376.0,306543.0
2026-04-07 17:51:06.104129,245555,1336486960,1336489214,-1.128256,-0.015616,-0.037088,-6.3175,-5.145,6.37875,46.160004,6.528,30.992,eccentric,4,3.0,23756.0,332313.0,298129.0,349376.0,306543.0
2026-04-07 17:51:06.106407,245556,1336495870,1336497948,-1.13216,-0.027328,-0.06832,-5.60875,-4.095,5.04,46.288002,6.376,31.800001,eccentric,4,3.0,23756.0,332313.0,298129.0,349376.0,306543.0
2026-04-07 17:51:06.113492,245557,1336504816,1336506682,-1.13216,-0.027328,-0.06832,-9.073751,-3.21125,3.77125,46.288002,6.376,31.800001,eccentric,4,3.0,23756.0,332313.0,298129.0,349376.0,306543.0
2026-04-07 17:51:06.141140,245567,1336519730,1336521929,-1.14192,-0.052704,-0.060512,-12.76625,-2.1875,1.86375,46.184002,6.048,31.36,eccentric,4,3.0,23870.0,333258.0,298894.0,350194.0,307182.0
2026-04-07 17:51:06.142807,245568,1336528662,1336530650,-1.145824,-0.044896,-0.070272,-12.36375,-0.6125,-0.7,45.632004,6.232,33.088,eccentric,4,3.0,23870.0,333258.0,298894.0,350194.0,307182.0
2026-04-07 17:51:06.144435,245569,1336537619,1336539400,-1.145824,-0.044896,-0.070272,-10.57,0.63,-3.33375,45.632004,6.232,33.088,eccentric,4,3.0,23870.0,333258.0,298894.0,350194.0,307182.0
2026-04-07 17:51:06.173285,245570,1336546596,1336548113,-1.145824,-0.044896,-0.070272,-10.78875,1.4,-5.80125,45.632004,6.232,33.088,eccentric,4,3.0,23870.0,333258.0,298894.0,350194.0,307182.0
2026-04-07 17:51:06.177765,245571,1336561092,1336562998,-1.145824,-0.06832,-0.093696,-10.5525,1.86375,-8.26,46.192,6.344,31.568,eccentric,4,3.0,23870.0,333258.0,298894.0,350194.0,307182.0
2026-04-07 17:51:06.179388,245572,1336570050,1336571691,-1.138016,-0.072224,-0.07808,-7.62125,2.0825,-9.2225,46.192,6.272,31.096,eccentric,4,3.0,23870.0,333258.0,298894.0,350194.0,307182.0
2026-04-07 17:51:06.187226,245573,1336578994,1336580423,-1.138016,-0.072224,-0.07808,-1.35625,2.3625,-11.62,46.192,6.272,31.096,eccentric,4,3.0,23870.0,333258.0,298894.0,350194.0,307182.0
2026-04-07 17:51:06.215806,245574,1336593498,1336595330,-1.104832,-0.044896,-0.070272,5.52125,2.42375,-13.055,45.72,6.824,31.272001,eccentric,4,3.0,23870.0,333258.0,298894.0,350194.0,307182.0
2026-04-07 17:51:06.220308,245575,1336602431,1336604016,-1.104832,-0.044896,-0.070272,9.58125,3.15,-14.20125,45.72,6.824,31.272001,eccentric,4,3.0,23870.0,333258.0,298894.0,350194.0,307182.0
2026-04-07 17:51:06.246899,245586,1336611813,1336612657,-1.106784,-0.033184,-0.062464,9.8,4.3225,-15.645,45.936,6.552001,31.144001,eccentric,4,3.0,23177.0,326675.0,293176.0,343577.0,301349.0
2026-04-07 17:51:06.251232,245587,1336620811,1336621446,-1.106784,-0.033184,-0.062464,8.225,5.27625,-16.63375,45.936,6.552001,31.144001,eccentric,4,3.0,23177.0,326675.0,293176.0,343577.0,301349.0
2026-04-07 17:51:06.253831,245588,1336635815,1336636450,-1.130208,-0.046848,-0.054656,4.13875,6.3,-18.3925,45.912003,6.864,31.496002,eccentric,4,3.0,23177.0,326675.0,293176.0,343577.0,301349.0
2026-04-07 17:51:06.260043,245589,1336645116,1336647214,-1.130208,-0.046848,-0.054656,-1.96,7.035,-18.9,45.912003,6.864,31.496002,eccentric,4,3.0,23177.0,326675.0,293176.0,343577.0,301349.0
2026-04-07 17:51:06.261486,245590,1336654072,1336655925,-1.136064,-0.040992,-0.042944,-5.99375,6.76375,-19.17125,45.672,7.520001,31.216002,eccentric,4,3.0,23177.0,326675.0,293176.0,343577.0,301349.0
2026-04-07 17:51:06.291692,245591,1336668655,1336670838,-1.108736,-0.07808,-0.070272,-6.50125,7.77875,-19.41625,45.672,7.248,31.496002,eccentric,4,3.0,23177.0,326675.0,293176.0,343577.0,301349.0
2026-04-07 17:51:06.296127,245592,1336677559,1336679518,-1.108736,-0.07808,-0.070272,-5.6525,9.10875,-22.04125,45.52,7.248,31.496002,eccentric,4,3.0,23177.0,326675.0,293176.0,343577.0,301349.0
2026-04-07 17:51:06.297687,245593,1336686493,1336688197,-1.108736,-0.07808,-0.070272,-6.16,8.96875,-23.3625,45.52,7.248,31.496002,eccentric,4,3.0,23177.0,326675.0,293176.0,343577.0,301349.0
2026-04-07 17:51:06.303470,245594,1336695442,1336696861,-1.110688,-0.08784,-0.07808,-4.3225,10.45625,-24.465,45.416,7.168,30.696001,eccentric,4,3.0,23177.0,326675.0,293176.0,343577.0,301349.0
2026-04-07 17:51:06.332055,245595,1336709930,1336711792,-1.147776,-0.037088,-0.083936,-0.98875,11.78625,-25.366251,44.792004,7.424,32.352,eccentric,4,3.0,23177.0,326675.0,293176.0,343577.0,301349.0
2026-04-07 17:51:06.394876,245605,1336718883,1336720569,-1.147776,-0.037088,-0.083936,2.24875,12.62625,-25.34875,44.792004,7.424,32.352,concentric,4,3.0,22333.0,318764.0,286573.0,336241.0,295531.0
2026-04-07 17:51:06.396642,245606,1336727824,1336729264,-1.147776,-0.037088,-0.083936,2.63375,13.97375,-26.34625,44.792004,7.424,32.352,concentric,4,3.0,22333.0,318764.0,286573.0,336241.0,295531.0
2026-04-07 17:51:06.398155,245607,1336742309,1336744229,-1.159488,-0.007808,-0.074176,2.28375,14.69125,-28.2625,45.024002,7.968,32.336002,concentric,4,3.0,22333.0,318764.0,286573.0,336241.0,295531.0
2026-04-07 17:51:06.402321,245608,1336751245,1336752927,-1.155584,-0.031232,-0.06832,1.0325,15.295,-31.5875,45.600002,7.872,29.976002,concentric,4,3.0,22333.0,318764.0,286573.0,336241.0,295531.0
2026-04-07 17:51:06.404077,245609,1336760290,1336761610,-1.155584,-0.031232,-0.06832,0.04375,16.31,-34.55375,45.600002,7.872,29.976002,concentric,4,3.0,22333.0,318764.0,286573.0,336241.0,295531.0
2026-04-07 17:51:06.405757,245610,1336774797,1336776550,-1.192672,-0.035136,-0.072224,-0.3675,17.40375,-36.7675,45.144,8.928,29.968002,concentric,4,3.0,22333.0,318764.0,286573.0,336241.0,295531.0
2026-04-07 17:51:06.408056,245611,1336783891,1336785321,-1.192672,-0.035136,-0.072224,1.11125,17.99,-38.59625,45.144,8.928,29.968002,concentric,4,3.0,22333.0,318764.0,286573.0,336241.0,295531.0
2026-04-07 17:51:06.411365,245612,1336792844,1336794037,-1.221952,-0.044896,-0.085888,3.6575,18.095,-39.08625,44.112003,9.024,31.296001,concentric,4,3.0,22333.0,318764.0,286573.0,336241.0,295531.0
2026-04-07 17:51:06.416038,245613,1336807422,1336808939,-1.221952,-0.044896,-0.085888,4.8825,18.13,-39.76,44.112003,9.024,31.296001,concentric,4,3.0,22333.0,318764.0,286573.0,336241.0,295531.0
2026-04-07 17:51:06.440740,245623,1336816670,1336817701,-1.221952,-0.027328,-0.076128,5.71375,18.7425,-40.8275,43.776,9.440001,30.784002,concentric,4,3.0,21480.0,310890.0,280077.0,329097.0,289740.0
2026-04-07 17:51:06.445120,245624,1336825760,1336826425,-1.221952,-0.027328,-0.076128,8.05875,20.09875,-42.49,43.776,9.440001,30.784002,concentric,4,3.0,21480.0,310890.0,280077.0,329097.0,289740.0
2026-04-07 17:51:06.450948,245625,1336835172,1336837219,-1.260992,-0.011712,-0.037088,8.56625,21.315,-43.42625,43.656002,9.672001,30.936,concentric,4,3.0,21480.0,310890.0,280077.0,329097.0,289740.0
2026-04-07 17:51:06.457265,245626,1336849727,1336850109,-1.284416,-0.060512,-0.072224,4.865,22.6275,-44.05625,43.008003,10.304001,31.016,concentric,4,3.0,21480.0,310890.0,280077.0,329097.0,289740.0
2026-04-07 17:51:06.485724,245627,1336858975,1336860868,-1.284416,-0.060512,-0.072224,0.3325,23.205,-43.1025,43.008003,10.304001,31.016,concentric,4,3.0,21480.0,310890.0,280077.0,329097.0,289740.0
2026-04-07 17:51:06.490279,245628,1336867925,1336869636,-1.284416,-0.060512,-0.072224,-3.73625,24.3425,-43.9425,43.008003,10.304001,31.016,concentric,4,3.0,21480.0,310890.0,280077.0,329097.0,289740.0
2026-04-07 17:51:06.492594,245629,1336876836,1336878320,-1.253184,-0.0488,-0.076128,-4.375,25.24375,-45.08875,43.712,10.712001,29.968002,concentric,4,3.0,21480.0,310890.0,280077.0,329097.0,289740.0
2026-04-07 17:51:06.524556,245630,1336891340,1336893240,-1.251232,-0.015616,-0.076128,-1.6275,27.08125,-47.31125,42.336002,11.472,30.112001,concentric,4,3.0,21480.0,310890.0,280077.0,329097.0,289740.0
2026-04-07 17:51:06.528117,245631,1336900352,1336901944,-1.251232,-0.015616,-0.076128,0.06125,28.76125,-49.5075,42.336002,11.472,30.112001,concentric,4,3.0,21480.0,310890.0,280077.0,329097.0,289740.0
2026-04-07 17:51:06.530554,245632,1336909353,1336910675,-1.251232,-0.062464,-0.07808,0.245,29.40875,-50.40875,42.336002,11.472,30.112001,concentric,4,3.0,21480.0,310890.0,280077.0,329097.0,289740.0
2026-04-07 17:51:06.561764,245643,1336923940,1336925614,-1.25904,-0.0488,-0.07808,1.46125,29.11125,-51.2925,42.448,12.288,28.792002,concentric,4,3.0,20596.0,303123.0,273752.0,322458.0,283969.0
2026-04-07 17:51:06.564330,245644,1336932916,1336934348,-1.270752,-0.046848,-0.062464,3.12375,28.105,-50.75,41.960003,12.272,28.760002,concentric,4,3.0,20596.0,303123.0,273752.0,322458.0,283969.0
2026-04-07 17:51:06.566768,245645,1336941952,1336943056,-1.270752,-0.046848,-0.062464,6.195,26.775,-49.5425,41.960003,12.272,28.760002,concentric,4,3.0,20596.0,303123.0,273752.0,322458.0,283969.0
2026-04-07 17:51:06.569277,245646,1336956466,1336957994,-1.179008,-0.054656,-0.08784,9.1,25.865,-48.195,41.304,12.664001,30.928001,concentric,4,3.0,20596.0,303123.0,273752.0,322458.0,283969.0
2026-04-07 17:51:06.571787,245647,1336965443,1336966729,-1.179008,-0.054656,-0.08784,7.84875,25.33125,-49.34125,41.304,12.664001,30.928001,concentric,4,3.0,20596.0,303123.0,273752.0,322458.0,283969.0
2026-04-07 17:51:06.602046,245648,1336974370,1336975450,-1.157536,-0.03904,-0.060512,3.87625,26.5825,-50.63625,40.36,12.944,30.536001,concentric,4,3.0,20596.0,303123.0,273752.0,322458.0,283969.0
2026-04-07 17:51:06.605648,245649,1336983288,1336984121,-1.157536,-0.03904,-0.060512,2.4325,27.5275,-50.53125,40.36,12.944,30.536001,concentric,4,3.0,20596.0,303123.0,273752.0,322458.0,283969.0
2026-04-07 17:51:06.608049,245650,1336997752,1336998999,-1.223904,-0.050752,-0.042944,2.205,29.286251,-49.49,40.648003,13.248001,28.328001,concentric,4,3.0,20596.0,303123.0,273752.0,322458.0,283969.0
2026-04-07 17:51:06.611862,245651,1337006688,1337007765,-1.223904,-0.050752,-0.042944,1.44375,29.33,-49.14875,40.648003,13.248001,28.328001,concentric,4,3.0,20596.0,303123.0,273752.0,322458.0,283969.0
2026-04-07 17:51:06.690576,245661,1337016058,1337016554,-1.19072,-0.02928,-0.060512,3.4825,28.02625,-47.145,40.488003,13.792001,28.320002,concentric,4,3.0,20419.0,301719.0,272777.0,321818.0,283899.0
2026-04-07 17:51:06.693052,245662,1337031052,1337031487,-1.147776,0.007808,-0.03904,9.065,28.16625,-46.138752,39.928,14.952001,27.936,concentric,4,3.0,20419.0,301719.0,272777.0,321818.0,283899.0
2026-04-07 17:51:06.695534,245663,1337040477,1337042240,-1.147776,0.007808,-0.03904,13.2125,28.5775,-47.6175,39.928,14.952001,27.936,concentric,4,3.0,20419.0,301719.0,272777.0,321818.0,283899.0
2026-04-07 17:51:06.698065,245664,1337049385,1337050925,-1.147776,0.007808,-0.03904,10.07125,29.21625,-49.32375,39.928,14.952001,27.936,concentric,4,3.0,20419.0,301719.0,272777.0,321818.0,283899.0
2026-04-07 17:51:06.700531,245665,1337058299,1337059621,-1.218048,0.007808,-0.083936,2.1175,28.67375,-49.02625,39.160004,15.512001,25.12,concentric,4,3.0,20419.0,301719.0,272777.0,321818.0,283899.0
2026-04-07 17:51:06.703067,245666,1337072818,1337074502,-1.204384,-0.056608,-0.0976,-1.21625,29.42625,-47.81875,38.640003,15.328001,27.872002,concentric,4,3.0,20419.0,301719.0,272777.0,321818.0,283899.0
2026-04-07 17:51:06.705602,245667,1337081906,1337083255,-1.204384,-0.056608,-0.0976,-1.91625,27.5625,-45.99875,38.640003,15.328001,27.872002,concentric,4,3.0,20419.0,301719.0,272777.0,321818.0,283899.0
2026-04-07 17:51:06.710579,245668,1337090848,1337091972,-1.155584,-0.083936,-0.081984,-0.1925,24.815,-45.535,38.184002,15.728001,29.312002,concentric,4,3.0,20419.0,301719.0,272777.0,321818.0,283899.0
2026-04-07 17:51:06.713487,245669,1337105368,1337106902,-1.155584,-0.083936,-0.081984,3.395,23.397501,-44.07375,38.184002,15.728001,29.312002,concentric,4,3.0,20419.0,301719.0,272777.0,321818.0,283899.0
2026-04-07 17:51:06.767712,245679,1337114815,1337115749,-1.126304,-0.031232,-0.081984,9.89625,21.77875,-42.2975,37.376003,16.128,29.048002,concentric,4,3.0,20343.0,301379.0,272756.0,322357.0,284941.0
2026-04-07 17:51:06.774760,245680,1337123777,1337124533,-1.126304,-0.031232,-0.081984,14.16625,22.3475,-40.06625,37.376003,16.128,29.048002,concentric,4,3.0,20343.0,301379.0,272756.0,322357.0,284941.0
2026-04-07 17:51:06.781120,245681,1337133131,1337135289,-1.15168,-0.089792,-0.13664,9.695,22.53125,-37.765,36.920002,16.44,27.400002,concentric,4,3.0,20343.0,301379.0,272756.0,322357.0,284941.0
2026-04-07 17:51:06.782900,245682,1337147695,1337148132,-1.15168,-0.089792,-0.13664,-1.68875,21.77,-34.83375,36.920002,16.44,27.400002,concentric,4,3.0,20343.0,301379.0,272756.0,322357.0,284941.0
2026-04-07 17:51:06.784465,245683,1337157000,1337158940,-1.13216,-0.132736,-0.13664,-10.22875,19.46875,-30.4325,36.336002,16.784,27.448002,concentric,4,3.0,20343.0,301379.0,272756.0,322357.0,284941.0
2026-04-07 17:51:06.788671,245684,1337166042,1337167646,-1.13216,-0.132736,-0.13664,-13.72,16.54625,-23.54625,36.336002,16.784,27.448002,concentric,4,3.0,20343.0,301379.0,272756.0,322357.0,284941.0
2026-04-07 17:51:06.791025,245685,1337175033,1337176346,-1.260992,-0.062464,-0.072224,-9.26625,12.775,-17.5,36.232002,16.912,28.336,concentric,4,3.0,20343.0,301379.0,272756.0,322357.0,284941.0
2026-04-07 17:51:06.819463,245686,1337189516,1337191250,-1.260992,-0.062464,-0.072224,3.8325,9.5725,-11.1125,36.232002,16.912,28.336,concentric,4,3.0,20343.0,301379.0,272756.0,322357.0,284941.0
2026-04-07 17:51:06.824176,245687,1337198475,1337199948,-1.221952,0.0488,-0.017568,15.54875,5.145,-5.62625,36.288002,16.984001,25.896002,concentric,4,3.0,20343.0,301379.0,272756.0,322357.0,284941.0
2026-04-07 17:51:06.825650,245688,1337207379,1337208680,-1.221952,0.0488,-0.017568,18.62875,1.995,-2.77375,36.288002,16.984001,25.896002,concentric,4,3.0,20343.0,301379.0,272756.0,322357.0,284941.0
2026-04-07 17:51:06.854051,245699,1337221943,1337223811,-1.114592,0.148352,-0.044896,18.17375,2.1525,-5.88875,37.032,17.064001,26.984001,concentric,4,3.0,20408.0,301783.0,273046.0,322638.0,285081.0
2026-04-07 17:51:06.855686,245700,1337231035,1337232556,-1.192672,0.08784,-0.037088,13.71125,3.33375,-9.02125,37.032,17.064001,29.896002,concentric,4,3.0,20408.0,301783.0,273046.0,322638.0,285081.0
2026-04-07 17:51:06.859840,245701,1337240035,1337241258,-1.196576,0.08784,-0.037088,8.47875,4.29625,-10.89375,35.872,16.872002,29.896002,concentric,4,3.0,20408.0,301783.0,273046.0,322638.0,285081.0
2026-04-07 17:51:06.861362,245702,1337254569,1337256242,-1.208288,-0.013664,-0.03904,3.885,3.78875,-12.32875,34.936,16.976002,29.704,concentric,4,3.0,20408.0,301783.0,273046.0,322638.0,285081.0
2026-04-07 17:51:06.891632,245703,1337263495,1337264962,-1.208288,-0.013664,-0.03904,2.31875,2.54625,-11.85625,34.936,16.976002,29.704,concentric,4,3.0,20408.0,301783.0,273046.0,322638.0,285081.0
2026-04-07 17:51:06.896066,245704,1337272407,1337273676,-1.169248,-0.021472,-0.044896,1.84625,0.9975,-10.64875,35.736,17.072,25.696001,concentric,4,3.0,20408.0,301783.0,273046.0,322638.0,285081.0
2026-04-07 17:51:06.898848,245705,1337281341,1337282471,-1.169248,-0.021472,-0.044896,1.95125,0.315,-8.32125,35.736,17.072,25.696001,concentric,4,3.0,20408.0,301783.0,273046.0,322638.0,285081.0
2026-04-07 17:51:06.902888,245706,1337295858,1337297410,-1.114592,0.050752,-0.089792,5.11875,0.56875,-6.195,35.248,16.800001,27.208002,concentric,4,3.0,20408.0,301783.0,273046.0,322638.0,285081.0
2026-04-07 17:51:06.933071,245707,1337304796,1337306132,-1.114592,0.050752,-0.089792,7.21,1.68,-5.59125,35.248,16.800001,27.208002,concentric,4,3.0,20408.0,301783.0,273046.0,322638.0,285081.0
2026-04-07 17:51:06.935430,245708,1337313723,1337314831,-1.153632,0.06832,-0.076128,4.83875,3.0975,-6.1075,35.632,17.408,27.576002,concentric,4,3.0,20408.0,301783.0,273046.0,322638.0,285081.0
2026-04-07 17:51:06.999856,245718,1337328272,1337329760,-1.153632,0.06832,-0.076128,3.22,4.55,-7.07875,35.632,17.408,27.576002,concentric,4,3.0,20160.0,299739.0,271581.0,321717.0,285138.0
2026-04-07 17:51:07.001561,245719,1337337225,1337338536,-1.143872,-0.033184,-0.10736,2.84375,4.71625,-7.69125,35.136,16.688002,27.072,concentric,4,3.0,20160.0,299739.0,271581.0,321717.0,285138.0
2026-04-07 17:51:07.003049,245720,1337346145,1337347213,-1.143872,-0.033184,-0.10736,0.77875,3.01875,-8.46125,35.136,16.688002,27.072,concentric,4,3.0,20160.0,299739.0,271581.0,321717.0,285138.0
2026-04-07 17:51:07.006519,245721,1337360639,1337362105,-1.028704,0.003904,-0.128832,-1.58375,1.05875,-10.42125,35.2,16.552,27.184002,concentric,4,3.0,20160.0,299739.0,271581.0,321717.0,285138.0
2026-04-07 17:51:07.007998,245722,1337369540,1337370828,-1.028704,0.003904,-0.128832,3.465,2.275,-11.7075,35.2,16.552,27.184002,concentric,4,3.0,20160.0,299739.0,271581.0,321717.0,285138.0
2026-04-07 17:51:07.011609,245723,1337378583,1337379625,-1.016992,0.013664,-0.109312,9.415,3.66625,-14.18375,34.616,16.984001,28.576002,concentric,4,3.0,20160.0,299739.0,271581.0,321717.0,285138.0
2026-04-07 17:51:07.013122,245724,1337393071,1337394618,-1.048224,-0.033184,-0.062464,9.87,5.25875,-14.5775,34.2,16.864,28.384,concentric,4,3.0,20160.0,299739.0,271581.0,321717.0,285138.0
2026-04-07 17:51:07.017365,245725,1337402045,1337403322,-1.048224,-0.033184,-0.062464,11.1475,7.35875,-13.8075,34.2,16.864,28.384,concentric,4,3.0,20160.0,299739.0,271581.0,321717.0,285138.0
2026-04-07 17:51:07.019823,245726,1337411021,1337412068,-1.048224,-0.033184,-0.062464,12.495,8.61,-14.245,34.2,16.864,28.384,concentric,4,3.0,20160.0,299739.0,271581.0,321717.0,285138.0
2026-04-07 17:51:07.054922,245736,1337420130,1337420837,-0.935008,-0.056608,-0.033184,10.96375,8.40875,-15.44375,33.632,16.832,29.552002,concentric,4,3.0,20232.0,300717.0,272502.0,322999.0,286390.0
2026-04-07 17:51:07.056559,245737,1337435069,1337435750,-0.911584,-0.035136,-0.150304,10.386251,8.89,-16.21375,33.488003,16.560001,28.352001,concentric,4,3.0,20232.0,300717.0,272502.0,322999.0,286390.0
2026-04-07 17:51:07.059182,245738,1337444372,1337446525,-0.911584,-0.035136,-0.150304,8.47,10.2375,-18.48,33.488003,16.560001,28.352001,concentric,4,3.0,20232.0,300717.0,272502.0,322999.0,286390.0
2026-04-07 17:51:07.060747,245739,1337453320,1337455234,-0.862784,-0.080032,-0.158112,7.63,9.68625,-18.6025,33.464,16.928001,27.344002,concentric,4,3.0,20232.0,300717.0,272502.0,322999.0,286390.0
2026-04-07 17:51:07.092955,245740,1337467810,1337468123,-0.862784,-0.080032,-0.158112,11.38375,9.17,-18.83875,33.464,16.928001,27.344002,concentric,4,3.0,20232.0,300717.0,272502.0,322999.0,286390.0
2026-04-07 17:51:07.097357,245741,1337476975,1337478880,-0.876448,-0.081984,-0.132736,16.56375,8.68875,-17.78,33.128002,17.272001,27.728,concentric,4,3.0,20232.0,300717.0,272502.0,322999.0,286390.0
2026-04-07 17:51:07.099137,245742,1337485931,1337487554,-0.876448,-0.081984,-0.132736,22.09375,6.685,-15.5925,33.128002,17.272001,27.728,concentric,4,3.0,20232.0,300717.0,272502.0,322999.0,286390.0
2026-04-07 17:51:07.100993,245743,1337494839,1337496205,-0.7808,-0.037088,-0.08784,25.2875,5.45125,-14.65625,33.424,17.192001,27.392002,concentric,4,3.0,20232.0,300717.0,272502.0,322999.0,286390.0
2026-04-07 17:51:07.131656,245744,1337509352,1337511121,-0.7808,-0.037088,-0.08784,20.08125,4.36625,-14.245,33.424,17.192001,27.392002,concentric,4,3.0,20232.0,300717.0,272502.0,322999.0,286390.0
2026-04-07 17:51:07.157595,245754,1337518875,1337519865,-0.714432,-0.10736,-0.042944,9.073751,3.78875,-14.00875,33.280003,16.984001,27.560001,concentric,4,3.0,20480.0,302970.0,274339.0,324702.0,287403.0
2026-04-07 17:51:07.164993,245755,1337527839,1337528646,-0.714432,-0.10736,-0.042944,-3.4125,1.8725,-13.658751,33.280003,16.984001,27.560001,concentric,4,3.0,20480.0,302970.0,274339.0,324702.0,287403.0
2026-04-07 17:51:07.166595,245756,1337542407,1337543611,-0.798368,-0.158112,-0.138592,-9.79125,-1.5225,-11.3225,32.52,16.992,29.704,concentric,4,3.0,20480.0,302970.0,274339.0,324702.0,287403.0
2026-04-07 17:51:07.168085,245757,1337551331,1337552321,-0.798368,-0.158112,-0.138592,-6.41375,-5.87125,-7.72625,32.52,16.992,29.704,concentric,4,3.0,20480.0,302970.0,274339.0,324702.0,287403.0
2026-04-07 17:51:07.172196,245758,1337560391,1337561083,-0.706624,-0.06832,-0.140544,4.29625,-8.1725,-2.79125,32.144,16.144001,31.328001,concentric,4,3.0,20480.0,302970.0,274339.0,324702.0,287403.0
2026-04-07 17:51:07.200786,245759,1337569771,1337571851,-0.706624,-0.06832,-0.140544,11.27,-11.29625,-1.82875,32.144,16.144001,31.328001,concentric,4,3.0,20480.0,302970.0,274339.0,324702.0,287403.0
2026-04-07 17:51:07.205262,245760,1337584292,1337584713,-0.628544,-0.06832,-0.167872,10.7625,-14.9275,-3.29875,33.288002,16.640001,27.512001,concentric,4,3.0,20480.0,302970.0,274339.0,324702.0,287403.0
2026-04-07 17:51:07.206813,245761,1337593582,1337595509,-0.616832,-0.142496,-0.0976,4.13,-15.627501,-1.98625,32.928,16.384,28.560001,concentric,4,3.0,20480.0,302970.0,274339.0,324702.0,287403.0
2026-04-07 17:51:07.210927,245762,1337602554,1337604217,-0.616832,-0.142496,-0.0976,-1.25125,-15.085,-1.65375,32.928,16.384,28.560001,concentric,4,3.0,20480.0,302970.0,274339.0,324702.0,287403.0
2026-04-07 17:51:07.270462,245763,1337611626,1337612963,-0.616832,-0.142496,-0.0976,-1.18125,-14.752501,0.0175,32.928,16.384,28.560001,concentric,4,3.0,20480.0,302970.0,274339.0,324702.0,287403.0
