pc_time,serial_num,sensor_ts,host_ts,ax,ay,az,gx,gy,gz,mx,my,mz,phase,rpe,weight_kg,ppg_a,ppg_b,ppg_c,ppg_d,ppg_e
2026-04-09 22:03:18.423329,163275,1128411871,1128413089,0.911584,-0.386496,0.03904,14.035,18.9875,-4.90875,-26.768002,17.464,18.536001,eccentric,4,3.0,41078.0,344145.0,94034.0,60.0,-143.0
2026-04-09 22:03:18.430734,163276,1128420802,1128421863,0.911584,-0.386496,0.03904,13.4575,18.33125,-3.26375,-26.768002,17.464,18.536001,eccentric,4,3.0,41078.0,344145.0,94034.0,60.0,-143.0
2026-04-09 22:03:18.433200,163277,1128435318,1128436763,0.91744,-0.415776,0.01952,13.7025,17.0625,-1.91625,-26.592001,17.160002,18.288,eccentric,4,3.0,41078.0,344145.0,94034.0,60.0,-143.0
2026-04-09 22:03:18.435645,163278,1128444243,1128445547,0.931104,-0.41968,0.01952,11.4975,16.14375,-1.32125,-26.008001,17.376001,18.784,eccentric,4,3.0,41078.0,344145.0,94034.0,60.0,-143.0
2026-04-09 22:03:18.438170,163279,1128453174,1128454261,0.931104,-0.41968,0.01952,6.9475,13.4225,-1.61,-26.008001,17.376001,18.784,eccentric,4,3.0,41078.0,344145.0,94034.0,60.0,-143.0
2026-04-09 22:03:18.469463,163289,1128467954,1128469218,0.952576,-0.35136,0.052704,7.74375,10.50875,-1.2775,-26.728,17.224,18.992,eccentric,4,3.0,40336.0,343506.0,92652.0,-3.0,-134.0
2026-04-09 22:03:18.471923,163290,1128476891,1128477991,0.952576,-0.35136,0.052704,9.4675,8.33,-1.72375,-26.728,17.224,18.992,eccentric,4,3.0,40336.0,343506.0,92652.0,-3.0,-134.0
2026-04-09 22:03:18.474495,163291,1128485786,1128486718,0.987712,-0.435296,0.035136,7.46375,4.9525,-4.725,-26.784,18.096,18.76,eccentric,4,3.0,40336.0,343506.0,92652.0,-3.0,-134.0
2026-04-09 22:03:18.476902,163292,1128500346,1128501685,0.987712,-0.435296,0.035136,6.79875,2.555,-5.9325,-26.784,18.096,18.76,eccentric,4,3.0,40336.0,343506.0,92652.0,-3.0,-134.0
2026-04-09 22:03:18.479417,163293,1128509277,1128510450,0.964288,-0.423584,0.050752,3.14125,0.62125,-3.52625,-26.384,17.28,18.824001,eccentric,4,3.0,40336.0,343506.0,92652.0,-3.0,-134.0
2026-04-09 22:03:18.481910,163294,1128518267,1128519171,0.964288,-0.423584,0.050752,0.04375,-0.93625,-1.5225,-26.384,17.28,18.824001,eccentric,4,3.0,40336.0,343506.0,92652.0,-3.0,-134.0
2026-04-09 22:03:18.484454,163295,1128527188,1128527926,0.972096,-0.443104,0.060512,-0.81375,-1.93375,0.76125,-27.880001,17.936,20.960001,eccentric,4,3.0,40336.0,343506.0,92652.0,-3.0,-134.0
2026-04-09 22:03:18.486936,163296,1128542118,1128542871,0.970144,-0.398208,0.056608,-0.56,-2.415,2.68625,-27.880001,17.936,18.792002,eccentric,4,3.0,40336.0,343506.0,92652.0,-3.0,-134.0
2026-04-09 22:03:18.517161,163297,1128551546,1128553663,0.970144,-0.398208,0.056608,1.61,-3.33375,4.97875,-26.664001,17.776001,18.792002,eccentric,4,3.0,40336.0,343506.0,92652.0,-3.0,-134.0
2026-04-09 22:03:18.520695,163298,1128560487,1128562351,0.970144,-0.398208,0.056608,1.1375,-3.2375,5.3375,-26.664001,17.776001,18.792002,eccentric,4,3.0,40336.0,343506.0,92652.0,-3.0,-134.0
2026-04-09 22:03:18.545601,163308,1128575094,1128575735,0.935008,-0.443104,0.11712,-0.04375,-3.36,6.58875,-24.968,17.952002,19.232,eccentric,4,3.0,40232.0,343087.0,92256.0,-7.0,-150.0
2026-04-09 22:03:18.548193,163309,1128584360,1128586539,0.909632,-0.441152,0.111264,0.21875,-3.45625,9.625,-25.976002,18.344002,19.688002,eccentric,4,3.0,40232.0,343087.0,92256.0,-7.0,-150.0
2026-04-09 22:03:18.550650,163310,1128593290,1128595248,0.909632,-0.441152,0.111264,1.40875,-2.66875,10.71875,-25.976002,18.344002,19.688002,eccentric,4,3.0,40232.0,343087.0,92256.0,-7.0,-150.0
2026-04-09 22:03:18.553147,163311,1128602229,1128603936,0.909632,-0.437248,0.066368,1.89,-2.23125,12.1275,-25.976002,18.344002,19.336,eccentric,4,3.0,40232.0,343087.0,92256.0,-7.0,-150.0
2026-04-09 22:03:18.559409,163312,1128616712,1128618872,0.915488,-0.437248,0.066368,2.23125,-1.82,13.886251,-25.984001,17.688002,19.336,eccentric,4,3.0,40232.0,343087.0,92256.0,-7.0,-150.0
2026-04-09 22:03:18.591942,163313,1128625634,1128627576,0.903776,-0.413824,0.083936,3.33375,-1.82,15.636251,-25.672,18.008001,20.352001,eccentric,4,3.0,40232.0,343087.0,92256.0,-7.0,-150.0
2026-04-09 22:03:18.593150,163314,1128634562,1128636260,0.903776,-0.413824,0.083936,3.1675,-1.3825,14.84,-25.672,18.008001,20.352001,eccentric,4,3.0,40232.0,343087.0,92256.0,-7.0,-150.0
2026-04-09 22:03:18.595703,163315,1128649023,1128651211,0.901824,-0.42944,0.07808,1.7325,-0.32375,14.86625,-27.152,17.392,22.584002,eccentric,4,3.0,40232.0,343087.0,92256.0,-7.0,-150.0
2026-04-09 22:03:18.600684,163316,1128657933,1128659915,0.901824,-0.42944,0.07808,-0.18375,-0.25375,13.95625,-27.152,17.392,22.584002,eccentric,4,3.0,40232.0,343087.0,92256.0,-7.0,-150.0
2026-04-09 22:03:18.666086,163327,1128667383,1128668714,0.882304,-0.42944,0.081984,-0.91875,-0.4725,12.59125,-25.304,18.496,20.496,eccentric,4,3.0,40094.0,342287.0,91514.0,-18.0,-131.0
2026-04-09 22:03:18.668429,163328,1128676381,1128677478,0.882304,-0.42944,0.081984,-0.60375,-0.63875,13.0725,-25.304,18.496,20.496,eccentric,4,3.0,40094.0,342287.0,91514.0,-18.0,-131.0
2026-04-09 22:03:18.672143,163329,1128690865,1128692378,0.890112,-0.417728,0.070272,-0.8225,-0.7875,13.055,-26.760002,18.616001,21.936,eccentric,4,3.0,40094.0,342287.0,91514.0,-18.0,-131.0
2026-04-09 22:03:18.673129,163330,1128699802,1128701079,0.890112,-0.417728,0.070272,-1.74125,-0.8225,13.32625,-26.760002,18.616001,21.936,eccentric,4,3.0,40094.0,342287.0,91514.0,-18.0,-131.0
2026-04-09 22:03:18.675778,163331,1128708714,1128709834,0.886208,-0.433344,0.056608,-4.41875,-0.42875,11.9525,-25.960001,18.272001,20.192001,eccentric,4,3.0,40094.0,342287.0,91514.0,-18.0,-131.0
2026-04-09 22:03:18.678184,163332,1128723256,1128724768,0.864736,-0.433344,0.099552,-5.48625,-0.27125,11.48875,-23.904001,18.032001,20.272001,eccentric,4,3.0,40094.0,342287.0,91514.0,-18.0,-131.0
2026-04-09 22:03:18.680670,163333,1128732225,1128733528,0.864736,-0.433344,0.099552,-6.09,-0.28875,10.3775,-23.904001,18.032001,20.272001,eccentric,4,3.0,40094.0,342287.0,91514.0,-18.0,-131.0
2026-04-09 22:03:18.684008,163334,1128741158,1128742282,0.864736,-0.433344,0.099552,-7.0175,-0.97125,8.8025,-23.904001,18.032001,20.272001,eccentric,4,3.0,40094.0,342287.0,91514.0,-18.0,-131.0
2026-04-09 22:03:18.714316,163335,1128755638,1128757194,0.851072,-0.41968,0.08784,-5.95,-1.1025,7.42875,-24.976002,18.296001,21.624,eccentric,4,3.0,40094.0,342287.0,91514.0,-18.0,-131.0
2026-04-09 22:03:18.716640,163336,1128764546,1128765897,0.860832,-0.435296,0.035136,-3.9025,-1.86375,5.81875,-24.368002,18.112001,20.024,eccentric,4,3.0,40094.0,342287.0,91514.0,-18.0,-131.0
2026-04-09 22:03:18.747380,163346,1128773467,1128774657,0.860832,-0.435296,0.035136,-4.82125,-2.0825,3.47375,-24.368002,18.112001,20.024,eccentric,4,3.0,40051.0,341566.0,90950.0,-46.0,-132.0
2026-04-09 22:03:18.749535,163347,1128787973,1128789577,0.892064,-0.404064,0.027328,-7.035,-2.45,0.81375,-24.208002,18.44,20.504002,eccentric,4,3.0,40051.0,341566.0,90950.0,-46.0,-132.0
2026-04-09 22:03:18.752247,163348,1128797018,1128798291,0.892064,-0.404064,0.027328,-4.29625,-3.50875,-1.33875,-24.208002,18.44,20.504002,eccentric,4,3.0,40051.0,341566.0,90950.0,-46.0,-132.0
2026-04-09 22:03:18.754837,163349,1128806018,1128807060,0.856928,-0.42944,0.130784,0.00875,-4.01625,-3.08875,-23.52,18.0,19.880001,eccentric,4,3.0,40051.0,341566.0,90950.0,-46.0,-132.0
2026-04-09 22:03:18.758598,163350,1128814987,1128815814,0.856928,-0.42944,0.130784,-0.91,-4.47125,-5.90625,-23.52,18.0,19.880001,eccentric,4,3.0,40051.0,341566.0,90950.0,-46.0,-132.0
2026-04-09 22:03:18.790687,163351,1128829458,1128830709,0.845216,-0.456768,0.083936,-5.845,-4.41875,-6.9475,-22.064001,18.656,18.864,eccentric,4,3.0,40051.0,341566.0,90950.0,-46.0,-132.0
2026-04-09 22:03:18.792057,163352,1128838382,1128839477,0.845216,-0.456768,0.083936,-5.4075,-5.985,-6.62375,-22.064001,18.656,18.864,eccentric,4,3.0,40051.0,341566.0,90950.0,-46.0,-132.0
2026-04-09 22:03:18.796553,163353,1128847342,1128848176,0.870592,-0.398208,0.052704,-3.325,-6.1075,-7.32375,-24.488,18.232,20.328001,eccentric,4,3.0,40051.0,341566.0,90950.0,-46.0,-132.0
2026-04-09 22:03:18.812612,163354,1128861842,1128863063,0.870592,-0.398208,0.052704,-1.65375,-5.6175,-8.51375,-24.488,18.232,20.328001,eccentric,4,3.0,40051.0,341566.0,90950.0,-46.0,-132.0
2026-04-09 22:03:18.837491,163364,1128870863,1128871795,0.880352,-0.413824,0.037088,1.75,-5.355,-10.92875,-22.848001,17.544,17.960001,eccentric,4,3.0,40088.0,340718.0,90367.0,-49.0,-132.0
2026-04-09 22:03:18.839222,163365,1128879966,1128880613,0.880352,-0.413824,0.037088,7.4025,-5.215,-12.90625,-22.848001,17.544,17.960001,eccentric,4,3.0,40088.0,340718.0,90367.0,-49.0,-132.0
2026-04-09 22:03:18.840743,163366,1128889382,1128891419,0.85888,-0.392352,0.0976,14.51625,-4.1475,-13.25625,-22.936,17.984001,20.608002,eccentric,4,3.0,40088.0,340718.0,90367.0,-49.0,-132.0
2026-04-09 22:03:18.871883,163367,1128904033,1128906342,0.825696,-0.413824,0.105408,13.2475,-1.3825,-12.81875,-22.672,18.104,20.744001,eccentric,4,3.0,40088.0,340718.0,90367.0,-49.0,-132.0
2026-04-09 22:03:18.874136,163368,1128912983,1128915037,0.825696,-0.413824,0.105408,7.315,2.52,-11.55875,-22.672,18.104,20.744001,eccentric,4,3.0,40088.0,340718.0,90367.0,-49.0,-132.0
2026-04-09 22:03:18.878583,163369,1128921949,1128923759,0.825696,-0.413824,0.105408,0.41125,6.265,-11.62875,-22.672,18.104,20.744001,eccentric,4,3.0,40088.0,340718.0,90367.0,-49.0,-132.0
2026-04-09 22:03:18.880719,163370,1128936484,1128938747,0.843264,-0.353312,0.044896,2.835,8.30375,-11.97,-22.848001,18.0,23.072,eccentric,4,3.0,40088.0,340718.0,90367.0,-49.0,-132.0
2026-04-09 22:03:18.941907,163371,1128945418,1128947462,0.815936,-0.388448,0.070272,11.08625,8.417501,-12.4425,-23.072,17.448,20.184,eccentric,4,3.0,40088.0,340718.0,90367.0,-49.0,-132.0
2026-04-09 22:03:18.944124,163372,1128954367,1128956172,0.815936,-0.388448,0.070272,15.6625,8.6975,-15.25125,-23.072,17.448,20.184,eccentric,4,3.0,40088.0,340718.0,90367.0,-49.0,-132.0
2026-04-09 22:03:18.973736,163383,1128969346,1128971244,0.792512,-0.357216,0.08784,18.06,9.275,-14.02625,-22.096,17.616001,19.480001,eccentric,4,3.0,40097.0,341190.0,90605.0,-66.0,-133.0
2026-04-09 22:03:18.975492,163384,1128978398,1128979987,0.792512,-0.357216,0.08784,13.475,12.39,-11.99625,-22.096,17.616001,19.480001,eccentric,4,3.0,40097.0,341190.0,90605.0,-66.0,-133.0
2026-04-09 22:03:18.977020,163385,1128987342,1128988742,0.74176,-0.368928,0.06832,5.67,15.82,-10.71875,-21.824001,17.528002,20.0,eccentric,4,3.0,40097.0,341190.0,90605.0,-66.0,-133.0
2026-04-09 22:03:18.981214,163386,1128996275,1128997429,0.74176,-0.368928,0.06832,-2.2575,18.655,-11.41875,-21.824001,17.528002,20.0,eccentric,4,3.0,40097.0,341190.0,90605.0,-66.0,-133.0
2026-04-09 22:03:18.984316,163387,1129010788,1129012323,0.774944,-0.27328,0.050752,-1.07625,19.04,-12.88,-21.832,17.504002,18.056002,eccentric,4,3.0,40097.0,341190.0,90605.0,-66.0,-133.0
2026-04-09 22:03:18.985842,163388,1129019795,1129021101,0.774944,-0.27328,0.050752,6.8425,18.1825,-14.65625,-21.832,17.504002,18.056002,eccentric,4,3.0,40097.0,341190.0,90605.0,-66.0,-133.0
2026-04-09 22:03:18.989242,163389,1129028843,1129029837,0.772992,-0.378688,0.072224,10.26375,16.3625,-18.87375,-22.904001,17.0,22.024,eccentric,4,3.0,40097.0,341190.0,90605.0,-66.0,-133.0
2026-04-09 22:03:18.992699,163390,1129043450,1129044756,0.772992,-0.378688,0.072224,13.265,15.12,-20.41375,-22.904001,17.0,22.024,eccentric,4,3.0,40097.0,341190.0,90605.0,-66.0,-133.0
2026-04-09 22:03:18.996477,163391,1129052412,1129053520,0.72224,-0.353312,0.124928,13.545,15.408751,-19.5825,-22.872002,16.92,23.112001,eccentric,4,3.0,40097.0,341190.0,90605.0,-66.0,-133.0
2026-04-09 22:03:19.026442,163392,1129061343,1129062310,0.72224,-0.353312,0.124928,12.5125,16.38875,-17.6225,-22.872002,16.92,23.112001,eccentric,4,3.0,40097.0,341190.0,90605.0,-66.0,-133.0
2026-04-09 22:03:19.071823,163402,1129075912,1129077264,0.74176,-0.296704,0.06832,7.65625,17.053751,-17.185,-22.560001,17.032001,20.504002,eccentric,4,3.0,39889.0,338683.0,88581.0,-90.0,-147.0
2026-04-09 22:03:19.072001,163403,1129084900,1129085997,0.77104,-0.298656,0.080032,4.85625,16.1175,-18.24375,-21.808,16.416,19.904001,eccentric,4,3.0,39889.0,338683.0,88581.0,-90.0,-147.0
2026-04-09 22:03:19.076242,163404,1129093914,1129094683,0.77104,-0.298656,0.080032,9.49375,15.44375,-19.83625,-21.808,16.416,19.904001,eccentric,4,3.0,39889.0,338683.0,88581.0,-90.0,-147.0
2026-04-09 22:03:19.077932,163405,1129103279,1129105463,0.77104,-0.298656,0.080032,12.7225,15.190001,-22.42625,-21.808,16.416,19.904001,eccentric,4,3.0,39889.0,338683.0,88581.0,-90.0,-147.0
2026-04-09 22:03:19.079460,163406,1129117844,1129118332,0.74176,-0.372832,0.152256,13.79875,14.39375,-24.85,-22.056002,16.92,20.808,eccentric,4,3.0,39889.0,338683.0,88581.0,-90.0,-147.0
2026-04-09 22:03:19.083674,163407,1129127278,1129129129,0.700768,-0.320128,0.148352,17.21125,14.00875,-22.37375,-21.800001,16.424002,21.512001,eccentric,4,3.0,39889.0,338683.0,88581.0,-90.0,-147.0
2026-04-09 22:03:19.086176,163408,1129136272,1129137868,0.700768,-0.320128,0.148352,16.94875,14.665,-21.3325,-21.800001,16.424002,21.512001,eccentric,4,3.0,39889.0,338683.0,88581.0,-90.0,-147.0
2026-04-09 22:03:19.089839,163409,1129145200,1129146600,0.778848,-0.255712,0.095648,10.675,15.70625,-20.79875,-22.656,16.704,24.312,eccentric,4,3.0,39889.0,338683.0,88581.0,-90.0,-147.0
2026-04-09 22:03:19.118473,163410,1129159672,1129161568,0.778848,-0.255712,0.095648,8.88125,17.26375,-19.59125,-22.656,16.704,24.312,eccentric,4,3.0,39889.0,338683.0,88581.0,-90.0,-147.0
2026-04-09 22:03:19.145685,163420,1129168844,1129170336,0.739808,-0.32208,0.121024,10.605001,17.255,-22.39125,-21.984001,15.904,21.6,eccentric,4,3.0,39785.0,338086.0,88098.0,-91.0,-132.0
2026-04-09 22:03:19.147302,163421,1129177920,1129179129,0.739808,-0.32208,0.121024,12.18,15.93375,-27.4925,-21.984001,15.904,21.6,eccentric,4,3.0,39785.0,338086.0,88098.0,-91.0,-132.0
2026-04-09 22:03:19.151191,163422,1129192392,1129194108,0.718336,-0.355264,0.210816,16.24875,15.0675,-28.0525,-23.208,16.256,23.056002,eccentric,4,3.0,39785.0,338086.0,88098.0,-91.0,-132.0
2026-04-09 22:03:19.152962,163423,1129201325,1129202812,0.718336,-0.355264,0.210816,18.655,15.33875,-25.76,-23.208,16.256,23.056002,eccentric,4,3.0,39785.0,338086.0,88098.0,-91.0,-132.0
2026-04-09 22:03:19.154485,163424,1129210290,1129211541,0.724192,-0.333792,0.148352,14.105001,16.065,-22.2775,-23.024,15.912001,22.688002,eccentric,4,3.0,39785.0,338086.0,88098.0,-91.0,-132.0
2026-04-09 22:03:19.185634,163425,1129224771,1129226536,0.749568,-0.220576,0.089792,9.03,17.6925,-18.71625,-23.024,15.912001,22.392,eccentric,4,3.0,39785.0,338086.0,88098.0,-91.0,-132.0
2026-04-09 22:03:19.189997,163426,1129233805,1129235268,0.749568,-0.220576,0.089792,7.455,18.9,-18.50625,-22.84,15.576001,22.392,eccentric,4,3.0,39785.0,338086.0,88098.0,-91.0,-132.0
2026-04-09 22:03:19.191568,163427,1129242722,1129243966,0.749568,-0.220576,0.089792,11.2175,17.8675,-21.5775,-22.84,15.576001,22.392,eccentric,4,3.0,39785.0,338086.0,88098.0,-91.0,-132.0
2026-04-09 22:03:19.196136,163428,1129251607,1129252713,0.732,-0.27328,0.173728,15.18125,16.6425,-25.8125,-22.488,16.016,24.320002,eccentric,4,3.0,39785.0,338086.0,88098.0,-91.0,-132.0
2026-04-09 22:03:19.241858,163429,1129266155,1129267607,0.696864,-0.374784,0.230336,17.64,15.645,-28.0875,-22.752,15.672001,22.792002,eccentric,4,3.0,39785.0,338086.0,88098.0,-91.0,-132.0
2026-04-09 22:03:19.270460,163440,1129275105,1129276377,0.696864,-0.374784,0.230336,17.7275,15.09375,-26.01375,-22.752,15.672001,22.792002,eccentric,4,3.0,39711.0,337298.0,87499.0,-103.0,-131.0
2026-04-09 22:03:19.272000,163441,1129284011,1129285105,0.696864,-0.374784,0.230336,15.79375,15.7675,-19.7575,-22.752,15.672001,22.792002,eccentric,4,3.0,39711.0,337298.0,87499.0,-103.0,-131.0
2026-04-09 22:03:19.276310,163442,1129298510,1129300047,0.726144,-0.259616,0.128832,11.05125,16.45,-15.2775,-22.36,15.536001,22.232,eccentric,4,3.0,39711.0,337298.0,87499.0,-103.0,-131.0
2026-04-09 22:03:19.277974,163443,1129307401,1129308817,0.737856,-0.210816,0.128832,5.2675,16.7125,-15.39125,-22.864,14.816001,23.400002,eccentric,4,3.0,39711.0,337298.0,87499.0,-103.0,-131.0
2026-04-09 22:03:19.279517,163444,1129316321,1129317515,0.737856,-0.210816,0.128832,5.99375,15.11125,-18.13875,-22.864,14.816001,23.400002,eccentric,4,3.0,39711.0,337298.0,87499.0,-103.0,-131.0
2026-04-09 22:03:19.283754,163445,1129330929,1129332436,0.720288,-0.335744,0.257664,13.39625,12.50375,-21.37625,-22.416,14.792001,23.608002,eccentric,4,3.0,39711.0,337298.0,87499.0,-103.0,-131.0
2026-04-09 22:03:19.285328,163446,1129339849,1129341262,0.720288,-0.335744,0.257664,16.1,12.6,-24.15,-22.416,14.792001,23.608002,eccentric,4,3.0,39711.0,337298.0,87499.0,-103.0,-131.0
2026-04-09 22:03:19.293656,163447,1129348792,1129350036,0.718336,-0.327936,0.18544,15.61875,11.87375,-21.83125,-22.456001,14.872001,24.088001,eccentric,4,3.0,39711.0,337298.0,87499.0,-103.0,-131.0
2026-04-09 22:03:19.322125,163448,1129363273,1129364967,0.718336,-0.327936,0.18544,13.9125,12.17125,-18.655,-22.456001,14.872001,24.088001,eccentric,4,3.0,39711.0,337298.0,87499.0,-103.0,-131.0
2026-04-09 22:03:19.353700,163458,1129372621,1129373715,0.755424,-0.245952,0.1464,13.36125,11.9525,-16.835001,-22.672,14.584001,24.328001,eccentric,4,3.0,39773.0,334685.0,85799.0,-112.0,-141.0
2026-04-09 22:03:19.355475,163459,1129381624,1129382430,0.755424,-0.245952,0.1464,11.480001,12.32,-17.9725,-22.672,14.584001,24.328001,eccentric,4,3.0,39773.0,334685.0,85799.0,-112.0,-141.0
2026-04-09 22:03:19.357158,163460,1129390592,1129391229,0.763232,-0.277184,0.203008,12.67875,12.22375,-19.80125,-22.976002,14.68,23.784,eccentric,4,3.0,39773.0,334685.0,85799.0,-112.0,-141.0
2026-04-09 22:03:19.361190,163461,1129405389,1129406155,0.763232,-0.3416,0.279136,14.48125,13.1775,-21.44625,-22.976002,14.68,23.784,eccentric,4,3.0,39773.0,334685.0,85799.0,-112.0,-141.0
2026-04-09 22:03:19.362789,163462,1129414828,1129416971,0.694912,-0.3416,0.279136,12.73125,15.505,-19.94125,-23.064001,15.176001,24.376001,eccentric,4,3.0,39773.0,334685.0,85799.0,-112.0,-141.0
2026-04-09 22:03:19.371052,163463,1129423780,1129425690,0.694912,-0.3416,0.279136,7.44625,16.24875,-16.70375,-23.064001,15.176001,24.376001,eccentric,4,3.0,39773.0,334685.0,85799.0,-112.0,-141.0
2026-04-09 22:03:19.377324,163464,1129432713,1129434443,0.706624,-0.201056,0.20496,6.01125,15.93375,-14.16625,-23.408,14.152,26.192001,eccentric,4,3.0,39773.0,334685.0,85799.0,-112.0,-141.0
2026-04-09 22:03:19.405868,163465,1129447188,1129449391,0.732,-0.236192,0.124928,10.6225,14.525,-14.46375,-22.688002,14.376,25.424002,eccentric,4,3.0,39773.0,334685.0,85799.0,-112.0,-141.0
2026-04-09 22:03:19.410424,163466,1129456081,1129458076,0.732,-0.236192,0.124928,15.085,11.33125,-19.81,-22.688002,14.376,25.424002,eccentric,4,3.0,39773.0,334685.0,85799.0,-112.0,-141.0
2026-04-09 22:03:19.411939,163467,1129465013,1129466743,0.732,-0.236192,0.124928,20.755,7.805,-23.5375,-22.688002,14.376,25.424002,eccentric,4,3.0,39773.0,334685.0,85799.0,-112.0,-141.0
2026-04-09 22:03:19.436944,163477,1129479547,1129481734,0.74176,-0.339648,0.220576,23.89625,6.4925,-21.2625,-23.224,14.376,24.928001,eccentric,4,3.0,39769.0,334735.0,85829.0,-102.0,-136.0
2026-04-09 22:03:19.441238,163478,1129488530,1129490451,0.755424,-0.21472,0.271328,16.835001,8.68875,-16.0125,-23.144001,14.344001,25.776001,eccentric,4,3.0,39769.0,334735.0,85829.0,-102.0,-136.0
2026-04-09 22:03:19.443691,163479,1129497471,1129499207,0.755424,-0.21472,0.271328,5.78375,11.50625,-11.50625,-23.144001,14.344001,25.776001,eccentric,4,3.0,39769.0,334735.0,85829.0,-102.0,-136.0
2026-04-09 22:03:19.472041,163480,1129511970,1129514165,0.739808,-0.240096,0.1952,0.41125,13.230001,-11.76,-23.6,14.456,25.872002,eccentric,4,3.0,39769.0,334735.0,85829.0,-102.0,-136.0
2026-04-09 22:03:19.476647,163481,1129520887,1129522857,0.739808,-0.240096,0.1952,4.9,11.64625,-15.37375,-23.6,14.456,25.872002,eccentric,4,3.0,39769.0,334735.0,85829.0,-102.0,-136.0
2026-04-09 22:03:19.478980,163482,1129529811,1129531570,0.737856,-0.320128,0.15616,13.545,7.97125,-17.77125,-23.080002,14.120001,25.312,eccentric,4,3.0,39769.0,334735.0,85829.0,-102.0,-136.0
2026-04-09 22:03:19.543171,163483,1129544318,1129546580,0.737856,-0.320128,0.15616,17.3075,5.25,-18.655,-23.080002,14.120001,25.312,eccentric,4,3.0,39769.0,334735.0,85829.0,-102.0,-136.0
2026-04-09 22:03:19.545669,163484,1129553233,1129555270,0.745664,-0.261568,0.236192,16.47625,4.89125,-14.665,-23.128,14.56,25.208002,eccentric,4,3.0,39769.0,334735.0,85829.0,-102.0,-136.0
2026-04-09 22:03:19.550011,163485,1129562165,1129563961,0.745664,-0.261568,0.236192,9.17,7.0875,-11.8825,-23.128,14.56,25.208002,eccentric,4,3.0,39769.0,334735.0,85829.0,-102.0,-136.0
2026-04-09 22:03:19.579472,163495,1129571189,1129572692,0.74176,-0.255712,0.20496,2.51125,9.68625,-10.85875,-23.104002,13.976001,25.52,eccentric,4,3.0,39810.0,333871.0,85263.0,-118.0,-133.0
2026-04-09 22:03:19.583708,163496,1129585701,1129587713,0.74176,-0.255712,0.142496,-0.665,10.0975,-12.88,-23.104002,13.976001,25.52,eccentric,4,3.0,39810.0,333871.0,85263.0,-118.0,-133.0
2026-04-09 22:03:19.585469,163497,1129594639,1129596411,0.739808,-0.304512,0.154208,3.61375,7.4725,-14.00875,-23.568,13.728001,26.072,eccentric,4,3.0,39810.0,333871.0,85263.0,-118.0,-133.0
2026-04-09 22:03:19.587143,163498,1129603602,1129605112,0.739808,-0.304512,0.154208,11.55875,3.6225,-13.9125,-23.568,13.728001,26.072,eccentric,4,3.0,39810.0,333871.0,85263.0,-118.0,-133.0
2026-04-09 22:03:19.591235,163499,1129618167,1129620113,0.749568,-0.27328,0.179584,15.155,1.16375,-12.5475,-23.424002,13.584001,25.304,eccentric,4,3.0,39810.0,333871.0,85263.0,-118.0,-133.0
2026-04-09 22:03:19.592967,163500,1129627224,1129628853,0.784704,-0.269376,0.228384,12.9675,1.47875,-10.815,-23.528002,13.568001,27.960001,eccentric,4,3.0,39810.0,333871.0,85263.0,-118.0,-133.0
2026-04-09 22:03:19.594486,163501,1129636151,1129637548,0.784704,-0.269376,0.228384,8.435,3.99875,-11.06,-23.528002,13.568001,27.960001,eccentric,4,3.0,39810.0,333871.0,85263.0,-118.0,-133.0
2026-04-09 22:03:19.598556,163502,1129650675,1129652516,0.757376,-0.298656,0.20496,3.955,6.93,-11.69,-24.776001,14.040001,27.728,eccentric,4,3.0,39810.0,333871.0,85263.0,-118.0,-133.0
2026-04-09 22:03:19.603599,163503,1129659651,1129661264,0.757376,-0.298656,0.20496,2.52,7.76125,-14.455,-24.776001,14.040001,27.728,eccentric,4,3.0,39810.0,333871.0,85263.0,-118.0,-133.0
2026-04-09 22:03:19.632159,163504,1129668586,1129669980,0.759328,-0.327936,0.158112,7.7,7.0525,-15.417501,-24.752,13.008,26.696001,eccentric,4,3.0,39810.0,333871.0,85263.0,-118.0,-133.0
2026-04-09 22:03:19.661686,163515,1129683131,1129684943,0.759328,-0.327936,0.158112,12.136251,5.06625,-16.96625,-24.752,13.008,26.696001,eccentric,4,3.0,39867.0,333109.0,84800.0,-123.0,-140.0
2026-04-09 22:03:19.663408,163516,1129692079,1129693631,0.765184,-0.281088,0.187392,13.71125,3.92875,-16.485,-22.400002,13.448001,26.024002,eccentric,4,3.0,39867.0,333109.0,84800.0,-123.0,-140.0
2026-04-09 22:03:19.667489,163517,1129701146,1129702460,0.765184,-0.281088,0.187392,13.53625,4.4625,-14.7875,-22.400002,13.448001,26.024002,eccentric,4,3.0,39867.0,333109.0,84800.0,-123.0,-140.0
2026-04-09 22:03:19.670103,163518,1129710122,1129711209,0.747616,-0.271328,0.216672,10.2725,5.4425,-14.81375,-23.416,13.672001,26.160002,eccentric,4,3.0,39867.0,333109.0,84800.0,-123.0,-140.0
2026-04-09 22:03:19.704462,163519,1129724663,1129726127,0.747616,-0.271328,0.216672,5.11,6.95625,-15.96,-23.416,13.672001,26.160002,eccentric,4,3.0,39867.0,333109.0,84800.0,-123.0,-140.0
2026-04-09 22:03:19.709554,163520,1129733685,1129734859,0.737856,-0.308416,0.158112,5.2325,7.0525,-16.205,-23.656002,13.144001,26.232,eccentric,4,3.0,39867.0,333109.0,84800.0,-123.0,-140.0
2026-04-09 22:03:19.710464,163521,1129742705,1129743615,0.737856,-0.308416,0.158112,7.21,5.99375,-17.50875,-23.656002,13.144001,26.232,eccentric,4,3.0,39867.0,333109.0,84800.0,-123.0,-140.0
2026-04-09 22:03:19.712081,163522,1129757187,1129758486,0.747616,-0.32208,0.158112,11.025,3.84125,-16.35375,-23.904001,13.632001,26.352001,eccentric,4,3.0,39867.0,333109.0,84800.0,-123.0,-140.0
2026-04-09 22:03:19.714526,163523,1129766120,1129767179,0.747616,-0.32208,0.158112,12.3375,2.72125,-14.65625,-23.904001,13.632001,26.352001,concentric,4,3.0,39867.0,333109.0,84800.0,-123.0,-140.0
2026-04-09 22:03:19.742898,163533,1129775576,1129775985,0.739808,-0.247904,0.222528,10.08,4.41875,-11.68125,-24.12,13.032001,26.256,concentric,4,3.0,39897.0,333179.0,84890.0,-135.0,-141.0
2026-04-09 22:03:19.744495,163534,1129785178,1129786806,0.739808,-0.247904,0.222528,3.9025,6.02875,-10.77125,-24.12,13.032001,26.256,concentric,4,3.0,39897.0,333179.0,84890.0,-135.0,-141.0
2026-04-09 22:03:19.748634,163535,1129799709,1129801730,0.739808,-0.277184,0.163968,-0.4025,6.67625,-11.83875,-24.264002,13.352,27.2,concentric,4,3.0,39897.0,333179.0,84890.0,-135.0,-141.0
2026-04-09 22:03:19.752816,163536,1129808646,1129810438,0.755424,-0.284992,0.150304,1.89,4.8825,-11.6725,-24.704,13.256001,25.952002,concentric,4,3.0,39897.0,333179.0,84890.0,-135.0,-141.0
2026-04-09 22:03:19.782199,163537,1129817613,1129819144,0.755424,-0.284992,0.150304,5.59125,2.72125,-12.075,-24.704,13.256001,25.952002,concentric,4,3.0,39897.0,333179.0,84890.0,-135.0,-141.0
2026-04-09 22:03:19.785769,163538,1129832136,1129834081,0.759328,-0.345504,0.177632,7.25375,0.44625,-10.59625,-24.128,13.768001,25.880001,concentric,4,3.0,39897.0,333179.0,84890.0,-135.0,-141.0
2026-04-09 22:03:19.788578,163539,1129841065,1129842781,0.759328,-0.345504,0.177632,6.53625,-0.63875,-7.3675,-24.128,13.768001,25.880001,concentric,4,3.0,39897.0,333179.0,84890.0,-135.0,-141.0
2026-04-09 22:03:19.793260,163540,1129850029,1129851486,0.776896,-0.275232,0.208864,3.2725,-0.63875,-4.6025,-24.272001,13.440001,27.320002,concentric,4,3.0,39897.0,333179.0,84890.0,-135.0,-141.0
2026-04-09 22:03:19.845969,163541,1129858959,1129860201,0.776896,-0.275232,0.208864,0.42875,0.6475,-2.38875,-24.272001,13.440001,27.320002,concentric,4,3.0,39897.0,333179.0,84890.0,-135.0,-141.0
2026-04-09 22:03:19.871917,163551,1129873669,1129875374,0.79056,-0.23424,0.189344,-0.2625,2.9225,-3.185,-23.320002,12.832001,26.616001,concentric,4,3.0,39764.0,336415.0,86982.0,-96.0,-137.0
2026-04-09 22:03:19.874475,163552,1129882662,1129884089,0.79056,-0.23424,0.189344,-1.96875,4.97,-6.86,-23.320002,12.832001,26.616001,concentric,4,3.0,39764.0,336415.0,86982.0,-96.0,-137.0
2026-04-09 22:03:19.876995,163553,1129891594,1129892786,0.788608,-0.308416,0.158112,0.35,4.655,-10.57,-23.872002,13.264001,26.128002,concentric,4,3.0,39764.0,336415.0,86982.0,-96.0,-137.0
2026-04-09 22:03:19.879383,163554,1129906082,1129907678,0.788608,-0.308416,0.158112,8.26,2.72125,-12.0575,-23.872002,13.264001,26.128002,concentric,4,3.0,39764.0,336415.0,86982.0,-96.0,-137.0
2026-04-09 22:03:19.882004,163555,1129915009,1129916445,0.7808,-0.28304,0.201056,11.7425,2.26625,-11.36625,-24.128,12.984,23.720001,concentric,4,3.0,39764.0,336415.0,86982.0,-96.0,-137.0
2026-04-09 22:03:19.884504,163556,1129924239,1129925147,0.7808,-0.28304,0.201056,6.37,2.86125,-8.47,-24.128,12.984,23.720001,concentric,4,3.0,39764.0,336415.0,86982.0,-96.0,-137.0
2026-04-09 22:03:19.887148,163557,1129938769,1129940121,0.743712,-0.324032,0.1952,-0.28875,3.07125,-4.71625,-23.872002,13.52,26.6,concentric,4,3.0,39764.0,336415.0,86982.0,-96.0,-137.0
2026-04-09 22:03:19.889469,163558,1129947699,1129948836,0.743712,-0.236192,0.150304,-4.99625,2.42375,-0.7875,-23.872002,13.52,26.808,concentric,4,3.0,39764.0,336415.0,86982.0,-96.0,-137.0
2026-04-09 22:03:19.919723,163559,1129956647,1129957535,0.737856,-0.236192,0.150304,-4.24375,1.26875,2.93125,-23.544,12.744,26.808,concentric,4,3.0,39764.0,336415.0,86982.0,-96.0,-137.0
2026-04-09 22:03:19.923366,163560,1129965555,1129966259,0.737856,-0.236192,0.150304,-1.295,-0.315,3.64,-23.544,12.744,26.808,concentric,4,3.0,39764.0,336415.0,86982.0,-96.0,-137.0
2026-04-09 22:03:19.953155,163571,1129980567,1129981773,0.755424,-0.228384,0.150304,1.95125,-2.8875,3.03625,-23.264002,13.632001,26.096,concentric,4,3.0,39726.0,336113.0,86689.0,-104.0,-142.0
2026-04-09 22:03:19.955719,163572,1129989607,1129990553,0.739808,-0.275232,0.210816,4.1125,-4.20875,2.75625,-24.728,13.896001,26.272001,concentric,4,3.0,39726.0,336113.0,86689.0,-104.0,-142.0
2026-04-09 22:03:19.958191,163573,1129998535,1129999316,0.739808,-0.275232,0.210816,2.98375,-4.05125,3.0625,-24.728,13.896001,26.272001,concentric,4,3.0,39726.0,336113.0,86689.0,-104.0,-142.0
2026-04-09 22:03:19.960717,163574,1130013174,1130014253,0.737856,-0.279136,0.226432,1.63625,-3.49125,4.8475,-24.176,13.544001,26.608002,concentric,4,3.0,39726.0,336113.0,86689.0,-104.0,-142.0
2026-04-09 22:03:19.965763,163575,1130022190,1130022955,0.737856,-0.279136,0.226432,-0.62125,-2.24875,8.015,-24.176,13.544001,26.608002,concentric,4,3.0,39726.0,336113.0,86689.0,-104.0,-142.0
2026-04-09 22:03:19.996849,163576,1130031580,1130033771,0.70272,-0.259616,0.1464,-2.98375,-2.205,11.655,-23.648,13.696001,25.792002,concentric,4,3.0,39726.0,336113.0,86689.0,-104.0,-142.0
2026-04-09 22:03:20.001285,163577,1130040523,1130042480,0.70272,-0.259616,0.1464,-3.78,-4.235,14.84,-23.648,13.696001,25.792002,concentric,4,3.0,39726.0,336113.0,86689.0,-104.0,-142.0
2026-04-09 22:03:20.002781,163578,1130054968,1130055342,0.696864,-0.255712,0.158112,-3.2725,-6.88625,16.58125,-23.28,13.76,25.712002,concentric,4,3.0,39726.0,336113.0,86689.0,-104.0,-142.0
2026-04-09 22:03:20.009964,163579,1130064230,1130066158,0.696864,-0.255712,0.158112,-1.42625,-8.91625,18.55875,-23.28,13.76,25.712002,concentric,4,3.0,39726.0,336113.0,86689.0,-104.0,-142.0
2026-04-09 22:03:20.063366,163589,1130073163,1130074873,0.704672,-0.275232,0.197152,-2.21375,-9.89625,20.965,-23.104002,13.544001,26.52,concentric,4,3.0,39708.0,335865.0,86484.0,-102.0,-129.0
2026-04-09 22:03:20.064808,163590,1130082527,1130083613,0.704672,-0.275232,0.197152,-7.02625,-10.01875,22.365,-23.104002,13.544001,26.52,concentric,4,3.0,39708.0,335865.0,86484.0,-102.0,-129.0
2026-04-09 22:03:20.068766,163591,1130097002,1130098578,0.69296,-0.259616,0.201056,-9.275,-9.33625,23.75625,-22.84,14.384001,25.456001,concentric,4,3.0,39708.0,335865.0,86484.0,-102.0,-129.0
2026-04-09 22:03:20.070467,163592,1130105986,1130107277,0.69296,-0.259616,0.201056,-9.38875,-9.52,24.8325,-22.84,14.384001,25.456001,concentric,4,3.0,39708.0,335865.0,86484.0,-102.0,-129.0
2026-04-09 22:03:20.072050,163593,1130114906,1130116024,0.671488,-0.296704,0.15616,-7.4725,-10.94625,25.8475,-23.032001,14.768001,26.368002,concentric,4,3.0,39708.0,335865.0,86484.0,-102.0,-129.0
2026-04-09 22:03:20.076142,163594,1130129435,1130131037,0.696864,-0.31232,0.142496,-2.17875,-13.475,27.93,-22.984001,14.776001,23.800001,concentric,4,3.0,39708.0,335865.0,86484.0,-102.0,-129.0
2026-04-09 22:03:20.106525,163595,1130138397,1130139816,0.696864,-0.31232,0.142496,0.27125,-15.82875,30.2575,-22.984001,14.776001,23.800001,concentric,4,3.0,39708.0,335865.0,86484.0,-102.0,-129.0
2026-04-09 22:03:20.108292,163596,1130147293,1130148493,0.696864,-0.31232,0.142496,-4.17375,-16.42375,32.40125,-22.984001,14.776001,23.800001,concentric,4,3.0,39708.0,335865.0,86484.0,-102.0,-129.0
2026-04-09 22:03:20.148267,163597,1130161883,1130163469,0.724192,-0.279136,0.167872,-10.4125,-15.33,33.99375,-22.064001,15.056001,25.024002,concentric,4,3.0,39708.0,335865.0,86484.0,-102.0,-129.0
2026-04-09 22:03:20.150422,163598,1130170806,1130172235,0.714432,-0.27328,0.171776,-15.14625,-13.67625,33.6175,-21.608002,15.336,24.400002,concentric,4,3.0,39708.0,335865.0,86484.0,-102.0,-129.0
2026-04-09 22:03:20.181272,163608,1130179803,1130180988,0.714432,-0.27328,0.171776,-15.42625,-13.81625,32.8125,-21.608002,15.336,24.400002,concentric,4,3.0,39725.0,336877.0,87201.0,-98.0,-125.0
2026-04-09 22:03:20.184041,163609,1130194302,1130195891,0.698816,-0.32208,0.163968,-11.7075,-15.05,30.98375,-21.648,15.392001,24.232,concentric,4,3.0,39725.0,336877.0,87201.0,-98.0,-125.0
2026-04-09 22:03:20.185719,163610,1130203243,1130204632,0.698816,-0.32208,0.163968,-7.00875,-16.52,31.911251,-21.648,15.392001,24.232,concentric,4,3.0,39725.0,336877.0,87201.0,-98.0,-125.0
2026-04-09 22:03:20.190810,163611,1130212157,1130213330,0.700768,-0.372832,0.148352,-6.1425,-17.57875,35.00875,-21.2,15.872001,24.152,concentric,4,3.0,39725.0,336877.0,87201.0,-98.0,-125.0
2026-04-09 22:03:20.190906,163612,1130221126,1130222055,0.700768,-0.372832,0.148352,-11.10375,-16.415,38.5175,-21.2,15.872001,24.152,concentric,4,3.0,39725.0,336877.0,87201.0,-98.0,-125.0
2026-04-09 22:03:20.192007,163613,1130235589,1130237023,0.718336,-0.329888,0.124928,-18.69,-14.5075,40.1975,-20.784,16.104,23.752,concentric,4,3.0,39725.0,336877.0,87201.0,-98.0,-125.0
2026-04-09 22:03:20.196304,163614,1130244482,1130245742,0.718336,-0.329888,0.124928,-22.54875,-12.9675,38.94625,-20.784,16.104,23.752,concentric,4,3.0,39725.0,336877.0,87201.0,-98.0,-125.0
2026-04-09 22:03:20.198715,163615,1130253417,1130254532,0.704672,-0.238144,0.16592,-22.435,-11.96125,35.86625,-21.832,16.344,25.168001,concentric,4,3.0,39725.0,336877.0,87201.0,-98.0,-125.0
2026-04-09 22:03:20.228568,163616,1130267895,1130269447,0.704672,-0.238144,0.16592,-16.66,-11.9525,32.025,-21.832,16.344,25.168001,concentric,4,3.0,39725.0,336877.0,87201.0,-98.0,-125.0
2026-04-09 22:03:20.256718,163627,1130276916,1130278156,0.675392,-0.353312,0.15616,-11.62,-11.83875,27.3,-20.064001,16.768002,23.208,concentric,4,3.0,39817.0,336503.0,87005.0,-99.0,-135.0
2026-04-09 22:03:20.259298,163628,1130285919,1130286933,0.675392,-0.353312,0.15616,-7.9625,-12.45125,26.31125,-20.064001,16.768002,23.208,concentric,4,3.0,39817.0,336503.0,87005.0,-99.0,-135.0
2026-04-09 22:03:20.260752,163629,1130300396,1130301889,0.733952,-0.44896,0.099552,-7.97125,-12.24125,27.6325,-20.024,17.112001,22.792002,concentric,4,3.0,39817.0,336503.0,87005.0,-99.0,-135.0
2026-04-09 22:03:20.265367,163630,1130309343,1130310598,0.733952,-0.374784,0.142496,-14.77,-10.99,29.26,-20.024,17.112001,22.304,concentric,4,3.0,39817.0,336503.0,87005.0,-99.0,-135.0
2026-04-09 22:03:20.266644,163631,1130318387,1130319299,0.733952,-0.374784,0.142496,-20.48375,-9.09125,31.4475,-19.536001,17.472,22.304,concentric,4,3.0,39817.0,336503.0,87005.0,-99.0,-135.0
2026-04-09 22:03:20.296862,163632,1130332914,1130334191,0.698816,-0.310368,0.179584,-22.925,-7.91875,30.5025,-19.384,17.2,22.368002,concentric,4,3.0,39817.0,336503.0,87005.0,-99.0,-135.0
2026-04-09 22:03:20.299118,163633,1130341829,1130342905,0.698816,-0.310368,0.179584,-21.25375,-7.42875,27.2825,-19.384,17.2,22.368002,concentric,4,3.0,39817.0,336503.0,87005.0,-99.0,-135.0
2026-04-09 22:03:20.303733,163634,1130350752,1130351593,0.675392,-0.376736,0.128832,-14.665,-8.33875,24.08,-19.144001,17.008001,23.000002,concentric,4,3.0,39817.0,336503.0,87005.0,-99.0,-135.0
2026-04-09 22:03:20.306201,163635,1130359657,1130360316,0.675392,-0.376736,0.128832,-7.97125,-9.9225,21.35,-19.144001,17.008001,23.000002,concentric,4,3.0,39817.0,336503.0,87005.0,-99.0,-135.0
2026-04-09 22:03:20.360756,163645,1130374535,1130375610,0.671488,-0.41968,0.074176,-4.375,-11.06875,22.1725,-19.768002,17.152,22.872002,concentric,4,3.0,39851.0,334967.0,85957.0,-108.0,-136.0
2026-04-09 22:03:20.365014,163646,1130384174,1130386436,0.671488,-0.41968,0.074176,-5.31125,-12.04875,25.45375,-19.768002,17.152,22.872002,concentric,4,3.0,39851.0,334967.0,85957.0,-108.0,-136.0
2026-04-09 22:03:20.366696,163647,1130393071,1130395151,0.724192,-0.486048,0.072224,-16.44125,-10.5875,25.01625,-19.12,17.52,21.52,concentric,4,3.0,39851.0,334967.0,85957.0,-108.0,-136.0
2026-04-09 22:03:20.369140,163648,1130407579,1130408043,0.724192,-0.486048,0.072224,-28.04375,-7.90125,25.515,-19.12,17.52,21.52,concentric,4,3.0,39851.0,334967.0,85957.0,-108.0,-136.0
2026-04-09 22:03:20.370765,163649,1130416912,1130418884,0.67344,-0.320128,0.199104,-26.5475,-5.8275,25.69875,-19.432001,18.248001,22.880001,concentric,4,3.0,39851.0,334967.0,85957.0,-108.0,-136.0
2026-04-09 22:03:20.374977,163650,1130425880,1130427635,0.67344,-0.320128,0.199104,-19.11875,-5.915,21.866251,-19.432001,18.248001,22.880001,concentric,4,3.0,39851.0,334967.0,85957.0,-108.0,-136.0
2026-04-09 22:03:20.378630,163651,1130434848,1130436343,0.691008,-0.425536,0.08784,-11.90875,-6.8775,17.87625,-19.144001,17.592001,22.184002,concentric,4,3.0,39851.0,334967.0,85957.0,-108.0,-136.0
2026-04-09 22:03:20.407189,163652,1130449336,1130451251,0.691008,-0.425536,0.072224,-5.9675,-7.5425,17.4475,-19.144001,17.592001,22.184002,concentric,4,3.0,39851.0,334967.0,85957.0,-108.0,-136.0
2026-04-09 22:03:20.443143,163653,1130458349,1130459947,0.679296,-0.462624,0.072224,-1.1025,-7.81375,19.460001,-18.304,18.160002,19.864,concentric,4,3.0,39851.0,334967.0,85957.0,-108.0,-136.0
2026-04-09 22:03:20.445775,163654,1130467266,1130468679,0.679296,-0.462624,0.072224,1.2775,-7.55125,21.665,-18.304,18.160002,19.864,concentric,4,3.0,39851.0,334967.0,85957.0,-108.0,-136.0
2026-04-09 22:03:20.476233,163664,1130481870,1130483728,0.720288,-0.466528,0.03904,-5.18875,-5.55625,21.65625,-18.296001,17.936,20.432001,concentric,4,3.0,39918.0,333113.0,84683.0,-127.0,-123.0
2026-04-09 22:03:20.477946,163665,1130490809,1130492463,0.7808,-0.368928,0.10736,-15.627501,-2.4325,17.85875,-18.048,18.608002,21.112001,concentric,4,3.0,39918.0,333113.0,84683.0,-127.0,-123.0
2026-04-09 22:03:20.479539,163666,1130499727,1130501160,0.7808,-0.368928,0.10736,-18.54125,-0.2975,14.28,-18.048,18.608002,21.112001,concentric,4,3.0,39918.0,333113.0,84683.0,-127.0,-123.0
2026-04-09 22:03:20.483733,163667,1130508648,1130509929,0.7808,-0.368928,0.10736,-12.06625,1.3125,10.08875,-18.048,18.608002,21.112001,concentric,4,3.0,39918.0,333113.0,84683.0,-127.0,-123.0
2026-04-09 22:03:20.485418,163668,1130523178,1130524912,0.774944,-0.460672,0.111264,-7.77875,2.10875,4.2525,-18.704,18.464,22.392,concentric,4,3.0,39918.0,333113.0,84683.0,-127.0,-123.0
2026-04-09 22:03:20.487041,163669,1130532163,1130533660,0.759328,-0.521184,0.119072,-7.04375,2.0475,1.9775,-18.784,18.536001,19.800001,concentric,4,3.0,39918.0,333113.0,84683.0,-127.0,-123.0
2026-04-09 22:03:20.491089,163670,1130541160,1130542390,0.759328,-0.521184,0.119072,-1.715,2.205,3.82375,-18.784,18.536001,19.800001,concentric,4,3.0,39918.0,333113.0,84683.0,-127.0,-123.0
2026-04-09 22:03:20.519659,163671,1130555750,1130557354,0.757376,-0.46848,0.111264,2.3275,2.59875,5.6525,-17.888,18.712002,20.032001,concentric,4,3.0,39918.0,333113.0,84683.0,-127.0,-123.0
2026-04-09 22:03:20.524182,163672,1130564659,1130566052,0.757376,-0.46848,0.111264,0.11375,4.4625,6.13375,-17.888,18.712002,20.032001,concentric,4,3.0,39918.0,333113.0,84683.0,-127.0,-123.0
2026-04-09 22:03:20.526605,163673,1130573578,1130574735,0.720288,-0.44896,0.124928,-7.21,7.07,4.19125,-17.6,18.792002,19.336,concentric,4,3.0,39918.0,333113.0,84683.0,-127.0,-123.0
2026-04-09 22:03:20.554974,163684,1130588173,1130589731,0.720288,-0.44896,0.124928,-10.22,8.4875,4.025,-17.6,18.792002,19.336,concentric,4,3.0,39992.0,337319.0,87810.0,-82.0,-123.0
2026-04-09 22:03:20.556676,163685,1130597200,1130598438,0.696864,-0.42944,0.11712,-10.71875,9.415,3.49125,-19.68,18.704,20.84,concentric,4,3.0,39992.0,337319.0,87810.0,-82.0,-123.0
2026-04-09 22:03:20.559133,163686,1130606174,1130607289,0.696864,-0.42944,0.11712,-13.265,9.66,1.02375,-19.68,18.704,20.84,concentric,4,3.0,39992.0,337319.0,87810.0,-82.0,-123.0
2026-04-09 22:03:20.560682,163687,1130615171,1130615991,0.706624,-0.488,0.10736,-12.9675,9.65125,-0.1925,-18.896002,19.128,20.448002,concentric,4,3.0,39992.0,337319.0,87810.0,-82.0,-123.0
2026-04-09 22:03:20.591887,163688,1130629684,1130630894,0.706624,-0.488,0.10736,-12.1625,10.325,-0.93625,-18.896002,19.128,20.448002,concentric,4,3.0,39992.0,337319.0,87810.0,-82.0,-123.0
2026-04-09 22:03:20.594133,163689,1130638603,1130639581,0.677344,-0.464576,0.122976,-12.985,11.4625,-3.08875,-18.928001,18.976002,19.296001,concentric,4,3.0,39992.0,337319.0,87810.0,-82.0,-123.0
2026-04-09 22:03:20.598704,163690,1130647536,1130648320,0.677344,-0.464576,0.122976,-12.74875,12.565,-3.89375,-18.928001,18.976002,19.296001,concentric,4,3.0,39992.0,337319.0,87810.0,-82.0,-123.0
2026-04-09 22:03:20.627183,163691,1130662054,1130663236,0.700768,-0.501664,0.101504,-14.07,13.86875,-6.85125,-19.136002,18.984001,19.232,concentric,4,3.0,39992.0,337319.0,87810.0,-82.0,-123.0
2026-04-09 22:03:20.631702,163692,1130670997,1130671929,0.677344,-0.45872,0.11712,-14.58625,14.1575,-9.905,-19.136002,19.056002,18.416,concentric,4,3.0,39992.0,337319.0,87810.0,-82.0,-123.0
2026-04-09 22:03:20.655909,163702,1130680474,1130682727,0.677344,-0.45872,0.11712,-13.1425,14.95375,-10.78,-18.784,19.056002,18.416,concentric,4,3.0,39914.0,336868.0,87462.0,-98.0,-144.0
2026-04-09 22:03:20.659978,163703,1130695011,1130695666,0.669536,-0.456768,0.122976,-9.28375,15.81125,-13.3525,-19.312,19.536001,18.704,concentric,4,3.0,39914.0,336868.0,87462.0,-98.0,-144.0
2026-04-09 22:03:20.661853,163704,1130704320,1130706449,0.669536,-0.456768,0.122976,-2.7825,16.616251,-16.5375,-19.312,19.536001,18.704,concentric,4,3.0,39914.0,336868.0,87462.0,-98.0,-144.0
2026-04-09 22:03:20.663307,163705,1130713336,1130715167,0.675392,-0.474336,0.105408,1.855,17.43875,-20.0375,-19.984001,18.952002,19.872002,concentric,4,3.0,39914.0,336868.0,87462.0,-98.0,-144.0
2026-04-09 22:03:20.667389,163706,1130722271,1130723858,0.675392,-0.474336,0.105408,5.94125,17.66625,-23.9925,-19.984001,18.952002,19.872002,concentric,4,3.0,39914.0,336868.0,87462.0,-98.0,-144.0
2026-04-09 22:03:20.699272,163707,1130736853,1130738757,0.737856,-0.40992,0.10736,5.17125,17.52625,-26.55625,-21.288,18.832,19.0,concentric,4,3.0,39914.0,336868.0,87462.0,-98.0,-144.0
2026-04-09 22:03:20.703757,163708,1130745839,1130747507,0.737856,-0.40992,0.10736,5.425,17.255,-26.43375,-21.288,18.832,19.0,concentric,4,3.0,39914.0,336868.0,87462.0,-98.0,-144.0
2026-04-09 22:03:20.705347,163709,1130754761,1130756199,0.776896,-0.447008,0.1464,3.5175,17.87625,-29.32125,-21.128,18.784,19.216002,concentric,4,3.0,39914.0,336868.0,87462.0,-98.0,-144.0
2026-04-09 22:03:20.746546,163710,1130769363,1130771099,0.776896,-0.447008,0.1464,3.82375,19.06625,-31.5525,-21.128,18.784,19.216002,concentric,4,3.0,39914.0,336868.0,87462.0,-98.0,-144.0
2026-04-09 22:03:20.770681,163720,1130778570,1130779932,0.817888,-0.4392,0.13664,7.0,20.3525,-34.1425,-21.608002,18.648,18.880001,concentric,4,3.0,40066.0,338329.0,88641.0,-97.0,-137.0
2026-04-09 22:03:20.773182,163721,1130787640,1130788741,0.817888,-0.4392,0.13664,11.4275,20.50125,-37.3275,-21.608002,18.648,18.880001,concentric,4,3.0,40066.0,338329.0,88641.0,-97.0,-137.0
2026-04-09 22:03:20.775688,163722,1130796557,1130797443,0.81984,-0.404064,0.13664,12.6525,20.50125,-40.71375,-21.960001,18.936,19.328001,concentric,4,3.0,40066.0,338329.0,88641.0,-97.0,-137.0
2026-04-09 22:03:20.778176,163723,1130811073,1130812515,0.81984,-0.447008,0.095648,12.22375,18.76,-42.201252,-21.960001,18.936,19.328001,concentric,4,3.0,40066.0,338329.0,88641.0,-97.0,-137.0
2026-04-09 22:03:20.780682,163724,1130820097,1130821237,0.903776,-0.447008,0.095648,14.30625,17.19375,-42.0875,-23.152,18.0,19.496,concentric,4,3.0,40066.0,338329.0,88641.0,-97.0,-137.0
2026-04-09 22:03:20.783197,163725,1130829040,1130829954,0.903776,-0.447008,0.095648,13.50125,16.905,-42.91,-23.152,18.0,19.496,concentric,4,3.0,40066.0,338329.0,88641.0,-97.0,-137.0
2026-04-09 22:03:20.787046,163726,1130843563,1130844912,0.91744,-0.44896,0.154208,11.31375,17.1325,-44.1,-22.872002,18.784,19.272001,concentric,4,3.0,40066.0,338329.0,88641.0,-97.0,-137.0
2026-04-09 22:03:20.817152,163727,1130852561,1130853673,0.942816,-0.388448,0.140544,11.76875,17.6925,-43.5575,-24.928001,18.704,20.672,concentric,4,3.0,40066.0,338329.0,88641.0,-97.0,-137.0
2026-04-09 22:03:20.820704,163728,1130861481,1130862385,0.942816,-0.388448,0.140544,10.045,17.928751,-45.21125,-24.928001,18.704,20.672,concentric,4,3.0,40066.0,338329.0,88641.0,-97.0,-137.0
2026-04-09 22:03:20.827738,163729,1130875990,1130877299,0.944768,-0.49776,0.138592,7.6475,17.6575,-46.6025,-24.400002,18.048,19.256,concentric,4,3.0,40066.0,338329.0,88641.0,-97.0,-137.0
2026-04-09 22:03:20.854465,163740,1130884988,1130886109,0.944768,-0.49776,0.138592,7.02625,17.045,-45.85875,-24.400002,18.048,19.256,concentric,4,3.0,40111.0,341090.0,90590.0,-46.0,-127.0
2026-04-09 22:03:20.857013,163741,1130894121,1130894858,0.972096,-0.445056,0.115168,11.375,16.24875,-44.275,-26.896002,17.704,20.616001,concentric,4,3.0,40111.0,341090.0,90590.0,-46.0,-127.0
2026-04-09 22:03:20.859501,163742,1130903518,1130905635,0.972096,-0.445056,0.115168,16.12625,15.91625,-42.09625,-26.896002,17.704,20.616001,concentric,4,3.0,40111.0,341090.0,90590.0,-46.0,-127.0
2026-04-09 22:03:20.861965,163743,1130918007,1130918528,0.954528,-0.427488,0.119072,16.70375,16.24,-41.4575,-26.760002,17.960001,20.528002,concentric,4,3.0,40111.0,341090.0,90590.0,-46.0,-127.0
2026-04-09 22:03:20.870729,163744,1130927598,1130929317,0.954528,-0.427488,0.119072,14.945,16.49375,-42.0875,-26.760002,17.960001,20.528002,concentric,4,3.0,40111.0,341090.0,90590.0,-46.0,-127.0
2026-04-09 22:03:20.900894,163745,1130936511,1130938054,0.950624,-0.450912,0.152256,13.685,16.94875,-42.1925,-26.320002,17.6,20.104,concentric,4,3.0,40111.0,341090.0,90590.0,-46.0,-127.0
2026-04-09 22:03:20.904626,163746,1130945444,1130946742,0.950624,-0.450912,0.152256,11.97875,17.50875,-40.29375,-26.320002,17.6,20.104,concentric,4,3.0,40111.0,341090.0,90590.0,-46.0,-127.0
2026-04-09 22:03:20.907700,163747,1130959948,1130961672,0.962336,-0.52704,0.122976,11.9525,18.64625,-35.51625,-26.232,17.768002,19.952002,concentric,4,3.0,40111.0,341090.0,90590.0,-46.0,-127.0
2026-04-09 22:03:20.912047,163748,1130968872,1130970442,0.962336,-0.52704,0.122976,13.886251,21.428751,-29.8375,-26.232,17.768002,19.952002,concentric,4,3.0,40111.0,341090.0,90590.0,-46.0,-127.0
