pc_time,serial_num,sensor_ts,host_ts,ax,ay,az,gx,gy,gz,mx,my,mz,phase,rpe,weight_kg,ppg_a,ppg_b,ppg_c,ppg_d,ppg_e
2026-04-09 22:40:34.636079,567985,3364499143,3364500695,-1.075552,0.076128,-0.007808,-2.10875,2.23125,-2.7125,15.672001,-27.400002,42.192,inter_set_rest,8,5.0,18708.0,403431.0,238435.0,90107.0,14101.0
2026-04-09 22:40:36.583042,567986,3364508047,3364509390,-1.075552,0.076128,-0.007808,-0.90125,2.4675,-2.09125,15.672001,-27.400002,42.192,inter_set_rest,8,5.0,18708.0,403431.0,238435.0,90107.0,14101.0
2026-04-09 22:40:36.583101,567987,3364516968,3364518104,-1.100928,0.081984,-0.015616,0.315,1.645,-1.30375,16.608002,-27.408,42.088,inter_set_rest,8,5.0,18708.0,403431.0,238435.0,90107.0,14101.0
2026-04-09 22:40:36.583139,567988,3364531467,3364532990,-1.077504,0.07808,0.011712,1.28625,0.83125,-1.40875,16.608002,-27.408,43.448,inter_set_rest,8,5.0,18708.0,403431.0,238435.0,90107.0,14101.0
2026-04-09 22:40:36.583172,567989,3364540431,3364541702,-1.077504,0.07808,0.011712,2.3975,0.3675,-1.7325,16.008001,-27.264002,43.448,inter_set_rest,8,5.0,18708.0,403431.0,238435.0,90107.0,14101.0
2026-04-09 22:40:36.583204,567990,3364549336,3364550425,-1.077504,0.07808,0.011712,2.26625,-0.02625,-1.4525,16.008001,-27.264002,43.448,inter_set_rest,8,5.0,18708.0,403431.0,238435.0,90107.0,14101.0
2026-04-09 22:40:36.583237,567991,3364558239,3364559178,-1.0736,0.091744,0.023424,1.26,0.455,-1.95125,16.496,-27.408,41.600002,inter_set_rest,8,5.0,18708.0,403431.0,238435.0,90107.0,14101.0
2026-04-09 22:40:36.583297,568001,3364572764,3364574242,-1.071648,0.111264,0.005856,0.77875,1.2075,-3.63125,16.392,-26.736002,42.104004,inter_set_rest,8,5.0,18671.0,403431.0,238700.0,90309.0,14196.0
2026-04-09 22:40:36.583329,568002,3364581836,3364582963,-1.071648,0.111264,0.005856,2.205,1.54875,-5.7225,16.392,-26.736002,42.104004,inter_set_rest,8,5.0,18671.0,403431.0,238700.0,90309.0,14196.0
2026-04-09 22:40:36.583358,568003,3364590896,3364591699,-1.071648,0.111264,0.005856,3.52625,0.97125,-5.69625,16.392,-26.736002,42.104004,inter_set_rest,8,5.0,18671.0,403431.0,238700.0,90309.0,14196.0
2026-04-09 22:40:36.583387,568004,3364605382,3364606623,-1.067744,0.06832,-0.033184,2.9925,0.875,-5.73125,16.624,-26.864002,41.376003,inter_set_rest,8,5.0,18671.0,403431.0,238700.0,90309.0,14196.0
2026-04-09 22:40:36.583416,568005,3364614305,3364615334,-1.081408,0.064416,-0.015616,2.56375,0.86625,-4.935,15.920001,-27.176,43.072002,inter_set_rest,8,5.0,18671.0,403431.0,238700.0,90309.0,14196.0
2026-04-09 22:40:36.583445,568006,3364623224,3364624041,-1.081408,0.064416,-0.015616,3.2375,0.665,-4.4975,15.920001,-27.176,43.072002,inter_set_rest,8,5.0,18671.0,403431.0,238700.0,90309.0,14196.0
2026-04-09 22:40:36.583517,568007,3364637698,3364638952,-1.057984,0.119072,0.031232,5.285,0.62125,-4.48,16.272001,-26.768002,41.984,inter_set_rest,8,5.0,18671.0,403431.0,238700.0,90309.0,14196.0
2026-04-09 22:40:36.583556,568008,3364646607,3364647692,-1.057984,0.119072,0.031232,7.525,1.0675,-5.565,16.272001,-26.768002,41.984,inter_set_rest,8,5.0,18671.0,403431.0,238700.0,90309.0,14196.0
2026-04-09 22:40:36.583584,568009,3364655535,3364656387,-1.046272,0.103456,0.003904,7.1225,0.91875,-6.335,16.112001,-27.6,42.24,inter_set_rest,8,5.0,18671.0,403431.0,238700.0,90309.0,14196.0
2026-04-09 22:40:36.583643,568020,3364664971,3364667251,-1.046272,0.103456,0.003904,4.34,1.0675,-6.99125,16.112001,-27.6,42.24,inter_set_rest,8,5.0,18658.0,403431.0,238950.0,90484.0,14294.0
2026-04-09 22:40:36.583672,568021,3364679508,3364680113,-1.071648,0.046848,-0.03904,2.94875,1.00625,-7.34125,16.464,-27.536001,42.208,inter_set_rest,8,5.0,18658.0,403431.0,238950.0,90484.0,14294.0
2026-04-09 22:40:36.583701,568022,3364688737,3364690899,-1.071648,0.046848,-0.03904,5.43375,0.7,-6.51875,16.464,-27.536001,42.208,inter_set_rest,8,5.0,18658.0,403431.0,238950.0,90484.0,14294.0
2026-04-09 22:40:36.583735,568023,3364697686,3364699620,-1.057984,0.076128,-0.027328,8.82,0.42,-5.1975,16.648,-27.12,41.872,inter_set_rest,8,5.0,18658.0,403431.0,238950.0,90484.0,14294.0
2026-04-09 22:40:36.583764,568024,3364712211,3364712546,-1.059936,0.115168,0.00976,10.91125,0.665,-4.83875,16.648,-27.184002,42.448,inter_set_rest,8,5.0,18658.0,403431.0,238950.0,90484.0,14294.0
2026-04-09 22:40:36.583824,568025,3364721411,3364723302,-1.059936,0.115168,0.00976,11.69,1.16375,-4.73375,16.944,-27.184002,42.448,inter_set_rest,8,5.0,18658.0,403431.0,238950.0,90484.0,14294.0
2026-04-09 22:40:36.583853,568026,3364730330,3364731960,-1.059936,0.115168,0.00976,10.64875,1.09375,-4.82125,16.944,-27.184002,42.448,inter_set_rest,8,5.0,18658.0,403431.0,238950.0,90484.0,14294.0
2026-04-09 22:40:36.583889,568027,3364739248,3364740642,-1.04432,0.083936,0.007808,9.45875,1.16375,-4.57625,16.832,-27.312002,38.432003,inter_set_rest,8,5.0,18658.0,403431.0,238950.0,90484.0,14294.0
2026-04-09 22:40:36.583926,568028,3364753729,3364755606,-1.057984,0.07808,-0.025376,8.68,1.1725,-4.2525,16.536001,-27.504002,42.808002,inter_set_rest,8,5.0,18658.0,403431.0,238950.0,90484.0,14294.0
2026-04-09 22:40:36.583967,568029,3364762678,3364764349,-1.057984,0.07808,-0.025376,9.94,2.1525,-4.97,16.536001,-27.504002,42.808002,inter_set_rest,8,5.0,18658.0,403431.0,238950.0,90484.0,14294.0
2026-04-09 22:40:36.584066,568039,3364771845,3364773123,-1.057984,0.07808,-0.023424,11.655,3.045,-4.76875,16.536001,-27.504002,42.808002,inter_set_rest,8,5.0,18690.0,403431.0,238754.0,90372.0,14243.0
2026-04-09 22:40:36.584114,568040,3364786449,3364788092,-1.0736,0.128832,-0.023424,12.1975,3.6575,-4.59375,16.312,-27.472002,43.08,inter_set_rest,8,5.0,18690.0,403431.0,238754.0,90372.0,14243.0
2026-04-09 22:40:36.584188,568041,3364795374,3364796799,-1.03456,0.119072,-0.001952,11.27875,3.3075,-6.0025,16.08,-27.608002,42.848003,inter_set_rest,8,5.0,18690.0,403431.0,238754.0,90372.0,14243.0
2026-04-09 22:40:36.584228,568042,3364804341,3364805545,-1.03456,0.119072,-0.001952,8.72375,3.465,-7.18375,16.08,-27.608002,42.848003,inter_set_rest,8,5.0,18690.0,403431.0,238754.0,90372.0,14243.0
2026-04-09 22:40:36.584267,568043,3364818812,3364820462,-1.050176,0.083936,0.001952,6.29125,3.87625,-7.39375,16.136002,-27.608002,40.616,inter_set_rest,8,5.0,18690.0,403431.0,238754.0,90372.0,14243.0
2026-04-09 22:40:36.584334,568044,3364827724,3364829144,-1.050176,0.083936,0.001952,7.1925,5.005,-7.00875,16.136002,-27.608002,40.616,inter_set_rest,8,5.0,18690.0,403431.0,238754.0,90372.0,14243.0
2026-04-09 22:40:36.584388,568045,3364836624,3364837823,-1.056032,0.0976,-0.005856,8.715,5.25875,-6.8775,16.344,-27.568,41.368004,inter_set_rest,8,5.0,18690.0,403431.0,238754.0,90372.0,14243.0
2026-04-09 22:40:36.584419,568046,3364845622,3364846564,-1.056032,0.0976,-0.005856,9.73875,6.04625,-7.175,16.344,-27.568,41.368004,inter_set_rest,8,5.0,18690.0,403431.0,238754.0,90372.0,14243.0
2026-04-09 22:40:36.584448,568047,3364860117,3364861475,-1.05408,0.103456,-0.013664,10.045,7.42875,-7.83125,17.08,-27.248001,40.904003,inter_set_rest,8,5.0,18690.0,403431.0,238754.0,90372.0,14243.0
2026-04-09 22:40:36.584500,568057,3364869156,3364870291,-1.05408,0.103456,-0.013664,8.75,7.69125,-8.70625,17.08,-27.248001,40.904003,inter_set_rest,8,5.0,18777.0,403431.0,237179.0,89375.0,13765.0
2026-04-09 22:40:36.584529,568058,3364878081,3364879015,-1.042368,0.099552,-0.00976,7.63,7.56,-8.11125,16.808,-26.848001,41.296,inter_set_rest,8,5.0,18777.0,403431.0,237179.0,89375.0,13765.0
2026-04-09 22:40:36.584557,568059,3364892657,3364893934,-1.042368,0.080032,0.001952,7.7525,7.315,-8.155,16.808,-26.848001,42.760002,inter_set_rest,8,5.0,18777.0,403431.0,237179.0,89375.0,13765.0
2026-04-09 22:40:36.584628,568060,3364901586,3364902689,-1.036512,0.080032,0.001952,7.44625,7.48125,-8.8375,15.936001,-27.44,42.760002,inter_set_rest,8,5.0,18777.0,403431.0,237179.0,89375.0,13765.0
2026-04-09 22:40:36.584681,568061,3364910508,3364911405,-1.036512,0.080032,0.001952,7.44625,8.3825,-7.91875,15.936001,-27.44,42.760002,inter_set_rest,8,5.0,18777.0,403431.0,237179.0,89375.0,13765.0
2026-04-09 22:40:36.584724,568062,3364925014,3364926365,-1.028704,0.089792,0.011712,7.3675,8.98625,-7.39375,16.216002,-27.664001,43.272003,inter_set_rest,8,5.0,18777.0,403431.0,237179.0,89375.0,13765.0
2026-04-09 22:40:36.584850,568063,3364933912,3364935050,-1.009184,0.095648,-0.005856,7.4375,9.6775,-8.575,16.632,-27.456001,41.344,inter_set_rest,8,5.0,18777.0,403431.0,237179.0,89375.0,13765.0
2026-04-09 22:40:36.584881,568064,3364942829,3364943743,-1.009184,0.095648,-0.005856,7.69125,10.5,-9.765,16.632,-27.456001,41.344,inter_set_rest,8,5.0,18777.0,403431.0,237179.0,89375.0,13765.0
2026-04-09 22:40:36.584911,568065,3364957353,3364958649,-1.009184,0.070272,-0.046848,7.0525,11.89125,-9.38875,16.968,-28.12,40.800003,inter_set_rest,8,5.0,18777.0,403431.0,237179.0,89375.0,13765.0
2026-04-09 22:40:36.584967,568076,3364966278,3364967345,-1.009184,0.070272,-0.046848,5.95,11.99625,-9.3625,16.968,-28.12,40.800003,inter_set_rest,8,5.0,19009.0,403431.0,233828.0,87170.0,12675.0
2026-04-09 22:40:36.584996,568077,3364975203,3364976026,-1.013088,0.035136,-0.046848,5.285,11.7425,-9.61625,17.168001,-27.792002,40.600002,inter_set_rest,8,5.0,19009.0,403431.0,233828.0,87170.0,12675.0
2026-04-09 22:40:36.585026,568078,3364984236,3364984744,-1.013088,0.035136,-0.046848,4.52375,11.4975,-9.065,17.168001,-27.792002,40.600002,inter_set_rest,8,5.0,19009.0,403431.0,233828.0,87170.0,12675.0
2026-04-09 22:40:36.585062,568079,3364999181,3364999741,-0.98576,0.074176,-0.007808,6.72,11.87375,-7.14,15.432001,-27.208002,42.112003,inter_set_rest,8,5.0,19009.0,403431.0,233828.0,87170.0,12675.0
2026-04-09 22:40:36.585095,568080,3365008613,3365010556,-0.98576,0.074176,-0.007808,9.415,12.53875,-6.88625,15.432001,-27.208002,42.112003,inter_set_rest,8,5.0,19009.0,403431.0,233828.0,87170.0,12675.0
2026-04-09 22:40:36.585125,568081,3365017578,3365019263,-0.99552,0.115168,0.005856,9.0825,14.14875,-8.1725,16.872002,-27.136002,41.52,inter_set_rest,8,5.0,19009.0,403431.0,233828.0,87170.0,12675.0
2026-04-09 22:40:36.585178,568082,3365032050,3365034180,-0.99552,0.115168,0.005856,6.1425,15.75875,-9.40625,16.872002,-27.136002,41.52,inter_set_rest,8,5.0,19009.0,403431.0,233828.0,87170.0,12675.0
2026-04-09 22:40:36.585210,568083,3365041003,3365042868,-1.016992,0.080032,-0.013664,1.645,17.10625,-10.2725,18.064001,-27.872002,40.336002,inter_set_rest,8,5.0,19009.0,403431.0,233828.0,87170.0,12675.0
2026-04-09 22:40:36.585244,568084,3365049933,3365051557,-1.016992,0.080032,-0.013664,-2.625,17.21125,-11.97,18.064001,-27.872002,40.336002,inter_set_rest,8,5.0,19009.0,403431.0,233828.0,87170.0,12675.0
2026-04-09 22:40:36.585276,568085,3365058908,3365060288,-0.993568,0.023424,-0.042944,-3.64,17.17625,-12.3725,16.936,-27.160002,42.296,inter_set_rest,8,5.0,19009.0,403431.0,233828.0,87170.0,12675.0
2026-04-09 22:40:36.585332,568095,3365073596,3365075258,-0.970144,0.040992,-0.052704,-1.5925,17.70125,-11.76875,16.936,-27.184002,39.232002,inter_set_rest,8,5.0,19206.0,403431.0,230289.0,84765.0,11573.0
2026-04-09 22:40:36.585365,568096,3365082544,3365083979,-0.970144,0.040992,-0.052704,2.0475,17.22875,-10.87625,17.44,-27.184002,39.232002,inter_set_rest,8,5.0,19206.0,403431.0,230289.0,84765.0,11573.0
2026-04-09 22:40:36.585396,568097,3365091541,3365092697,-0.970144,0.040992,-0.052704,5.4775,17.45625,-11.06,17.44,-27.184002,39.232002,inter_set_rest,8,5.0,19206.0,403431.0,230289.0,84765.0,11573.0
2026-04-09 22:40:36.585459,568098,3365106080,3365107594,-0.999424,0.091744,-0.003904,6.2125,18.147501,-10.99,17.256,-27.400002,41.352,inter_set_rest,8,5.0,19206.0,403431.0,230289.0,84765.0,11573.0
2026-04-09 22:40:36.585504,568099,3365114990,3365116290,-1.020896,0.089792,-0.003904,3.28125,18.15625,-11.96125,18.232,-27.448002,40.008003,inter_set_rest,8,5.0,19206.0,403431.0,230289.0,84765.0,11573.0
2026-04-09 22:40:36.585539,568100,3365123929,3365125060,-1.020896,0.089792,-0.003904,-3.43875,18.375,-12.792501,18.232,-27.448002,40.008003,inter_set_rest,8,5.0,19206.0,403431.0,230289.0,84765.0,11573.0
2026-04-09 22:40:36.585570,568101,3365138497,3365139991,-1.032608,0.06832,-0.093696,-7.69125,18.3925,-13.30875,18.608002,-27.368002,40.160004,inter_set_rest,8,5.0,19206.0,403431.0,230289.0,84765.0,11573.0
2026-04-09 22:40:36.585602,568102,3365147430,3365148734,-1.032608,0.06832,-0.093696,-8.60125,18.795,-13.877501,18.608002,-27.368002,40.160004,inter_set_rest,8,5.0,19206.0,403431.0,230289.0,84765.0,11573.0
2026-04-09 22:40:36.585676,568103,3365156365,3365157443,-1.052128,0.080032,-0.122976,-6.2125,18.57625,-14.46375,18.264,-27.04,39.984,inter_set_rest,8,5.0,19206.0,403431.0,230289.0,84765.0,11573.0
2026-04-09 22:40:36.585716,568104,3365165306,3365166118,-1.052128,0.080032,-0.122976,-0.65625,18.9875,-15.12875,18.264,-27.04,39.984,inter_set_rest,8,5.0,19206.0,403431.0,230289.0,84765.0,11573.0
2026-04-09 22:40:36.585776,568114,3365180476,3365181110,-1.016992,0.111264,-0.052704,1.4,19.50375,-15.6975,18.888,-27.208002,40.088,inter_set_rest,8,5.0,19349.0,403431.0,228190.0,83454.0,11036.0
2026-04-09 22:40:36.585808,568115,3365189951,3365191886,-1.016992,0.111264,-0.052704,-3.4825,20.51875,-16.54625,18.888,-27.208002,40.088,inter_set_rest,8,5.0,19349.0,403431.0,228190.0,83454.0,11036.0
2026-04-09 22:40:36.585839,568116,3365198939,3365200642,-1.038464,0.081984,-0.033184,-10.955,21.72625,-16.42375,18.472,-26.848001,40.504,inter_set_rest,8,5.0,19349.0,403431.0,228190.0,83454.0,11036.0
2026-04-09 22:40:36.585868,568117,3365207910,3365209339,-1.038464,0.081984,-0.033184,-16.75625,23.59875,-16.28375,18.472,-26.848001,40.504,inter_set_rest,8,5.0,19349.0,403431.0,228190.0,83454.0,11036.0
2026-04-09 22:40:36.585897,568118,3365222556,3365224279,-1.032608,0.03904,-0.054656,-18.90875,24.00125,-14.875,18.576,-26.896002,40.280003,inter_set_rest,8,5.0,19349.0,403431.0,228190.0,83454.0,11036.0
2026-04-09 22:40:36.585972,568119,3365231604,3365233011,-1.032608,0.03904,-0.054656,-16.397501,23.19625,-13.51,18.576,-26.896002,40.280003,inter_set_rest,8,5.0,19349.0,403431.0,228190.0,83454.0,11036.0
2026-04-09 22:40:36.586001,568120,3365240535,3365241747,-1.00528,0.070272,-0.095648,-13.32625,23.3275,-13.36125,19.144001,-26.736002,40.064003,inter_set_rest,8,5.0,19349.0,403431.0,228190.0,83454.0,11036.0
2026-04-09 22:40:36.586032,568121,3365255022,3365256736,-1.0248,0.089792,-0.130784,-10.823751,25.1825,-14.37625,18.456001,-26.472002,44.280003,inter_set_rest,8,5.0,19349.0,403431.0,228190.0,83454.0,11036.0
2026-04-09 22:40:36.586062,568122,3365263948,3365265444,-1.0248,0.089792,-0.130784,-10.57,25.87375,-15.4875,18.456001,-26.472002,44.280003,inter_set_rest,8,5.0,19349.0,403431.0,228190.0,83454.0,11036.0
2026-04-09 22:40:36.586120,568133,3365273070,3365274375,-1.0248,0.089792,-0.130784,-13.09,24.03625,-15.1375,18.456001,-26.472002,44.280003,inter_set_rest,8,5.0,19443.0,403431.0,226567.0,82348.0,10582.0
2026-04-09 22:40:36.586149,568134,3365287655,3365289383,-0.948672,0.089792,-0.091744,-14.56,22.81125,-14.02625,19.456001,-26.512001,40.864002,inter_set_rest,8,5.0,19443.0,403431.0,226567.0,82348.0,10582.0
2026-04-09 22:40:36.586179,568135,3365296597,3365298142,-0.989664,0.050752,-0.080032,-17.325,22.33,-13.3875,20.04,-26.2,39.36,inter_set_rest,8,5.0,19443.0,403431.0,226567.0,82348.0,10582.0
2026-04-09 22:40:36.586209,568136,3365305661,3365306857,-0.989664,0.050752,-0.080032,-19.9675,22.19,-13.48375,20.04,-26.2,39.36,inter_set_rest,8,5.0,19443.0,403431.0,226567.0,82348.0,10582.0
2026-04-09 22:40:36.586238,568137,3365314629,3365315635,-1.038464,0.070272,-0.105408,-16.75625,21.5425,-13.230001,20.04,-26.112001,39.008003,inter_set_rest,8,5.0,19443.0,403431.0,226567.0,82348.0,10582.0
2026-04-09 22:40:36.586274,568138,3365329115,3365330560,-1.038464,0.070272,-0.105408,-8.77625,20.76375,-13.7375,19.368,-26.112001,39.008003,inter_set_rest,8,5.0,19443.0,403431.0,226567.0,82348.0,10582.0
2026-04-09 22:40:36.586304,568139,3365338137,3365339250,-1.013088,0.0976,-0.095648,-2.0125,19.7925,-14.3325,20.240002,-26.696001,39.904003,inter_set_rest,8,5.0,19443.0,403431.0,226567.0,82348.0,10582.0
2026-04-09 22:40:36.586334,568140,3365347056,3365347954,-1.013088,0.0976,-0.095648,-0.945,18.96125,-14.035,20.240002,-26.696001,39.904003,inter_set_rest,8,5.0,19443.0,403431.0,226567.0,82348.0,10582.0
2026-04-09 22:40:36.586362,568141,3365362213,3365363018,-0.98576,0.066368,-0.070272,-4.83875,18.41875,-13.32625,20.264002,-26.176,39.768,inter_set_rest,8,5.0,19443.0,403431.0,226567.0,82348.0,10582.0
2026-04-09 22:40:36.586439,568151,3365371623,3365373828,-0.98576,0.066368,-0.070272,-8.715,17.710001,-12.705,20.264002,-26.176,39.768,inter_set_rest,8,5.0,19466.0,403431.0,226385.0,82230.0,10545.0
2026-04-09 22:40:36.586469,568152,3365380602,3365382637,-1.011136,0.066368,-0.08784,-10.75375,18.27,-12.705,19.784,-26.096,40.816,inter_set_rest,8,5.0,19466.0,403431.0,226385.0,82230.0,10545.0
2026-04-09 22:40:36.586497,568153,3365389534,3365391422,-1.011136,0.066368,-0.08784,-9.61625,18.865,-12.80125,19.784,-26.096,40.816,inter_set_rest,8,5.0,19466.0,403431.0,226385.0,82230.0,10545.0
2026-04-09 22:40:36.586526,568154,3365404041,3365406324,-1.091168,0.085888,-0.140544,-8.04125,19.0925,-12.2325,20.224,-25.960001,40.896004,inter_set_rest,8,5.0,19466.0,403431.0,226385.0,82230.0,10545.0
2026-04-09 22:40:36.586554,568155,3365412964,3365415019,-1.091168,0.085888,-0.140544,-11.68125,18.41,-11.375,20.224,-25.960001,40.896004,inter_set_rest,8,5.0,19466.0,403431.0,226385.0,82230.0,10545.0
2026-04-09 22:40:36.586616,568156,3365421890,3365423742,-1.059936,0.00976,-0.142496,-15.636251,16.625,-9.905,20.472,-25.928001,40.472,inter_set_rest,8,5.0,19466.0,403431.0,226385.0,82230.0,10545.0
2026-04-09 22:40:36.586645,568157,3365436389,3365438697,-1.00528,0.0,-0.052704,-10.8325,13.53625,-9.82625,20.352001,-25.552002,38.336002,inter_set_rest,8,5.0,19466.0,403431.0,226385.0,82230.0,10545.0
2026-04-09 22:40:36.586673,568158,3365445300,3365447402,-1.00528,0.0,-0.052704,-1.23375,11.15625,-9.86125,20.352001,-25.552002,38.336002,inter_set_rest,8,5.0,19466.0,403431.0,226385.0,82230.0,10545.0
2026-04-09 22:40:36.586701,568159,3365454227,3365456144,-1.00528,0.0,-0.052704,5.1975,9.835,-6.37875,20.352001,-25.552002,38.336002,inter_set_rest,8,5.0,19466.0,403431.0,226385.0,82230.0,10545.0
2026-04-09 22:40:36.586757,568169,3365469008,3365471352,-1.042368,0.064416,-0.076128,6.23,9.17,-4.235,20.408,-25.080002,36.952003,inter_set_rest,8,5.0,19524.0,403431.0,226370.0,82240.0,10541.0
2026-04-09 22:40:36.586786,568170,3365477945,3365480159,-1.104832,0.062464,-0.11712,3.14125,8.33,-4.27,21.096,-25.68,39.392002,inter_set_rest,8,5.0,19524.0,403431.0,226370.0,82240.0,10541.0
2026-04-09 22:40:36.586813,568171,3365486904,3365488890,-1.104832,0.062464,-0.11712,-0.77875,8.88125,-4.05125,21.096,-25.68,39.392002,inter_set_rest,8,5.0,19524.0,403431.0,226370.0,82240.0,10541.0
2026-04-09 22:40:36.586841,568172,3365495890,3365497619,-1.108736,0.021472,-0.16592,-4.12125,7.5075,-4.1475,20.352001,-25.856,40.416,inter_set_rest,8,5.0,19524.0,403431.0,226370.0,82240.0,10541.0
2026-04-09 22:40:36.586869,568173,3365510438,3365512656,-1.108736,0.021472,-0.16592,-2.72125,5.0575,-4.655,20.352001,-25.856,40.416,inter_set_rest,8,5.0,19524.0,403431.0,226370.0,82240.0,10541.0
2026-04-09 22:40:36.586896,568174,3365519398,3365521401,-1.038464,0.01952,-0.0976,2.975,2.3625,-3.63125,20.264002,-26.288002,39.960003,inter_set_rest,8,5.0,19524.0,403431.0,226370.0,82240.0,10541.0
2026-04-09 22:40:36.586924,568175,3365528338,3365530146,-1.038464,0.01952,-0.0976,8.855001,-0.09625,-0.595,20.264002,-26.288002,39.960003,inter_set_rest,8,5.0,19524.0,403431.0,226370.0,82240.0,10541.0
2026-04-09 22:40:36.586954,568176,3365542886,3365545201,-1.061888,0.05856,-0.072224,12.635,-2.24875,0.65625,21.52,-25.792002,39.936,inter_set_rest,8,5.0,19524.0,403431.0,226370.0,82240.0,10541.0
2026-04-09 22:40:36.586986,568177,3365551814,3365553898,-1.061888,0.05856,-0.072224,9.96625,-1.16375,0.60375,21.52,-25.792002,39.936,inter_set_rest,8,5.0,19524.0,403431.0,226370.0,82240.0,10541.0
2026-04-09 22:40:36.587015,568178,3365560702,3365562592,-1.11264,0.060512,-0.056608,1.53125,0.18375,-0.98,21.560001,-26.04,39.096,inter_set_rest,8,5.0,19524.0,403431.0,226370.0,82240.0,10541.0
2026-04-09 22:40:36.587089,568189,3365575348,3365576004,-1.097024,0.00976,-0.144448,-5.53,-0.11375,-4.06875,21.560001,-26.04,39.136,inter_set_rest,8,5.0,19614.0,403431.0,225695.0,81815.0,10360.0
2026-04-09 22:40:36.587121,568190,3365584754,3365586850,-1.098976,0.00976,-0.144448,-8.365,-1.2075,-7.7875,21.848001,-25.416,39.136,inter_set_rest,8,5.0,19614.0,403431.0,225695.0,81815.0,10360.0
2026-04-09 22:40:36.587177,568191,3365593689,3365595546,-1.098976,0.00976,-0.144448,-7.37625,-2.5025,-9.02125,21.848001,-25.416,39.136,inter_set_rest,8,5.0,19614.0,403431.0,225695.0,81815.0,10360.0
2026-04-09 22:40:36.587205,568192,3365602820,3365604274,-1.071648,0.013664,-0.128832,-3.15875,-4.20875,-7.09625,21.272001,-25.544,39.024002,inter_set_rest,8,5.0,19614.0,403431.0,225695.0,81815.0,10360.0
2026-04-09 22:40:36.587233,568193,3365617316,3365619209,-1.061888,0.044896,-0.05856,2.1175,-5.18875,-6.50125,21.152,-25.68,39.728,inter_set_rest,8,5.0,19614.0,403431.0,225695.0,81815.0,10360.0
2026-04-09 22:40:36.587278,568194,3365626241,3365627883,-1.061888,0.044896,-0.05856,2.6775,-5.67,-6.95625,21.152,-25.68,39.728,inter_set_rest,8,5.0,19614.0,403431.0,225695.0,81815.0,10360.0
2026-04-09 22:40:36.587306,568195,3365635156,3365636580,-1.061888,0.044896,-0.10736,-2.38875,-5.03125,-6.93,21.152,-25.68,39.728,inter_set_rest,8,5.0,19614.0,403431.0,225695.0,81815.0,10360.0
2026-04-09 22:40:36.587333,568196,3365649622,3365651493,-1.09312,0.050752,-0.10736,-9.65125,-4.22625,-7.49875,21.088001,-25.928001,39.704002,inter_set_rest,8,5.0,19614.0,403431.0,225695.0,81815.0,10360.0
2026-04-09 22:40:36.587362,568197,3365658603,3365660280,-1.069696,0.027328,-0.128832,-14.21875,-4.41,-9.0825,21.648,-25.856,39.920002,inter_set_rest,8,5.0,19614.0,403431.0,225695.0,81815.0,10360.0
2026-04-09 22:40:36.587390,568198,3365667510,3365668988,-1.069696,0.027328,-0.128832,-13.8075,-4.69875,-9.84375,21.648,-25.856,39.920002,inter_set_rest,8,5.0,19614.0,403431.0,225695.0,81815.0,10360.0
2026-04-09 22:40:36.587442,568208,3365676544,3365677740,-1.065792,0.00976,-0.121024,-10.4125,-5.2675,-10.84125,21.552002,-25.736002,39.912003,inter_set_rest,8,5.0,19621.0,403431.0,225677.0,81847.0,10391.0
2026-04-09 22:40:36.587476,568209,3365691033,3365692799,-1.065792,0.00976,-0.121024,-6.195,-6.51,-12.2325,21.552002,-25.736002,39.912003,inter_set_rest,8,5.0,19621.0,403431.0,225677.0,81847.0,10391.0
2026-04-09 22:40:36.587505,568210,3365700039,3365701560,-1.04432,0.031232,-0.105408,1.23375,-7.6475,-10.64,21.304,-26.288002,40.912003,inter_set_rest,8,5.0,19621.0,403431.0,225677.0,81847.0,10391.0
2026-04-09 22:40:36.587535,568211,3365709077,3365710337,-1.04432,0.031232,-0.105408,5.425,-9.765,-8.68875,21.304,-26.288002,40.912003,inter_set_rest,8,5.0,19621.0,403431.0,225677.0,81847.0,10391.0
2026-04-09 22:40:36.587564,568212,3365723620,3365725327,-1.06384,0.011712,-0.113216,4.03375,-9.7475,-8.28625,21.616001,-26.152,40.864002,inter_set_rest,8,5.0,19621.0,403431.0,225677.0,81847.0,10391.0
2026-04-09 22:40:36.587593,568213,3365732574,3365734041,-1.06384,0.011712,-0.113216,1.5225,-9.2575,-7.7,21.616001,-26.152,40.864002,inter_set_rest,8,5.0,19621.0,403431.0,225677.0,81847.0,10391.0
2026-04-09 22:40:36.587621,568214,3365741496,3365742742,-1.06384,0.046848,-0.11712,0.8225,-8.54,-7.86625,22.056002,-25.568,40.696003,inter_set_rest,8,5.0,19621.0,403431.0,225677.0,81847.0,10391.0
2026-04-09 22:40:36.587649,568215,3365755982,3365756572,-1.048224,0.005856,-0.109312,1.18125,-8.575,-8.19,22.056002,-25.568,39.712,inter_set_rest,8,5.0,19621.0,403431.0,225677.0,81847.0,10391.0
2026-04-09 22:40:36.587677,568216,3365765177,3365767369,-1.048224,0.005856,-0.109312,-0.2275,-9.10875,-8.07625,22.072,-25.712002,39.712,inter_set_rest,8,5.0,19621.0,403431.0,225677.0,81847.0,10391.0
2026-04-09 22:40:36.587737,568226,3365774261,3365776137,-1.048224,0.005856,-0.109312,-1.96,-9.4325,-7.58625,22.072,-25.712002,39.712,inter_set_rest,8,5.0,19661.0,403431.0,224612.0,81013.0,10015.0
2026-04-09 22:40:36.587773,568227,3365783253,3365784886,-1.046272,-0.00976,-0.091744,-0.18375,-10.47375,-7.42,21.752,-25.808,40.136,inter_set_rest,8,5.0,19661.0,403431.0,224612.0,81013.0,10015.0
2026-04-09 22:40:36.587802,568228,3365797786,3365799839,-1.061888,0.031232,-0.132736,5.25875,-11.59375,-6.4225,21.224,-25.68,40.936,inter_set_rest,8,5.0,19661.0,403431.0,224612.0,81013.0,10015.0
2026-04-09 22:40:36.587831,568229,3365806776,3365808565,-1.061888,0.031232,-0.132736,11.54125,-11.62,-6.18625,21.224,-25.68,40.936,inter_set_rest,8,5.0,19661.0,403431.0,224612.0,81013.0,10015.0
2026-04-09 22:40:36.587894,568230,3365815773,3365817362,-1.061888,0.031232,-0.11712,12.775,-11.935,-6.99125,21.224,-25.68,40.936,inter_set_rest,8,5.0,19661.0,403431.0,224612.0,81013.0,10015.0
2026-04-09 22:40:36.587941,568231,3365830262,3365832265,-1.069696,0.062464,-0.122976,11.45375,-11.375,-8.47,21.568,-26.352001,40.488003,inter_set_rest,8,5.0,19661.0,403431.0,224612.0,81013.0,10015.0
2026-04-09 22:40:36.587969,568232,3365839329,3365841092,-1.087264,0.081984,-0.06832,9.5025,-10.08,-10.92875,21.256,-26.048,40.496002,inter_set_rest,8,5.0,19661.0,403431.0,224612.0,81013.0,10015.0
2026-04-09 22:40:36.587997,568233,3365848398,3365849840,-1.087264,0.081984,-0.06832,10.255,-10.17625,-12.11875,21.256,-26.048,40.496002,inter_set_rest,8,5.0,19661.0,403431.0,224612.0,81013.0,10015.0
2026-04-09 22:40:36.588025,568234,3365862903,3365864738,-1.042368,0.031232,-0.0488,12.425,-10.9375,-12.81875,21.992,-26.000002,40.088,inter_set_rest,8,5.0,19661.0,403431.0,224612.0,81013.0,10015.0
2026-04-09 22:40:36.588087,568245,3365872239,3365873588,-1.042368,0.031232,-0.0488,10.71875,-10.3075,-13.23875,21.992,-26.000002,40.088,inter_set_rest,8,5.0,19683.0,403431.0,223804.0,80355.0,9742.0
2026-04-09 22:40:36.588117,568246,3365881219,3365882345,-1.104832,-0.015616,-0.122976,7.76125,-8.35625,-13.27375,22.376001,-25.656002,39.512,inter_set_rest,8,5.0,19683.0,403431.0,223804.0,80355.0,9742.0
2026-04-09 22:40:36.588148,568247,3365890263,3365891089,-1.104832,-0.015616,-0.122976,6.36125,-6.44,-15.715,22.376001,-25.656002,39.512,inter_set_rest,8,5.0,19683.0,403431.0,223804.0,80355.0,9742.0
2026-04-09 22:40:36.588178,568248,3365905273,3365905956,-1.175104,0.031232,-0.181536,9.33625,-5.67875,-18.7775,21.944,-26.616001,40.208,inter_set_rest,8,5.0,19683.0,403431.0,223804.0,80355.0,9742.0
2026-04-09 22:40:36.588208,568249,3365914562,3365916744,-1.175104,0.031232,-0.181536,18.55875,-6.64125,-19.27625,21.944,-26.616001,40.208,inter_set_rest,8,5.0,19683.0,403431.0,223804.0,80355.0,9742.0
2026-04-09 22:40:36.588327,568250,3365923460,3365925438,-1.134112,0.064416,-0.066368,23.5375,-7.455,-17.9025,22.232,-26.344002,40.168003,inter_set_rest,8,5.0,19683.0,403431.0,223804.0,80355.0,9742.0
2026-04-09 22:40:36.588440,568251,3365932405,3365934139,-1.134112,0.064416,-0.066368,24.87625,-7.8225,-15.26,22.232,-26.344002,40.168003,inter_set_rest,8,5.0,19683.0,403431.0,223804.0,80355.0,9742.0
2026-04-09 22:40:36.588477,568252,3365946902,3365949023,-1.069696,0.054656,0.007808,23.5725,-7.315,-14.735,22.712002,-26.448002,40.008003,inter_set_rest,8,5.0,19683.0,403431.0,223804.0,80355.0,9742.0
2026-04-09 22:40:36.588513,568253,3365955816,3365957776,-1.069696,0.054656,0.007808,18.375,-5.90625,-14.49,22.712002,-26.448002,40.008003,inter_set_rest,8,5.0,19683.0,403431.0,223804.0,80355.0,9742.0
2026-04-09 22:40:36.588575,568254,3365964756,3365966518,-1.149728,0.011712,-0.07808,11.305,-3.21125,-13.615,22.688002,-25.920002,40.248,inter_set_rest,8,5.0,19683.0,403431.0,223804.0,80355.0,9742.0
2026-04-09 22:40:36.588639,568264,3365979361,3365981510,-1.175104,0.01952,-0.109312,3.12375,0.98,-14.971251,21.584002,-26.072,40.888,inter_set_rest,8,5.0,19606.0,403431.0,223964.0,80417.0,9743.0
2026-04-09 22:40:36.588668,568265,3365988384,3365990253,-1.175104,0.01952,-0.109312,0.69125,2.31,-17.605,21.584002,-26.072,40.888,inter_set_rest,8,5.0,19606.0,403431.0,223964.0,80417.0,9743.0
2026-04-09 22:40:36.588697,568266,3365997348,3365998945,-1.110688,0.070272,-0.074176,7.9275,1.96875,-18.64625,21.424002,-26.192001,40.832,inter_set_rest,8,5.0,19606.0,403431.0,223964.0,80417.0,9743.0
2026-04-09 22:40:36.588732,568267,3366011868,3366013855,-1.110688,0.070272,-0.074176,15.02375,1.8025,-18.19125,21.424002,-26.192001,40.832,inter_set_rest,8,5.0,19606.0,403431.0,223964.0,80417.0,9743.0
2026-04-09 22:40:36.588762,568268,3366020787,3366022574,-1.130208,0.046848,-0.103456,15.3475,1.855,-17.0275,23.664001,-26.032001,39.464,inter_set_rest,8,5.0,19606.0,403431.0,223964.0,80417.0,9743.0
2026-04-09 22:40:36.588835,568269,3366029718,3366031297,-1.130208,0.046848,-0.103456,7.8575,2.63375,-16.87,23.664001,-26.032001,39.464,inter_set_rest,8,5.0,19606.0,403431.0,223964.0,80417.0,9743.0
2026-04-09 22:40:36.588863,568270,3366038652,3366040038,-1.16144,0.017568,-0.0976,-2.56375,3.675,-19.46875,23.392,-25.800001,39.688004,inter_set_rest,8,5.0,19606.0,403431.0,223964.0,80417.0,9743.0
2026-04-09 22:40:36.588898,568271,3366053142,3366054952,-1.16144,0.017568,-0.0976,-3.5525,4.76,-23.24875,23.392,-25.800001,39.688004,inter_set_rest,8,5.0,19606.0,403431.0,223964.0,80417.0,9743.0
2026-04-09 22:40:36.588926,568272,3366062100,3366063713,-1.149728,0.0,-0.083936,4.47125,4.5325,-23.94875,23.624,-26.224,39.480003,inter_set_rest,8,5.0,19606.0,403431.0,223964.0,80417.0,9743.0
2026-04-09 22:40:36.588983,568282,3366071046,3366072505,-1.149728,0.0,-0.083936,10.36875,4.52375,-23.73,23.624,-26.224,39.480003,inter_set_rest,8,5.0,19652.0,403431.0,223942.0,80520.0,9832.0
2026-04-09 22:40:36.589012,568283,3366085607,3366087474,-1.169248,-0.005856,-0.062464,8.75,5.0925,-21.6825,24.336,-25.792002,40.424004,inter_set_rest,8,5.0,19652.0,403431.0,223942.0,80520.0,9832.0
2026-04-09 22:40:36.589040,568284,3366094583,3366096226,-1.169248,-0.005856,-0.062464,2.38,4.76875,-18.55875,24.336,-25.792002,40.424004,inter_set_rest,8,5.0,19652.0,403431.0,223942.0,80520.0,9832.0
2026-04-09 22:40:36.589074,568285,3366103548,3366104931,-1.165344,-0.056608,-0.052704,-5.52125,4.445,-17.91125,23.12,-26.064001,40.432003,inter_set_rest,8,5.0,19652.0,403431.0,223942.0,80520.0,9832.0
2026-04-09 22:40:36.589104,568286,3366118109,3366119840,-1.188768,-0.02928,-0.119072,-4.47125,3.85875,-18.83,23.616001,-25.696001,40.160004,inter_set_rest,8,5.0,19652.0,403431.0,223942.0,80520.0,9832.0
2026-04-09 22:40:36.589132,568287,3366127094,3366128604,-1.188768,-0.02928,-0.119072,7.91,4.2525,-19.6525,23.616001,-25.696001,40.160004,inter_set_rest,8,5.0,19652.0,403431.0,223942.0,80520.0,9832.0
2026-04-09 22:40:36.589160,568288,3366136013,3366137297,-1.188768,-0.02928,-0.119072,18.13,4.0425,-20.01125,23.616001,-25.696001,40.160004,inter_set_rest,8,5.0,19652.0,403431.0,223942.0,80520.0,9832.0
2026-04-09 22:40:36.589187,568289,3366150584,3366152213,-1.227808,-0.01952,-0.11712,20.475,3.22875,-18.9875,24.016,-26.136002,40.168003,inter_set_rest,8,5.0,19652.0,403431.0,223942.0,80520.0,9832.0
2026-04-09 22:40:36.589215,568290,3366159534,3366160955,-1.188768,-0.007808,-0.023424,17.9725,1.8725,-17.7975,24.480001,-25.840002,38.952003,inter_set_rest,8,5.0,19652.0,403431.0,223942.0,80520.0,9832.0
2026-04-09 22:40:36.589251,568291,3366168473,3366169661,-1.188768,-0.007808,-0.023424,13.3875,1.505,-16.56375,24.480001,-25.840002,38.952003,inter_set_rest,8,5.0,19652.0,403431.0,223942.0,80520.0,9832.0
2026-04-09 22:40:36.589321,568302,3366177447,3366178427,-1.22,-0.003904,-0.052704,9.345,1.95125,-15.54875,24.480001,-25.840002,36.904003,inter_set_rest,8,5.0,19512.0,403431.0,226035.0,82053.0,10483.0
2026-04-09 22:40:36.589361,568303,3366191944,3366193351,-1.233664,-0.003904,-0.052704,2.2225,3.45625,-14.86625,24.656002,-25.448002,38.312,inter_set_rest,8,5.0,19512.0,403431.0,226035.0,82053.0,10483.0
2026-04-09 22:40:36.589394,568304,3366200876,3366202046,-1.245376,-0.066368,-0.101504,-3.75375,3.885,-15.6975,25.328001,-25.44,39.096,inter_set_rest,8,5.0,19512.0,403431.0,226035.0,82053.0,10483.0
2026-04-09 22:40:36.589441,568305,3366209828,3366210808,-1.245376,-0.066368,-0.101504,-3.955,3.08875,-16.3275,25.328001,-25.44,39.096,inter_set_rest,8,5.0,19512.0,403431.0,226035.0,82053.0,10483.0
2026-04-09 22:40:36.589496,568306,3366224313,3366225735,-1.206336,-0.122976,-0.103456,3.325,1.88125,-15.015,25.176,-25.696001,38.968002,inter_set_rest,8,5.0,19512.0,403431.0,226035.0,82053.0,10483.0
2026-04-09 22:40:36.589525,568307,3366233236,3366234426,-1.206336,-0.122976,-0.103456,10.66625,1.3125,-11.99625,25.176,-25.696001,38.968002,inter_set_rest,8,5.0,19512.0,403431.0,226035.0,82053.0,10483.0
2026-04-09 22:40:36.589558,568308,3366242350,3366243157,-1.188768,-0.035136,-0.03904,16.4325,1.05,-9.135,25.048,-25.208002,39.160004,inter_set_rest,8,5.0,19512.0,403431.0,226035.0,82053.0,10483.0
2026-04-09 22:40:36.589602,568309,3366251876,3366254041,-1.188768,-0.035136,-0.03904,17.92,1.7675,-8.6275,25.048,-25.208002,39.160004,inter_set_rest,8,5.0,19512.0,403431.0,226035.0,82053.0,10483.0
2026-04-09 22:40:36.589630,568310,3366266465,3366266973,-1.212192,0.023424,-0.046848,13.195,2.5725,-7.56,25.072,-25.432001,38.824,inter_set_rest,8,5.0,19512.0,403431.0,226035.0,82053.0,10483.0
2026-04-09 22:40:36.589684,568320,3366276415,3366277878,-1.212192,0.023424,-0.046848,4.52375,1.9775,-6.5275,25.072,-25.432001,38.824,inter_set_rest,8,5.0,19428.0,403431.0,227447.0,83053.0,10910.0
2026-04-09 22:40:36.589716,568321,3366285397,3366286615,-1.237568,-0.080032,-0.122976,-5.95,1.61,-5.3025,24.568,-25.464,39.416,inter_set_rest,8,5.0,19428.0,403431.0,227447.0,83053.0,10910.0
2026-04-09 22:40:36.589746,568322,3366294330,3366295362,-1.237568,-0.080032,-0.122976,-12.32875,0.53375,-3.77125,24.568,-25.464,39.416,inter_set_rest,8,5.0,19428.0,403431.0,227447.0,83053.0,10910.0
2026-04-09 22:40:36.589775,568323,3366308873,3366310324,-1.182912,-0.115168,-0.109312,-8.35625,-1.26,-2.31875,25.208002,-24.936,39.280003,inter_set_rest,8,5.0,19428.0,403431.0,227447.0,83053.0,10910.0
2026-04-09 22:40:36.589803,568324,3366317777,3366319013,-1.182912,-0.037088,-0.052704,3.71875,-1.42625,-2.05625,25.208002,-24.936,39.280003,inter_set_rest,8,5.0,19428.0,403431.0,227447.0,83053.0,10910.0
2026-04-09 22:40:36.589832,568325,3366326716,3366327746,-1.196576,-0.037088,-0.052704,12.90625,-1.89,-2.73875,22.920002,-25.12,39.504,inter_set_rest,8,5.0,19428.0,403431.0,227447.0,83053.0,10910.0
2026-04-09 22:40:36.589868,568326,3366341199,3366342655,-1.196576,0.025376,-0.025376,14.90125,-1.8725,-3.22875,24.136002,-25.392002,39.432003,inter_set_rest,8,5.0,19428.0,403431.0,227447.0,83053.0,10910.0
2026-04-09 22:40:36.589906,568327,3366350104,3366351339,-1.196576,0.025376,-0.025376,12.3725,-2.23125,-3.38625,24.136002,-25.392002,39.432003,inter_set_rest,8,5.0,19428.0,403431.0,227447.0,83053.0,10910.0
2026-04-09 22:40:36.589945,568328,3366358985,3366360055,-1.18096,-0.03904,-0.070272,3.1325,-2.07375,-3.325,24.328001,-25.608002,40.480003,inter_set_rest,8,5.0,19428.0,403431.0,227447.0,83053.0,10910.0
2026-04-09 22:40:36.590048,568338,3366373996,3366374963,-1.18096,-0.03904,-0.070272,-6.9475,-1.63625,-3.42125,24.328001,-25.608002,40.480003,inter_set_rest,8,5.0,19341.0,403431.0,228164.0,83554.0,11123.0
2026-04-09 22:40:36.590096,568339,3366382995,3366383713,-1.163392,-0.11712,-0.101504,-13.27375,-1.79375,-2.77375,24.008001,-25.656002,39.664,inter_set_rest,8,5.0,19341.0,403431.0,228164.0,83554.0,11123.0
2026-04-09 22:40:36.590136,568340,3366392316,3366394516,-1.163392,-0.11712,-0.101504,-13.965,-1.715,-1.72375,24.008001,-25.656002,39.664,inter_set_rest,8,5.0,19341.0,403431.0,228164.0,83554.0,11123.0
2026-04-09 22:40:36.590168,568341,3366401239,3366403208,-1.130208,-0.076128,-0.042944,-7.83125,-2.37125,-0.8225,24.192001,-25.464,39.544003,inter_set_rest,8,5.0,19341.0,403431.0,228164.0,83554.0,11123.0
2026-04-09 22:40:36.590200,568342,3366415837,3366418146,-1.130208,-0.076128,-0.042944,1.8725,-2.205,0.39375,24.192001,-25.464,39.544003,inter_set_rest,8,5.0,19341.0,403431.0,228164.0,83554.0,11123.0
2026-04-09 22:40:36.590267,568343,3366424828,3366426868,-1.13216,0.033184,-0.062464,10.325,-1.70625,2.0475,23.744001,-25.880001,40.752003,inter_set_rest,8,5.0,19341.0,403431.0,228164.0,83554.0,11123.0
2026-04-09 22:40:36.590299,568344,3366433749,3366435620,-1.13216,0.033184,-0.062464,4.61125,-1.155,3.63125,23.744001,-25.880001,40.752003,inter_set_rest,8,5.0,19341.0,403431.0,228164.0,83554.0,11123.0
2026-04-09 22:40:36.590329,568345,3366448212,3366448535,-1.153632,-0.017568,-0.140544,-8.8375,-0.56875,5.11,23.736002,-25.176,39.992,inter_set_rest,8,5.0,19341.0,403431.0,228164.0,83554.0,11123.0
2026-04-09 22:40:36.590368,568346,3366457430,3366459319,-1.153632,-0.017568,-0.140544,-19.74,-1.11125,2.80875,23.736002,-25.176,39.992,inter_set_rest,8,5.0,19341.0,403431.0,228164.0,83554.0,11123.0
2026-04-09 22:40:36.590422,568347,3366466332,3366468007,-1.136064,-0.080032,-0.083936,-19.34625,-1.79375,-0.385,24.416,-25.072,39.824,inter_set_rest,8,5.0,19341.0,403431.0,228164.0,83554.0,11123.0
2026-04-09 22:40:36.600359,568358,3366480867,3366483123,-1.110688,-0.03904,-0.017568,-7.98,-2.205,-0.77,22.608002,-25.656002,41.448,concentric,8,5.0,19280.0,403431.0,228786.0,83939.0,11322.0
2026-04-09 22:40:36.602862,568359,3366489913,3366491955,-1.110688,-0.03904,-0.017568,3.35125,-1.4,0.79625,22.608002,-25.656002,41.448,concentric,8,5.0,19280.0,403431.0,228786.0,83939.0,11322.0
2026-04-09 22:40:36.606062,568360,3366498876,3366500705,-1.085312,-0.037088,-0.064416,5.01375,-1.225,2.35375,22.608002,-25.408,41.848003,concentric,8,5.0,19280.0,403431.0,228786.0,83939.0,11322.0
2026-04-09 22:40:36.643078,568361,3366507810,3366509417,-1.085312,-0.037088,-0.064416,-1.28625,-0.1925,2.84375,22.912,-25.408,41.848003,concentric,8,5.0,19280.0,403431.0,228786.0,83939.0,11322.0
2026-04-09 22:40:36.646669,568362,3366522288,3366524326,-1.100928,-0.044896,-0.113216,-6.55375,0.2275,2.7475,23.392,-25.816002,40.368,concentric,8,5.0,19280.0,403431.0,228786.0,83939.0,11322.0
2026-04-09 22:40:36.649159,568363,3366531207,3366533009,-1.100928,-0.044896,-0.113216,-7.5075,0.07875,2.87,23.392,-25.816002,40.368,concentric,8,5.0,19280.0,403431.0,228786.0,83939.0,11322.0
2026-04-09 22:40:36.651713,568364,3366540160,3366541768,-1.09312,-0.037088,-0.11712,-4.865,-0.5775,3.29,23.208,-25.800001,39.952003,concentric,8,5.0,19280.0,403431.0,228786.0,83939.0,11322.0
2026-04-09 22:40:36.657887,568365,3366554642,3366556702,-1.09312,-0.037088,-0.11712,-2.77375,-0.74375,5.1275,23.208,-25.800001,39.952003,concentric,8,5.0,19280.0,403431.0,228786.0,83939.0,11322.0
2026-04-09 22:40:36.688147,568366,3366563576,3366565412,-1.052128,-0.066368,-0.064416,-2.905,-1.21625,6.83375,23.272001,-25.832,40.216003,concentric,8,5.0,19280.0,403431.0,228786.0,83939.0,11322.0
2026-04-09 22:40:36.691664,568367,3366572522,3366574123,-1.052128,-0.066368,-0.064416,-5.5825,-2.35375,8.198751,23.272001,-25.832,40.216003,concentric,8,5.0,19280.0,403431.0,228786.0,83939.0,11322.0
2026-04-09 22:40:36.731624,568377,3366586990,3366589049,-1.057984,-0.035136,-0.056608,-6.36125,-2.31,8.58375,23.072,-26.52,40.456,concentric,8,5.0,19302.0,403431.0,227848.0,83213.0,10983.0
2026-04-09 22:40:36.734197,568378,3366595921,3366597792,-1.057984,-0.035136,-0.056608,0.14,-2.3275,8.26875,23.072,-26.52,40.456,concentric,8,5.0,19302.0,403431.0,227848.0,83213.0,10983.0
2026-04-09 22:40:36.736663,568379,3366604985,3366606552,-1.0736,0.031232,-0.072224,5.3725,-1.42625,7.56,23.232,-25.896002,40.36,concentric,8,5.0,19302.0,403431.0,227848.0,83213.0,10983.0
2026-04-09 22:40:36.739175,568380,3366613952,3366615268,-1.0736,0.031232,-0.072224,8.14625,-0.455,6.50125,23.232,-25.896002,40.36,concentric,8,5.0,19302.0,403431.0,227848.0,83213.0,10983.0
2026-04-09 22:40:36.745406,568381,3366628445,3366630233,-1.077504,0.027328,-0.070272,7.8575,-0.3325,5.1625,22.088001,-26.568,41.048,concentric,8,5.0,19302.0,403431.0,227848.0,83213.0,10983.0
2026-04-09 22:40:36.747922,568382,3366637436,3366638954,-1.077504,0.027328,-0.070272,-0.2275,0.91875,4.69,22.088001,-26.568,41.048,concentric,8,5.0,19302.0,403431.0,227848.0,83213.0,10983.0
2026-04-09 22:40:36.750438,568383,3366646366,3366647661,-1.079456,-0.03904,-0.089792,-7.455,1.6975,5.03125,22.248001,-26.056002,40.624,concentric,8,5.0,19302.0,403431.0,227848.0,83213.0,10983.0
2026-04-09 22:40:36.780662,568384,3366660883,3366662640,-1.106784,-0.052704,-0.103456,-10.66625,1.855,5.04,21.768002,-26.008001,39.752003,concentric,8,5.0,19302.0,403431.0,227848.0,83213.0,10983.0
2026-04-09 22:40:36.784173,568385,3366669816,3366671347,-1.106784,-0.052704,-0.103456,-7.8225,2.47625,4.34875,21.768002,-26.008001,39.752003,concentric,8,5.0,19302.0,403431.0,227848.0,83213.0,10983.0
2026-04-09 22:40:36.809079,568395,3366679059,3366680130,-1.106784,-0.052704,-0.080032,-0.55125,2.2925,4.62,21.768002,-26.008001,39.752003,concentric,8,5.0,19148.0,403431.0,229298.0,84145.0,11373.0
2026-04-09 22:40:36.811666,568396,3366693651,3366695155,-1.110688,0.005856,-0.080032,6.41375,1.37375,5.075,21.672,-26.224,40.608,concentric,8,5.0,19148.0,403431.0,229298.0,84145.0,11373.0
2026-04-09 22:40:36.814170,568397,3366702804,3366703915,-1.110688,0.01952,-0.062464,10.29875,1.98625,4.92625,21.720001,-26.504002,40.656002,concentric,8,5.0,19148.0,403431.0,229298.0,84145.0,11373.0
2026-04-09 22:40:36.816680,568398,3366711731,3366712621,-1.110688,0.01952,-0.062464,5.9675,3.4825,4.7075,21.720001,-26.504002,40.656002,concentric,8,5.0,19148.0,403431.0,229298.0,84145.0,11373.0
2026-04-09 22:40:36.825431,568399,3366720783,3366721374,-1.120448,0.01952,-0.062464,1.1025,4.725,5.34625,21.824001,-26.264002,40.568,concentric,8,5.0,19148.0,403431.0,229298.0,84145.0,11373.0
2026-04-09 22:40:36.857265,568400,3366735711,3366736303,-1.120448,0.01952,-0.062464,-0.6475,5.39,4.61125,21.824001,-26.264002,40.568,concentric,8,5.0,19148.0,403431.0,229298.0,84145.0,11373.0
2026-04-09 22:40:36.859156,568401,3366744909,3366747090,-1.097024,0.001952,-0.105408,-0.70875,5.7925,4.50625,21.672,-26.112001,40.336002,concentric,8,5.0,19148.0,403431.0,229298.0,84145.0,11373.0
2026-04-09 22:40:36.861681,568402,3366753837,3366755803,-1.097024,0.001952,-0.105408,-0.67375,5.6175,4.24375,21.672,-26.112001,40.336002,concentric,8,5.0,19148.0,403431.0,229298.0,84145.0,11373.0
2026-04-09 22:40:36.891880,568403,3366768332,3366768692,-1.116544,-0.023424,-0.113216,0.8925,5.99375,3.61375,21.016,-26.28,42.184002,concentric,8,5.0,19148.0,403431.0,229298.0,84145.0,11373.0
2026-04-09 22:40:36.952970,568414,3366777979,3366779456,-1.116544,-0.023424,-0.113216,1.49625,6.32625,3.465,21.016,-26.28,42.184002,concentric,8,5.0,19051.0,403431.0,230717.0,85100.0,11787.0
2026-04-09 22:40:36.955581,568415,3366786924,3366788162,-1.118496,0.005856,-0.062464,2.835,5.985,2.835,21.568,-26.44,40.992,concentric,8,5.0,19051.0,403431.0,230717.0,85100.0,11787.0
2026-04-09 22:40:36.961739,568416,3366795855,3366796883,-1.118496,0.005856,-0.062464,6.2125,5.81,2.8,21.568,-26.44,40.992,concentric,8,5.0,19051.0,403431.0,230717.0,85100.0,11787.0
2026-04-09 22:40:36.964177,568417,3366810380,3366811831,-1.085312,0.023424,-0.042944,7.1225,6.29125,3.22,20.76,-26.632002,40.600002,concentric,8,5.0,19051.0,403431.0,230717.0,85100.0,11787.0
2026-04-09 22:40:36.966701,568418,3366819411,3366820544,-1.085312,0.023424,-0.042944,4.8475,6.51,4.13,20.76,-26.632002,40.600002,concentric,8,5.0,19051.0,403431.0,230717.0,85100.0,11787.0
2026-04-09 22:40:36.969168,568419,3366828400,3366829231,-1.071648,-0.005856,-0.083936,1.46125,6.895,4.12125,21.072,-26.616001,41.152,concentric,8,5.0,19051.0,403431.0,230717.0,85100.0,11787.0
2026-04-09 22:40:36.971693,568420,3366842899,3366844099,-1.095072,0.001952,-0.103456,2.45,6.88625,3.64875,20.744001,-26.44,40.856003,concentric,8,5.0,19051.0,403431.0,230717.0,85100.0,11787.0
2026-04-09 22:40:36.974153,568421,3366851877,3366852794,-1.095072,0.001952,-0.103456,6.93875,7.1925,3.45625,20.744001,-26.44,40.856003,concentric,8,5.0,19051.0,403431.0,230717.0,85100.0,11787.0
2026-04-09 22:40:36.976736,568422,3366860847,3366861611,-1.077504,0.035136,-0.074176,9.89625,6.71125,3.77125,20.848001,-26.592001,38.936,concentric,8,5.0,19051.0,403431.0,230717.0,85100.0,11787.0
2026-04-09 22:40:36.979391,568423,3366870529,3366872451,-1.077504,0.035136,-0.074176,11.01625,6.36125,4.8475,20.848001,-26.592001,38.936,concentric,8,5.0,19051.0,403431.0,230717.0,85100.0,11787.0
2026-04-09 22:40:37.004149,568433,3366885574,3366887493,-1.052128,0.027328,-0.062464,10.5875,6.6325,5.2325,19.720001,-26.608002,41.68,concentric,8,5.0,19003.0,403431.0,231505.0,85572.0,11971.0
2026-04-09 22:40:37.006648,568434,3366894519,3366896326,-1.052128,0.027328,-0.062464,7.805,7.00875,5.81875,19.720001,-26.608002,41.68,concentric,8,5.0,19003.0,403431.0,231505.0,85572.0,11971.0
2026-04-09 22:40:37.012349,568435,3366903588,3366905077,-1.077504,-0.015616,-0.072224,3.91125,7.0175,5.50375,19.864,-26.832,42.480003,concentric,8,5.0,19003.0,403431.0,231505.0,85572.0,11971.0
2026-04-09 22:40:37.015348,568436,3366912555,3366913777,-1.077504,-0.015616,-0.072224,2.05625,7.735,4.3925,19.864,-26.832,42.480003,concentric,8,5.0,19003.0,403431.0,231505.0,85572.0,11971.0
2026-04-09 22:40:37.048147,568437,3366927038,3366928714,-1.095072,0.06832,-0.052704,4.655,7.77875,2.03875,20.328001,-26.512001,41.432003,concentric,8,5.0,19003.0,403431.0,231505.0,85572.0,11971.0
2026-04-09 22:40:37.051720,568438,3366935928,3366937427,-1.095072,0.06832,-0.052704,14.49,7.07875,0.63,20.328001,-26.512001,41.432003,concentric,8,5.0,19003.0,403431.0,231505.0,85572.0,11971.0
2026-04-09 22:40:37.054156,568439,3366944854,3366946105,-1.069696,0.066368,-0.072224,18.7425,6.825,0.5075,20.288,-27.056002,40.776,concentric,8,5.0,19003.0,403431.0,231505.0,85572.0,11971.0
2026-04-09 22:40:37.084423,568440,3366959497,3366961052,-1.069696,0.066368,-0.072224,15.26875,6.37,0.735,20.288,-27.056002,40.776,concentric,8,5.0,19003.0,403431.0,231505.0,85572.0,11971.0
2026-04-09 22:40:37.087981,568441,3366968500,3366969759,-1.081408,0.0,-0.085888,11.24375,6.4575,0.41125,19.536001,-26.608002,40.328003,concentric,8,5.0,19003.0,403431.0,231505.0,85572.0,11971.0
2026-04-09 22:40:37.112977,568451,3366977441,3366978542,-1.081408,0.0,-0.085888,7.4725,7.035,-0.11375,19.536001,-26.608002,40.328003,concentric,8,5.0,18979.0,403431.0,231917.0,85852.0,12116.0
2026-04-09 22:40:37.115445,568452,3366992161,3366993654,-1.08336,0.013664,-0.037088,6.44,7.27125,0.67375,20.136002,-27.072,39.864002,concentric,8,5.0,18979.0,403431.0,231917.0,85852.0,12116.0
2026-04-09 22:40:37.118003,568453,3367001239,3367002393,-1.050176,0.040992,-0.05856,8.6275,7.0875,1.295,19.976002,-26.416,42.232002,concentric,8,5.0,18979.0,403431.0,231917.0,85852.0,12116.0
2026-04-09 22:40:37.120498,568454,3367010275,3367011128,-1.050176,0.040992,-0.05856,12.0225,6.43125,2.31875,19.976002,-26.416,42.232002,concentric,8,5.0,18979.0,403431.0,231917.0,85852.0,12116.0
2026-04-09 22:40:37.122827,568455,3367019256,3367019834,-1.050176,0.040992,-0.05856,12.4075,6.0025,3.5525,19.976002,-26.416,42.232002,concentric,8,5.0,18979.0,403431.0,231917.0,85852.0,12116.0
2026-04-09 22:40:37.153126,568456,3367034213,3367034834,-1.059936,0.040992,-0.072224,11.47125,5.5125,5.1625,20.656,-26.480001,42.848003,concentric,8,5.0,18979.0,403431.0,231917.0,85852.0,12116.0
2026-04-09 22:40:37.156713,568457,3367043485,3367045594,-1.052128,0.037088,-0.07808,12.6175,4.3925,5.57375,20.288,-26.304,40.224003,concentric,8,5.0,18979.0,403431.0,231917.0,85852.0,12116.0
2026-04-09 22:40:37.159196,568458,3367052420,3367054279,-1.052128,0.037088,-0.07808,13.475,3.07125,5.64375,20.288,-26.304,40.224003,concentric,8,5.0,18979.0,403431.0,231917.0,85852.0,12116.0
2026-04-09 22:40:37.165574,568459,3367061383,3367062974,-1.032608,0.042944,-0.062464,13.65,1.9075,5.4775,18.664001,-27.232,41.608,concentric,8,5.0,18979.0,403431.0,231917.0,85852.0,12116.0
2026-04-09 22:40:37.276706,568470,3367075860,3367078165,-1.032608,0.042944,-0.062464,14.761251,1.6275,6.53625,18.664001,-27.232,41.608,concentric,8,5.0,18849.0,403431.0,233896.0,87038.0,12653.0
2026-04-09 22:40:37.279207,568471,3367084816,3367086869,-1.042368,0.050752,-0.035136,15.8375,2.31,6.57125,19.008001,-27.240002,39.776,concentric,8,5.0,18849.0,403431.0,233896.0,87038.0,12653.0
2026-04-09 22:40:37.281713,568472,3367093746,3367095592,-1.042368,0.050752,-0.035136,15.96,2.275,6.3175,19.008001,-27.240002,39.776,concentric,8,5.0,18849.0,403431.0,233896.0,87038.0,12653.0
2026-04-09 22:40:37.284255,568473,3367108246,3367110491,-1.028704,0.076128,-0.025376,15.5225,1.3125,5.6525,19.536001,-27.432001,39.704002,concentric,8,5.0,18849.0,403431.0,233896.0,87038.0,12653.0
2026-04-09 22:40:37.286729,568474,3367117187,3367119179,-1.028704,0.076128,-0.025376,15.0325,0.90125,5.4075,19.536001,-27.432001,39.704002,concentric,8,5.0,18849.0,403431.0,233896.0,87038.0,12653.0
2026-04-09 22:40:37.289177,568475,3367126107,3367127873,-1.0248,0.06832,-0.035136,13.78125,0.1925,5.5125,18.752,-27.616001,39.528004,concentric,8,5.0,18849.0,403431.0,233896.0,87038.0,12653.0
2026-04-09 22:40:37.291638,568476,3367140574,3367142853,-1.0248,0.06832,-0.035136,12.60875,-1.14625,5.1275,18.752,-27.616001,39.528004,concentric,8,5.0,18849.0,403431.0,233896.0,87038.0,12653.0
2026-04-09 22:40:37.294231,568477,3367149508,3367151595,-1.0248,0.062464,-0.027328,12.1975,-2.14375,4.43625,18.824001,-27.488,39.776,concentric,8,5.0,18849.0,403431.0,233896.0,87038.0,12653.0
2026-04-09 22:40:37.300533,568478,3367158441,3367160305,-1.0248,0.062464,-0.027328,13.11625,-2.695,2.98375,18.824001,-27.488,39.776,concentric,8,5.0,18849.0,403431.0,233896.0,87038.0,12653.0
2026-04-09 22:40:37.302957,568479,3367173059,3367175251,-1.01504,0.072224,-0.011712,13.55375,-2.87875,1.81125,18.560001,-27.192001,39.584003,concentric,8,5.0,18849.0,403431.0,233896.0,87038.0,12653.0
2026-04-09 22:40:37.331692,568489,3367182105,3367183951,-1.009184,0.0976,-0.011712,12.5475,-3.40375,0.7525,18.296001,-27.160002,39.312,concentric,8,5.0,18756.0,403431.0,234838.0,87547.0,12884.0
2026-04-09 22:40:37.334236,568490,3367191084,3367192736,-1.009184,0.0976,-0.011712,12.34625,-3.395,-0.3325,18.296001,-27.160002,39.312,concentric,8,5.0,18756.0,403431.0,234838.0,87547.0,12884.0
2026-04-09 22:40:37.337733,568491,3367200043,3367201473,-1.009184,0.0976,-0.011712,10.00125,-4.33125,-1.11125,18.296001,-27.160002,39.312,concentric,8,5.0,18756.0,403431.0,234838.0,87547.0,12884.0
2026-04-09 22:40:37.339240,568492,3367214529,3367216403,-1.030656,0.060512,-0.023424,4.8125,-5.74,-2.765,18.52,-27.680002,41.336002,concentric,8,5.0,18756.0,403431.0,234838.0,87547.0,12884.0
2026-04-09 22:40:37.341848,568493,3367223702,3367225188,-1.0248,0.040992,-0.01952,2.07375,-7.28875,-2.905,18.632,-27.256,39.968002,concentric,8,5.0,18756.0,403431.0,234838.0,87547.0,12884.0
2026-04-09 22:40:37.344199,568494,3367232724,3367233920,-1.0248,0.040992,-0.01952,1.82875,-8.4875,-2.6075,18.632,-27.256,39.968002,concentric,8,5.0,18756.0,403431.0,234838.0,87547.0,12884.0
2026-04-09 22:40:37.350514,568495,3367247303,3367248880,-0.99552,0.074176,-0.001952,2.3625,-9.21375,-1.61875,18.528002,-27.264002,39.944,concentric,8,5.0,18756.0,403431.0,234838.0,87547.0,12884.0
