pc_time,serial_num,sensor_ts,host_ts,ax,ay,az,gx,gy,gz,mx,my,mz,phase,rpe,weight_kg,ppg_a,ppg_b,ppg_c,ppg_d,ppg_e
2026-04-09 22:41:01.968592,573086,3391821900,3391823320,-1.247328,-0.031232,-0.11712,2.80875,-2.5025,5.87125,27.12,-24.552002,42.152,eccentric,8,5.0,18461.0,403431.0,226981.0,81790.0,9984.0
2026-04-09 22:41:01.970276,573087,3391830944,3391832004,-1.247328,-0.031232,-0.11712,-1.8725,-1.8025,6.02,27.12,-24.552002,42.152,eccentric,8,5.0,18461.0,403431.0,226981.0,81790.0,9984.0
2026-04-09 22:41:01.974389,573088,3391839822,3391840731,-1.24928,-0.0976,-0.13664,-7.81375,-1.93375,6.125,27.384,-24.088001,41.120003,eccentric,8,5.0,18461.0,403431.0,226981.0,81790.0,9984.0
2026-04-09 22:41:01.977632,573089,3391854353,3391855680,-1.208288,-0.066368,-0.091744,-7.48125,-2.42375,8.0325,27.168001,-24.288002,38.88,eccentric,8,5.0,18461.0,403431.0,226981.0,81790.0,9984.0
2026-04-09 22:41:01.979453,573090,3391863331,3391864422,-1.208288,-0.066368,-0.091744,-2.87,-1.7325,7.7875,27.168001,-24.288002,38.88,eccentric,8,5.0,18461.0,403431.0,226981.0,81790.0,9984.0
2026-04-09 22:41:01.981740,573091,3391872298,3391873166,-1.208288,-0.066368,-0.091744,5.39875,-0.41125,7.595,27.168001,-24.288002,38.88,eccentric,8,5.0,18461.0,403431.0,226981.0,81790.0,9984.0
2026-04-09 22:41:02.010296,573092,3391886789,3391888046,-1.286368,0.015616,-0.10736,10.36,0.98,5.69625,26.504002,-24.712002,39.552002,eccentric,8,5.0,18461.0,403431.0,226981.0,81790.0,9984.0
2026-04-09 22:41:02.014914,573093,3391895715,3391896795,-1.301984,-0.06832,-0.128832,6.11625,3.115,1.75,26.992,-24.880001,39.640003,eccentric,8,5.0,18461.0,403431.0,226981.0,81790.0,9984.0
2026-04-09 22:41:02.017316,573094,3391904624,3391905506,-1.301984,-0.06832,-0.128832,-0.6825,3.77125,-0.175,26.992,-24.880001,39.640003,eccentric,8,5.0,18461.0,403431.0,226981.0,81790.0,9984.0
2026-04-09 22:41:02.019870,573095,3391913546,3391914189,-1.23952,-0.152256,-0.150304,-4.4275,3.45625,1.82,26.992,-24.880001,41.68,eccentric,8,5.0,18461.0,403431.0,226981.0,81790.0,9984.0
2026-04-09 22:41:02.044846,573105,3391928710,3391929287,-1.23952,-0.152256,-0.150304,-3.00125,3.3075,3.78,26.056002,-24.560001,41.68,eccentric,8,5.0,18430.0,403431.0,227929.0,82483.0,10292.0
2026-04-09 22:41:02.046431,573106,3391937898,3391940097,-1.241472,-0.042944,-0.10736,2.94875,3.1325,5.425,25.856,-24.632002,41.688004,eccentric,8,5.0,18430.0,403431.0,227929.0,82483.0,10292.0
2026-04-09 22:41:02.054760,573107,3391946884,3391948847,-1.241472,-0.042944,-0.10736,12.2675,2.66875,6.39625,25.856,-24.632002,41.688004,eccentric,8,5.0,18430.0,403431.0,227929.0,82483.0,10292.0
2026-04-09 22:41:02.082861,573108,3391961389,3391961716,-1.253184,0.007808,-0.052704,14.65625,3.29,5.7575,26.744001,-24.448002,40.800003,eccentric,8,5.0,18430.0,403431.0,227929.0,82483.0,10292.0
2026-04-09 22:41:02.087254,573109,3391970570,3391972471,-1.253184,0.007808,-0.052704,12.41625,4.2525,5.5825,26.744001,-24.448002,40.800003,eccentric,8,5.0,18430.0,403431.0,227929.0,82483.0,10292.0
2026-04-09 22:41:02.094591,573110,3391979511,3391981192,-1.196576,-0.066368,-0.099552,6.7725,4.27875,5.495,25.848001,-25.664001,40.792004,eccentric,8,5.0,18430.0,403431.0,227929.0,82483.0,10292.0
2026-04-09 22:41:02.128778,573111,3391988491,3391989915,-1.196576,-0.066368,-0.099552,3.9025,3.92875,5.36375,25.848001,-25.664001,40.792004,eccentric,8,5.0,18430.0,403431.0,227929.0,82483.0,10292.0
2026-04-09 22:41:02.131994,573112,3392002994,3392004865,-1.159488,-0.040992,-0.07808,5.64375,4.50625,6.0025,26.112001,-25.160002,41.800003,eccentric,8,5.0,18430.0,403431.0,227929.0,82483.0,10292.0
2026-04-09 22:41:02.134976,573113,3392011896,3392013553,-1.159488,-0.040992,-0.07808,8.58375,4.585,7.48125,26.112001,-25.160002,41.800003,eccentric,8,5.0,18430.0,403431.0,227929.0,82483.0,10292.0
2026-04-09 22:41:02.160669,573123,3392021064,3392022270,-1.139968,-0.01952,-0.08784,8.65375,4.1825,8.04125,25.848001,-25.536001,38.264,eccentric,8,5.0,18198.0,403431.0,231608.0,84978.0,11358.0
2026-04-09 22:41:02.162341,573124,3392035683,3392037219,-1.147776,-0.033184,-0.074176,4.48875,3.71875,8.1025,24.704,-25.816002,40.280003,eccentric,8,5.0,18198.0,403431.0,231608.0,84978.0,11358.0
2026-04-09 22:41:02.163917,573125,3392044667,3392045988,-1.147776,-0.033184,-0.074176,1.05875,3.91125,8.04125,24.704,-25.816002,40.280003,eccentric,8,5.0,18198.0,403431.0,231608.0,84978.0,11358.0
2026-04-09 22:41:02.168118,573126,3392053713,3392054740,-1.147776,-0.033184,-0.091744,2.96625,3.8325,7.86625,24.704,-25.816002,40.280003,eccentric,8,5.0,18198.0,403431.0,231608.0,84978.0,11358.0
2026-04-09 22:41:02.169697,573127,3392062719,3392063437,-1.15168,-0.033184,-0.091744,4.24375,3.15,8.42625,24.928001,-25.624,40.568,eccentric,8,5.0,18198.0,403431.0,231608.0,84978.0,11358.0
2026-04-09 22:41:02.200007,573128,3392077620,3392078378,-1.098976,-0.005856,-0.085888,5.915,2.33625,9.52875,24.984001,-25.272001,40.304,eccentric,8,5.0,18198.0,403431.0,231608.0,84978.0,11358.0
2026-04-09 22:41:02.204463,573129,3392086977,3392089132,-1.098976,-0.005856,-0.085888,7.76125,2.31,10.2375,24.984001,-25.272001,40.304,eccentric,8,5.0,18198.0,403431.0,231608.0,84978.0,11358.0
2026-04-09 22:41:02.207131,573130,3392095977,3392097832,-1.184864,-0.013664,-0.10736,7.13125,2.94,10.36,25.464,-26.264002,39.592003,eccentric,8,5.0,18198.0,403431.0,231608.0,84978.0,11358.0
2026-04-09 22:41:02.237908,573131,3392110496,3392112738,-1.184864,-0.013664,-0.10736,7.665,2.66875,10.6925,25.464,-26.264002,39.592003,eccentric,8,5.0,18198.0,403431.0,231608.0,84978.0,11358.0
2026-04-09 22:41:02.264897,573141,3392119722,3392121996,-1.157536,-0.001952,-0.0976,8.8025,1.44375,11.27875,25.312,-26.208002,40.488003,eccentric,8,5.0,18074.0,403431.0,233123.0,85961.0,11748.0
2026-04-09 22:41:02.266420,573142,3392128807,3392130761,-1.157536,-0.001952,-0.0976,10.36,0.77,11.62,25.312,-26.208002,40.488003,eccentric,8,5.0,18074.0,403431.0,233123.0,85961.0,11748.0
2026-04-09 22:41:02.270636,573143,3392137738,3392139456,-1.16144,0.035136,-0.042944,12.01375,0.44625,11.66375,24.184002,-26.208002,40.52,eccentric,8,5.0,18074.0,403431.0,233123.0,85961.0,11748.0
2026-04-09 22:41:02.272304,573144,3392152391,3392154366,-1.16144,0.035136,-0.042944,11.99625,0.9975,11.97,24.184002,-26.208002,40.52,eccentric,8,5.0,18074.0,403431.0,233123.0,85961.0,11748.0
2026-04-09 22:41:02.273824,573145,3392161481,3392163098,-1.22,-0.00976,-0.119072,9.59,0.8925,12.7225,24.288002,-26.352001,40.464,eccentric,8,5.0,18074.0,403431.0,233123.0,85961.0,11748.0
2026-04-09 22:41:02.278076,573146,3392170423,3392171812,-1.22,-0.00976,-0.119072,5.985,0.385,12.94125,24.288002,-26.352001,40.464,eccentric,8,5.0,18074.0,403431.0,233123.0,85961.0,11748.0
2026-04-09 22:41:02.306661,573147,3392184924,3392186740,-1.206336,0.005856,-0.089792,6.57125,-0.07,13.4225,23.712002,-26.864002,40.192,eccentric,8,5.0,18074.0,403431.0,233123.0,85961.0,11748.0
2026-04-09 22:41:02.310225,573148,3392193860,3392195434,-1.206336,0.005856,-0.089792,9.02125,0.28,13.7375,23.712002,-26.864002,40.192,eccentric,8,5.0,18074.0,403431.0,233123.0,85961.0,11748.0
2026-04-09 22:41:02.316923,573149,3392202784,3392204121,-1.225856,0.027328,-0.101504,9.61625,-0.02625,13.0725,23.560001,-26.624,39.960003,eccentric,8,5.0,18074.0,403431.0,233123.0,85961.0,11748.0
2026-04-09 22:41:02.319424,573150,3392211718,3392212827,-1.225856,0.027328,-0.101504,9.17,-0.2625,13.0025,23.560001,-26.624,39.960003,eccentric,8,5.0,18074.0,403431.0,233123.0,85961.0,11748.0
2026-04-09 22:41:02.348807,573161,3392226282,3392227852,-1.184864,0.021472,-0.113216,11.6375,-0.6125,13.78125,21.104,-26.832,41.688004,eccentric,8,5.0,18100.0,403431.0,233056.0,85878.0,11693.0
2026-04-09 22:41:02.351341,573162,3392235302,3392236560,-1.145824,0.037088,-0.105408,13.86875,-0.81375,13.877501,22.752,-26.856,40.608,eccentric,8,5.0,18100.0,403431.0,233056.0,85878.0,11693.0
2026-04-09 22:41:02.353818,573163,3392244224,3392245272,-1.145824,0.037088,-0.105408,16.1,-0.76125,13.5625,22.752,-26.856,40.608,eccentric,8,5.0,18100.0,403431.0,233056.0,85878.0,11693.0
2026-04-09 22:41:02.384116,573164,3392258752,3392260228,-1.159488,0.05856,-0.0976,15.4875,-0.6825,13.448751,22.616001,-27.176,40.600002,eccentric,8,5.0,18100.0,403431.0,233056.0,85878.0,11693.0
2026-04-09 22:41:02.387692,573165,3392267665,3392268913,-1.159488,0.05856,-0.0976,13.335,-0.7,12.97625,22.616001,-27.176,40.600002,eccentric,8,5.0,18100.0,403431.0,233056.0,85878.0,11693.0
2026-04-09 22:41:02.390159,573166,3392276532,3392277614,-1.130208,0.044896,-0.07808,10.56125,-0.86625,12.03125,22.056002,-27.064001,41.160004,eccentric,8,5.0,18100.0,403431.0,233056.0,85878.0,11693.0
2026-04-09 22:41:02.425680,573167,3392291017,3392292567,-1.130208,0.044896,-0.07808,9.835,-1.00625,10.92875,22.056002,-27.064001,41.160004,eccentric,8,5.0,18100.0,403431.0,233056.0,85878.0,11693.0
2026-04-09 22:41:02.428893,573168,3392300057,3392301257,-1.08336,0.0488,-0.10736,11.235,-1.365,11.1125,21.664001,-27.816002,40.24,eccentric,8,5.0,18100.0,403431.0,233056.0,85878.0,11693.0
2026-04-09 22:41:02.432233,573169,3392308967,3392309941,-1.08336,0.0488,-0.10736,13.16875,-1.8025,10.815,21.664001,-27.816002,40.24,eccentric,8,5.0,18100.0,403431.0,233056.0,85878.0,11693.0
2026-04-09 22:41:02.465134,573179,3392323976,3392325223,-1.089216,0.08784,-0.091744,14.0,-1.65375,8.42625,21.496,-27.744001,40.56,eccentric,8,5.0,17935.0,403431.0,235757.0,87668.0,12585.0
2026-04-09 22:41:02.467640,573180,3392332988,3392333958,-1.089216,0.08784,-0.091744,16.94,-1.04125,6.06375,21.496,-27.744001,40.56,eccentric,8,5.0,17935.0,403431.0,235757.0,87668.0,12585.0
2026-04-09 22:41:02.470065,573181,3392341932,3392342728,-1.098976,0.07808,-0.103456,20.58875,-2.37125,5.73125,21.176,-27.592001,41.344,eccentric,8,5.0,17935.0,403431.0,235757.0,87668.0,12585.0
2026-04-09 22:41:02.472812,573182,3392351346,3392353526,-1.098976,0.07808,-0.103456,16.54625,-2.37125,6.15125,21.176,-27.592001,41.344,eccentric,8,5.0,17935.0,403431.0,235757.0,87668.0,12585.0
2026-04-09 22:41:02.475087,573183,3392365872,3392366435,-1.061888,0.011712,-0.076128,7.65625,-1.26,6.48375,20.496,-27.672,41.632004,eccentric,8,5.0,17935.0,403431.0,235757.0,87668.0,12585.0
2026-04-09 22:41:02.480161,573184,3392375381,3392377262,-1.013088,0.062464,-0.064416,2.1175,-0.88375,6.9475,20.496,-27.408,40.4,eccentric,8,5.0,17935.0,403431.0,235757.0,87668.0,12585.0
2026-04-09 22:41:02.510261,573185,3392384306,3392385971,-1.013088,0.062464,-0.064416,3.75375,0.11375,6.335,20.104,-27.408,40.4,eccentric,8,5.0,17935.0,403431.0,235757.0,87668.0,12585.0
2026-04-09 22:41:02.513961,573186,3392393202,3392394670,-1.013088,0.062464,-0.064416,9.03875,0.35875,5.15375,20.104,-27.408,40.4,eccentric,8,5.0,17935.0,403431.0,235757.0,87668.0,12585.0
2026-04-09 22:41:02.516292,573187,3392407667,3392409566,-1.009184,0.115168,-0.08784,12.74,0.6475,4.62,20.488,-28.048002,40.24,eccentric,8,5.0,17935.0,403431.0,235757.0,87668.0,12585.0
2026-04-09 22:41:02.521436,573188,3392416608,3392418334,-0.99552,0.115168,-0.103456,13.4225,0.385,3.77125,19.304,-27.840002,41.536003,eccentric,8,5.0,17935.0,403431.0,235757.0,87668.0,12585.0
2026-04-09 22:41:02.561460,573198,3392425649,3392427133,-0.99552,0.115168,-0.103456,12.04,-0.34125,3.36,19.304,-27.840002,41.536003,eccentric,8,5.0,18022.0,403431.0,234025.0,86412.0,11983.0
2026-04-09 22:41:02.563739,573199,3392440203,3392442092,-0.958432,0.0488,-0.074176,7.6475,-0.37625,3.01875,19.472,-27.328001,41.456,eccentric,8,5.0,18022.0,403431.0,234025.0,86412.0,11983.0
2026-04-09 22:41:02.566330,573200,3392449117,3392450790,-0.958432,0.0488,-0.074176,0.23625,-0.035,1.96875,19.472,-27.328001,41.456,eccentric,8,5.0,18022.0,403431.0,234025.0,86412.0,11983.0
2026-04-09 22:41:02.568825,573201,3392458024,3392459495,-0.972096,0.076128,-0.042944,-3.01875,0.28,0.72625,19.776001,-27.824001,40.816,eccentric,8,5.0,18022.0,403431.0,234025.0,86412.0,11983.0
2026-04-09 22:41:02.599049,573202,3392472535,3392474467,-0.972096,0.076128,-0.042944,0.8575,0.44625,0.0875,19.776001,-27.824001,40.816,eccentric,8,5.0,18022.0,403431.0,234025.0,86412.0,11983.0
2026-04-09 22:41:02.602598,573203,3392481442,3392483183,-1.0248,0.103456,-0.103456,7.56,0.0525,-1.05,20.016,-28.184002,41.320004,eccentric,8,5.0,18022.0,403431.0,234025.0,86412.0,11983.0
2026-04-09 22:41:02.605075,573204,3392490353,3392491899,-1.0248,0.103456,-0.103456,11.73375,-1.225,-1.785,20.016,-28.184002,41.320004,eccentric,8,5.0,18022.0,403431.0,234025.0,86412.0,11983.0
2026-04-09 22:41:02.607634,573205,3392499270,3392500583,-0.954528,0.099552,-0.091744,13.1075,-1.925,-2.49375,19.432001,-28.04,40.688004,eccentric,8,5.0,18022.0,403431.0,234025.0,86412.0,11983.0
2026-04-09 22:41:02.638711,573206,3392513756,3392515520,-0.954528,0.099552,-0.091744,14.14,-1.4175,-4.2,19.432001,-28.04,40.688004,eccentric,8,5.0,18022.0,403431.0,234025.0,86412.0,11983.0
2026-04-09 22:41:02.670059,573217,3392522905,3392524313,-0.960384,0.105408,-0.064416,14.55125,-1.05,-5.425,19.216002,-27.464,41.2,eccentric,8,5.0,17960.0,403431.0,233580.0,85942.0,11697.0
2026-04-09 22:41:02.672522,573218,3392531924,3392533065,-0.960384,0.105408,-0.064416,12.1975,-0.56875,-5.04,19.216002,-27.464,41.2,eccentric,8,5.0,17960.0,403431.0,233580.0,85942.0,11697.0
2026-04-09 22:41:02.675014,573219,3392546432,3392548100,-0.983808,0.064416,-0.044896,6.48375,0.67375,-3.8675,19.608002,-27.560001,40.376003,eccentric,8,5.0,17960.0,403431.0,233580.0,85942.0,11697.0
2026-04-09 22:41:02.677581,573220,3392555345,3392556845,-0.983808,0.064416,-0.064416,1.9425,1.86375,-4.3925,19.608002,-27.560001,40.376003,eccentric,8,5.0,17960.0,403431.0,233580.0,85942.0,11697.0
2026-04-09 22:41:02.680063,573221,3392564351,3392565554,-1.007232,0.06832,-0.064416,3.68375,2.72125,-4.50625,19.296001,-27.648,40.208,eccentric,8,5.0,17960.0,403431.0,233580.0,85942.0,11697.0
2026-04-09 22:41:02.685062,573222,3392578859,3392580506,-0.954528,0.095648,-0.08784,8.68,2.05625,-3.815,19.616001,-27.760002,40.544003,eccentric,8,5.0,17960.0,403431.0,233580.0,85942.0,11697.0
2026-04-09 22:41:02.694445,573223,3392587849,3392589278,-0.954528,0.095648,-0.08784,10.9725,1.14625,-2.695,19.616001,-27.760002,40.544003,eccentric,8,5.0,17960.0,403431.0,233580.0,85942.0,11697.0
2026-04-09 22:41:02.728989,573224,3392596812,3392597990,-0.929152,0.103456,-0.03904,11.90875,1.33,-2.84375,18.472,-28.016,41.912003,eccentric,8,5.0,17960.0,403431.0,233580.0,85942.0,11697.0
2026-04-09 22:41:02.732616,573225,3392605810,3392606709,-0.929152,0.103456,-0.03904,10.8675,1.82875,-3.535,18.472,-28.016,41.912003,eccentric,8,5.0,17960.0,403431.0,233580.0,85942.0,11697.0
2026-04-09 22:41:02.735102,573226,3392620294,3392621606,-0.991616,0.103456,-0.044896,8.61875,2.02125,-3.885,18.944,-27.832,40.368,eccentric,8,5.0,17960.0,403431.0,233580.0,85942.0,11697.0
2026-04-09 22:41:02.762687,573236,3392629343,3392630336,-0.991616,0.103456,-0.044896,6.125,2.16125,-4.90875,18.944,-27.832,40.368,eccentric,8,5.0,17909.0,403431.0,233452.0,85788.0,11619.0
2026-04-09 22:41:02.768890,573237,3392638408,3392639086,-0.96624,0.076128,-0.066368,5.845,1.47,-4.61125,19.384,-27.448002,40.568,eccentric,8,5.0,17909.0,403431.0,233452.0,85788.0,11619.0
2026-04-09 22:41:02.771492,573238,3392653416,3392654060,-0.96624,0.076128,-0.066368,4.57625,0.37625,-2.10875,19.384,-27.448002,40.568,eccentric,8,5.0,17909.0,403431.0,233452.0,85788.0,11619.0
2026-04-09 22:41:02.774810,573239,3392662689,3392664822,-0.935008,0.072224,-0.046848,3.66625,0.14,-1.5925,18.28,-27.28,40.704002,eccentric,8,5.0,17909.0,403431.0,233452.0,85788.0,11619.0
2026-04-09 22:41:02.777401,573240,3392671649,3392673542,-0.935008,0.072224,-0.046848,3.465,0.21,-1.3475,18.28,-27.28,40.704002,eccentric,8,5.0,17909.0,403431.0,233452.0,85788.0,11619.0
2026-04-09 22:41:02.814004,573241,3392680580,3392682252,-0.960384,0.05856,-0.037088,3.9025,0.20125,-0.77875,17.536001,-27.664001,41.36,eccentric,8,5.0,17909.0,403431.0,233452.0,85788.0,11619.0
2026-04-09 22:41:02.817551,573242,3392695056,3392697132,-0.960384,0.05856,-0.037088,3.5525,0.5775,-0.39375,17.536001,-27.664001,41.36,eccentric,8,5.0,17909.0,403431.0,233452.0,85788.0,11619.0
2026-04-09 22:41:02.820096,573243,3392703986,3392705844,-0.979904,0.046848,-0.042944,4.13875,-0.3675,0.65625,18.016,-27.848001,42.2,eccentric,8,5.0,17909.0,403431.0,233452.0,85788.0,11619.0
2026-04-09 22:41:02.822621,573244,3392712917,3392714512,-0.979904,0.046848,-0.042944,6.965,-2.17875,2.52875,18.016,-27.848001,42.2,eccentric,8,5.0,17909.0,403431.0,233452.0,85788.0,11619.0
2026-04-09 22:41:02.850031,573254,3392727575,3392729513,-0.938912,0.081984,-0.044896,9.28375,-2.91375,3.87625,17.400002,-27.880001,41.640003,eccentric,8,5.0,17858.0,403431.0,234492.0,86438.0,11958.0
2026-04-09 22:41:02.852582,573255,3392736620,3392738223,-0.944768,0.10736,-0.007808,9.2225,-2.12625,3.73625,17.400002,-27.880001,41.352,eccentric,8,5.0,17858.0,403431.0,234492.0,86438.0,11958.0
2026-04-09 22:41:02.855345,573256,3392745597,3392746914,-0.944768,0.10736,-0.007808,7.63875,-1.19,2.7475,17.568,-27.616001,41.352,eccentric,8,5.0,17858.0,403431.0,234492.0,86438.0,11958.0
2026-04-09 22:41:02.886098,573257,3392760129,3392761830,-0.983808,0.085888,-0.021472,5.635,-0.875,1.88125,16.944,-28.048002,41.68,eccentric,8,5.0,17858.0,403431.0,234492.0,86438.0,11958.0
2026-04-09 22:41:02.888888,573258,3392769050,3392770537,-0.983808,0.085888,-0.021472,4.725,-0.88375,0.70875,16.944,-28.048002,41.68,eccentric,8,5.0,17858.0,403431.0,234492.0,86438.0,11958.0
2026-04-09 22:41:02.891272,573259,3392777955,3392779220,-0.938912,0.072224,-0.083936,6.65875,-2.0475,-0.735,17.960001,-27.480001,40.160004,eccentric,8,5.0,17858.0,403431.0,234492.0,86438.0,11958.0
2026-04-09 22:41:02.893892,573260,3392786875,3392787942,-0.938912,0.072224,-0.083936,13.3875,-3.465,-1.28625,17.960001,-27.480001,40.160004,eccentric,8,5.0,17858.0,403431.0,234492.0,86438.0,11958.0
2026-04-09 22:41:02.925159,573261,3392801407,3392802916,-0.921344,0.101504,0.003904,22.0325,-3.1325,-1.86375,17.736,-27.848001,40.600002,eccentric,8,5.0,17858.0,403431.0,234492.0,86438.0,11958.0
2026-04-09 22:41:02.927623,573262,3392810322,3392811623,-0.921344,0.101504,0.003904,22.575,-1.9425,-1.1725,17.736,-27.848001,40.600002,eccentric,8,5.0,17858.0,403431.0,234492.0,86438.0,11958.0
2026-04-09 22:41:02.931173,573263,3392819268,3392820350,-0.942816,0.099552,0.01952,12.88875,-1.14625,-0.245,17.976002,-27.576002,40.464,eccentric,8,5.0,17858.0,403431.0,234492.0,86438.0,11958.0
2026-04-09 22:41:02.957552,573274,3392833825,3392835316,-0.942816,0.099552,0.01952,2.87875,-0.1575,-0.8575,17.976002,-27.576002,40.464,eccentric,8,5.0,17784.0,403431.0,235458.0,87079.0,12227.0
2026-04-09 22:41:02.960207,573275,3392842792,3392844070,-0.944768,0.062464,-0.050752,-2.17875,-0.4725,-1.21625,16.52,-27.488,42.728,eccentric,8,5.0,17784.0,403431.0,235458.0,87079.0,12227.0
2026-04-09 22:41:02.962606,573276,3392851852,3392852853,-0.944768,0.062464,-0.050752,-1.49625,-0.8575,-0.3675,16.52,-27.488,42.728,eccentric,8,5.0,17784.0,403431.0,235458.0,87079.0,12227.0
2026-04-09 22:41:03.024159,573277,3392866417,3392867779,-0.940864,0.074176,-0.050752,2.3625,-0.51625,0.9275,15.952001,-27.936,42.496002,eccentric,8,5.0,17784.0,403431.0,235458.0,87079.0,12227.0
2026-04-09 22:41:03.027667,573278,3392875336,3392876509,-0.940864,0.074176,-0.050752,5.285,-0.0175,1.645,15.952001,-27.936,42.496002,eccentric,8,5.0,17784.0,403431.0,235458.0,87079.0,12227.0
2026-04-09 22:41:03.030129,573279,3392884269,3392885192,-0.90768,0.130784,0.040992,6.18625,0.28,1.18125,17.256,-27.936,39.808002,eccentric,8,5.0,17784.0,403431.0,235458.0,87079.0,12227.0
2026-04-09 22:41:03.032648,573280,3392898767,3392900154,-0.979904,0.105408,0.0,3.98125,1.54,-0.34125,17.264,-28.104002,40.848003,eccentric,8,5.0,17784.0,403431.0,235458.0,87079.0,12227.0
2026-04-09 22:41:03.035104,573281,3392907670,3392908846,-0.979904,0.105408,0.0,-1.02375,2.9575,-2.58125,17.264,-28.104002,40.848003,eccentric,8,5.0,17784.0,403431.0,235458.0,87079.0,12227.0
2026-04-09 22:41:03.037590,573282,3392916605,3392917529,-0.979904,0.105408,0.0,-5.6175,3.255,-3.96375,17.264,-28.104002,40.848003,eccentric,8,5.0,17784.0,403431.0,235458.0,87079.0,12227.0
2026-04-09 22:41:03.068900,573292,3392926073,3392926402,-1.018944,0.076128,-0.0488,-4.50625,2.82625,-4.6025,17.664001,-27.832,42.368004,eccentric,8,5.0,17936.0,403431.0,233290.0,85738.0,11569.0
2026-04-09 22:41:03.071371,573293,3392940881,3392941416,-0.95648,0.0976,-0.027328,1.0325,1.9425,-4.33125,16.632,-27.552002,41.728,eccentric,8,5.0,17936.0,403431.0,233290.0,85738.0,11569.0
2026-04-09 22:41:03.073839,573294,3392950426,3392952185,-0.95648,0.0976,-0.027328,4.06875,1.225,-4.41,16.632,-27.552002,41.728,eccentric,8,5.0,17936.0,403431.0,233290.0,85738.0,11569.0
2026-04-09 22:41:03.076465,573295,3392959373,3392960932,-0.968192,0.093696,0.00976,3.94625,2.065,-5.355,17.768002,-27.52,40.608,eccentric,8,5.0,17936.0,403431.0,233290.0,85738.0,11569.0
2026-04-09 22:41:03.078803,573296,3392968301,3392969637,-0.968192,0.093696,0.00976,-0.2975,3.85,-7.53375,17.768002,-27.52,40.608,eccentric,8,5.0,17936.0,403431.0,233290.0,85738.0,11569.0
2026-04-09 22:41:03.109121,573297,3392982820,3392984588,-1.052128,0.080032,-0.031232,-3.0625,5.915,-9.63375,17.320002,-28.128002,40.968002,eccentric,8,5.0,17936.0,403431.0,233290.0,85738.0,11569.0
2026-04-09 22:41:03.112684,573298,3392991785,3392993308,-1.052128,0.080032,-0.031232,-1.2775,6.20375,-9.94,17.320002,-28.128002,40.968002,eccentric,8,5.0,17936.0,403431.0,233290.0,85738.0,11569.0
2026-04-09 22:41:03.115112,573299,3393000737,3393001998,-1.011136,0.08784,-0.083936,1.84625,3.92,-9.1875,17.400002,-28.288002,40.312,eccentric,8,5.0,17936.0,403431.0,233290.0,85738.0,11569.0
2026-04-09 22:41:03.121481,573300,3393015203,3393016928,-1.011136,0.08784,-0.083936,6.50125,2.45875,-8.82,17.400002,-28.288002,40.312,eccentric,8,5.0,17936.0,403431.0,233290.0,85738.0,11569.0
2026-04-09 22:41:03.179921,573310,3393024634,3393025849,-0.997472,0.122976,-0.02928,8.49625,2.19625,-9.23125,16.792002,-27.976002,41.728,eccentric,8,5.0,17841.0,403431.0,235284.0,87095.0,12242.0
2026-04-09 22:41:03.181424,573311,3393033601,3393034717,-0.997472,0.122976,-0.02928,7.315,3.4125,-9.66875,16.792002,-27.976002,41.728,eccentric,8,5.0,17841.0,403431.0,235284.0,87095.0,12242.0
2026-04-09 22:41:03.183852,573312,3393042528,3393043389,-1.050176,0.101504,0.001952,1.95125,4.7425,-10.36,17.408,-28.152,40.480003,eccentric,8,5.0,17841.0,403431.0,235284.0,87095.0,12242.0
2026-04-09 22:41:03.186411,573313,3393056992,3393058277,-1.050176,0.101504,0.001952,-3.19375,5.4425,-10.89375,17.408,-28.152,40.480003,eccentric,8,5.0,17841.0,403431.0,235284.0,87095.0,12242.0
2026-04-09 22:41:03.188779,573314,3393065929,3393067013,-1.067744,0.0488,-0.0488,-6.5625,5.85375,-9.9575,16.856,-27.952002,40.328003,eccentric,8,5.0,17841.0,403431.0,235284.0,87095.0,12242.0
2026-04-09 22:41:03.191549,573315,3393074897,3393075777,-1.067744,0.0488,-0.0488,-5.5475,5.83625,-9.0125,16.856,-27.952002,40.328003,eccentric,8,5.0,17841.0,403431.0,235284.0,87095.0,12242.0
2026-04-09 22:41:03.193847,573316,3393089581,3393090758,-1.022848,0.070272,-0.066368,-0.8575,6.335,-9.1,17.08,-27.680002,41.68,eccentric,8,5.0,17841.0,403431.0,235284.0,87095.0,12242.0
2026-04-09 22:41:03.204054,573317,3393098527,3393099453,-1.046272,0.111264,-0.056608,3.1325,7.0175,-9.5725,17.696001,-27.680002,40.264004,eccentric,8,5.0,17841.0,403431.0,235284.0,87095.0,12242.0
2026-04-09 22:41:03.234138,573318,3393107432,3393108135,-1.046272,0.111264,-0.056608,5.2325,8.00625,-9.8875,17.696001,-27.680002,40.264004,eccentric,8,5.0,17841.0,403431.0,235284.0,87095.0,12242.0
2026-04-09 22:41:03.237656,573319,3393122314,3393123090,-1.04432,0.091744,-0.062464,3.40375,8.58375,-10.40375,17.816,-27.376001,40.504,eccentric,8,5.0,17841.0,403431.0,235284.0,87095.0,12242.0
2026-04-09 22:41:03.280086,573330,3393131996,3393133913,-1.04432,0.091744,-0.062464,0.97125,7.51625,-10.70125,17.816,-27.376001,40.504,eccentric,8,5.0,17809.0,403431.0,236132.0,87679.0,12526.0
2026-04-09 22:41:03.282628,573331,3393140952,3393142636,-1.01504,0.054656,-0.064416,0.83125,6.46625,-10.8325,17.984001,-27.768002,40.632004,eccentric,8,5.0,17809.0,403431.0,236132.0,87679.0,12526.0
2026-04-09 22:41:03.285143,573332,3393149964,3393151343,-1.01504,0.054656,-0.064416,1.785,5.66125,-10.386251,17.984001,-27.768002,40.632004,eccentric,8,5.0,17809.0,403431.0,236132.0,87679.0,12526.0
2026-04-09 22:41:03.287620,573333,3393164469,3393166262,-1.030656,0.06832,-0.056608,3.2375,5.18,-9.38,17.664001,-27.816002,40.760002,eccentric,8,5.0,17809.0,403431.0,236132.0,87679.0,12526.0
2026-04-09 22:41:03.330374,573334,3393173420,3393175035,-1.030656,0.06832,-0.056608,4.80375,5.20625,-9.45,17.664001,-27.816002,40.760002,concentric,8,5.0,17809.0,403431.0,236132.0,87679.0,12526.0
2026-04-09 22:41:03.338526,573335,3393182433,3393183752,-1.052128,0.093696,-0.056608,6.02,4.9875,-9.8875,17.872002,-28.160002,40.408,concentric,8,5.0,17809.0,403431.0,236132.0,87679.0,12526.0
2026-04-09 22:41:03.340408,573336,3393196940,3393198724,-1.052128,0.093696,-0.056608,9.00375,4.13,-9.975,17.872002,-28.160002,40.408,concentric,8,5.0,17809.0,403431.0,236132.0,87679.0,12526.0
2026-04-09 22:41:03.342817,573337,3393205909,3393207429,-1.03456,0.072224,-0.07808,10.66625,2.6775,-9.292501,15.496,-27.848001,44.280003,concentric,8,5.0,17809.0,403431.0,236132.0,87679.0,12526.0
2026-04-09 22:41:03.345223,573338,3393214832,3393216118,-1.03456,0.072224,-0.07808,11.165,1.40875,-9.28375,15.496,-27.848001,44.280003,concentric,8,5.0,17809.0,403431.0,236132.0,87679.0,12526.0
2026-04-09 22:41:03.347579,573339,3393223753,3393224843,-1.038464,0.085888,-0.080032,13.3525,1.3825,-9.38875,17.768002,-27.560001,40.232002,concentric,8,5.0,17809.0,403431.0,236132.0,87679.0,12526.0
2026-04-09 22:41:03.388886,573349,3393238253,3393239853,-1.038464,0.085888,-0.044896,15.33875,2.33625,-9.345,17.768002,-27.560001,40.232002,concentric,8,5.0,17780.0,403431.0,236399.0,87869.0,12644.0
2026-04-09 22:41:03.391398,573350,3393247203,3393248612,-1.046272,0.085888,-0.044896,12.73125,2.65125,-9.625,17.696001,-27.272001,40.536003,concentric,8,5.0,17780.0,403431.0,236399.0,87869.0,12644.0
2026-04-09 22:41:03.393932,573351,3393256122,3393257338,-1.046272,0.085888,-0.044896,10.42125,3.56125,-10.5175,17.696001,-27.272001,40.536003,concentric,8,5.0,17780.0,403431.0,236399.0,87869.0,12644.0
2026-04-09 22:41:03.396345,573352,3393270673,3393272345,-1.048224,0.093696,-0.02928,10.2375,4.76875,-10.815,18.464,-28.152,40.088,concentric,8,5.0,17780.0,403431.0,236399.0,87869.0,12644.0
2026-04-09 22:41:03.398904,573353,3393279569,3393281063,-1.032608,0.05856,-0.050752,8.5575,5.64375,-10.28125,18.160002,-27.808,40.4,concentric,8,5.0,17780.0,403431.0,236399.0,87869.0,12644.0
2026-04-09 22:41:03.401402,573354,3393288520,3393289793,-1.032608,0.05856,-0.050752,5.5125,5.95875,-9.8175,18.160002,-27.808,40.4,concentric,8,5.0,17780.0,403431.0,236399.0,87869.0,12644.0
2026-04-09 22:41:03.431701,573355,3393303011,3393304737,-1.011136,0.05856,-0.050752,4.0775,5.81,-9.511251,17.472,-28.272001,41.176003,concentric,8,5.0,17780.0,403431.0,236399.0,87869.0,12644.0
2026-04-09 22:41:03.435222,573356,3393311948,3393313402,-1.011136,0.05856,-0.050752,6.37,6.545,-9.905,17.472,-28.272001,41.176003,concentric,8,5.0,17780.0,403431.0,236399.0,87869.0,12644.0
2026-04-09 22:41:03.437674,573357,3393320861,3393322170,-1.016992,0.124928,-0.062464,9.24,7.175,-10.45625,17.512001,-27.384,40.944,concentric,8,5.0,17780.0,403431.0,236399.0,87869.0,12644.0
2026-04-09 22:41:03.465074,573367,3393335375,3393337180,-1.016992,0.124928,-0.062464,13.405,6.76375,-11.9875,17.512001,-27.384,40.944,concentric,8,5.0,17804.0,403431.0,236809.0,88225.0,12790.0
2026-04-09 22:41:03.467620,573368,3393344281,3393345908,-1.026752,0.095648,-0.0976,15.5225,6.2825,-13.65,18.016,-28.056002,40.488003,concentric,8,5.0,17804.0,403431.0,236809.0,88225.0,12790.0
2026-04-09 22:41:03.470194,573369,3393353199,3393354647,-1.026752,0.095648,-0.0976,13.9475,5.66125,-14.752501,18.016,-28.056002,40.488003,concentric,8,5.0,17804.0,403431.0,236809.0,88225.0,12790.0
2026-04-09 22:41:03.476417,573370,3393362141,3393363408,-1.0248,0.035136,-0.066368,12.17125,4.725,-14.83125,18.376001,-27.496002,40.704002,concentric,8,5.0,17804.0,403431.0,236809.0,88225.0,12790.0
2026-04-09 22:41:03.482729,573371,3393376615,3393378366,-1.0248,0.035136,-0.066368,13.43125,3.465,-14.21,18.376001,-27.496002,40.704002,concentric,8,5.0,17804.0,403431.0,236809.0,88225.0,12790.0
2026-04-09 22:41:03.512868,573372,3393385528,3393387061,-0.981856,0.060512,-0.03904,15.5575,3.00125,-13.39625,17.608002,-27.688002,41.024002,concentric,8,5.0,17804.0,403431.0,236809.0,88225.0,12790.0
2026-04-09 22:41:03.516389,573373,3393394480,3393395779,-0.981856,0.060512,-0.03904,14.980001,3.64,-12.46875,17.608002,-27.688002,41.024002,concentric,8,5.0,17804.0,403431.0,236809.0,88225.0,12790.0
2026-04-09 22:41:03.518882,573374,3393408926,3393410701,-1.036512,0.064416,-0.050752,12.53875,4.76875,-11.90875,17.552,-27.008001,42.184002,concentric,8,5.0,17804.0,403431.0,236809.0,88225.0,12790.0
2026-04-09 22:41:03.523906,573375,3393417857,3393419396,-1.036512,0.064416,-0.050752,11.095,5.22375,-11.24375,17.552,-27.008001,42.184002,concentric,8,5.0,17804.0,403431.0,236809.0,88225.0,12790.0
2026-04-09 22:41:03.580203,573386,3393426973,3393428134,-1.026752,0.074176,-0.06832,10.395,4.90875,-11.3925,17.664001,-27.712002,39.912003,concentric,8,5.0,17705.0,403431.0,238649.0,89492.0,13480.0
2026-04-09 22:41:03.582614,573387,3393441509,3393443138,-1.007232,0.105408,-0.046848,11.71625,4.3225,-11.38375,16.904001,-27.864002,40.808002,concentric,8,5.0,17705.0,403431.0,238649.0,89492.0,13480.0
2026-04-09 22:41:03.585146,573388,3393450408,3393451819,-1.007232,0.105408,-0.046848,14.44625,3.91125,-11.96125,16.904001,-27.864002,40.808002,concentric,8,5.0,17705.0,403431.0,238649.0,89492.0,13480.0
2026-04-09 22:41:03.587718,573389,3393459313,3393460519,-1.026752,0.089792,-0.040992,14.91,3.59625,-12.6525,16.904001,-27.864002,41.656002,concentric,8,5.0,17705.0,403431.0,238649.0,89492.0,13480.0
2026-04-09 22:41:03.590046,573390,3393473828,3393475457,-1.026752,0.089792,-0.040992,13.08125,2.8875,-13.60625,18.432001,-27.400002,41.656002,concentric,8,5.0,17705.0,403431.0,238649.0,89492.0,13480.0
2026-04-09 22:41:03.592716,573391,3393482792,3393484176,-1.013088,0.064416,-0.050752,11.9525,2.91375,-14.5775,18.800001,-27.984001,41.288002,concentric,8,5.0,17705.0,403431.0,238649.0,89492.0,13480.0
2026-04-09 22:41:03.630356,573392,3393491861,3393492920,-1.013088,0.064416,-0.050752,12.34625,2.70375,-15.575,18.800001,-27.984001,41.288002,concentric,8,5.0,17705.0,403431.0,238649.0,89492.0,13480.0
2026-04-09 22:41:03.633838,573393,3393500794,3393501622,-1.038464,0.040992,-0.070272,12.83625,3.35125,-16.3275,19.28,-27.928001,39.104,concentric,8,5.0,17705.0,403431.0,238649.0,89492.0,13480.0
2026-04-09 22:41:03.636476,573394,3393515276,3393516512,-1.038464,0.040992,-0.070272,12.34625,3.92,-16.2925,19.28,-27.928001,39.104,concentric,8,5.0,17705.0,403431.0,238649.0,89492.0,13480.0
2026-04-09 22:41:03.638857,573395,3393524174,3393525229,-1.013088,0.062464,-0.050752,14.455,3.325,-15.26875,18.992,-27.240002,40.328003,concentric,8,5.0,17705.0,403431.0,238649.0,89492.0,13480.0
2026-04-09 22:41:03.663924,573405,3393533234,3393533965,-1.013088,0.062464,-0.050752,16.51125,2.82625,-14.63,18.992,-27.240002,40.328003,concentric,8,5.0,17566.0,403431.0,240728.0,90858.0,14162.0
2026-04-09 22:41:03.666353,573406,3393548135,3393548905,-1.00528,0.06832,0.0,15.995,2.26625,-13.46625,18.584002,-27.736002,40.168003,concentric,8,5.0,17566.0,403431.0,240728.0,90858.0,14162.0
2026-04-09 22:41:03.668864,573407,3393557519,3393559756,-1.00528,0.06832,0.0,13.4575,2.2575,-11.78625,18.584002,-27.736002,40.168003,concentric,8,5.0,17566.0,403431.0,240728.0,90858.0,14162.0
2026-04-09 22:41:03.672672,573408,3393566446,3393568469,-1.056032,0.054656,-0.060512,10.21125,2.73,-11.06875,18.84,-27.736002,40.456,concentric,8,5.0,17566.0,403431.0,240728.0,90858.0,14162.0
2026-04-09 22:41:03.702783,573409,3393575397,3393577181,-1.056032,0.054656,-0.060512,6.16,1.9775,-11.05125,18.84,-27.736002,40.456,concentric,8,5.0,17566.0,403431.0,240728.0,90858.0,14162.0
2026-04-09 22:41:03.706405,573410,3393589963,3393592069,-0.968192,0.042944,-0.080032,5.6175,1.30375,-10.6575,18.872002,-27.536001,40.104,concentric,8,5.0,17566.0,403431.0,240728.0,90858.0,14162.0
2026-04-09 22:41:03.708867,573411,3393598868,3393600788,-0.968192,0.042944,-0.080032,8.05875,2.0825,-10.77125,18.872002,-27.536001,40.104,concentric,8,5.0,17566.0,403431.0,240728.0,90858.0,14162.0
2026-04-09 22:41:03.713899,573412,3393607785,3393609507,-0.96624,0.060512,-0.013664,9.65125,2.73875,-11.20875,18.12,-27.416,42.544003,concentric,8,5.0,17566.0,403431.0,240728.0,90858.0,14162.0
2026-04-09 22:41:03.744140,573413,3393622372,3393624433,-1.018944,0.056608,-0.00976,8.4,2.66875,-10.36875,18.624,-27.832,38.992,concentric,8,5.0,17566.0,403431.0,240728.0,90858.0,14162.0
2026-04-09 22:41:03.773914,573423,3393631477,3393633234,-1.018944,0.056608,-0.00976,6.02,2.1175,-10.22875,18.624,-27.832,38.992,concentric,8,5.0,17534.0,403431.0,240355.0,90561.0,13948.0
2026-04-09 22:41:03.776425,573424,3393640453,3393641961,-0.979904,0.0488,-0.06832,3.7975,0.91875,-9.2575,17.808,-27.704,40.992,concentric,8,5.0,17534.0,403431.0,240355.0,90561.0,13948.0
2026-04-09 22:41:03.778856,573425,3393655023,3393656916,-0.979904,0.0488,-0.06832,4.7075,-0.525,-8.58375,17.808,-27.704,40.992,concentric,8,5.0,17534.0,403431.0,240355.0,90561.0,13948.0
2026-04-09 22:41:03.781446,573426,3393663960,3393665668,-0.993568,0.105408,-0.023424,8.88125,-0.0875,-10.386251,20.088001,-27.824001,39.264004,concentric,8,5.0,17534.0,403431.0,240355.0,90561.0,13948.0
2026-04-09 22:41:03.783991,573427,3393672946,3393674443,-0.993568,0.105408,-0.023424,12.67,0.14875,-12.39875,20.088001,-27.824001,39.264004,concentric,8,5.0,17534.0,403431.0,240355.0,90561.0,13948.0
2026-04-09 22:41:03.787689,573428,3393681881,3393683159,-1.028704,0.050752,-0.056608,12.48625,-0.77875,-13.5975,19.952002,-27.320002,38.936,concentric,8,5.0,17534.0,403431.0,240355.0,90561.0,13948.0
2026-04-09 22:41:03.824988,573429,3393696482,3393698146,-1.028704,0.050752,-0.056608,8.70625,-1.35625,-14.28,19.952002,-27.320002,38.936,concentric,8,5.0,17534.0,403431.0,240355.0,90561.0,13948.0
2026-04-09 22:41:03.825066,573430,3393705383,3393706876,-1.00528,-0.025376,-0.062464,5.43375,-1.89875,-13.18625,20.328001,-27.936,37.672,concentric,8,5.0,17534.0,403431.0,240355.0,90561.0,13948.0
2026-04-09 22:41:03.825257,573431,3393714373,3393715601,-1.00528,-0.025376,-0.062464,5.29375,-2.96625,-10.80625,20.328001,-27.936,37.672,concentric,8,5.0,17534.0,403431.0,240355.0,90561.0,13948.0
2026-04-09 22:41:03.886416,573442,3393729286,3393730856,-1.003328,0.033184,-0.076128,9.24,-4.3225,-8.7325,20.480001,-27.752,38.68,concentric,8,5.0,17662.0,403431.0,238509.0,89317.0,13344.0
2026-04-09 22:41:03.888957,573443,3393738238,3393739631,-1.003328,0.033184,-0.076128,11.59375,-4.8825,-6.8075,20.480001,-27.752,38.68,concentric,8,5.0,17662.0,403431.0,238509.0,89317.0,13344.0
2026-04-09 22:41:03.891423,573444,3393747182,3393748337,-1.036512,0.109312,-0.027328,8.8025,-4.27,-6.51,20.528002,-28.112001,37.920002,concentric,8,5.0,17662.0,403431.0,238509.0,89317.0,13344.0
2026-04-09 22:41:03.893952,573445,3393761732,3393763393,-1.057984,0.046848,-0.054656,5.2675,-3.98125,-7.98,20.880001,-27.976002,37.936,concentric,8,5.0,17662.0,403431.0,238509.0,89317.0,13344.0
2026-04-09 22:41:03.927871,573446,3393770695,3393772150,-1.057984,0.046848,-0.054656,3.71,-4.61125,-9.275,20.880001,-27.976002,37.936,concentric,8,5.0,17662.0,403431.0,238509.0,89317.0,13344.0
2026-04-09 22:41:03.931444,573447,3393779640,3393780919,-1.057984,0.046848,-0.054656,4.5675,-5.6525,-9.17875,20.880001,-27.976002,37.936,concentric,8,5.0,17662.0,403431.0,238509.0,89317.0,13344.0
2026-04-09 22:41:03.933906,573448,3393788678,3393789609,-1.026752,-0.003904,-0.06832,7.0175,-5.87125,-8.51375,20.416,-28.048002,39.08,concentric,8,5.0,17662.0,403431.0,238509.0,89317.0,13344.0
2026-04-09 22:41:03.936430,573449,3393803184,3393804524,-1.020896,0.05856,-0.037088,9.30125,-5.425,-8.26875,20.608002,-27.896002,37.928,concentric,8,5.0,17662.0,403431.0,238509.0,89317.0,13344.0
2026-04-09 22:41:03.938888,573450,3393812134,3393813254,-1.020896,0.05856,-0.037088,9.695,-4.43625,-7.28,20.608002,-27.896002,37.928,concentric,8,5.0,17662.0,403431.0,238509.0,89317.0,13344.0
2026-04-09 22:41:03.941407,573451,3393821058,3393821927,-1.065792,0.03904,-0.076128,4.97875,-3.99,-6.74625,21.248001,-27.792002,38.384003,concentric,8,5.0,17662.0,403431.0,238509.0,89317.0,13344.0
2026-04-09 22:41:03.966409,573461,3393835605,3393836839,-1.065792,0.03904,-0.076128,-3.4825,-3.7975,-6.34375,21.248001,-27.792002,38.384003,concentric,8,5.0,17706.0,403431.0,237426.0,88574.0,12947.0
2026-04-09 22:41:03.968958,573462,3393844637,3393845665,-1.052128,0.0,-0.081984,-8.6275,-3.465,-6.08125,19.824001,-28.104002,40.032,concentric,8,5.0,17706.0,403431.0,237426.0,88574.0,12947.0
2026-04-09 22:41:03.971935,573463,3393853715,3393854429,-1.052128,0.0,-0.081984,-2.49375,-4.585,-4.97875,19.824001,-28.104002,40.032,concentric,8,5.0,17706.0,403431.0,237426.0,88574.0,12947.0
2026-04-09 22:41:03.973941,573464,3393863045,3393865249,-1.030656,0.0488,-0.031232,6.95625,-6.4225,-5.4425,19.416,-28.256,39.576,concentric,8,5.0,17706.0,403431.0,237426.0,88574.0,12947.0
2026-04-09 22:41:04.004390,573465,3393877542,3393878135,-1.030656,0.0488,-0.031232,12.15375,-5.87125,-5.5825,19.416,-28.256,39.576,concentric,8,5.0,17706.0,403431.0,237426.0,88574.0,12947.0
2026-04-09 22:41:04.007951,573466,3393886846,3393888898,-1.038464,0.062464,0.025376,10.745,-6.18625,-4.15625,20.712002,-28.504002,38.056004,concentric,8,5.0,17706.0,403431.0,237426.0,88574.0,12947.0
2026-04-09 22:41:04.010175,573467,3393895752,3393897582,-1.038464,0.062464,0.025376,1.00625,-4.5325,-4.5675,20.712002,-28.504002,38.056004,concentric,8,5.0,17706.0,403431.0,237426.0,88574.0,12947.0
2026-04-09 22:41:04.016648,573468,3393910355,3393912517,-1.104832,-0.03904,-0.11712,-10.2375,-2.835,-3.35125,21.128,-27.864002,38.488003,concentric,8,5.0,17706.0,403431.0,237426.0,88574.0,12947.0
2026-04-09 22:41:04.046764,573469,3393919375,3393921226,-1.104832,-0.03904,-0.11712,-17.47375,-3.22,-1.4875,21.128,-27.864002,38.488003,concentric,8,5.0,17706.0,403431.0,237426.0,88574.0,12947.0
2026-04-09 22:41:04.072808,573479,3393928306,3393929868,-1.022848,-0.0488,-0.080032,-14.595,-3.3775,-2.58125,20.776001,-28.536001,36.88,concentric,8,5.0,17727.0,403431.0,237452.0,88687.0,13033.0
2026-04-09 22:41:04.108052,573480,3393942871,3393944805,-0.960384,0.140544,0.00976,0.595,-2.905,-4.19125,21.776001,-28.12,38.72,concentric,8,5.0,17727.0,403431.0,237452.0,88687.0,13033.0
2026-04-09 22:41:04.110202,573481,3393951815,3393953512,-0.960384,0.140544,0.00976,14.42,-2.17,-5.425,21.776001,-28.12,38.72,concentric,8,5.0,17727.0,403431.0,237452.0,88687.0,13033.0
2026-04-09 22:41:04.113888,573482,3393960880,3393962242,-0.960384,0.140544,-0.033184,13.13375,-0.83125,-7.5425,21.776001,-28.12,38.72,concentric,8,5.0,17727.0,403431.0,237452.0,88687.0,13033.0
2026-04-09 22:41:04.117707,573483,3393969929,3393971012,-1.085312,0.07808,-0.033184,0.09625,0.76125,-9.5025,21.816002,-28.312002,38.72,concentric,8,5.0,17727.0,403431.0,237452.0,88687.0,13033.0
2026-04-09 22:41:04.120205,573484,3393984413,3393985934,-1.038464,-0.03904,-0.095648,-11.73375,1.28625,-9.33625,21.392,-28.336,38.736,concentric,8,5.0,17727.0,403431.0,237452.0,88687.0,13033.0
2026-04-09 22:41:04.122641,573485,3393993348,3393994630,-1.038464,-0.03904,-0.095648,-16.66,0.25375,-7.5425,21.392,-28.336,38.736,concentric,8,5.0,17727.0,403431.0,237452.0,88687.0,13033.0
2026-04-09 22:41:04.125133,573486,3394002269,3394003334,-0.960384,-0.003904,-0.033184,-12.01375,-0.6475,-7.28,21.688002,-27.856,38.304,concentric,8,5.0,17727.0,403431.0,237452.0,88687.0,13033.0
2026-04-09 22:41:04.127701,573487,3394016771,3394018295,-0.960384,-0.003904,-0.033184,-2.4675,-0.35875,-8.56625,21.688002,-27.856,38.304,concentric,8,5.0,17727.0,403431.0,237452.0,88687.0,13033.0
2026-04-09 22:41:04.133305,573488,3394025754,3394027056,-1.095072,0.023424,-0.050752,3.35125,0.9975,-8.96,21.008001,-28.112001,39.424004,concentric,8,5.0,17727.0,403431.0,237452.0,88687.0,13033.0
2026-04-09 22:41:04.163871,573499,3394034779,3394035818,-1.095072,0.023424,-0.050752,0.53375,2.765,-8.88125,21.008001,-28.112001,39.424004,concentric,8,5.0,17823.0,403431.0,235975.0,87637.0,12471.0
2026-04-09 22:41:04.166407,573500,3394049290,3394050856,-1.095072,0.003904,-0.093696,-5.15375,3.12375,-9.5375,20.928001,-28.496002,39.712,concentric,8,5.0,17823.0,403431.0,235975.0,87637.0,12471.0
2026-04-09 22:41:04.168848,573501,3394058231,3394059572,-1.095072,0.003904,-0.093696,-6.02875,1.995,-9.4675,20.928001,-28.496002,39.712,concentric,8,5.0,17823.0,403431.0,235975.0,87637.0,12471.0
2026-04-09 22:41:04.171415,573502,3394067148,3394068282,-1.032608,0.01952,-0.060512,-4.19125,1.1725,-7.93625,21.464,-28.192001,38.384003,concentric,8,5.0,17823.0,403431.0,235975.0,87637.0,12471.0
2026-04-09 22:41:04.225271,573503,3394076051,3394077011,-1.032608,0.01952,-0.060512,-1.3125,2.59,-7.77875,21.464,-28.192001,38.384003,concentric,8,5.0,17823.0,403431.0,235975.0,87637.0,12471.0
2026-04-09 22:41:04.228858,573504,3394090514,3394091902,-1.097024,0.044896,-0.021472,1.11125,3.70125,-8.05,22.416,-28.12,38.072002,concentric,8,5.0,17823.0,403431.0,235975.0,87637.0,12471.0
2026-04-09 22:41:04.231395,573505,3394099423,3394100608,-1.097024,0.044896,-0.021472,0.63,5.90625,-9.7125,22.416,-28.12,38.072002,concentric,8,5.0,17823.0,403431.0,235975.0,87637.0,12471.0
2026-04-09 22:41:04.233856,573506,3394108313,3394109297,-1.15168,0.05856,-0.070272,-0.93625,7.315,-10.5875,22.968,-27.488,38.008003,concentric,8,5.0,17823.0,403431.0,235975.0,87637.0,12471.0
2026-04-09 22:41:04.236398,573507,3394122786,3394124205,-1.100928,-0.025376,-0.12688,-1.35625,7.70875,-11.9,22.936,-27.912,38.160004,concentric,8,5.0,17823.0,403431.0,235975.0,87637.0,12471.0
2026-04-09 22:41:04.261389,573517,3394131934,3394133295,-1.100928,-0.025376,-0.12688,-3.28125,6.8775,-12.4775,22.936,-27.912,38.160004,concentric,8,5.0,17925.0,403431.0,234179.0,86425.0,11911.0
2026-04-09 22:41:04.263539,573518,3394140948,3394142125,-1.100928,-0.025376,-0.12688,-7.7175,6.475,-11.235,22.936,-27.912,38.160004,concentric,8,5.0,17925.0,403431.0,234179.0,86425.0,11911.0
2026-04-09 22:41:04.266440,573519,3394155438,3394157050,-1.128256,0.005856,-0.081984,-7.58625,6.67625,-8.7675,22.68,-28.192001,37.800003,concentric,8,5.0,17925.0,403431.0,234179.0,86425.0,11911.0
2026-04-09 22:41:04.271380,573520,3394164366,3394165783,-1.139968,0.037088,-0.044896,-5.985,6.51,-7.86625,23.248001,-27.720001,38.616,concentric,8,5.0,17925.0,403431.0,234179.0,86425.0,11911.0
2026-04-09 22:41:04.277662,573521,3394173280,3394174516,-1.139968,0.037088,-0.044896,-5.32875,7.2975,-8.84625,23.248001,-27.720001,38.616,concentric,8,5.0,17925.0,403431.0,234179.0,86425.0,11911.0
2026-04-09 22:41:04.310742,573522,3394187722,3394189463,-1.138016,0.050752,-0.083936,-4.06875,8.02375,-9.00375,22.320002,-28.2,38.848003,concentric,8,5.0,17925.0,403431.0,234179.0,86425.0,11911.0
2026-04-09 22:41:04.313955,573523,3394196615,3394198164,-1.138016,0.050752,-0.083936,-5.50375,9.10875,-9.7825,22.320002,-28.2,38.848003,concentric,8,5.0,17925.0,403431.0,234179.0,86425.0,11911.0
2026-04-09 22:41:04.316415,573524,3394205522,3394206860,-1.130208,0.021472,-0.089792,-8.2775,9.68625,-10.99875,23.528002,-27.888,38.568,concentric,8,5.0,17925.0,403431.0,234179.0,86425.0,11911.0
2026-04-09 22:41:04.318949,573525,3394214467,3394215625,-1.130208,0.021472,-0.089792,-8.05875,9.16125,-10.54375,23.528002,-27.888,38.568,concentric,8,5.0,17925.0,403431.0,234179.0,86425.0,11911.0
2026-04-09 22:41:04.349154,573526,3394228958,3394230580,-1.130208,0.005856,-0.066368,-6.5975,8.855001,-10.45625,23.464,-28.064001,39.128002,concentric,8,5.0,17925.0,403431.0,234179.0,86425.0,11911.0
2026-04-09 22:41:04.375451,573536,3394237878,3394239295,-1.130208,0.005856,-0.066368,-5.1975,8.60125,-9.68625,23.464,-28.064001,39.128002,concentric,8,5.0,17854.0,403431.0,234942.0,86940.0,12154.0
2026-04-09 22:41:04.380170,573537,3394246790,3394247988,-1.173152,0.037088,-0.06832,-2.05625,9.135,-8.68,23.664001,-27.512001,38.168003,concentric,8,5.0,17854.0,403431.0,234942.0,86940.0,12154.0
2026-04-09 22:41:04.382663,573538,3394261297,3394262935,-1.173152,0.037088,-0.06832,0.18375,8.365,-9.16125,23.664001,-27.512001,38.168003,concentric,8,5.0,17854.0,403431.0,234942.0,86940.0,12154.0
2026-04-09 22:41:04.385086,573539,3394270237,3394271645,-1.136064,0.031232,-0.07808,0.93625,7.945,-10.605001,23.128,-27.880001,39.024002,concentric,8,5.0,17854.0,403431.0,234942.0,86940.0,12154.0
2026-04-09 22:41:04.387631,573540,3394279234,3394280394,-1.136064,0.031232,-0.07808,-0.105,8.60125,-11.34875,23.128,-27.880001,39.024002,concentric,8,5.0,17854.0,403431.0,234942.0,86940.0,12154.0
2026-04-09 22:41:04.417920,573541,3394293724,3394295379,-1.145824,0.052704,0.007808,-1.91625,9.730001,-11.61125,23.44,-28.088001,39.328003,concentric,8,5.0,17854.0,403431.0,234942.0,86940.0,12154.0
2026-04-09 22:41:04.421450,573542,3394302630,3394304076,-1.145824,0.044896,-0.037088,-5.29375,10.29875,-11.261251,23.44,-27.312002,38.408,concentric,8,5.0,17854.0,403431.0,234942.0,86940.0,12154.0
2026-04-09 22:41:04.423927,573543,3394311558,3394312774,-1.145824,0.044896,-0.037088,-10.71875,11.06875,-11.62,24.048,-27.312002,38.408,concentric,8,5.0,17854.0,403431.0,234942.0,86940.0,12154.0
2026-04-09 22:41:04.432672,573544,3394326081,3394327682,-1.1712,0.076128,-0.076128,-14.455,11.01625,-11.7425,24.512001,-27.288002,39.576,concentric,8,5.0,17854.0,403431.0,234942.0,86940.0,12154.0
2026-04-09 22:41:04.460549,573555,3394335556,3394336526,-1.1712,0.076128,-0.076128,-13.8075,12.11875,-13.57125,24.512001,-27.288002,39.576,concentric,8,5.0,17716.0,403431.0,237377.0,88583.0,12950.0
2026-04-09 22:41:04.462597,573556,3394344639,3394345276,-1.225856,0.056608,-0.080032,-12.92375,12.74875,-15.155,24.448002,-26.960001,39.408,concentric,8,5.0,17716.0,403431.0,237377.0,88583.0,12950.0
2026-04-09 22:41:04.465156,573557,3394353943,3394356066,-1.225856,0.056608,-0.080032,-14.0175,12.43375,-16.87875,24.448002,-26.960001,39.408,concentric,8,5.0,17716.0,403431.0,237377.0,88583.0,12950.0
2026-04-09 22:41:04.527962,573558,3394368499,3394368905,-1.19072,-0.023424,-0.050752,-17.50875,12.0575,-18.06,24.696001,-27.336,38.312,concentric,8,5.0,17716.0,403431.0,237377.0,88583.0,12950.0
2026-04-09 22:41:04.531868,573559,3394377756,3394379699,-1.19072,-0.023424,-0.050752,-20.13375,10.7975,-16.45875,24.696001,-27.336,38.312,concentric,8,5.0,17716.0,403431.0,237377.0,88583.0,12950.0
2026-04-09 22:41:04.533948,573560,3394386735,3394388417,-1.245376,-0.017568,-0.081984,-15.81125,9.6075,-14.35,25.400002,-26.720001,38.208,concentric,8,5.0,17716.0,403431.0,237377.0,88583.0,12950.0
2026-04-09 22:41:04.536498,573561,3394395645,3394397107,-1.245376,-0.017568,-0.081984,-7.67375,8.39125,-13.7725,25.400002,-26.720001,38.208,concentric,8,5.0,17716.0,403431.0,237377.0,88583.0,12950.0
2026-04-09 22:41:04.539287,573562,3394410138,3394411989,-1.24928,0.06832,-0.091744,-1.0675,7.0875,-13.265,25.616001,-26.344002,37.392002,concentric,8,5.0,17716.0,403431.0,237377.0,88583.0,12950.0
2026-04-09 22:41:04.541570,573563,3394419167,3394420716,-1.24928,0.06832,-0.091744,-0.4725,5.78375,-13.37875,25.616001,-26.344002,37.392002,concentric,8,5.0,17716.0,403431.0,237377.0,88583.0,12950.0
2026-04-09 22:41:04.543878,573564,3394428244,3394429412,-1.247328,0.031232,-0.027328,-5.73125,5.04,-12.76625,25.352001,-27.072,38.096,concentric,8,5.0,17716.0,403431.0,237377.0,88583.0,12950.0
2026-04-09 22:41:04.580217,573574,3394442792,3394444376,-1.247328,-0.037088,-0.021472,-11.43625,4.78625,-11.61125,25.352001,-27.072,38.096,concentric,8,5.0,17648.0,403431.0,238604.0,89425.0,13373.0
2026-04-09 22:41:04.582753,573575,3394451855,3394453150,-1.251232,-0.037088,-0.021472,-13.685,4.66375,-10.4825,24.496,-26.688002,40.528004,concentric,8,5.0,17648.0,403431.0,238604.0,89425.0,13373.0
2026-04-09 22:41:04.588925,573576,3394460792,3394461894,-1.251232,-0.037088,-0.021472,-11.3225,5.04,-9.0125,24.496,-26.688002,40.528004,concentric,8,5.0,17648.0,403431.0,238604.0,89425.0,13373.0
2026-04-09 22:41:04.591416,573577,3394475300,3394476853,-1.272704,0.005856,-0.05856,-6.8425,5.48625,-6.965,24.584002,-26.952002,41.4,concentric,8,5.0,17648.0,403431.0,238604.0,89425.0,13373.0
2026-04-09 22:41:04.593948,573578,3394484232,3394485570,-1.274656,-0.003904,-0.095648,-3.77125,4.68125,-5.67,25.208002,-26.512001,37.512,concentric,8,5.0,17648.0,403431.0,238604.0,89425.0,13373.0
2026-04-09 22:41:04.599011,573579,3394493172,3394494273,-1.274656,-0.003904,-0.095648,-6.23,4.17375,-5.32875,25.208002,-26.512001,37.512,concentric,8,5.0,17648.0,403431.0,238604.0,89425.0,13373.0
2026-04-09 22:41:04.629534,573580,3394502228,3394503000,-1.274656,-0.003904,-0.095648,-9.9925,3.5175,-4.50625,25.208002,-26.512001,37.512,concentric,8,5.0,17648.0,403431.0,238604.0,89425.0,13373.0
2026-04-09 22:41:04.632677,573581,3394516729,3394517945,-1.27856,-0.017568,-0.070272,-7.805,1.53125,-3.325,24.584002,-26.568,39.096,concentric,8,5.0,17648.0,403431.0,238604.0,89425.0,13373.0
2026-04-09 22:41:04.635361,573582,3394525585,3394526679,-1.260992,0.013664,-0.001952,-4.06,-0.49875,-1.3125,25.344002,-26.216002,38.904003,concentric,8,5.0,17648.0,403431.0,238604.0,89425.0,13373.0
