pc_time,serial_num,sensor_ts,host_ts,ax,ay,az,gx,gy,gz,mx,my,mz,phase,rpe,weight_kg,ppg_a,ppg_b,ppg_c,ppg_d,ppg_e
2026-04-09 22:40:37.380839,568496,3367256235,3367257619,-0.99552,0.074176,-0.001952,1.96875,-10.14125,-0.8575,18.528002,-27.264002,39.944,eccentric,8,5.0,18756.0,403431.0,234838.0,87547.0,12884.0
2026-04-09 22:40:37.384260,568497,3367265142,3367266297,-1.007232,0.081984,-0.00976,1.89875,-9.84375,-1.0325,17.344002,-27.424002,40.352,eccentric,8,5.0,18756.0,403431.0,234838.0,87547.0,12884.0
2026-04-09 22:40:37.409994,568507,3367280193,3367281449,-1.007232,0.081984,-0.00976,0.0175,-9.7825,-0.49,17.344002,-27.424002,40.352,eccentric,8,5.0,18632.0,403431.0,236194.0,88428.0,13323.0
2026-04-09 22:40:37.411701,568508,3367289254,3367290342,-1.030656,0.074176,-0.064416,-2.84375,-10.94625,0.4025,17.800001,-27.392002,39.872,eccentric,8,5.0,18632.0,403431.0,236194.0,88428.0,13323.0
2026-04-09 22:40:37.415535,568509,3367298286,3367299071,-1.030656,0.074176,-0.064416,-3.535,-11.4625,0.4025,17.800001,-27.392002,39.872,eccentric,8,5.0,18632.0,403431.0,236194.0,88428.0,13323.0
2026-04-09 22:40:37.417115,568510,3367307238,3367307865,-1.0248,0.0488,-0.02928,-3.8675,-12.04875,0.48125,17.712,-27.048,40.064003,eccentric,8,5.0,18632.0,403431.0,236194.0,88428.0,13323.0
2026-04-09 22:40:37.446977,568511,3367322098,3367322796,-0.983808,0.093696,0.013664,-4.13875,-12.64375,1.5925,17.712,-27.048,39.88,eccentric,8,5.0,18632.0,403431.0,236194.0,88428.0,13323.0
2026-04-09 22:40:37.450663,568512,3367331436,3367333575,-0.983808,0.093696,0.013664,-2.66875,-12.005,2.45,17.672,-26.928001,39.88,eccentric,8,5.0,18632.0,403431.0,236194.0,88428.0,13323.0
2026-04-09 22:40:37.452975,568513,3367340347,3367342258,-0.983808,0.093696,0.013664,-1.07625,-11.01625,2.51125,17.672,-26.928001,39.88,eccentric,8,5.0,18632.0,403431.0,236194.0,88428.0,13323.0
2026-04-09 22:40:37.455445,568514,3367349297,3367350990,-0.991616,0.130784,-0.013664,-1.95125,-9.17,1.6975,17.456001,-27.528002,38.376003,eccentric,8,5.0,18632.0,403431.0,236194.0,88428.0,13323.0
2026-04-09 22:40:37.486872,568515,3367363765,3367365915,-1.0248,0.121024,-0.05856,-4.43625,-7.805,1.0325,17.52,-27.880001,42.216003,eccentric,8,5.0,18632.0,403431.0,236194.0,88428.0,13323.0
2026-04-09 22:40:37.490231,568516,3367372672,3367374593,-1.0248,0.121024,-0.05856,-6.8775,-6.51875,0.175,17.52,-27.880001,42.216003,eccentric,8,5.0,18632.0,403431.0,236194.0,88428.0,13323.0
2026-04-09 22:40:37.550368,568526,3367381818,3367383342,-1.0248,0.121024,-0.05856,-5.8275,-6.93875,-1.19875,17.52,-27.880001,42.216003,eccentric,8,5.0,18558.0,403431.0,237354.0,89123.0,13702.0
2026-04-09 22:40:37.552900,568527,3367396480,3367398324,-0.974048,0.105408,-0.03904,-2.7125,-7.5425,-2.415,17.312,-27.088001,43.160004,eccentric,8,5.0,18558.0,403431.0,237354.0,89123.0,13702.0
2026-04-09 22:40:37.555389,568528,3367405549,3367407074,-0.976,0.113216,-0.015616,-0.32375,-7.23625,-4.3225,16.304,-27.160002,42.280003,eccentric,8,5.0,18558.0,403431.0,237354.0,89123.0,13702.0
2026-04-09 22:40:37.557910,568529,3367414547,3367415797,-0.976,0.113216,-0.015616,1.75,-6.69375,-5.59125,16.304,-27.160002,42.280003,eccentric,8,5.0,18558.0,403431.0,237354.0,89123.0,13702.0
2026-04-09 22:40:37.560386,568530,3367423438,3367424532,-0.989664,0.128832,-0.013664,1.98625,-5.50375,-6.27375,17.384,-27.544,39.976,eccentric,8,5.0,18558.0,403431.0,237354.0,89123.0,13702.0
2026-04-09 22:40:37.562935,568531,3367437907,3367439400,-0.989664,0.128832,-0.013664,2.00375,-5.1625,-6.50125,17.384,-27.544,39.976,eccentric,8,5.0,18558.0,403431.0,237354.0,89123.0,13702.0
2026-04-09 22:40:37.567982,568532,3367446847,3367448084,-0.983808,0.08784,-0.035136,1.7675,-5.43375,-6.16875,17.216002,-27.080002,41.112003,eccentric,8,5.0,18558.0,403431.0,237354.0,89123.0,13702.0
2026-04-09 22:40:37.575092,568533,3367455746,3367456882,-0.983808,0.08784,-0.035136,1.645,-5.25875,-5.18,17.216002,-27.080002,41.112003,eccentric,8,5.0,18558.0,403431.0,237354.0,89123.0,13702.0
2026-04-09 22:40:37.576635,568534,3367470356,3367471831,-0.987712,0.085888,-0.015616,4.0075,-5.0575,-3.31625,16.424002,-27.576002,41.104,eccentric,8,5.0,18558.0,403431.0,237354.0,89123.0,13702.0
2026-04-09 22:40:37.608026,568545,3367479274,3367480537,-0.987712,0.085888,-0.015616,8.28625,-4.90875,-2.065,16.424002,-27.576002,41.104,eccentric,8,5.0,18566.0,403431.0,236999.0,88908.0,13593.0
2026-04-09 22:40:37.612244,568546,3367489331,3367491388,-0.974048,0.124928,0.013664,11.5675,-5.18875,-1.56625,17.224,-27.736002,41.2,eccentric,8,5.0,18566.0,403431.0,236999.0,88908.0,13593.0
2026-04-09 22:40:37.614651,568547,3367498263,3367500143,-0.974048,0.124928,0.013664,13.51,-5.15375,-1.54,17.224,-27.736002,41.2,eccentric,8,5.0,18566.0,403431.0,236999.0,88908.0,13593.0
2026-04-09 22:40:37.618762,568548,3367512932,3367515061,-1.011136,0.122976,-0.003904,14.18375,-4.80375,-1.60125,16.688002,-27.6,41.448,eccentric,8,5.0,18566.0,403431.0,236999.0,88908.0,13593.0
2026-04-09 22:40:37.648062,568549,3367521876,3367523804,-1.011136,0.122976,-0.003904,15.575,-4.41875,-1.05875,16.688002,-27.6,41.448,eccentric,8,5.0,18566.0,403431.0,236999.0,88908.0,13593.0
2026-04-09 22:40:37.652556,568550,3367530876,3367532503,-1.022848,0.10736,-0.001952,17.42125,-4.5325,-0.90125,17.024,-27.872002,40.52,eccentric,8,5.0,18566.0,403431.0,236999.0,88908.0,13593.0
2026-04-09 22:40:37.654240,568551,3367545358,3367547387,-1.003328,0.11712,0.037088,19.81875,-4.6025,-1.61875,16.872002,-27.704,40.816,eccentric,8,5.0,18566.0,403431.0,236999.0,88908.0,13593.0
2026-04-09 22:40:37.659201,568552,3367554278,3367556085,-1.003328,0.11712,0.037088,22.6275,-5.5475,-1.96,16.872002,-27.704,40.816,eccentric,8,5.0,18566.0,403431.0,236999.0,88908.0,13593.0
2026-04-09 22:40:37.689356,568553,3367563244,3367564788,-1.052128,0.085888,0.01952,23.3275,-5.71375,-2.7825,14.512001,-27.952002,43.232002,eccentric,8,5.0,18566.0,403431.0,236999.0,88908.0,13593.0
2026-04-09 22:40:37.692914,568554,3367577759,3367579750,-1.052128,0.085888,0.01952,23.05625,-5.3025,-3.6925,14.512001,-27.952002,43.232002,eccentric,8,5.0,18566.0,403431.0,236999.0,88908.0,13593.0
2026-04-09 22:40:37.717919,568564,3367586754,3367588477,-1.059936,0.074176,0.037088,23.0825,-5.64375,-4.05125,15.936001,-28.2,40.848003,eccentric,8,5.0,18666.0,403431.0,235834.0,88147.0,13193.0
2026-04-09 22:40:37.720399,568565,3367595646,3367597187,-1.059936,0.074176,0.037088,25.6375,-6.475,-4.90875,15.936001,-28.2,40.848003,eccentric,8,5.0,18666.0,403431.0,235834.0,88147.0,13193.0
2026-04-09 22:40:37.722906,568566,3367604599,3367605893,-1.048224,0.083936,0.06832,29.5925,-7.44625,-5.005,16.448,-27.720001,40.584003,eccentric,8,5.0,18666.0,403431.0,235834.0,88147.0,13193.0
2026-04-09 22:40:37.729890,568567,3367619128,3367620872,-1.048224,0.083936,0.06832,30.07375,-8.33,-4.17375,16.448,-27.720001,40.584003,eccentric,8,5.0,18666.0,403431.0,235834.0,88147.0,13193.0
2026-04-09 22:40:37.731675,568568,3367628092,3367629613,-1.06384,0.080032,0.037088,26.3725,-7.98875,-4.27,16.368,-28.344002,40.168003,eccentric,8,5.0,18666.0,403431.0,235834.0,88147.0,13193.0
2026-04-09 22:40:37.761895,568569,3367636993,3367638325,-1.06384,0.080032,0.037088,21.647501,-7.67375,-5.2675,16.368,-28.344002,40.168003,eccentric,8,5.0,18666.0,403431.0,235834.0,88147.0,13193.0
2026-04-09 22:40:37.780619,568570,3367651493,3367653252,-1.087264,0.042944,0.035136,16.73875,-7.1225,-6.18625,16.288,-28.032001,40.776,eccentric,8,5.0,18666.0,403431.0,235834.0,88147.0,13193.0
2026-04-09 22:40:37.788034,568571,3367660433,3367661969,-1.087264,0.042944,0.035136,12.27625,-7.70875,-5.74875,16.288,-28.032001,40.776,eccentric,8,5.0,18666.0,403431.0,235834.0,88147.0,13193.0
2026-04-09 22:40:37.790376,568572,3367669381,3367670689,-1.05408,0.0488,0.046848,10.6925,-8.81125,-6.0375,16.208,-28.408,40.72,eccentric,8,5.0,18666.0,403431.0,235834.0,88147.0,13193.0
2026-04-09 22:40:37.849288,568582,3367684374,3367685860,-1.069696,0.08784,0.011712,10.03625,-8.505,-6.1075,16.352001,-28.112001,40.728,eccentric,8,5.0,18738.0,403431.0,234784.0,87455.0,12849.0
2026-04-09 22:40:37.855488,568583,3367693398,3367694713,-1.069696,0.08784,0.011712,9.58125,-8.12875,-5.71375,16.352001,-28.112001,40.728,eccentric,8,5.0,18738.0,403431.0,234784.0,87455.0,12849.0
2026-04-09 22:40:37.857970,568584,3367702373,3367703453,-1.069696,0.08784,0.011712,7.5775,-7.02625,-6.6325,16.352001,-28.112001,40.728,eccentric,8,5.0,18738.0,403431.0,234784.0,87455.0,12849.0
2026-04-09 22:40:37.860457,568585,3367711341,3367712199,-1.04432,0.105408,0.00976,4.17375,-6.74625,-7.39375,15.944001,-28.288002,41.56,eccentric,8,5.0,18738.0,403431.0,234784.0,87455.0,12849.0
2026-04-09 22:40:37.862915,568586,3367725818,3367727105,-1.036512,0.119072,-0.001952,1.60125,-6.335,-8.02375,16.096,-28.104002,40.576,eccentric,8,5.0,18738.0,403431.0,234784.0,87455.0,12849.0
2026-04-09 22:40:37.865381,568587,3367734746,3367735824,-1.036512,0.119072,-0.001952,0.49,-4.5325,-8.49625,16.096,-28.104002,40.576,eccentric,8,5.0,18738.0,403431.0,234784.0,87455.0,12849.0
2026-04-09 22:40:37.867973,568588,3367743666,3367744507,-1.046272,0.10736,-0.00976,-0.525,-2.72125,-8.49625,16.096,-28.128002,40.072002,eccentric,8,5.0,18738.0,403431.0,234784.0,87455.0,12849.0
2026-04-09 22:40:37.870460,568589,3367758269,3367759448,-1.046272,0.10736,-0.00976,-2.77375,-1.9075,-8.28625,16.104,-28.128002,40.072002,eccentric,8,5.0,18738.0,403431.0,234784.0,87455.0,12849.0
2026-04-09 22:40:37.872931,568590,3367767226,3367768187,-1.04432,0.10736,-0.005856,-2.6075,-2.07375,-8.09375,15.000001,-28.392002,41.800003,eccentric,8,5.0,18738.0,403431.0,234784.0,87455.0,12849.0
2026-04-09 22:40:37.879200,568591,3367776209,3367776894,-1.04432,0.10736,-0.005856,0.41125,-1.645,-7.2625,15.000001,-28.392002,41.800003,eccentric,8,5.0,18738.0,403431.0,234784.0,87455.0,12849.0
2026-04-09 22:40:37.909173,568602,3367791215,3367791889,-1.036512,0.142496,0.007808,3.9025,-0.42875,-6.5625,16.104,-28.184002,43.048,eccentric,8,5.0,18699.0,403431.0,235554.0,88003.0,13123.0
2026-04-09 22:40:37.911713,568603,3367800536,3367802645,-1.036512,0.142496,0.007808,5.80125,0.09625,-6.23875,16.104,-28.184002,43.048,eccentric,8,5.0,18699.0,403431.0,235554.0,88003.0,13123.0
2026-04-09 22:40:37.914179,568604,3367809521,3367811360,-1.03456,0.150304,0.003904,7.315,1.25125,-6.0725,15.416,-28.472002,40.608,eccentric,8,5.0,18699.0,403431.0,235554.0,88003.0,13123.0
2026-04-09 22:40:37.944598,568605,3367818472,3367820104,-1.03456,0.150304,0.003904,7.56875,2.73,-6.15125,15.416,-28.472002,40.608,eccentric,8,5.0,18699.0,403431.0,235554.0,88003.0,13123.0
2026-04-09 22:40:37.947999,568606,3367832992,3367835010,-1.030656,0.132736,0.02928,7.4375,3.26375,-6.265,16.504002,-28.136002,40.408,eccentric,8,5.0,18699.0,403431.0,235554.0,88003.0,13123.0
2026-04-09 22:40:37.950638,568607,3367841956,3367843745,-1.030656,0.132736,0.02928,7.90125,3.82375,-6.3175,16.504002,-28.136002,40.408,eccentric,8,5.0,18699.0,403431.0,235554.0,88003.0,13123.0
2026-04-09 22:40:37.954198,568608,3367850890,3367852467,-1.038464,0.111264,0.013664,9.59875,4.55875,-6.79875,16.320002,-27.496002,40.368,eccentric,8,5.0,18699.0,403431.0,235554.0,88003.0,13123.0
2026-04-09 22:40:37.984547,568609,3367865387,3367867365,-1.030656,0.095648,0.042944,11.24375,5.08375,-6.5975,16.344,-28.408,40.752003,eccentric,8,5.0,18699.0,403431.0,235554.0,88003.0,13123.0
2026-04-09 22:40:37.988088,568610,3367874317,3367876057,-1.030656,0.095648,0.042944,12.6175,4.97,-6.43125,16.344,-28.408,40.752003,eccentric,8,5.0,18699.0,403431.0,235554.0,88003.0,13123.0
2026-04-09 22:40:38.013014,568620,3367883501,3367884821,-1.030656,0.095648,0.042944,13.20375,5.25875,-6.16,16.344,-28.408,40.752003,eccentric,8,5.0,18665.0,403431.0,235877.0,88229.0,13245.0
2026-04-09 22:40:38.015546,568621,3367892472,3367893608,-1.007232,0.08784,0.076128,13.58,5.38125,-6.4925,16.104,-27.328001,40.608,eccentric,8,5.0,18665.0,403431.0,235877.0,88229.0,13245.0
2026-04-09 22:40:38.017995,568622,3367907022,3367908578,-1.001376,0.103456,0.062464,12.29375,5.41625,-6.72,15.496,-28.448002,42.272003,eccentric,8,5.0,18665.0,403431.0,235877.0,88229.0,13245.0
2026-04-09 22:40:38.020531,568623,3367915973,3367917278,-1.001376,0.103456,0.062464,10.49125,6.02875,-7.49,15.496,-28.448002,42.272003,eccentric,8,5.0,18665.0,403431.0,235877.0,88229.0,13245.0
2026-04-09 22:40:38.050874,568624,3367924920,3367926009,-1.020896,0.089792,0.03904,7.53375,6.895,-7.90125,15.240001,-28.2,41.912003,eccentric,8,5.0,18665.0,403431.0,235877.0,88229.0,13245.0
2026-04-09 22:40:38.055495,568625,3367939375,3367940928,-1.020896,0.089792,0.03904,2.8,7.56875,-8.3125,15.240001,-28.2,41.912003,eccentric,8,5.0,18665.0,403431.0,235877.0,88229.0,13245.0
2026-04-09 22:40:38.058517,568626,3367948292,3367949615,-0.999424,0.080032,0.050752,-2.1875,8.07625,-8.96875,16.288,-27.696001,39.856003,eccentric,8,5.0,18665.0,403431.0,235877.0,88229.0,13245.0
2026-04-09 22:40:38.064268,568627,3367957228,3367958297,-0.999424,0.080032,0.050752,-4.97875,8.785,-9.625,16.288,-27.696001,39.856003,eccentric,8,5.0,18665.0,403431.0,235877.0,88229.0,13245.0
2026-04-09 22:40:38.094622,568628,3367971744,3367973252,-1.018944,0.066368,0.042944,-7.21875,9.555,-10.08,16.12,-28.616001,40.144,eccentric,8,5.0,18665.0,403431.0,235877.0,88229.0,13245.0
2026-04-09 22:40:38.098013,568629,3367980653,3367981935,-1.018944,0.066368,0.042944,-9.86125,11.095,-10.07125,16.12,-28.616001,40.144,eccentric,8,5.0,18665.0,403431.0,235877.0,88229.0,13245.0
2026-04-09 22:40:38.159344,568639,3367989625,3367990690,-1.032608,0.091744,0.02928,-10.36875,11.935,-10.63125,16.2,-27.808,40.176003,eccentric,8,5.0,18807.0,403431.0,233656.0,86733.0,12515.0
2026-04-09 22:40:38.161915,568640,3368004279,3368005600,-1.032608,0.11712,-0.021472,-8.645,12.25875,-11.375,16.2,-27.808,40.176003,eccentric,8,5.0,18807.0,403431.0,233656.0,86733.0,12515.0
2026-04-09 22:40:38.164278,568641,3368013307,3368014345,-1.032608,0.11712,-0.021472,-7.27125,12.635,-12.11,15.848001,-27.800001,40.896004,eccentric,8,5.0,18807.0,403431.0,233656.0,86733.0,12515.0
2026-04-09 22:40:38.166653,568642,3368022250,3368023055,-1.032608,0.11712,-0.021472,-7.3675,13.36125,-12.87125,15.848001,-27.800001,40.896004,eccentric,8,5.0,18807.0,403431.0,233656.0,86733.0,12515.0
2026-04-09 22:40:38.169225,568643,3368031148,3368031760,-1.016992,0.091744,-0.007808,-8.198751,13.08125,-13.2125,16.976002,-27.6,40.536003,eccentric,8,5.0,18807.0,403431.0,233656.0,86733.0,12515.0
2026-04-09 22:40:38.171669,568644,3368045919,3368046677,-1.016992,0.080032,-0.003904,-9.7825,14.27125,-13.3175,16.736,-27.816002,39.584003,eccentric,8,5.0,18807.0,403431.0,233656.0,86733.0,12515.0
2026-04-09 22:40:38.174270,568645,3368055308,3368057468,-1.016992,0.080032,-0.003904,-10.5525,15.365,-13.18625,16.736,-27.816002,39.584003,eccentric,8,5.0,18807.0,403431.0,233656.0,86733.0,12515.0
2026-04-09 22:40:38.176846,568646,3368064237,3368066224,-1.016992,0.080032,-0.091744,-13.11625,16.58125,-12.85375,16.736,-27.816002,39.584003,eccentric,8,5.0,18807.0,403431.0,233656.0,86733.0,12515.0
2026-04-09 22:40:38.179217,568647,3368073257,3368074952,-1.097024,0.081984,-0.091744,-15.785,16.625,-12.31125,17.848001,-27.832,38.752003,eccentric,8,5.0,18807.0,403431.0,233656.0,86733.0,12515.0
2026-04-09 22:40:38.235504,568658,3368087876,3368090057,-1.143872,0.052704,-0.085888,-17.0275,16.38,-11.042501,16.968,-27.888,41.432003,eccentric,8,5.0,18833.0,403431.0,232664.0,86040.0,12184.0
2026-04-09 22:40:38.238149,568659,3368096825,3368098737,-1.143872,0.052704,-0.085888,-16.275,15.46125,-8.82,16.968,-27.888,41.432003,eccentric,8,5.0,18833.0,403431.0,232664.0,86040.0,12184.0
2026-04-09 22:40:38.240506,568660,3368105815,3368107507,-1.149728,0.072224,-0.015616,-13.71125,14.55125,-6.76375,17.976002,-27.344002,40.504,eccentric,8,5.0,18833.0,403431.0,232664.0,86040.0,12184.0
2026-04-09 22:40:38.243014,568661,3368120290,3368122410,-1.149728,0.072224,-0.015616,-9.5375,14.7,-5.87125,17.976002,-27.344002,40.504,eccentric,8,5.0,18833.0,403431.0,232664.0,86040.0,12184.0
2026-04-09 22:40:38.245482,568662,3368129268,3368131131,-1.138016,0.12688,0.033184,-4.4625,14.79625,-5.46875,16.92,-27.560001,40.048,eccentric,8,5.0,18833.0,403431.0,232664.0,86040.0,12184.0
2026-04-09 22:40:38.247918,568663,3368138293,3368139855,-1.138016,0.12688,0.033184,-0.7175,16.38875,-6.36125,16.92,-27.560001,40.048,eccentric,8,5.0,18833.0,403431.0,232664.0,86040.0,12184.0
2026-04-09 22:40:38.278289,568664,3368152857,3368154875,-1.165344,0.119072,-0.01952,-2.03875,18.445,-7.63,17.592001,-27.184002,40.2,eccentric,8,5.0,18833.0,403431.0,232664.0,86040.0,12184.0
2026-04-09 22:40:38.281814,568665,3368161800,3368163578,-1.165344,0.119072,-0.01952,-5.24125,19.81875,-7.9275,17.592001,-27.184002,40.2,eccentric,8,5.0,18833.0,403431.0,232664.0,86040.0,12184.0
2026-04-09 22:40:38.284243,568666,3368170738,3368172287,-1.143872,0.099552,-0.054656,-7.525,20.08125,-8.33,18.112001,-27.368002,40.208,eccentric,8,5.0,18833.0,403431.0,232664.0,86040.0,12184.0
2026-04-09 22:40:38.311719,568676,3368185848,3368187175,-1.089216,0.066368,-0.052704,-7.14,19.6175,-9.5375,17.144001,-27.000002,40.688004,eccentric,8,5.0,18696.0,403431.0,235361.0,87816.0,13051.0
2026-04-09 22:40:38.314224,568677,3368194916,3368196007,-1.089216,0.066368,-0.052704,-5.495,18.97875,-9.6425,17.144001,-27.000002,40.688004,eccentric,8,5.0,18696.0,403431.0,235361.0,87816.0,13051.0
2026-04-09 22:40:38.316744,568678,3368203851,3368204765,-1.089216,0.066368,-0.052704,-4.76,18.83875,-8.51375,17.144001,-27.000002,40.688004,eccentric,8,5.0,18696.0,403431.0,235361.0,87816.0,13051.0
2026-04-09 22:40:38.319212,568679,3368212857,3368213483,-1.06384,0.081984,-0.007808,-2.9925,18.9525,-8.4,17.016,-27.424002,41.912003,eccentric,8,5.0,18696.0,403431.0,235361.0,87816.0,13051.0
2026-04-09 22:40:38.349630,568680,3368227632,3368228419,-1.0736,0.081984,-0.005856,-0.5775,18.68125,-8.58375,17.952002,-27.528002,40.776,eccentric,8,5.0,18696.0,403431.0,235361.0,87816.0,13051.0
2026-04-09 22:40:38.353073,568681,3368237082,3368239218,-1.0736,0.081984,-0.005856,-0.53375,17.70125,-8.015,17.952002,-27.528002,40.776,eccentric,8,5.0,18696.0,403431.0,235361.0,87816.0,13051.0
2026-04-09 22:40:38.355570,568682,3368245992,3368247907,-1.071648,0.074176,-0.021472,-0.1225,16.38,-7.56,18.392,-27.744001,39.992,eccentric,8,5.0,18696.0,403431.0,235361.0,87816.0,13051.0
2026-04-09 22:40:38.361859,568683,3368254912,3368256621,-1.071648,0.074176,-0.021472,0.315,15.60125,-7.56875,18.392,-27.744001,39.992,eccentric,8,5.0,18696.0,403431.0,235361.0,87816.0,13051.0
2026-04-09 22:40:38.391909,568684,3368269444,3368271576,-1.059936,0.060512,-0.001952,1.46125,14.16625,-6.755,16.952002,-27.304,41.912003,eccentric,8,5.0,18696.0,403431.0,235361.0,87816.0,13051.0
2026-04-09 22:40:38.395499,568685,3368278407,3368280297,-1.059936,0.060512,-0.001952,3.78,12.3025,-6.01125,16.952002,-27.304,41.912003,eccentric,8,5.0,18696.0,403431.0,235361.0,87816.0,13051.0
2026-04-09 22:40:38.466768,568695,3368287815,3368289062,-1.069696,0.05856,0.007808,4.87375,10.40375,-5.39875,18.264,-27.080002,38.992,eccentric,8,5.0,18749.0,403431.0,234866.0,87504.0,12903.0
2026-04-09 22:40:38.469300,568696,3368302340,3368304058,-1.069696,0.05856,0.007808,4.87375,9.31,-4.57625,18.264,-27.080002,38.992,eccentric,8,5.0,18749.0,403431.0,234866.0,87504.0,12903.0
2026-04-09 22:40:38.471916,568697,3368311309,3368312812,-1.079456,0.062464,0.013664,4.20875,8.32125,-4.2875,17.928001,-26.744001,39.536003,eccentric,8,5.0,18749.0,403431.0,234866.0,87504.0,12903.0
2026-04-09 22:40:38.507122,568698,3368320261,3368321497,-1.079456,0.062464,0.013664,3.71875,7.27125,-4.0775,17.928001,-26.744001,39.536003,eccentric,8,5.0,18749.0,403431.0,234866.0,87504.0,12903.0
2026-04-09 22:40:38.510592,568699,3368329167,3368330263,-1.059936,0.076128,0.013664,5.04875,6.06375,-4.305,18.792002,-26.928001,39.592003,eccentric,8,5.0,18749.0,403431.0,234866.0,87504.0,12903.0
2026-04-09 22:40:38.513051,568700,3368343681,3368345156,-1.059936,0.076128,0.013664,6.46625,5.45125,-4.7775,18.792002,-26.928001,39.592003,eccentric,8,5.0,18749.0,403431.0,234866.0,87504.0,12903.0
2026-04-09 22:40:38.515514,568701,3368352740,3368353867,-1.091168,0.080032,-0.013664,7.11375,5.36375,-5.53875,18.28,-27.008001,39.336002,eccentric,8,5.0,18749.0,403431.0,234866.0,87504.0,12903.0
2026-04-09 22:40:38.518000,568702,3368361787,3368362646,-1.091168,0.080032,-0.013664,6.37,4.6025,-6.29125,18.28,-27.008001,39.336002,eccentric,8,5.0,18749.0,403431.0,234866.0,87504.0,12903.0
2026-04-09 22:40:38.520515,568703,3368376338,3368377566,-1.069696,0.0488,-0.027328,4.59375,3.19375,-6.79875,17.032001,-27.384,40.824,eccentric,8,5.0,18749.0,403431.0,234866.0,87504.0,12903.0
2026-04-09 22:40:38.547993,568714,3368385268,3368386264,-1.069696,0.0488,-0.011712,3.22875,3.115,-7.2625,17.032001,-27.384,40.824,eccentric,8,5.0,18813.0,403431.0,233359.0,86537.0,12425.0
2026-04-09 22:40:38.551446,568715,3368394178,3368394967,-1.061888,0.0488,-0.00976,3.29875,2.94,-7.76125,18.168001,-27.592001,37.768,eccentric,8,5.0,18813.0,403431.0,233359.0,86537.0,12425.0
2026-04-09 22:40:38.556838,568716,3368408739,3368409812,-1.06384,0.074176,-0.035136,3.26375,2.87,-7.69125,18.12,-27.536001,39.712,eccentric,8,5.0,18813.0,403431.0,233359.0,86537.0,12425.0
2026-04-09 22:40:38.556941,568717,3368417720,3368418588,-1.06384,0.074176,-0.035136,3.675,2.26625,-7.34125,18.12,-27.536001,39.712,eccentric,8,5.0,18813.0,403431.0,233359.0,86537.0,12425.0
2026-04-09 22:40:38.562042,568718,3368426873,3368427338,-1.071648,0.080032,-0.074176,2.93125,2.275,-6.9475,17.800001,-27.184002,41.328003,eccentric,8,5.0,18813.0,403431.0,233359.0,86537.0,12425.0
2026-04-09 22:40:38.562143,568719,3368436228,3368438127,-1.071648,0.080032,-0.074176,0.98,2.1525,-7.105,17.800001,-27.184002,41.328003,eccentric,8,5.0,18813.0,403431.0,233359.0,86537.0,12425.0
2026-04-09 22:40:38.562986,568720,3368450824,3368453086,-1.077504,0.054656,-0.06832,-0.3675,2.26625,-6.65875,17.856,-27.384,40.496002,eccentric,8,5.0,18813.0,403431.0,233359.0,86537.0,12425.0
2026-04-09 22:40:38.566748,568721,3368459770,3368461809,-1.077504,0.054656,-0.06832,-1.68,2.40625,-6.18625,17.856,-27.384,40.496002,eccentric,8,5.0,18813.0,403431.0,233359.0,86537.0,12425.0
2026-04-09 22:40:38.595822,568722,3368468752,3368470552,-1.06384,0.060512,-0.042944,-2.52875,2.03875,-5.24125,17.6,-26.984001,40.448,eccentric,8,5.0,18813.0,403431.0,233359.0,86537.0,12425.0
2026-04-09 22:40:38.625540,568732,3368483279,3368485891,-1.06384,0.060512,-0.042944,0.13125,1.53125,-5.31125,17.6,-26.984001,40.448,eccentric,8,5.0,18903.0,403431.0,232071.0,85705.0,12026.0
2026-04-09 22:40:38.629220,568733,3368492290,3368494594,-1.042368,0.093696,-0.03904,2.93125,1.70625,-5.52125,18.424002,-27.208002,39.552002,eccentric,8,5.0,18903.0,403431.0,232071.0,85705.0,12026.0
2026-04-09 22:40:38.631690,568734,3368501253,3368503339,-1.042368,0.093696,-0.03904,5.3025,2.1525,-5.57375,18.424002,-27.208002,39.552002,eccentric,8,5.0,18903.0,403431.0,232071.0,85705.0,12026.0
2026-04-09 22:40:38.634193,568735,3368510232,3368512090,-1.03456,0.101504,-0.05856,5.6525,3.29875,-5.46875,18.712002,-27.160002,39.504,eccentric,8,5.0,18903.0,403431.0,232071.0,85705.0,12026.0
2026-04-09 22:40:38.637310,568736,3368524818,3368527076,-1.03456,0.101504,-0.05856,4.34,4.095,-5.9325,18.712002,-27.160002,39.504,eccentric,8,5.0,18903.0,403431.0,232071.0,85705.0,12026.0
2026-04-09 22:40:38.639205,568737,3368533803,3368535852,-1.013088,0.076128,-0.0488,2.40625,5.425,-6.685,18.12,-27.2,39.536003,eccentric,8,5.0,18903.0,403431.0,232071.0,85705.0,12026.0
2026-04-09 22:40:38.666901,568738,3368542768,3368544593,-1.013088,0.076128,-0.0488,2.51125,5.53,-6.93,18.12,-27.2,39.536003,concentric,8,5.0,18903.0,403431.0,232071.0,85705.0,12026.0
2026-04-09 22:40:38.670468,568739,3368557265,3368559491,-0.98576,0.083936,-0.040992,4.97875,5.81,-7.0875,17.92,-27.512001,39.704002,concentric,8,5.0,18903.0,403431.0,232071.0,85705.0,12026.0
2026-04-09 22:40:38.672939,568740,3368566312,3368568180,-0.98576,0.091744,-0.031232,5.62625,6.09875,-7.18375,17.92,-27.512001,39.704002,concentric,8,5.0,18903.0,403431.0,232071.0,85705.0,12026.0
2026-04-09 22:40:38.682886,568741,3368575310,3368576857,-0.976,0.091744,-0.031232,5.7575,6.545,-6.83375,18.696001,-27.400002,35.784,concentric,8,5.0,18903.0,403431.0,232071.0,85705.0,12026.0
2026-04-09 22:40:38.743171,568751,3368589921,3368591827,-0.98576,0.083936,-0.02928,4.8125,7.06125,-7.23625,17.312,-28.024002,41.752003,concentric,8,5.0,18975.0,403431.0,231441.0,85343.0,11902.0
2026-04-09 22:40:38.746705,568752,3368598967,3368600636,-0.98576,0.083936,-0.02928,4.71625,7.70875,-8.33875,17.312,-28.024002,41.752003,concentric,8,5.0,18975.0,403431.0,231441.0,85343.0,11902.0
2026-04-09 22:40:38.749194,568753,3368607967,3368609427,-0.958432,0.081984,-0.042944,5.81875,7.39375,-9.485,18.800001,-27.552002,36.760002,concentric,8,5.0,18975.0,403431.0,231441.0,85343.0,11902.0
2026-04-09 22:40:38.751677,568754,3368616914,3368618131,-0.958432,0.081984,-0.042944,7.035,7.98,-10.167501,18.800001,-27.552002,36.760002,concentric,8,5.0,18975.0,403431.0,231441.0,85343.0,11902.0
2026-04-09 22:40:38.754196,568755,3368631410,3368633050,-0.950624,0.091744,-0.040992,8.7325,7.9275,-11.38375,18.632,-27.392002,39.136,concentric,8,5.0,18975.0,403431.0,231441.0,85343.0,11902.0
2026-04-09 22:40:38.756699,568756,3368640343,3368641764,-0.950624,0.091744,-0.040992,10.0975,8.1375,-12.08375,18.632,-27.392002,39.136,concentric,8,5.0,18975.0,403431.0,231441.0,85343.0,11902.0
2026-04-09 22:40:38.759208,568757,3368649280,3368650470,-0.944768,0.035136,-0.02928,9.16125,8.6275,-12.32875,18.928001,-27.560001,39.056004,concentric,8,5.0,18975.0,403431.0,231441.0,85343.0,11902.0
2026-04-09 22:40:38.790548,568758,3368663803,3368665390,-0.944768,0.035136,-0.02928,6.65,8.77625,-12.04,18.928001,-27.560001,39.056004,concentric,8,5.0,18975.0,403431.0,231441.0,85343.0,11902.0
2026-04-09 22:40:38.792967,568759,3368672780,3368674155,-0.929152,0.013664,-0.00976,3.12375,8.79375,-11.1825,19.088001,-27.664001,39.064003,concentric,8,5.0,18975.0,403431.0,231441.0,85343.0,11902.0
2026-04-09 22:40:38.795501,568760,3368681709,3368682851,-0.929152,0.013664,-0.00976,1.715,9.9225,-9.54625,19.088001,-27.664001,39.064003,concentric,8,5.0,18975.0,403431.0,231441.0,85343.0,11902.0
2026-04-09 22:40:38.822987,568771,3368696305,3368697835,-0.968192,0.035136,-0.023424,0.9625,10.3425,-7.70875,19.008001,-27.144001,39.088,concentric,8,5.0,18936.0,403431.0,232156.0,85773.0,12090.0
2026-04-09 22:40:38.825481,568772,3368705280,3368706544,-0.968192,0.035136,-0.023424,0.7875,9.96625,-6.06375,19.008001,-27.144001,39.088,concentric,8,5.0,18936.0,403431.0,232156.0,85773.0,12090.0
2026-04-09 22:40:38.827978,568773,3368714252,3368715307,-0.962336,0.07808,-0.044896,-0.02625,9.17875,-4.19125,18.320002,-26.888,40.384003,concentric,8,5.0,18936.0,403431.0,232156.0,85773.0,12090.0
2026-04-09 22:40:38.830492,568774,3368723176,3368724030,-0.962336,0.07808,-0.044896,-0.23625,8.225,-2.82625,18.320002,-26.888,40.384003,concentric,8,5.0,18936.0,403431.0,232156.0,85773.0,12090.0
2026-04-09 22:40:38.860786,568775,3368737732,3368738961,-0.972096,0.072224,-0.040992,-1.575,8.6975,-3.325,18.128,-27.240002,39.688004,concentric,8,5.0,18936.0,403431.0,232156.0,85773.0,12090.0
2026-04-09 22:40:38.864249,568776,3368746605,3368747679,-0.972096,0.072224,-0.040992,-6.30875,8.95125,-3.78,18.128,-27.240002,39.688004,concentric,8,5.0,18936.0,403431.0,232156.0,85773.0,12090.0
2026-04-09 22:40:38.866879,568777,3368755507,3368756390,-1.026752,0.046848,-0.046848,-10.815,8.5925,-4.76875,19.568,-27.128002,38.68,concentric,8,5.0,18936.0,403431.0,232156.0,85773.0,12090.0
2026-04-09 22:40:38.874291,568778,3368770025,3368771334,-1.038464,0.050752,-0.052704,-12.0925,8.11125,-5.80125,18.480001,-27.240002,40.144,concentric,8,5.0,18936.0,403431.0,232156.0,85773.0,12090.0
2026-04-09 22:40:38.904460,568779,3368778945,3368780060,-1.038464,0.050752,-0.052704,-11.2525,7.42875,-5.18,18.480001,-27.240002,40.144,concentric,8,5.0,18936.0,403431.0,232156.0,85773.0,12090.0
2026-04-09 22:40:38.931830,568789,3368788316,3368788770,-0.999424,0.056608,-0.015616,-8.9075,6.72875,-5.2675,19.168001,-27.480001,38.392002,concentric,8,5.0,19162.0,403431.0,229658.0,84221.0,11383.0
2026-04-09 22:40:38.933026,568790,3368797681,3368799556,-0.999424,0.056608,-0.015616,-7.16625,7.16625,-6.46625,19.168001,-27.480001,38.392002,concentric,8,5.0,19162.0,403431.0,229658.0,84221.0,11383.0
2026-04-09 22:40:38.935565,568791,3368812180,3368814487,-0.993568,0.054656,-0.033184,-6.08125,8.51375,-7.56,19.752,-27.264002,39.104,concentric,8,5.0,19162.0,403431.0,229658.0,84221.0,11383.0
2026-04-09 22:40:38.939208,568792,3368821160,3368823201,-0.993568,0.054656,-0.033184,-5.10125,9.1,-7.79625,19.752,-27.264002,39.104,concentric,8,5.0,19162.0,403431.0,229658.0,84221.0,11383.0
2026-04-09 22:40:38.940871,568793,3368830204,3368831926,-0.974048,0.042944,-0.064416,-5.71375,9.7475,-7.62125,19.248001,-27.672,39.120003,concentric,8,5.0,19162.0,403431.0,229658.0,84221.0,11383.0
2026-04-09 22:40:38.970865,568794,3368844757,3368846850,-0.974048,0.042944,-0.064416,-5.0575,8.40875,-6.71125,19.248001,-27.672,39.120003,concentric,8,5.0,19162.0,403431.0,229658.0,84221.0,11383.0
2026-04-09 22:40:38.974397,568795,3368853670,3368855543,-0.983808,0.050752,-0.083936,-5.1625,7.735,-5.92375,19.688002,-27.36,39.168003,concentric,8,5.0,19162.0,403431.0,229658.0,84221.0,11383.0
2026-04-09 22:40:38.976785,568796,3368862588,3368864229,-0.983808,0.050752,-0.083936,-5.2675,8.07625,-5.38125,19.688002,-27.36,39.168003,concentric,8,5.0,19162.0,403431.0,229658.0,84221.0,11383.0
2026-04-09 22:40:38.980509,568797,3368877107,3368879166,-1.038464,0.081984,-0.093696,-3.64,7.46375,-6.055,20.04,-27.472002,38.968002,concentric,8,5.0,19162.0,403431.0,229658.0,84221.0,11383.0
2026-04-09 22:40:39.066840,568807,3368886049,3368888078,-1.038464,0.081984,-0.093696,-1.53125,7.4725,-7.18375,20.04,-27.472002,38.968002,concentric,8,5.0,19090.0,403431.0,230553.0,84766.0,11587.0
2026-04-09 22:40:39.069285,568808,3368895020,3368896753,-1.052128,0.074176,-0.052704,0.35875,6.34375,-8.1725,20.008001,-26.944002,40.528004,concentric,8,5.0,19090.0,403431.0,230553.0,84766.0,11587.0
2026-04-09 22:40:39.071800,568809,3368909484,3368911640,-1.065792,0.033184,-0.035136,0.25375,5.145,-8.72375,19.92,-26.872002,39.544003,concentric,8,5.0,19090.0,403431.0,230553.0,84766.0,11587.0
2026-04-09 22:40:39.074451,568810,3368918401,3368920327,-1.065792,0.033184,-0.035136,0.3675,4.62875,-9.135,19.92,-26.872002,39.544003,concentric,8,5.0,19090.0,403431.0,230553.0,84766.0,11587.0
2026-04-09 22:40:39.076855,568811,3368927322,3368928985,-1.065792,0.033184,-0.054656,1.085,5.18,-8.9425,19.92,-26.872002,39.544003,concentric,8,5.0,19090.0,403431.0,230553.0,84766.0,11587.0
2026-04-09 22:40:39.079194,568812,3368936272,3368937671,-1.077504,0.037088,-0.054656,3.59625,5.005,-7.65625,19.872002,-27.216002,37.08,concentric,8,5.0,19090.0,403431.0,230553.0,84766.0,11587.0
2026-04-09 22:40:39.081847,568813,3368950772,3368952634,-1.028704,0.037088,-0.070272,5.39,4.34875,-6.7725,18.888,-27.352001,40.480003,concentric,8,5.0,19090.0,403431.0,230553.0,84766.0,11587.0
2026-04-09 22:40:39.084407,568814,3368959781,3368961354,-1.028704,0.037088,-0.070272,5.285,3.255,-5.81,18.888,-27.352001,40.480003,concentric,8,5.0,19090.0,403431.0,230553.0,84766.0,11587.0
2026-04-09 22:40:39.086944,568815,3368968722,3368970143,-1.020896,0.027328,-0.08784,3.325,2.8,-4.655,19.128,-27.768002,41.976,concentric,8,5.0,19090.0,403431.0,230553.0,84766.0,11587.0
2026-04-09 22:40:39.090634,568816,3368983228,3368985088,-1.020896,0.027328,-0.08784,3.50875,1.67125,-3.29875,19.128,-27.768002,41.976,concentric,8,5.0,19090.0,403431.0,230553.0,84766.0,11587.0
2026-04-09 22:40:39.116867,568827,3368992272,3368993808,-0.993568,0.050752,-0.072224,5.2675,0.79625,-2.12625,19.608002,-27.680002,39.656002,concentric,8,5.0,19089.0,403431.0,230470.0,84660.0,11546.0
2026-04-09 22:40:39.119200,568828,3369001440,3369002591,-0.993568,0.050752,-0.072224,7.595,-0.21,-1.4525,19.608002,-27.680002,39.656002,concentric,8,5.0,19089.0,403431.0,230470.0,84660.0,11546.0
2026-04-09 22:40:39.121916,568829,3369016021,3369017540,-0.993568,0.095648,-0.044896,10.71,-1.37375,-2.31,19.264002,-27.28,39.888,concentric,8,5.0,19089.0,403431.0,230470.0,84660.0,11546.0
2026-04-09 22:40:39.152075,568830,3369024981,3369026262,-0.993568,0.095648,-0.044896,9.6425,-0.4725,-3.955,19.264002,-27.28,39.888,concentric,8,5.0,19089.0,403431.0,230470.0,84660.0,11546.0
2026-04-09 22:40:39.155528,568831,3369033892,3369034976,-1.046272,0.07808,-0.054656,4.03375,-0.0175,-5.43375,20.136002,-27.408,38.736,concentric,8,5.0,19089.0,403431.0,230470.0,84660.0,11546.0
2026-04-09 22:40:39.158071,568832,3369042778,3369043696,-1.046272,0.07808,-0.054656,0.18375,-0.5425,-7.0525,20.136002,-27.408,38.736,concentric,8,5.0,19089.0,403431.0,230470.0,84660.0,11546.0
2026-04-09 22:40:39.160619,568833,3369057300,3369058611,-1.042368,0.02928,-0.091744,-1.26875,-1.44375,-9.065,21.008001,-27.240002,38.328003,concentric,8,5.0,19089.0,403431.0,230470.0,84660.0,11546.0
2026-04-09 22:40:39.193343,568834,3369066216,3369067305,-1.042368,0.02928,-0.091744,2.45875,-3.49125,-10.395,21.008001,-27.240002,38.328003,concentric,8,5.0,19089.0,403431.0,230470.0,84660.0,11546.0
2026-04-09 22:40:39.196785,568835,3369075118,3369075997,-1.056032,0.064416,-0.081984,9.065,-4.55,-11.71625,20.872002,-27.968,39.760002,concentric,8,5.0,19089.0,403431.0,230470.0,84660.0,11546.0
2026-04-09 22:40:39.221804,568845,3369090076,3369091582,-1.069696,0.08784,-0.044896,13.20375,-4.97,-12.46875,20.648,-27.432001,39.056004,concentric,8,5.0,19266.0,403431.0,228223.0,83193.0,10902.0
2026-04-09 22:40:39.224203,568846,3369099038,3369100321,-1.069696,0.08784,-0.044896,12.0225,-4.20875,-12.34625,20.648,-27.432001,39.056004,concentric,8,5.0,19266.0,403431.0,228223.0,83193.0,10902.0
2026-04-09 22:40:39.226743,568847,3369108005,3369109139,-1.069696,0.08784,-0.040992,7.44625,-2.8,-12.355001,20.648,-27.432001,39.056004,concentric,8,5.0,19266.0,403431.0,228223.0,83193.0,10902.0
2026-04-09 22:40:39.229319,568848,3369122587,3369124115,-1.100928,0.02928,-0.040992,1.44375,-1.54875,-12.95,19.832,-27.640001,39.512,concentric,8,5.0,19266.0,403431.0,228223.0,83193.0,10902.0
2026-04-09 22:40:39.236845,568849,3369131537,3369132824,-1.087264,0.017568,-0.07808,-1.44375,-0.46375,-13.11625,20.408,-28.088001,38.144,concentric,8,5.0,19266.0,403431.0,228223.0,83193.0,10902.0
2026-04-09 22:40:39.243208,568850,3369140482,3369141560,-1.087264,0.017568,-0.07808,-0.42,-0.1925,-13.36125,20.408,-28.088001,38.144,concentric,8,5.0,19266.0,403431.0,228223.0,83193.0,10902.0
2026-04-09 22:40:39.274561,568851,3369149412,3369150293,-1.100928,0.054656,-0.07808,2.38,-0.28,-13.11625,20.528002,-27.640001,38.328003,concentric,8,5.0,19266.0,403431.0,228223.0,83193.0,10902.0
2026-04-09 22:40:39.278100,568852,3369163906,3369165175,-1.100928,0.054656,-0.07808,3.395,-0.035,-12.705,20.528002,-27.640001,38.328003,concentric,8,5.0,19266.0,403431.0,228223.0,83193.0,10902.0
2026-04-09 22:40:39.280569,568853,3369172824,3369173890,-1.108736,0.005856,-0.095648,0.37625,0.4025,-12.50375,21.928001,-27.888,38.728,concentric,8,5.0,19266.0,403431.0,228223.0,83193.0,10902.0
2026-04-09 22:40:39.285596,568854,3369181740,3369182582,-1.108736,0.005856,-0.095648,-3.6225,0.02625,-12.32,21.928001,-27.888,38.728,concentric,8,5.0,19266.0,403431.0,228223.0,83193.0,10902.0
2026-04-09 22:40:39.349290,568864,3369196327,3369197622,-1.065792,-0.013664,-0.095648,-2.24875,-0.69125,-10.80625,20.896002,-27.680002,40.0,concentric,8,5.0,19278.0,403431.0,227810.0,82960.0,10778.0
2026-04-09 22:40:39.351915,568865,3369205284,3369206374,-1.065792,-0.013664,-0.095648,2.7125,-1.645,-9.93125,20.896002,-27.680002,40.0,concentric,8,5.0,19278.0,403431.0,227810.0,82960.0,10778.0
2026-04-09 22:40:39.355035,568866,3369214209,3369215079,-1.05408,0.013664,-0.0976,5.22375,-2.14375,-10.56125,21.272001,-28.072,38.712,concentric,8,5.0,19278.0,403431.0,227810.0,82960.0,10778.0
2026-04-09 22:40:39.357137,568867,3369228693,3369229950,-1.05408,0.046848,-0.08784,8.84625,-1.72375,-11.13875,21.272001,-28.072,38.712,concentric,8,5.0,19278.0,403431.0,227810.0,82960.0,10778.0
2026-04-09 22:40:39.359264,568868,3369237620,3369238691,-1.089216,0.046848,-0.08784,10.2025,-1.995,-11.05125,22.12,-27.544,38.824,concentric,8,5.0,19278.0,403431.0,227810.0,82960.0,10778.0
2026-04-09 22:40:39.361763,568869,3369246526,3369247429,-1.089216,0.046848,-0.08784,7.3325,-0.9975,-10.61375,22.12,-27.544,38.824,concentric,8,5.0,19278.0,403431.0,227810.0,82960.0,10778.0
2026-04-09 22:40:39.364292,568870,3369261035,3369262401,-1.10288,0.042944,-0.11712,4.76875,-1.04125,-9.94,21.664001,-27.680002,38.752003,concentric,8,5.0,19278.0,403431.0,227810.0,82960.0,10778.0
2026-04-09 22:40:39.394652,568871,3369269990,3369271111,-1.085312,0.01952,-0.081984,1.58375,-1.77625,-10.24625,21.688002,-28.000002,38.768,concentric,8,5.0,19278.0,403431.0,227810.0,82960.0,10778.0
2026-04-09 22:40:39.398069,568872,3369278911,3369279799,-1.085312,0.01952,-0.081984,1.225,-1.77625,-11.9525,21.688002,-28.000002,38.768,concentric,8,5.0,19278.0,403431.0,227810.0,82960.0,10778.0
2026-04-09 22:40:39.400550,568873,3369287847,3369288528,-1.085312,0.01952,-0.081984,4.61125,-2.03,-14.56875,21.688002,-28.000002,38.768,concentric,8,5.0,19278.0,403431.0,227810.0,82960.0,10778.0
2026-04-09 22:40:39.428073,568884,3369302955,3369303553,-1.100928,0.00976,-0.040992,10.0625,-1.225,-16.33625,22.264002,-27.536001,38.984,concentric,8,5.0,19257.0,403431.0,227656.0,82789.0,10716.0
2026-04-09 22:40:39.430528,568885,3369312332,3369314361,-1.18096,0.052704,-0.08784,14.55125,0.6125,-16.616251,21.640001,-27.624,39.296,concentric,8,5.0,19257.0,403431.0,227656.0,82789.0,10716.0
2026-04-09 22:40:39.433036,568886,3369321392,3369323194,-1.18096,0.052704,-0.08784,14.035,1.32125,-15.5225,21.640001,-27.624,39.296,concentric,8,5.0,19257.0,403431.0,227656.0,82789.0,10716.0
2026-04-09 22:40:39.438073,568887,3369330410,3369331924,-1.153632,0.037088,-0.134688,6.65875,1.6625,-15.715,21.632002,-26.928001,39.096,concentric,8,5.0,19257.0,403431.0,227656.0,82789.0,10716.0
2026-04-09 22:40:39.470902,568888,3369345030,3369346820,-1.153632,0.037088,-0.134688,-0.90125,1.295,-15.51375,21.632002,-26.928001,39.096,concentric,8,5.0,19257.0,403431.0,227656.0,82789.0,10716.0
2026-04-09 22:40:39.474256,568889,3369353956,3369355520,-1.130208,-0.001952,-0.0976,-4.80375,0.84,-15.7675,23.232,-27.920002,38.816,concentric,8,5.0,19257.0,403431.0,227656.0,82789.0,10716.0
2026-04-09 22:40:39.476740,568890,3369362934,3369364253,-1.130208,-0.001952,-0.0976,-1.4525,1.40875,-16.2575,23.232,-27.920002,38.816,concentric,8,5.0,19257.0,403431.0,227656.0,82789.0,10716.0
2026-04-09 22:40:39.481804,568891,3369377422,3369379163,-1.16144,0.011712,-0.060512,7.42875,1.63625,-17.63125,23.328001,-27.968,38.024002,concentric,8,5.0,19257.0,403431.0,227656.0,82789.0,10716.0
2026-04-09 22:40:39.512168,568892,3369386364,3369387862,-1.16144,0.011712,-0.060512,14.81375,2.73875,-19.11875,23.328001,-27.968,38.024002,concentric,8,5.0,19257.0,403431.0,227656.0,82789.0,10716.0
2026-04-09 22:40:39.538107,568902,3369395375,3369396595,-1.163392,0.07808,-0.03904,17.5175,4.1475,-19.36375,23.072,-27.616001,38.928,concentric,8,5.0,19221.0,403431.0,228046.0,83075.0,10828.0
2026-04-09 22:40:39.540659,568903,3369409878,3369411566,-1.188768,0.054656,-0.081984,12.32,6.09875,-19.66125,23.712002,-27.448002,39.488003,concentric,8,5.0,19221.0,403431.0,228046.0,83075.0,10828.0
2026-04-09 22:40:39.542943,568904,3369418826,3369420288,-1.188768,0.054656,-0.081984,1.98625,7.7875,-20.51875,23.712002,-27.448002,39.488003,concentric,8,5.0,19221.0,403431.0,228046.0,83075.0,10828.0
2026-04-09 22:40:39.545581,568905,3369428000,3369429033,-1.188768,0.054656,-0.081984,-7.83125,9.12625,-21.53375,23.712002,-27.448002,39.488003,concentric,8,5.0,19221.0,403431.0,228046.0,83075.0,10828.0
2026-04-09 22:40:39.548029,568906,3369436974,3369437769,-1.182912,-0.005856,-0.099552,-10.325,8.9775,-22.4875,22.784,-27.240002,42.52,concentric,8,5.0,19221.0,403431.0,228046.0,83075.0,10828.0
2026-04-09 22:40:39.578971,568907,3369451520,3369452721,-1.214144,-0.033184,-0.081984,-5.2675,7.90125,-23.77375,23.816002,-27.472002,38.576,concentric,8,5.0,19221.0,403431.0,228046.0,83075.0,10828.0
2026-04-09 22:40:39.581840,568908,3369460449,3369461463,-1.214144,-0.033184,-0.081984,2.47625,8.12,-23.52,23.816002,-27.472002,38.576,concentric,8,5.0,19221.0,403431.0,228046.0,83075.0,10828.0
2026-04-09 22:40:39.584359,568909,3369469356,3369470196,-1.214144,-0.033184,-0.0976,8.3125,7.525,-22.35625,23.816002,-27.472002,38.576,concentric,8,5.0,19221.0,403431.0,228046.0,83075.0,10828.0
2026-04-09 22:40:39.586864,568910,3369483843,3369485089,-1.23952,-0.01952,-0.0976,10.71,6.3,-20.36125,24.28,-26.664001,40.368,concentric,8,5.0,19221.0,403431.0,228046.0,83075.0,10828.0
2026-04-09 22:40:39.657823,568920,3369493548,3369494049,-1.245376,-0.035136,-0.109312,9.33625,5.6,-18.55,23.400002,-26.616001,38.712,concentric,8,5.0,19291.0,403431.0,226943.0,82314.0,10490.0
2026-04-09 22:40:39.658179,568921,3369503037,3369504875,-1.245376,-0.035136,-0.109312,8.155,5.76625,-17.29,23.400002,-26.616001,38.712,concentric,8,5.0,19291.0,403431.0,226943.0,82314.0,10490.0
2026-04-09 22:40:39.658506,568922,3369511999,3369513618,-1.243424,-0.023424,-0.119072,10.26375,4.54125,-15.645,24.104002,-26.848001,37.888,concentric,8,5.0,19291.0,403431.0,226943.0,82314.0,10490.0
2026-04-09 22:40:39.658576,568923,3369526560,3369528592,-1.243424,-0.023424,-0.119072,12.0925,3.5525,-14.245,24.104002,-26.848001,37.888,concentric,8,5.0,19291.0,403431.0,226943.0,82314.0,10490.0
2026-04-09 22:40:39.664589,568924,3369535559,3369537305,-1.25904,0.011712,-0.070272,11.54125,3.5525,-12.81875,24.424002,-27.36,38.2,concentric,8,5.0,19291.0,403431.0,226943.0,82314.0,10490.0
2026-04-09 22:40:39.664771,568925,3369544476,3369546002,-1.25904,0.011712,-0.070272,8.198751,3.38625,-11.43625,24.424002,-27.36,38.2,concentric,8,5.0,19291.0,403431.0,226943.0,82314.0,10490.0
2026-04-09 22:40:39.665611,568926,3369559046,3369560936,-1.214144,-0.00976,-0.023424,1.96,3.3075,-10.0275,25.048,-27.000002,37.528,concentric,8,5.0,19291.0,403431.0,226943.0,82314.0,10490.0
2026-04-09 22:40:39.695796,568927,3369568017,3369569662,-1.214144,-0.00976,-0.023424,-2.91375,3.71,-9.05625,25.048,-27.000002,37.528,concentric,8,5.0,19291.0,403431.0,226943.0,82314.0,10490.0
2026-04-09 22:40:39.699271,568928,3369576950,3369578432,-1.247328,-0.021472,-0.072224,-3.3775,4.43625,-8.88125,23.832,-26.656002,37.552002,concentric,8,5.0,19291.0,403431.0,226943.0,82314.0,10490.0
2026-04-09 22:40:39.701746,568929,3369585869,3369587123,-1.247328,-0.021472,-0.072224,-2.09125,6.125,-9.24875,23.832,-26.656002,37.552002,concentric,8,5.0,19291.0,403431.0,226943.0,82314.0,10490.0
2026-04-09 22:40:39.733574,568940,3369600757,3369602123,-1.286368,-0.015616,-0.11712,-0.42,6.195,-9.1,25.008001,-27.056002,38.04,concentric,8,5.0,19277.0,403431.0,227460.0,82761.0,10711.0
2026-04-09 22:40:39.736163,568941,3369609772,3369610877,-1.286368,-0.015616,-0.085888,-0.28875,5.3025,-9.3625,25.008001,-27.056002,38.04,concentric,8,5.0,19277.0,403431.0,227460.0,82761.0,10711.0
2026-04-09 22:40:39.737936,568942,3369618699,3369619623,-1.274656,-0.003904,-0.089792,-0.9625,4.80375,-8.89875,23.624,-26.384,39.984,concentric,8,5.0,19277.0,403431.0,227460.0,82761.0,10711.0
2026-04-09 22:40:39.744262,568943,3369633219,3369634594,-1.266848,-0.015616,-0.054656,0.945,2.9925,-6.97375,24.952002,-26.576002,37.864002,concentric,8,5.0,19277.0,403431.0,227460.0,82761.0,10711.0
2026-04-09 22:40:39.746720,568944,3369642164,3369643327,-1.266848,-0.015616,-0.054656,1.19,2.625,-5.7925,24.952002,-26.576002,37.864002,concentric,8,5.0,19277.0,403431.0,227460.0,82761.0,10711.0
2026-04-09 22:40:39.773121,568945,3369651104,3369652058,-1.294176,-0.03904,-0.099552,-1.72375,3.185,-5.4775,23.408,-27.28,37.808002,concentric,8,5.0,19277.0,403431.0,227460.0,82761.0,10711.0
2026-04-09 22:40:39.775528,568946,3369665596,3369667024,-1.294176,-0.03904,-0.099552,-4.36625,3.6225,-4.57625,23.408,-27.28,37.808002,concentric,8,5.0,19277.0,403431.0,227460.0,82761.0,10711.0
2026-04-09 22:40:39.778021,568947,3369674512,3369675699,-1.309792,-0.015616,-0.101504,-3.52625,3.63125,-4.80375,24.392002,-26.920002,37.904003,concentric,8,5.0,19277.0,403431.0,227460.0,82761.0,10711.0
2026-04-09 22:40:39.788098,568948,3369683453,3369684415,-1.309792,-0.015616,-0.101504,1.47,3.10625,-4.6375,24.392002,-26.920002,37.904003,concentric,8,5.0,19277.0,403431.0,227460.0,82761.0,10711.0
2026-04-09 22:40:39.819541,568958,3369698029,3369699488,-1.266848,-0.005856,-0.070272,3.5525,1.86375,-3.66625,24.928001,-26.344002,37.888,concentric,8,5.0,19189.0,403431.0,228723.0,83653.0,11110.0
2026-04-09 22:40:39.821788,568959,3369707023,3369708268,-1.266848,-0.005856,-0.070272,-0.245,1.98625,-1.6275,24.928001,-26.344002,37.888,concentric,8,5.0,19189.0,403431.0,228723.0,83653.0,11110.0
2026-04-09 22:40:39.824334,568960,3369715954,3369717029,-1.25904,-0.025376,-0.064416,-3.99,1.5575,-0.84875,23.496,-26.960001,39.152,concentric,8,5.0,19189.0,403431.0,228723.0,83653.0,11110.0
2026-04-09 22:40:39.829267,568961,3369724885,3369725802,-1.25904,-0.025376,-0.064416,-5.6875,1.8375,-1.12875,23.496,-26.960001,39.152,concentric,8,5.0,19189.0,403431.0,228723.0,83653.0,11110.0
