pc_time,serial_num,sensor_ts,host_ts,ax,ay,az,gx,gy,gz,mx,my,mz,phase,rpe,weight_kg,ppg_a,ppg_b,ppg_c,ppg_d,ppg_e
2026-04-09 22:40:39.859549,568962,3369739339,3369740792,-1.266848,-0.021472,-0.113216,-6.1425,2.14375,-0.35,24.304,-27.168001,38.192,eccentric,8,5.0,19189.0,403431.0,228723.0,83653.0,11110.0
2026-04-09 22:40:39.863104,568963,3369748252,3369749492,-1.266848,-0.021472,-0.113216,-4.8125,1.68875,1.2425,24.304,-27.168001,38.192,eccentric,8,5.0,19189.0,403431.0,228723.0,83653.0,11110.0
2026-04-09 22:40:39.865623,568964,3369757164,3369758251,-1.251232,-0.023424,-0.109312,-5.10125,0.84,1.53125,24.296001,-26.912,38.152,eccentric,8,5.0,19189.0,403431.0,228723.0,83653.0,11110.0
2026-04-09 22:40:39.896497,568965,3369771644,3369773186,-1.208288,-0.025376,-0.064416,-3.19375,0.65625,2.52,23.800001,-26.552002,38.944,eccentric,8,5.0,19189.0,403431.0,228723.0,83653.0,11110.0
2026-04-09 22:40:39.899380,568966,3369780578,3369781882,-1.208288,-0.025376,-0.064416,-0.14,-0.02625,3.85875,23.800001,-26.552002,38.944,eccentric,8,5.0,19189.0,403431.0,228723.0,83653.0,11110.0
2026-04-09 22:40:39.901874,568967,3369789488,3369790638,-1.208288,-0.025376,-0.064416,0.0875,0.2275,5.15375,23.800001,-26.552002,38.944,eccentric,8,5.0,19189.0,403431.0,228723.0,83653.0,11110.0
2026-04-09 22:40:39.959344,568977,3369804018,3369805928,-1.212192,0.007808,-0.072224,-0.70875,1.155,5.145,23.640001,-26.808,38.192,eccentric,8,5.0,19140.0,403431.0,229158.0,83930.0,11248.0
2026-04-09 22:40:39.961803,568978,3369812956,3369814705,-1.192672,-0.005856,-0.093696,-2.6775,1.95125,5.24125,22.816002,-26.848001,39.36,eccentric,8,5.0,19140.0,403431.0,229158.0,83930.0,11248.0
2026-04-09 22:40:39.964293,568979,3369821864,3369823390,-1.192672,-0.005856,-0.093696,-6.335,1.015,5.705,22.816002,-26.848001,39.36,eccentric,8,5.0,19140.0,403431.0,229158.0,83930.0,11248.0
2026-04-09 22:40:39.966784,568980,3369836324,3369838302,-1.167296,-0.017568,-0.101504,-8.7325,1.2075,5.41625,23.216002,-26.896002,38.656002,eccentric,8,5.0,19140.0,403431.0,229158.0,83930.0,11248.0
2026-04-09 22:40:39.969293,568981,3369845228,3369847039,-1.167296,-0.017568,-0.101504,-7.3675,1.05,5.3375,23.216002,-26.896002,38.656002,eccentric,8,5.0,19140.0,403431.0,229158.0,83930.0,11248.0
2026-04-09 22:40:39.971775,568982,3369854157,3369855759,-1.16144,-0.021472,-0.0976,-5.04,-0.035,7.21875,23.024,-27.256,38.352,eccentric,8,5.0,19140.0,403431.0,229158.0,83930.0,11248.0
2026-04-09 22:40:39.977161,568983,3369863231,3369864463,-1.16144,-0.021472,-0.0976,-3.7275,-0.56875,9.17,23.024,-27.256,38.352,eccentric,8,5.0,19140.0,403431.0,229158.0,83930.0,11248.0
2026-04-09 22:40:39.981780,568984,3369877710,3369879460,-1.153632,-0.00976,-0.0976,-2.31875,-0.2975,10.75375,23.504002,-27.168001,39.048,eccentric,8,5.0,19140.0,403431.0,229158.0,83930.0,11248.0
2026-04-09 22:40:39.990770,568985,3369886618,3369888152,-1.153632,-0.00976,-0.0976,-2.54625,0.1925,11.24375,23.504002,-27.168001,39.048,eccentric,8,5.0,19140.0,403431.0,229158.0,83930.0,11248.0
2026-04-09 22:40:40.018124,568995,3369895838,3369896879,-1.145824,0.044896,-0.060512,-3.3425,0.28875,10.255,23.192001,-27.44,39.272003,eccentric,8,5.0,19149.0,403431.0,228849.0,83663.0,11100.0
2026-04-09 22:40:40.020527,568996,3369910397,3369911902,-1.145824,0.044896,-0.060512,-0.8925,1.21625,9.0475,23.192001,-27.44,39.272003,eccentric,8,5.0,19149.0,403431.0,228849.0,83663.0,11100.0
2026-04-09 22:40:40.023010,568997,3369919403,3369920617,-1.128256,0.011712,-0.095648,-0.88375,1.6975,8.575,21.480001,-26.856,41.368004,eccentric,8,5.0,19149.0,403431.0,228849.0,83663.0,11100.0
2026-04-09 22:40:40.054496,568998,3369928377,3369929376,-1.128256,0.011712,-0.095648,-4.865,1.58375,7.76125,21.480001,-26.856,41.368004,eccentric,8,5.0,19149.0,403431.0,228849.0,83663.0,11100.0
2026-04-09 22:40:40.057446,568999,3369942849,3369944278,-1.143872,-0.023424,-0.121024,-5.69625,1.47,7.77875,21.888,-27.008001,40.176003,eccentric,8,5.0,19149.0,403431.0,228849.0,83663.0,11100.0
2026-04-09 22:40:40.059703,569000,3369951755,3369952982,-1.126304,-0.003904,-0.099552,-1.61,1.4525,8.96,21.888,-27.6,38.328003,eccentric,8,5.0,19149.0,403431.0,228849.0,83663.0,11100.0
2026-04-09 22:40:40.065594,569001,3369960701,3369961771,-1.126304,-0.003904,-0.099552,1.02375,0.8225,10.12375,22.240002,-27.6,38.328003,eccentric,8,5.0,19149.0,403431.0,228849.0,83663.0,11100.0
2026-04-09 22:40:40.095807,569002,3369969616,3369970483,-1.126304,-0.003904,-0.099552,2.2925,0.76125,11.90875,22.240002,-27.6,38.328003,eccentric,8,5.0,19149.0,403431.0,228849.0,83663.0,11100.0
2026-04-09 22:40:40.099310,569003,3369984096,3369985357,-1.106784,0.052704,-0.064416,1.54875,1.35625,10.96375,20.992,-27.672,40.056004,eccentric,8,5.0,19149.0,403431.0,228849.0,83663.0,11100.0
2026-04-09 22:40:40.126896,569014,3369993112,3369994451,-1.124352,0.046848,-0.066368,-0.3675,2.2225,9.3275,21.2,-27.624,40.712,eccentric,8,5.0,19088.0,403431.0,229086.0,83728.0,11126.0
2026-04-09 22:40:40.130404,569015,3370002065,3370003203,-1.124352,0.046848,-0.066368,-1.86375,2.96625,8.42625,21.2,-27.624,40.712,eccentric,8,5.0,19088.0,403431.0,229086.0,83728.0,11126.0
2026-04-09 22:40:40.131817,569016,3370016634,3370018130,-1.104832,-0.00976,-0.119072,-1.505,2.79125,8.42625,21.112001,-27.408,39.36,eccentric,8,5.0,19088.0,403431.0,229086.0,83728.0,11126.0
2026-04-09 22:40:40.136606,569017,3370025670,3370026879,-1.104832,-0.00976,-0.119072,1.155,1.4,9.03875,21.112001,-27.408,39.36,eccentric,8,5.0,19088.0,403431.0,229086.0,83728.0,11126.0
2026-04-09 22:40:40.138156,569018,3370034615,3370035637,-1.079456,0.013664,-0.111264,3.0625,0.6825,10.29875,20.784,-27.104002,39.416,eccentric,8,5.0,19088.0,403431.0,229086.0,83728.0,11126.0
2026-04-09 22:40:40.167045,569019,3370049138,3370050552,-1.079456,0.013664,-0.111264,4.73375,0.88375,11.40125,20.784,-27.104002,39.416,eccentric,8,5.0,19088.0,403431.0,229086.0,83728.0,11126.0
2026-04-09 22:40:40.170613,569020,3370058068,3370059242,-1.06384,0.03904,-0.093696,5.24125,1.12,11.33125,20.648,-27.968,38.456,eccentric,8,5.0,19088.0,403431.0,229086.0,83728.0,11126.0
2026-04-09 22:40:40.172994,569021,3370066972,3370067926,-1.06384,0.03904,-0.093696,4.1825,1.00625,11.0775,20.648,-27.968,38.456,eccentric,8,5.0,19088.0,403431.0,229086.0,83728.0,11126.0
2026-04-09 22:40:40.178227,569022,3370076000,3370076661,-1.0248,0.01952,-0.0488,-0.105,1.32125,10.33375,19.624,-27.840002,39.992,eccentric,8,5.0,19088.0,403431.0,229086.0,83728.0,11126.0
2026-04-09 22:40:40.240862,569023,3370091011,3370091604,-1.0248,0.01952,-0.0488,0.105,1.25125,10.14125,19.624,-27.840002,39.992,eccentric,8,5.0,19088.0,403431.0,229086.0,83728.0,11126.0
2026-04-09 22:40:40.270640,569033,3370100320,3370102391,-1.011136,0.015616,-0.062464,3.36,1.47875,10.64875,19.792002,-27.44,39.232002,eccentric,8,5.0,19067.0,403431.0,229431.0,83959.0,11224.0
2026-04-09 22:40:40.272995,569034,3370109251,3370111084,-1.011136,0.015616,-0.062464,4.5325,1.6975,11.76,19.792002,-27.44,39.232002,eccentric,8,5.0,19067.0,403431.0,229431.0,83959.0,11224.0
2026-04-09 22:40:40.275645,569035,3370123754,3370125950,-1.01504,0.042944,-0.119072,4.725,1.40875,12.9325,20.184,-27.904001,39.272003,eccentric,8,5.0,19067.0,403431.0,229431.0,83959.0,11224.0
2026-04-09 22:40:40.278084,569036,3370132711,3370134659,-0.993568,0.062464,-0.083936,5.215,1.37375,12.5125,19.44,-28.064001,39.488003,eccentric,8,5.0,19067.0,403431.0,229431.0,83959.0,11224.0
2026-04-09 22:40:40.280541,569037,3370141653,3370143372,-0.993568,0.062464,-0.083936,4.13,1.81125,12.53875,19.44,-28.064001,39.488003,eccentric,8,5.0,19067.0,403431.0,229431.0,83959.0,11224.0
2026-04-09 22:40:40.283075,569038,3370150749,3370152093,-0.993568,0.062464,-0.083936,2.14375,2.35375,11.57625,19.44,-28.064001,39.488003,eccentric,8,5.0,19067.0,403431.0,229431.0,83959.0,11224.0
2026-04-09 22:40:40.285610,569039,3370165486,3370167085,-0.991616,0.033184,-0.050752,1.2075,2.66875,10.91125,18.616001,-27.928001,40.984,eccentric,8,5.0,19067.0,403431.0,229431.0,83959.0,11224.0
2026-04-09 22:40:40.287937,569040,3370174400,3370175816,-0.96624,0.05856,-0.035136,0.945,2.4325,9.98375,19.184,-27.752,39.584003,eccentric,8,5.0,19067.0,403431.0,229431.0,83959.0,11224.0
2026-04-09 22:40:40.290914,569041,3370183335,3370184561,-0.96624,0.05856,-0.035136,5.06625,2.12625,9.65125,19.184,-27.752,39.584003,eccentric,8,5.0,19067.0,403431.0,229431.0,83959.0,11224.0
2026-04-09 22:40:40.319362,569051,3370198393,3370199847,-1.011136,0.070272,-0.06832,8.7675,3.6575,8.3475,18.92,-27.376001,39.424004,eccentric,8,5.0,18962.0,403431.0,230463.0,84573.0,11492.0
2026-04-09 22:40:40.321738,569052,3370207360,3370208700,-1.011136,0.070272,-0.06832,7.175,5.15375,7.93625,18.92,-27.376001,39.424004,eccentric,8,5.0,18962.0,403431.0,230463.0,84573.0,11492.0
2026-04-09 22:40:40.340621,569053,3370216350,3370217467,-0.983808,0.056608,-0.080032,3.85875,5.53875,7.37625,18.152,-28.128002,40.696003,eccentric,8,5.0,18962.0,403431.0,230463.0,84573.0,11492.0
2026-04-09 22:40:40.343027,569054,3370225301,3370226168,-0.983808,0.056608,-0.080032,2.93125,4.515,6.81625,18.152,-28.128002,40.696003,eccentric,8,5.0,18962.0,403431.0,230463.0,84573.0,11492.0
2026-04-09 22:40:40.345569,569055,3370239777,3370241045,-0.960384,0.040992,-0.064416,1.70625,3.92875,6.67625,18.68,-27.560001,39.512,eccentric,8,5.0,18962.0,403431.0,230463.0,84573.0,11492.0
2026-04-09 22:40:40.351810,569056,3370248860,3370249864,-0.960384,0.040992,-0.064416,2.24,3.80625,6.93,18.68,-27.560001,39.512,eccentric,8,5.0,18962.0,403431.0,230463.0,84573.0,11492.0
2026-04-09 22:40:40.382066,569057,3370257893,3370258612,-0.958432,0.060512,-0.044896,3.9025,3.535,7.9625,18.024,-28.176,40.568,eccentric,8,5.0,18962.0,403431.0,230463.0,84573.0,11492.0
2026-04-09 22:40:40.385591,569058,3370272876,3370273506,-0.94672,0.064416,-0.017568,5.31125,3.5525,8.40875,18.024,-28.176,40.112003,eccentric,8,5.0,18962.0,403431.0,230463.0,84573.0,11492.0
2026-04-09 22:40:40.388040,569059,3370282117,3370284256,-0.94672,0.064416,-0.017568,6.79,4.12125,8.12875,18.160002,-28.544,40.112003,eccentric,8,5.0,18962.0,403431.0,230463.0,84573.0,11492.0
2026-04-09 22:40:40.394351,569060,3370291093,3370293043,-0.94672,0.064416,-0.017568,4.10375,3.22,7.86625,18.160002,-28.544,40.112003,eccentric,8,5.0,18962.0,403431.0,230463.0,84573.0,11492.0
2026-04-09 22:40:40.428124,569071,3370300178,3370301829,-0.923296,0.081984,-0.035136,2.5375,2.75625,7.11375,17.84,-28.224,39.696003,eccentric,8,5.0,18722.0,403431.0,233369.0,86409.0,12330.0
2026-04-09 22:40:40.430661,569072,3370314875,3370316735,-0.929152,0.089792,-0.005856,4.13,2.37125,6.30875,16.376001,-28.032001,40.696003,eccentric,8,5.0,18722.0,403431.0,233369.0,86409.0,12330.0
2026-04-09 22:40:40.433011,569073,3370323829,3370325421,-0.929152,0.089792,-0.005856,7.665,2.02125,6.0375,16.376001,-28.032001,40.696003,eccentric,8,5.0,18722.0,403431.0,233369.0,86409.0,12330.0
2026-04-09 22:40:40.435546,569074,3370332853,3370334168,-0.929152,0.11712,0.046848,7.60375,0.86625,6.71125,16.376001,-28.032001,38.648003,eccentric,8,5.0,18722.0,403431.0,233369.0,86409.0,12330.0
2026-04-09 22:40:40.465798,569075,3370347335,3370349068,-0.903776,0.11712,0.046848,4.33125,0.8925,6.09875,17.504002,-28.064001,38.600002,eccentric,8,5.0,18722.0,403431.0,233369.0,86409.0,12330.0
2026-04-09 22:40:40.469382,569076,3370356282,3370357755,-0.925248,0.158112,0.013664,3.1675,1.7325,3.4825,17.328001,-28.192001,40.048,eccentric,8,5.0,18722.0,403431.0,233369.0,86409.0,12330.0
2026-04-09 22:40:40.471862,569077,3370365219,3370366475,-0.925248,0.158112,0.013664,0.98,2.03,0.21,17.328001,-28.192001,40.048,eccentric,8,5.0,18722.0,403431.0,233369.0,86409.0,12330.0
2026-04-09 22:40:40.476876,569078,3370374155,3370375202,-0.962336,0.152256,-0.050752,-1.19875,2.14375,-1.74125,16.472,-28.248001,40.656002,eccentric,8,5.0,18722.0,403431.0,233369.0,86409.0,12330.0
2026-04-09 22:40:40.508304,569079,3370388687,3370390154,-0.962336,0.152256,-0.050752,-3.05375,0.32375,-2.59,16.472,-28.248001,40.656002,eccentric,8,5.0,18722.0,403431.0,233369.0,86409.0,12330.0
2026-04-09 22:40:40.581218,569089,3370398110,3370398905,-0.94672,0.066368,-0.033184,-9.1875,-0.945,-2.555,16.984001,-28.168001,39.480003,eccentric,8,5.0,18330.0,403431.0,238602.0,89683.0,13986.0
2026-04-09 22:40:40.582750,569090,3370407565,3370409701,-0.94672,0.066368,-0.033184,-16.1525,-0.1575,-3.535,16.984001,-28.168001,39.480003,eccentric,8,5.0,18330.0,403431.0,238602.0,89683.0,13986.0
2026-04-09 22:40:40.584383,569091,3370422181,3370422546,-0.960384,0.070272,0.015616,-19.48625,0.25375,-5.2325,17.536001,-28.112001,41.296,eccentric,8,5.0,18330.0,403431.0,238602.0,89683.0,13986.0
2026-04-09 22:40:40.588605,569092,3370431413,3370433305,-0.960384,0.070272,0.015616,-15.925,0.76125,-5.7225,17.536001,-28.112001,41.296,eccentric,8,5.0,18330.0,403431.0,238602.0,89683.0,13986.0
2026-04-09 22:40:40.590304,569093,3370440328,3370441989,-0.993568,0.134688,-0.011712,-11.59375,1.4,-5.74875,17.368,-28.152,40.232002,eccentric,8,5.0,18330.0,403431.0,238602.0,89683.0,13986.0
2026-04-09 22:40:40.591950,569094,3370449253,3370450662,-0.993568,0.134688,-0.011712,-13.230001,0.8225,-4.97,17.368,-28.152,40.232002,eccentric,8,5.0,18330.0,403431.0,238602.0,89683.0,13986.0
2026-04-09 22:40:40.596177,569095,3370463742,3370465616,-0.981856,0.138592,-0.042944,-17.07125,0.41125,-4.0425,16.44,-28.208002,41.528004,eccentric,8,5.0,18330.0,403431.0,238602.0,89683.0,13986.0
2026-04-09 22:40:40.597848,569096,3370472674,3370474377,-0.981856,0.138592,-0.042944,-19.6525,0.175,-4.54125,16.44,-28.208002,41.528004,eccentric,8,5.0,18330.0,403431.0,238602.0,89683.0,13986.0
2026-04-09 22:40:40.599545,569097,3370481624,3370483086,-0.987712,0.113216,-0.083936,-20.16875,-0.2625,-5.32,16.344,-27.488,40.792004,eccentric,8,5.0,18330.0,403431.0,238602.0,89683.0,13986.0
2026-04-09 22:40:40.629093,569107,3370496255,3370497989,-0.981856,0.089792,-0.02928,-17.6575,-0.95375,-5.075,16.264,-27.896002,40.488003,eccentric,8,5.0,18191.0,403431.0,239984.0,90471.0,14378.0
2026-04-09 22:40:40.630686,569108,3370505728,3370506726,-0.981856,0.089792,-0.02928,-14.7875,-2.24,-5.04875,16.264,-27.896002,40.488003,eccentric,8,5.0,18191.0,403431.0,239984.0,90471.0,14378.0
2026-04-09 22:40:40.634050,569109,3370514727,3370515480,-0.968192,0.132736,-0.005856,-11.4625,-2.94875,-5.41625,16.784,-27.464,40.424004,eccentric,8,5.0,18191.0,403431.0,239984.0,90471.0,14378.0
2026-04-09 22:40:40.637201,569110,3370524211,3370526305,-0.968192,0.132736,-0.005856,-9.31,-2.6425,-5.97625,16.784,-27.464,40.424004,eccentric,8,5.0,18191.0,403431.0,239984.0,90471.0,14378.0
2026-04-09 22:40:40.643534,569111,3370538774,3370539178,-0.989664,0.144448,-0.033184,-8.07625,-1.89875,-6.685,16.256,-27.424002,41.984,eccentric,8,5.0,18191.0,403431.0,239984.0,90471.0,14378.0
2026-04-09 22:40:40.672010,569112,3370548114,3370549977,-0.989664,0.144448,-0.033184,-8.0325,-1.4,-6.74625,16.256,-27.424002,41.984,eccentric,8,5.0,18191.0,403431.0,239984.0,90471.0,14378.0
2026-04-09 22:40:40.675604,569113,3370557039,3370558702,-0.98576,0.179584,-0.037088,-8.5575,-1.28625,-6.265,17.224,-27.224,41.048,eccentric,8,5.0,18191.0,403431.0,239984.0,90471.0,14378.0
2026-04-09 22:40:40.678016,569114,3370565936,3370567408,-0.98576,0.179584,-0.037088,-7.13125,-0.69125,-7.0,17.224,-27.224,41.048,eccentric,8,5.0,18191.0,403431.0,239984.0,90471.0,14378.0
2026-04-09 22:40:40.709304,569115,3370580405,3370582401,-0.989664,0.16592,-0.013664,-4.96125,-1.12,-8.5575,17.28,-27.528002,43.432003,eccentric,8,5.0,18191.0,403431.0,239984.0,90471.0,14378.0
2026-04-09 22:40:40.710642,569116,3370589364,3370591129,-0.989664,0.16592,-0.013664,-4.2175,-1.6275,-9.03875,17.28,-27.528002,43.432003,eccentric,8,5.0,18191.0,403431.0,239984.0,90471.0,14378.0
2026-04-09 22:40:40.741792,569127,3370598578,3370599935,-0.989664,0.134688,0.007808,-2.975,-1.47,-9.19625,16.84,-27.04,41.320004,eccentric,8,5.0,18314.0,403431.0,238066.0,89212.0,13720.0
2026-04-09 22:40:40.744273,569128,3370613125,3370614961,-0.989664,0.134688,0.007808,-0.46375,-1.72375,-8.6275,16.84,-27.04,41.320004,eccentric,8,5.0,18314.0,403431.0,238066.0,89212.0,13720.0
2026-04-09 22:40:40.750549,569129,3370622070,3370623747,-0.997472,0.154208,-0.007808,2.05625,-1.47875,-7.91,17.232,-27.256,41.184002,eccentric,8,5.0,18314.0,403431.0,238066.0,89212.0,13720.0
2026-04-09 22:40:40.753062,569130,3370631025,3370632515,-0.997472,0.154208,-0.007808,4.52375,-0.6825,-7.0875,17.232,-27.256,41.184002,eccentric,8,5.0,18314.0,403431.0,238066.0,89212.0,13720.0
2026-04-09 22:40:40.755587,569131,3370645492,3370647441,-1.032608,0.142496,-0.013664,4.55875,-0.63,-5.6875,17.0,-26.760002,40.752003,eccentric,8,5.0,18314.0,403431.0,238066.0,89212.0,13720.0
2026-04-09 22:40:40.759303,569132,3370654436,3370656261,-1.026752,0.11712,-0.005856,3.43875,-1.25125,-4.97875,14.952001,-27.568,42.456,eccentric,8,5.0,18314.0,403431.0,238066.0,89212.0,13720.0
2026-04-09 22:40:40.774635,569133,3370663366,3370664970,-1.026752,0.11712,-0.005856,6.86,-2.70375,-4.99625,15.312,-27.568,42.456,eccentric,8,5.0,18314.0,403431.0,238066.0,89212.0,13720.0
2026-04-09 22:40:40.804582,569134,3370677842,3370679905,-1.042368,0.124928,-0.037088,13.125,-4.7425,-4.82125,16.672,-27.136002,41.08,eccentric,8,5.0,18314.0,403431.0,238066.0,89212.0,13720.0
2026-04-09 22:40:40.808162,569135,3370686758,3370688636,-1.042368,0.124928,-0.037088,19.13625,-6.58,-4.20875,16.672,-27.136002,41.08,eccentric,8,5.0,18314.0,403431.0,238066.0,89212.0,13720.0
2026-04-09 22:40:40.844666,569136,3370695659,3370697336,-1.077504,0.093696,-0.027328,22.56625,-6.92125,-2.17875,16.296001,-27.52,41.04,eccentric,8,5.0,18314.0,403431.0,238066.0,89212.0,13720.0
2026-04-09 22:40:40.880571,569146,3370704653,3370706046,-1.077504,0.093696,-0.027328,20.16875,-7.39375,0.3675,16.296001,-27.52,41.04,eccentric,8,5.0,18362.0,403431.0,237584.0,88979.0,13543.0
2026-04-09 22:40:40.883059,569147,3370719133,3370720993,-1.087264,0.040992,-0.013664,14.86625,-7.525,1.785,16.12,-27.504002,42.320004,eccentric,8,5.0,18362.0,403431.0,237584.0,88979.0,13543.0
2026-04-09 22:40:40.892246,569148,3370728044,3370729640,-1.087264,0.040992,-0.013664,13.405,-7.385,1.91625,16.12,-27.504002,42.320004,eccentric,8,5.0,18362.0,403431.0,237584.0,88979.0,13543.0
2026-04-09 22:40:40.898154,569149,3370736990,3370738342,-1.069696,0.046848,0.01952,17.17625,-7.105,0.9625,16.832,-27.792002,41.120003,eccentric,8,5.0,18362.0,403431.0,237584.0,88979.0,13543.0
2026-04-09 22:40:40.904327,569150,3370751483,3370753389,-1.069696,0.046848,0.01952,21.83125,-7.67375,1.56625,16.832,-27.792002,41.120003,eccentric,8,5.0,18362.0,403431.0,237584.0,88979.0,13543.0
2026-04-09 22:40:40.906937,569151,3370760402,3370762131,-1.0736,0.124928,0.0,25.41,-7.21,3.535,15.528001,-27.744001,41.816,eccentric,8,5.0,18362.0,403431.0,237584.0,88979.0,13543.0
2026-04-09 22:40:40.914384,569152,3370769374,3370770867,-1.0736,0.124928,0.0,23.975,-5.92375,2.49375,15.528001,-27.744001,41.816,eccentric,8,5.0,18362.0,403431.0,237584.0,88979.0,13543.0
2026-04-09 22:40:40.926937,569153,3370783890,3370785803,-1.097024,0.101504,-0.023424,19.39875,-5.635,-0.4025,14.952001,-27.624,41.768,eccentric,8,5.0,18362.0,403431.0,237584.0,88979.0,13543.0
2026-04-09 22:40:40.929329,569154,3370792797,3370794532,-1.097024,0.101504,-0.023424,14.3675,-5.4425,-1.785,14.952001,-27.624,41.768,eccentric,8,5.0,18362.0,403431.0,237584.0,88979.0,13543.0
2026-04-09 22:40:40.964418,569164,3370802113,3370803393,-1.057984,0.081984,0.001952,10.7975,-4.5325,-3.70125,15.528001,-28.144001,41.984,eccentric,8,5.0,18389.0,403431.0,237148.0,88696.0,13415.0
2026-04-09 22:40:40.966843,569165,3370811236,3370812132,-1.057984,0.081984,0.001952,9.02125,-3.52625,-5.36375,15.528001,-28.144001,41.984,eccentric,8,5.0,18389.0,403431.0,237148.0,88696.0,13415.0
2026-04-09 22:40:40.969347,569166,3370825762,3370827037,-1.0248,0.111264,0.027328,6.50125,-2.52875,-6.16875,15.304001,-28.408,42.232002,eccentric,8,5.0,18389.0,403431.0,237148.0,88696.0,13415.0
2026-04-09 22:40:40.971815,569167,3370834733,3370835780,-1.0248,0.119072,-0.025376,2.40625,-0.37625,-7.175,15.304001,-28.408,42.232002,eccentric,8,5.0,18389.0,403431.0,237148.0,88696.0,13415.0
2026-04-09 22:40:40.974332,569168,3370843654,3370844520,-1.036512,0.119072,-0.025376,-2.2225,1.61,-8.74125,15.336,-28.216002,42.328003,eccentric,8,5.0,18389.0,403431.0,237148.0,88696.0,13415.0
2026-04-09 22:40:40.976826,569169,3370858165,3370859515,-1.030656,0.115168,-0.050752,-4.69875,2.73875,-9.8175,16.192001,-28.160002,40.984,eccentric,8,5.0,18389.0,403431.0,237148.0,88696.0,13415.0
2026-04-09 22:40:40.979339,569170,3370867126,3370868270,-1.030656,0.115168,-0.050752,-4.69875,3.03625,-10.07125,16.192001,-28.160002,40.984,eccentric,8,5.0,18389.0,403431.0,237148.0,88696.0,13415.0
2026-04-09 22:40:40.995742,569171,3370876053,3370876989,-1.0248,0.132736,-0.050752,-2.14375,3.605,-10.68375,15.160001,-27.560001,42.776,eccentric,8,5.0,18389.0,403431.0,237148.0,88696.0,13415.0
2026-04-09 22:40:40.997970,569172,3370890694,3370892000,-1.0248,0.132736,-0.050752,1.26,3.63125,-11.6025,15.160001,-27.560001,42.776,eccentric,8,5.0,18389.0,403431.0,237148.0,88696.0,13415.0
2026-04-09 22:40:41.029344,569183,3370900226,3370900889,-1.013088,0.1464,-0.025376,3.4125,3.91125,-12.08375,16.504002,-27.400002,41.112003,concentric,8,5.0,18469.0,403431.0,235950.0,87910.0,13014.0
2026-04-09 22:40:41.031834,569184,3370909639,3370911713,-1.013088,0.1464,-0.025376,4.33125,4.69875,-12.565,16.504002,-27.400002,41.112003,concentric,8,5.0,18469.0,403431.0,235950.0,87910.0,13014.0
2026-04-09 22:40:41.067354,569185,3370918617,3370920509,-1.022848,0.148352,-0.035136,5.08375,5.92375,-12.32,16.256,-27.192001,40.792004,concentric,8,5.0,18469.0,403431.0,235950.0,87910.0,13014.0
2026-04-09 22:40:41.070584,569186,3370933145,3370935426,-1.022848,0.148352,-0.035136,5.50375,7.1925,-12.3725,16.256,-27.192001,40.792004,concentric,8,5.0,18469.0,403431.0,235950.0,87910.0,13014.0
2026-04-09 22:40:41.073117,569187,3370942067,3370944109,-1.059936,0.12688,-0.056608,4.9525,7.86625,-11.97,15.760001,-27.448002,42.984,concentric,8,5.0,18469.0,403431.0,235950.0,87910.0,13014.0
2026-04-09 22:40:41.075535,569188,3370951066,3370952822,-1.059936,0.12688,-0.056608,5.15375,8.19,-11.92625,15.760001,-27.448002,42.984,concentric,8,5.0,18469.0,403431.0,235950.0,87910.0,13014.0
2026-04-09 22:40:41.078064,569189,3370960042,3370961550,-1.057984,0.130784,-0.025376,8.05,7.67375,-12.10125,16.832,-27.656002,40.856003,concentric,8,5.0,18469.0,403431.0,235950.0,87910.0,13014.0
2026-04-09 22:40:41.080581,569190,3370974560,3370976477,-1.057984,0.130784,-0.025376,11.1475,6.93875,-12.08375,16.832,-27.656002,40.856003,concentric,8,5.0,18469.0,403431.0,235950.0,87910.0,13014.0
2026-04-09 22:40:41.140757,569191,3370983511,3370985179,-1.05408,0.134688,0.0,13.53625,7.5075,-11.0075,17.152,-28.016,40.736,concentric,8,5.0,18469.0,403431.0,235950.0,87910.0,13014.0
2026-04-09 22:40:41.144281,569192,3370992443,3370993902,-1.05408,0.134688,0.0,14.79625,8.1025,-10.99,17.152,-28.016,40.736,concentric,8,5.0,18469.0,403431.0,235950.0,87910.0,13014.0
2026-04-09 22:40:41.171854,569202,3371007019,3371008860,-1.056032,0.121024,0.00976,15.11125,8.25125,-11.095,16.104,-27.688002,40.600002,concentric,8,5.0,18462.0,403431.0,235816.0,87812.0,12976.0
2026-04-09 22:40:41.180614,569203,3371015972,3371017573,-1.071648,0.105408,-0.056608,15.21625,8.77625,-10.7275,17.136002,-27.920002,39.424004,concentric,8,5.0,18462.0,403431.0,235816.0,87812.0,12976.0
2026-04-09 22:40:41.182992,569204,3371024918,3371026281,-1.071648,0.105408,-0.056608,16.82625,8.855001,-10.05375,17.136002,-27.920002,39.424004,concentric,8,5.0,18462.0,403431.0,235816.0,87812.0,12976.0
2026-04-09 22:40:41.185585,569205,3371039403,3371041178,-1.061888,0.080032,-0.035136,19.705,7.88375,-9.84375,17.512001,-27.888,40.616,concentric,8,5.0,18462.0,403431.0,235816.0,87812.0,12976.0
2026-04-09 22:40:41.188074,569206,3371048354,3371049943,-1.061888,0.080032,-0.035136,21.35,6.9475,-9.0825,17.512001,-27.888,40.616,concentric,8,5.0,18462.0,403431.0,235816.0,87812.0,12976.0
2026-04-09 22:40:41.190483,569207,3371057337,3371058713,-1.046272,0.101504,0.007808,22.295,5.99375,-8.26,17.392,-27.576002,39.928,concentric,8,5.0,18462.0,403431.0,235816.0,87812.0,12976.0
2026-04-09 22:40:41.193052,569208,3371071858,3371073693,-1.046272,0.101504,0.007808,22.6625,5.36375,-8.35625,17.392,-27.576002,39.928,concentric,8,5.0,18462.0,403431.0,235816.0,87812.0,12976.0
2026-04-09 22:40:41.195536,569209,3371080954,3371082420,-1.046272,0.115168,0.015616,20.97375,6.09875,-8.77625,16.136002,-28.256,41.2,concentric,8,5.0,18462.0,403431.0,235816.0,87812.0,12976.0
2026-04-09 22:40:41.198005,569210,3371089903,3371091174,-1.046272,0.115168,0.015616,17.71875,6.615,-8.995,16.136002,-28.256,41.2,concentric,8,5.0,18462.0,403431.0,235816.0,87812.0,12976.0
2026-04-09 22:40:41.203048,569211,3371098864,3371099924,-1.028704,0.11712,-0.001952,14.2275,6.81625,-8.82,17.008001,-27.960001,40.456,concentric,8,5.0,18462.0,403431.0,235816.0,87812.0,12976.0
2026-04-09 22:40:41.231918,569221,3371113578,3371114938,-1.028704,0.11712,-0.001952,11.87375,7.56,-9.33625,17.008001,-27.960001,40.456,concentric,8,5.0,18409.0,403431.0,236779.0,88513.0,13348.0
2026-04-09 22:40:41.234344,569222,3371122578,3371123699,-1.03456,0.101504,-0.001952,9.75625,8.86375,-10.386251,16.08,-27.768002,40.368,concentric,8,5.0,18409.0,403431.0,236779.0,88513.0,13348.0
2026-04-09 22:40:41.236820,569223,3371131526,3371132418,-1.03456,0.101504,-0.001952,6.78125,9.485,-10.4125,16.08,-27.768002,40.368,concentric,8,5.0,18409.0,403431.0,236779.0,88513.0,13348.0
2026-04-09 22:40:41.267094,569224,3371146109,3371147416,-1.030656,0.083936,-0.00976,5.285,8.93375,-10.80625,16.880001,-28.016,39.68,concentric,8,5.0,18409.0,403431.0,236779.0,88513.0,13348.0
2026-04-09 22:40:41.270679,569225,3371155043,3371156128,-1.030656,0.083936,-0.00976,4.24375,7.37625,-11.01625,16.880001,-28.016,39.68,concentric,8,5.0,18409.0,403431.0,236779.0,88513.0,13348.0
2026-04-09 22:40:41.273069,569226,3371163959,3371164826,-1.018944,0.089792,-0.00976,4.6375,7.02625,-10.57875,17.384,-27.624,40.24,concentric,8,5.0,18409.0,403431.0,236779.0,88513.0,13348.0
2026-04-09 22:40:41.303406,569227,3371178514,3371179707,-1.03456,0.119072,-0.005856,5.32875,7.6125,-10.26375,16.512001,-27.52,40.320004,concentric,8,5.0,18409.0,403431.0,236779.0,88513.0,13348.0
2026-04-09 22:40:41.306971,569228,3371187465,3371188434,-1.03456,0.119072,-0.005856,4.94375,8.39125,-10.535,16.512001,-27.52,40.320004,concentric,8,5.0,18409.0,403431.0,236779.0,88513.0,13348.0
2026-04-09 22:40:41.309346,569229,3371196436,3371197130,-1.020896,0.11712,-0.011712,2.4325,9.12625,-11.24375,16.512001,-27.768002,37.264,concentric,8,5.0,18409.0,403431.0,236779.0,88513.0,13348.0
2026-04-09 22:40:41.344366,569240,3371205799,3371207903,-1.020896,0.11712,-0.011712,-0.9275,9.52,-11.94375,18.096,-27.768002,37.264,concentric,8,5.0,18413.0,403431.0,236556.0,88353.0,13295.0
2026-04-09 22:40:41.346799,569241,3371220518,3371222851,-1.009184,0.103456,-0.01952,-3.5875,9.44125,-11.6375,17.904001,-27.272001,39.264004,concentric,8,5.0,18413.0,403431.0,236556.0,88353.0,13295.0
2026-04-09 22:40:41.349282,569242,3371229517,3371231702,-1.009184,0.103456,-0.01952,-4.19125,10.08875,-12.5125,17.904001,-27.272001,39.264004,concentric,8,5.0,18413.0,403431.0,236556.0,88353.0,13295.0
2026-04-09 22:40:41.351828,569243,3371238515,3371240442,-1.030656,0.10736,-0.070272,-2.3975,10.7275,-13.9125,17.376001,-27.512001,41.568,concentric,8,5.0,18413.0,403431.0,236556.0,88353.0,13295.0
2026-04-09 22:40:41.358131,569244,3371253111,3371255359,-1.030656,0.10736,-0.070272,1.23375,10.5525,-15.015,17.376001,-27.512001,41.568,concentric,8,5.0,18413.0,403431.0,236556.0,88353.0,13295.0
2026-04-09 22:40:41.388388,569245,3371262130,3371264061,-1.03456,0.093696,-0.035136,3.54375,10.71875,-15.32125,18.208,-27.392002,39.584003,concentric,8,5.0,18413.0,403431.0,236556.0,88353.0,13295.0
2026-04-09 22:40:41.395699,569246,3371271062,3371272746,-1.03456,0.093696,-0.035136,2.72125,11.05125,-14.9275,18.208,-27.392002,39.584003,concentric,8,5.0,18413.0,403431.0,236556.0,88353.0,13295.0
2026-04-09 22:40:41.398107,569247,3371279977,3371281503,-1.028704,0.109312,0.0,0.55125,11.9875,-15.11125,18.328001,-27.560001,39.056004,concentric,8,5.0,18413.0,403431.0,236556.0,88353.0,13295.0
2026-04-09 22:40:41.400630,569248,3371294484,3371296416,-1.028704,0.109312,0.0,-0.60375,12.78375,-15.33875,18.328001,-27.560001,39.056004,concentric,8,5.0,18413.0,403431.0,236556.0,88353.0,13295.0
2026-04-09 22:40:41.461870,569258,3371303636,3371305168,-1.009184,0.099552,-0.033184,-1.2425,13.755,-15.09375,16.296001,-27.2,40.536003,concentric,8,5.0,18454.0,403431.0,236207.0,88136.0,13112.0
2026-04-09 22:40:41.464318,569259,3371312746,3371313973,-1.009184,0.099552,-0.033184,-2.52,14.23625,-13.51,16.296001,-27.2,40.536003,concentric,8,5.0,18454.0,403431.0,236207.0,88136.0,13112.0
2026-04-09 22:40:41.466878,569260,3371328467,3371329078,-1.030656,0.089792,-0.085888,-4.03375,14.665,-13.125,17.992,-27.648,39.152,concentric,8,5.0,18454.0,403431.0,236207.0,88136.0,13112.0
2026-04-09 22:40:41.469369,569261,3371337725,3371339852,-1.01504,0.08784,-0.062464,-3.92,14.7875,-13.72875,18.616001,-26.960001,39.264004,concentric,8,5.0,18454.0,403431.0,236207.0,88136.0,13112.0
2026-04-09 22:40:41.471881,569262,3371346667,3371348597,-1.01504,0.08784,-0.062464,-2.63375,14.455,-12.88,18.616001,-26.960001,39.264004,concentric,8,5.0,18454.0,403431.0,236207.0,88136.0,13112.0
2026-04-09 22:40:41.474413,569263,3371355607,3371357371,-1.01504,0.08784,-0.062464,-2.59875,13.7025,-12.46875,18.616001,-26.960001,39.264004,concentric,8,5.0,18454.0,403431.0,236207.0,88136.0,13112.0
2026-04-09 22:40:41.476860,569264,3371370240,3371372330,-0.991616,0.091744,-0.035136,-3.33375,13.4225,-12.81875,18.312,-27.04,37.504,concentric,8,5.0,18454.0,403431.0,236207.0,88136.0,13112.0
2026-04-09 22:40:41.507215,569265,3371379194,3371381058,-1.020896,0.072224,-0.060512,-4.41,13.5975,-11.99625,19.024,-27.52,38.760002,concentric,8,5.0,18454.0,403431.0,236207.0,88136.0,13112.0
2026-04-09 22:40:41.510619,569266,3371388113,3371389751,-1.020896,0.072224,-0.060512,-5.41625,13.79,-11.13875,19.024,-27.52,38.760002,concentric,8,5.0,18454.0,403431.0,236207.0,88136.0,13112.0
2026-04-09 22:40:41.513054,569267,3371397022,3371398460,-1.0248,0.07808,-0.099552,-5.08375,12.83625,-11.06875,19.024,-27.784,41.472,concentric,8,5.0,18454.0,403431.0,236207.0,88136.0,13112.0
2026-04-09 22:40:41.538071,569277,3371411561,3371413411,-1.0248,0.07808,-0.099552,-3.36875,12.8275,-10.40375,19.136002,-27.784,41.472,concentric,8,5.0,18573.0,403431.0,234641.0,87107.0,12648.0
2026-04-09 22:40:41.540700,569278,3371420487,3371422150,-1.001376,0.070272,-0.056608,-1.54,12.7225,-10.05375,18.472,-27.616001,39.928,concentric,8,5.0,18573.0,403431.0,234641.0,87107.0,12648.0
2026-04-09 22:40:41.543093,569279,3371429433,3371430910,-1.001376,0.070272,-0.056608,-2.1,12.03125,-9.10875,18.472,-27.616001,39.928,concentric,8,5.0,18573.0,403431.0,234641.0,87107.0,12648.0
2026-04-09 22:40:41.548104,569280,3371443961,3371445878,-0.997472,0.062464,-0.027328,-4.1825,11.03375,-8.2425,18.160002,-27.376001,39.088,concentric,8,5.0,18573.0,403431.0,234641.0,87107.0,12648.0
2026-04-09 22:40:41.579409,569281,3371452898,3371454638,-0.997472,0.062464,-0.027328,-4.7775,11.10375,-7.32375,18.160002,-27.376001,39.088,concentric,8,5.0,18573.0,403431.0,234641.0,87107.0,12648.0
2026-04-09 22:40:41.581911,569282,3371461838,3371463330,-1.038464,0.054656,-0.072224,-4.0425,10.6925,-6.3175,18.784,-27.128002,39.248,concentric,8,5.0,18573.0,403431.0,234641.0,87107.0,12648.0
2026-04-09 22:40:41.584432,569283,3371476286,3371478204,-1.038464,0.054656,-0.072224,-2.33625,10.10625,-5.92375,18.784,-27.128002,39.248,concentric,8,5.0,18573.0,403431.0,234641.0,87107.0,12648.0
2026-04-09 22:40:41.589383,569284,3371485206,3371487052,-1.057984,0.06832,-0.124928,1.42625,8.88125,-5.45125,19.208,-27.008001,38.800003,concentric,8,5.0,18573.0,403431.0,234641.0,87107.0,12648.0
2026-04-09 22:40:41.619635,569285,3371494116,3371495773,-1.057984,0.06832,-0.124928,6.18625,7.09625,-3.7975,19.208,-27.008001,38.800003,concentric,8,5.0,18573.0,403431.0,234641.0,87107.0,12648.0
2026-04-09 22:40:41.651937,569296,3371508655,3371510708,-1.020896,0.070272,-0.064416,8.9775,5.45125,-3.9375,18.544,-26.832,38.224003,concentric,8,5.0,18795.0,403431.0,231930.0,85311.0,11789.0
2026-04-09 22:40:41.655187,569297,3371517597,3371519405,-1.022848,0.072224,-0.035136,7.35,4.76,-4.0425,18.544,-27.448002,38.808002,concentric,8,5.0,18795.0,403431.0,231930.0,85311.0,11789.0
2026-04-09 22:40:41.656803,569298,3371526541,3371528097,-1.022848,0.072224,-0.035136,3.045,4.82125,-2.45875,19.664001,-27.448002,38.808002,concentric,8,5.0,18795.0,403431.0,231930.0,85311.0,11789.0
2026-04-09 22:40:41.659323,569299,3371535504,3371536832,-1.022848,0.072224,-0.035136,-0.945,5.71375,-1.60125,19.664001,-27.448002,38.808002,concentric,8,5.0,18795.0,403431.0,231930.0,85311.0,11789.0
2026-04-09 22:40:41.661828,569300,3371550023,3371551805,-1.036512,0.044896,-0.076128,-1.33875,4.92625,-0.97125,19.464,-27.44,38.408,concentric,8,5.0,18795.0,403431.0,231930.0,85311.0,11789.0
2026-04-09 22:40:41.664332,569301,3371558991,3371560544,-1.016992,0.074176,-0.08784,0.56,3.1325,-0.28,18.480001,-27.648,39.936,concentric,8,5.0,18795.0,403431.0,231930.0,85311.0,11789.0
2026-04-09 22:40:41.694571,569302,3371567967,3371569265,-1.016992,0.074176,-0.08784,6.46625,1.96875,-0.245,18.480001,-27.648,39.936,concentric,8,5.0,18795.0,403431.0,231930.0,85311.0,11789.0
2026-04-09 22:40:41.698138,569303,3371582510,3371584209,-1.013088,0.121024,-0.056608,10.0975,1.4525,-0.5075,19.608002,-27.968,38.256,concentric,8,5.0,18795.0,403431.0,231930.0,85311.0,11789.0
2026-04-09 22:40:41.700643,569304,3371591432,3371592900,-1.013088,0.121024,-0.056608,9.98375,1.95125,-1.12875,19.608002,-27.968,38.256,concentric,8,5.0,18795.0,403431.0,231930.0,85311.0,11789.0
2026-04-09 22:40:41.704355,569305,3371600351,3371601589,-1.04432,0.089792,-0.0488,5.13625,1.51375,-2.17875,19.336,-27.840002,38.592003,concentric,8,5.0,18795.0,403431.0,231930.0,85311.0,11789.0
2026-04-09 22:40:41.764433,569315,3371615037,3371616573,-1.04432,0.089792,-0.0488,0.6125,0.83125,-2.96625,19.336,-27.840002,38.592003,concentric,8,5.0,18877.0,403431.0,231479.0,85129.0,11732.0
2026-04-09 22:40:41.766924,569316,3371623941,3371625282,-1.059936,0.033184,-0.083936,2.1,-0.74375,-2.8875,19.408,-27.840002,38.312,concentric,8,5.0,18877.0,403431.0,231479.0,85129.0,11732.0
2026-04-09 22:40:41.769321,569317,3371632876,3371633961,-1.059936,0.033184,-0.083936,6.53625,-3.36875,-2.40625,19.408,-27.840002,38.312,concentric,8,5.0,18877.0,403431.0,231479.0,85129.0,11732.0
2026-04-09 22:40:41.771867,569318,3371641791,3371642662,-1.056032,0.025376,-0.128832,10.49125,-5.3025,-1.79375,19.712002,-27.368002,38.160004,concentric,8,5.0,18877.0,403431.0,231479.0,85129.0,11732.0
2026-04-09 22:40:41.774332,569319,3371656329,3371657586,-1.056032,0.025376,-0.128832,16.17,-6.97375,-1.645,19.712002,-27.368002,38.160004,concentric,8,5.0,18877.0,403431.0,231479.0,85129.0,11732.0
2026-04-09 22:40:41.776879,569320,3371665404,3371666350,-1.050176,0.103456,-0.044896,22.42625,-6.79,-1.7675,17.984001,-27.960001,39.800003,concentric,8,5.0,18877.0,403431.0,231479.0,85129.0,11732.0
2026-04-09 22:40:41.779352,569321,3371674390,3371675101,-1.050176,0.103456,-0.044896,24.29,-5.74,-2.485,17.984001,-27.960001,39.800003,concentric,8,5.0,18877.0,403431.0,231479.0,85129.0,11732.0
2026-04-09 22:40:41.810774,569322,3371689264,3371690047,-1.087264,0.103456,0.003904,18.29625,-5.46875,-3.43,18.432001,-27.712002,39.016003,concentric,8,5.0,18877.0,403431.0,231479.0,85129.0,11732.0
2026-04-09 22:40:41.813198,569323,3371698647,3371700796,-1.071648,0.0488,-0.040992,10.19375,-5.1975,-3.465,19.976002,-28.080002,38.264,concentric,8,5.0,18877.0,403431.0,231479.0,85129.0,11732.0
2026-04-09 22:40:41.838164,569333,3371707824,3371709552,-1.071648,0.0488,-0.040992,3.82375,-4.1125,-3.01875,19.976002,-28.080002,38.264,concentric,8,5.0,18560.0,403431.0,236245.0,88335.0,13264.0
2026-04-09 22:40:41.840622,569334,3371716878,3371718286,-1.071648,0.0488,-0.040992,-0.9275,-3.19375,-2.45,19.976002,-28.080002,38.264,concentric,8,5.0,18560.0,403431.0,236245.0,88335.0,13264.0
2026-04-09 22:40:41.843131,569335,3371731448,3371733271,-1.106784,0.023424,-0.08784,0.48125,-3.03625,-1.05875,19.832,-28.696001,38.064003,concentric,8,5.0,18560.0,403431.0,236245.0,88335.0,13264.0
2026-04-09 22:40:41.845580,569336,3371740434,3371742051,-1.065792,0.042944,-0.081984,3.45625,-4.445,-0.37625,19.952002,-28.016,38.552002,concentric,8,5.0,18560.0,403431.0,236245.0,88335.0,13264.0
2026-04-09 22:40:41.875988,569337,3371749394,3371750791,-1.065792,0.042944,-0.081984,8.00625,-5.355,-0.95375,19.952002,-28.016,38.552002,concentric,8,5.0,18560.0,403431.0,236245.0,88335.0,13264.0
2026-04-09 22:40:41.879430,569338,3371763902,3371765689,-1.016992,0.099552,-0.015616,10.01875,-6.09875,-0.76125,19.992,-28.288002,38.496002,concentric,8,5.0,18560.0,403431.0,236245.0,88335.0,13264.0
2026-04-09 22:40:41.881896,569339,3371772817,3371774388,-1.016992,0.099552,-0.015616,8.75875,-5.775,0.27125,19.992,-28.288002,38.496002,concentric,8,5.0,18560.0,403431.0,236245.0,88335.0,13264.0
2026-04-09 22:40:41.885785,569340,3371781741,3371783093,-1.003328,0.085888,-0.074176,5.97625,-5.53875,0.07,19.424002,-27.968,38.160004,concentric,8,5.0,18560.0,403431.0,236245.0,88335.0,13264.0
2026-04-09 22:40:41.924623,569341,3371796243,3371797970,-1.003328,0.085888,-0.074176,0.945,-4.90875,-0.6475,19.424002,-27.968,38.160004,concentric,8,5.0,18560.0,403431.0,236245.0,88335.0,13264.0
2026-04-09 22:40:41.953204,569352,3371805609,3371806936,-1.042368,0.066368,-0.042944,-3.98125,-2.0825,-1.995,18.552,-28.880001,38.728,concentric,8,5.0,18532.0,403431.0,236603.0,88584.0,13363.0
2026-04-09 22:40:41.955615,569353,3371814658,3371815685,-1.042368,0.066368,-0.042944,-6.1775,-0.35,-4.47125,18.552,-28.880001,38.728,concentric,8,5.0,18532.0,403431.0,236603.0,88584.0,13363.0
2026-04-09 22:40:41.958185,569354,3371823583,3371824371,-1.03456,0.037088,-0.042944,-5.495,-0.84,-5.94125,19.936,-28.728,38.496002,concentric,8,5.0,18532.0,403431.0,236603.0,88584.0,13363.0
2026-04-09 22:40:41.960878,569355,3371838109,3371839286,-1.03456,0.037088,-0.12688,-2.56375,-2.1525,-6.34375,19.936,-28.728,38.496002,concentric,8,5.0,18532.0,403431.0,236603.0,88584.0,13363.0
2026-04-09 22:40:41.963158,569356,3371847140,3371848086,-0.970144,0.0488,-0.12688,3.955,-4.34875,-5.55625,18.92,-28.936,39.696003,concentric,8,5.0,18532.0,403431.0,236603.0,88584.0,13363.0
2026-04-09 22:40:41.965668,569357,3371856096,3371856827,-0.970144,0.0488,-0.12688,13.545,-5.1975,-4.9875,18.92,-28.936,39.696003,concentric,8,5.0,18532.0,403431.0,236603.0,88584.0,13363.0
2026-04-09 22:40:41.972196,569358,3371865581,3371867605,-0.993568,0.134688,-0.08784,18.06875,-1.47,-5.4425,19.256,-29.424002,39.232002,concentric,8,5.0,18532.0,403431.0,236603.0,88584.0,13363.0
2026-04-09 22:40:42.001008,569359,3371880139,3371880464,-1.10288,0.105408,-0.050752,6.50125,4.235,-7.79625,20.104,-29.192001,37.968002,concentric,8,5.0,18532.0,403431.0,236603.0,88584.0,13363.0
2026-04-09 22:40:42.008223,569360,3371889486,3371891280,-1.10288,0.105408,-0.050752,-11.725,7.315,-11.41,20.104,-29.192001,37.968002,concentric,8,5.0,18532.0,403431.0,236603.0,88584.0,13363.0
2026-04-09 22:40:42.042204,569361,3371898458,3371899978,-1.10288,-0.003904,-0.070272,-21.805,7.1225,-15.4875,20.104,-29.192001,37.968002,concentric,8,5.0,18532.0,403431.0,236603.0,88584.0,13363.0
2026-04-09 22:40:42.070639,569371,3371912991,3371914977,-1.052128,-0.00976,-0.070272,-23.37125,5.3025,-17.185,20.552,-28.696001,38.184002,concentric,8,5.0,18917.0,403431.0,229913.0,83842.0,11027.0
2026-04-09 22:40:42.073103,569372,3371921957,3371923675,-1.026752,-0.021472,-0.07808,-14.9625,3.815,-15.30375,20.400002,-27.608002,38.224003,concentric,8,5.0,18917.0,403431.0,229913.0,83842.0,11027.0
2026-04-09 22:40:42.075670,569373,3371930893,3371932361,-1.026752,-0.021472,-0.07808,-1.09375,3.40375,-14.16625,20.400002,-27.608002,38.224003,concentric,8,5.0,18917.0,403431.0,229913.0,83842.0,11027.0
2026-04-09 22:40:42.078126,569374,3371945379,3371947253,-1.06384,0.062464,-0.0488,11.59375,3.4125,-13.51875,20.84,-28.712002,38.392002,concentric,8,5.0,18917.0,403431.0,229913.0,83842.0,11027.0
2026-04-09 22:40:42.080639,569375,3371954288,3371955993,-1.06384,0.062464,-0.0488,16.52,4.13,-12.8975,20.84,-28.712002,38.392002,concentric,8,5.0,18917.0,403431.0,229913.0,83842.0,11027.0
2026-04-09 22:40:42.083155,569376,3371963245,3371964708,-1.048224,0.124928,-0.07808,12.775,4.52375,-12.17125,19.608002,-28.592001,40.312,concentric,8,5.0,18917.0,403431.0,229913.0,83842.0,11027.0
2026-04-09 22:40:42.085647,569377,3371972222,3371973463,-1.048224,0.124928,-0.07808,3.14125,5.88,-13.0025,19.608002,-28.592001,40.312,concentric,8,5.0,18917.0,403431.0,229913.0,83842.0,11027.0
2026-04-09 22:40:42.091964,569378,3371986741,3371988419,-1.020896,0.064416,-0.072224,-7.6825,6.16875,-15.12,19.408,-28.488,39.352,concentric,8,5.0,18917.0,403431.0,229913.0,83842.0,11027.0
2026-04-09 22:40:42.122291,569379,3371995685,3371997172,-1.020896,0.064416,-0.072224,-11.83,5.45125,-17.22875,19.408,-28.488,39.352,concentric,8,5.0,18917.0,403431.0,229913.0,83842.0,11027.0
2026-04-09 22:40:42.148012,569389,3372004724,3372005859,-1.016992,0.025376,-0.076128,-8.1725,5.67,-17.75375,20.464,-28.416002,37.712,concentric,8,5.0,19101.0,403431.0,227080.0,81886.0,10185.0
2026-04-09 22:40:42.150583,569390,3372020057,3372020789,-1.089216,0.054656,-0.0976,-1.11125,5.88,-17.7975,21.352001,-28.744001,38.976,concentric,8,5.0,19101.0,403431.0,227080.0,81886.0,10185.0
2026-04-09 22:40:42.153155,569391,3372029431,3372031611,-1.089216,0.054656,-0.0976,5.635,7.63875,-18.235,21.352001,-28.744001,38.976,concentric,8,5.0,19101.0,403431.0,227080.0,81886.0,10185.0
2026-04-09 22:40:42.155597,569392,3372038448,3372040328,-1.089216,0.054656,-0.0976,5.53875,9.8175,-19.53875,21.352001,-28.744001,38.976,concentric,8,5.0,19101.0,403431.0,227080.0,81886.0,10185.0
2026-04-09 22:40:42.158070,569393,3372047386,3372049050,-1.10288,0.10736,-0.089792,-1.23375,11.2,-20.772501,21.248001,-28.128002,39.416,concentric,8,5.0,19101.0,403431.0,227080.0,81886.0,10185.0
2026-04-09 22:40:42.188460,569394,3372062078,3372064084,-1.077504,0.033184,-0.081984,-8.785,10.47375,-22.5575,21.112001,-27.744001,39.08,concentric,8,5.0,19101.0,403431.0,227080.0,81886.0,10185.0
2026-04-09 22:40:42.191921,569395,3372071108,3372072796,-1.077504,0.033184,-0.081984,-12.145,9.21375,-24.08,21.112001,-27.744001,39.08,concentric,8,5.0,19101.0,403431.0,227080.0,81886.0,10185.0
2026-04-09 22:40:42.195179,569396,3372080058,3372081495,-1.09312,-0.011712,-0.089792,-10.675,8.14625,-24.15875,22.448002,-27.552002,38.232002,concentric,8,5.0,19101.0,403431.0,227080.0,81886.0,10185.0
2026-04-09 22:40:42.200728,569397,3372094582,3372096399,-1.09312,-0.011712,-0.089792,-6.13375,8.3825,-23.38,22.448002,-27.552002,38.232002,concentric,8,5.0,19101.0,403431.0,227080.0,81886.0,10185.0
2026-04-09 22:40:42.230944,569398,3372103544,3372105141,-1.157536,0.02928,-0.142496,1.09375,8.9425,-22.32125,22.400002,-28.04,39.408,concentric,8,5.0,19101.0,403431.0,227080.0,81886.0,10185.0
2026-04-09 22:40:42.259372,569409,3372112634,3372113866,-1.157536,0.02928,-0.142496,6.5625,8.86375,-22.2425,22.400002,-28.04,39.408,concentric,8,5.0,19341.0,403431.0,223256.0,79116.0,9051.0
2026-04-09 22:40:42.261930,569410,3372121563,3372122554,-1.163392,0.07808,-0.132736,9.26625,7.665,-23.21375,22.648,-27.696001,38.096,concentric,8,5.0,19341.0,403431.0,223256.0,79116.0,9051.0
2026-04-09 22:40:42.264437,569411,3372136059,3372137544,-1.163392,0.07808,-0.132736,8.47,5.81,-23.205,22.648,-27.696001,38.096,concentric,8,5.0,19341.0,403431.0,223256.0,79116.0,9051.0
2026-04-09 22:40:42.266918,569412,3372145005,3372146250,-1.13216,0.0488,-0.07808,6.60625,4.34,-21.5075,22.344002,-28.192001,39.144,concentric,8,5.0,19341.0,403431.0,223256.0,79116.0,9051.0
2026-04-09 22:40:42.269433,569413,3372153899,3372155043,-1.13216,0.0488,-0.07808,2.23125,3.01,-20.58,22.344002,-28.192001,39.144,concentric,8,5.0,19341.0,403431.0,223256.0,79116.0,9051.0
2026-04-09 22:40:42.273136,569414,3372168448,3372169987,-1.128256,-0.011712,-0.050752,0.84875,2.765,-19.74,22.384,-27.272001,38.632,concentric,8,5.0,19341.0,403431.0,223256.0,79116.0,9051.0
2026-04-09 22:40:42.282038,569415,3372177394,3372178749,-1.128256,-0.011712,-0.050752,2.9925,4.57625,-18.6375,22.384,-27.272001,38.632,concentric,8,5.0,19341.0,403431.0,223256.0,79116.0,9051.0
2026-04-09 22:40:42.353650,569416,3372186315,3372187463,-1.163392,0.03904,-0.076128,4.15625,6.4925,-18.3925,24.144001,-27.664001,37.928,concentric,8,5.0,19341.0,403431.0,223256.0,79116.0,9051.0
2026-04-09 22:40:42.357051,569417,3372200804,3372202374,-1.159488,0.070272,-0.103456,4.66375,6.83375,-19.3725,23.488,-27.472002,37.68,concentric,8,5.0,19341.0,403431.0,223256.0,79116.0,9051.0
2026-04-09 22:40:42.391781,569427,3372210219,3372211211,-1.159488,0.070272,-0.103456,5.95,6.58875,-19.6175,23.488,-27.472002,37.68,concentric,8,5.0,19392.0,403431.0,223023.0,79020.0,9033.0
2026-04-09 22:40:42.394356,569428,3372219161,3372219922,-1.159488,0.070272,-0.103456,4.73375,5.4075,-18.6025,23.488,-27.472002,37.68,concentric,8,5.0,19392.0,403431.0,223023.0,79020.0,9033.0
2026-04-09 22:40:42.396834,569429,3372228058,3372228660,-1.120448,0.023424,-0.08784,0.49,5.27625,-17.745,23.840002,-27.488,36.68,concentric,8,5.0,19392.0,403431.0,223023.0,79020.0,9033.0
2026-04-09 22:40:42.399327,569430,3372242822,3372243560,-1.136064,0.00976,-0.072224,-2.79125,6.50125,-17.491251,24.224,-26.952002,37.600002,concentric,8,5.0,19392.0,403431.0,223023.0,79020.0,9033.0
2026-04-09 22:40:42.401842,569431,3372252156,3372254309,-1.136064,0.00976,-0.072224,-5.46,7.7175,-18.3575,24.224,-26.952002,37.600002,concentric,8,5.0,19392.0,403431.0,223023.0,79020.0,9033.0
2026-04-09 22:40:42.404340,569432,3372261073,3372262985,-1.231712,0.066368,-0.119072,-5.32875,8.81125,-19.5825,23.088001,-27.192001,39.024002,concentric,8,5.0,19392.0,403431.0,223023.0,79020.0,9033.0
2026-04-09 22:40:42.406899,569433,3372275688,3372277946,-1.231712,0.066368,-0.119072,-4.57625,8.79375,-20.22125,23.088001,-27.192001,39.024002,concentric,8,5.0,19392.0,403431.0,223023.0,79020.0,9033.0
2026-04-09 22:40:42.409402,569434,3372284663,3372286673,-1.233664,0.037088,-0.144448,-7.84,7.315,-20.30875,22.784,-26.936,39.752003,concentric,8,5.0,19392.0,403431.0,223023.0,79020.0,9033.0
2026-04-09 22:40:42.411959,569435,3372293715,3372295400,-1.233664,0.037088,-0.144448,-12.64375,4.85625,-19.71375,22.784,-26.936,39.752003,concentric,8,5.0,19392.0,403431.0,223023.0,79020.0,9033.0
2026-04-09 22:40:42.416894,569436,3372302691,3372304138,-1.177056,-0.035136,-0.0976,-14.525,2.68625,-19.022501,22.768002,-26.792002,38.584003,concentric,8,5.0,19392.0,403431.0,223023.0,79020.0,9033.0
2026-04-09 22:40:42.441940,569446,3372317278,3372319100,-1.177056,-0.035136,-0.0976,-13.16875,1.6625,-18.06875,22.768002,-26.792002,38.584003,concentric,8,5.0,19468.0,403431.0,222371.0,78624.0,8887.0
2026-04-09 22:40:42.444360,569447,3372326311,3372327843,-1.276608,-0.054656,-0.122976,-10.29,2.03,-17.6225,23.560001,-26.888,38.600002,concentric,8,5.0,19468.0,403431.0,222371.0,78624.0,8887.0
2026-04-09 22:40:42.446906,569448,3372335370,3372336577,-1.276608,-0.054656,-0.122976,-6.01125,2.3625,-15.8375,23.560001,-26.888,38.600002,concentric,8,5.0,19468.0,403431.0,222371.0,78624.0,8887.0
2026-04-09 22:40:42.454269,569449,3372349809,3372351545,-1.292224,-0.052704,-0.13664,-2.765,1.3825,-13.67625,24.584002,-26.176,38.792004,concentric,8,5.0,19468.0,403431.0,222371.0,78624.0,8887.0
2026-04-09 22:40:42.483533,569450,3372358753,3372360269,-1.292224,-0.052704,-0.13664,0.0175,-0.0525,-11.82125,24.584002,-26.176,38.792004,concentric,8,5.0,19468.0,403431.0,222371.0,78624.0,8887.0
2026-04-09 22:40:42.486949,569451,3372367679,3372368965,-1.24928,-0.031232,-0.0976,4.8825,-1.46125,-10.21125,25.088001,-26.016,37.04,concentric,8,5.0,19468.0,403431.0,222371.0,78624.0,8887.0
2026-04-09 22:40:42.489393,569452,3372382138,3372383864,-1.218048,0.042944,-0.025376,12.915,-2.00375,-8.54875,24.808,-26.872002,37.888,concentric,8,5.0,19468.0,403431.0,222371.0,78624.0,8887.0
2026-04-09 22:40:42.494509,569453,3372391077,3372392593,-1.218048,0.042944,-0.025376,19.6875,-1.68,-6.9475,24.808,-26.872002,37.888,concentric,8,5.0,19468.0,403431.0,222371.0,78624.0,8887.0
