pc_time,serial_num,sensor_ts,host_ts,ax,ay,az,gx,gy,gz,mx,my,mz,phase,rpe,weight_kg,ppg_a,ppg_b,ppg_c,ppg_d,ppg_e
2026-04-09 22:26:16.335335,411710,2506271958,2506273029,-0.890112,-0.025376,-0.163968,25.305,-3.19375,-9.93125,13.456,-1.952,11.192,eccentric,6,5.0,28290.0,403431.0,146653.0,13220.0,-125.0
2026-04-09 22:26:16.337023,411711,2506280891,2506281803,-0.890112,-0.025376,-0.163968,12.81875,-7.77,-8.30375,13.456,-1.952,11.192,eccentric,6,5.0,28290.0,403431.0,146653.0,13220.0,-125.0
2026-04-09 22:26:16.338606,411712,2506295423,2506296758,-0.962336,-0.062464,-0.249856,1.8025,-11.6025,-7.56,12.456,-1.696,15.008,eccentric,6,5.0,28290.0,403431.0,146653.0,13220.0,-125.0
2026-04-09 22:26:16.369801,411713,2506304345,2506305491,-0.923296,-0.01952,-0.201056,0.25375,-14.28875,-6.41375,14.168,-1.704,13.112,eccentric,6,5.0,28290.0,403431.0,146653.0,13220.0,-125.0
2026-04-09 22:26:16.371985,411714,2506313259,2506314188,-0.923296,-0.01952,-0.201056,6.0725,-13.34375,-4.99625,14.168,-1.704,13.112,eccentric,6,5.0,28290.0,403431.0,146653.0,13220.0,-125.0
2026-04-09 22:26:16.405378,411724,2506327750,2506329121,-0.899872,-0.052704,-0.066368,6.86875,-10.66625,-5.95875,12.848001,-1.584,14.240001,eccentric,6,5.0,28306.0,403431.0,146935.0,13467.0,-120.0
2026-04-09 22:26:16.407070,411725,2506336753,2506337891,-0.899872,-0.052704,-0.066368,4.22625,-6.53625,-4.94375,12.848001,-1.584,14.240001,eccentric,6,5.0,28306.0,403431.0,146935.0,13467.0,-120.0
2026-04-09 22:26:16.409487,411726,2506345730,2506346589,-0.989664,-0.037088,-0.271328,1.1725,-2.0475,-2.86125,14.080001,-2.216,12.832001,eccentric,6,5.0,28306.0,403431.0,146935.0,13467.0,-120.0
2026-04-09 22:26:16.411064,411727,2506360214,2506361502,-0.989664,-0.037088,-0.271328,-2.19625,-0.91,-1.0325,14.080001,-2.216,12.832001,eccentric,6,5.0,28306.0,403431.0,146935.0,13467.0,-120.0
2026-04-09 22:26:16.415601,411728,2506369130,2506370246,-0.99552,-0.072224,-0.275232,-3.185,-4.0075,0.525,14.56,-1.88,13.000001,eccentric,6,5.0,28306.0,403431.0,146935.0,13467.0,-120.0
2026-04-09 22:26:16.421438,411729,2506378162,2506378973,-0.99552,-0.072224,-0.275232,-2.17,-7.16625,0.27125,14.56,-1.88,13.000001,eccentric,6,5.0,28306.0,403431.0,146935.0,13467.0,-120.0
2026-04-09 22:26:16.450021,411730,2506392669,2506393938,-0.960384,-0.02928,-0.163968,2.09125,-8.11125,1.3125,15.6,-1.944,12.76,eccentric,6,5.0,28306.0,403431.0,146935.0,13467.0,-120.0
2026-04-09 22:26:16.454526,411731,2506401577,2506402671,-0.960384,-0.02928,-0.163968,5.6175,-6.50125,3.2725,15.6,-1.944,12.76,eccentric,6,5.0,28306.0,403431.0,146935.0,13467.0,-120.0
2026-04-09 22:26:16.456832,411732,2506410505,2506411366,-0.94672,0.005856,-0.103456,5.83625,-3.64,3.85875,14.912001,-2.208,13.648001,eccentric,6,5.0,28306.0,403431.0,146935.0,13467.0,-120.0
2026-04-09 22:26:16.464272,411733,2506419440,2506420121,-0.94672,0.005856,-0.103456,2.66875,0.28875,4.12125,14.912001,-2.208,13.648001,eccentric,6,5.0,28306.0,403431.0,146935.0,13467.0,-120.0
2026-04-09 22:26:16.493234,411744,2506434354,2506435169,-1.020896,-0.054656,-0.247904,-2.835,2.5725,5.5125,15.168001,-1.872,12.416,eccentric,6,5.0,28218.0,403431.0,146952.0,13300.0,-119.0
2026-04-09 22:26:16.494842,411745,2506443312,2506443923,-1.020896,-0.099552,-0.271328,-6.53625,0.5075,7.67375,15.168001,-1.872,12.416,eccentric,6,5.0,28218.0,403431.0,146952.0,13300.0,-119.0
2026-04-09 22:26:16.498996,411746,2506452532,2506454761,-1.032608,-0.099552,-0.271328,-3.1675,-2.94875,9.87875,14.864,-2.312,13.464001,eccentric,6,5.0,28218.0,403431.0,146952.0,13300.0,-119.0
2026-04-09 22:26:16.527558,411747,2506467102,2506467636,-0.979904,-0.001952,-0.1464,1.9075,-6.3525,11.12125,15.384001,-2.408,13.440001,eccentric,6,5.0,28218.0,403431.0,146952.0,13300.0,-119.0
2026-04-09 22:26:16.531991,411748,2506476475,2506478404,-0.979904,-0.001952,-0.1464,5.66125,-6.93,12.36375,15.384001,-2.408,13.440001,eccentric,6,5.0,28218.0,403431.0,146952.0,13300.0,-119.0
2026-04-09 22:26:16.533581,411749,2506485388,2506487087,-1.040416,0.046848,-0.22448,5.8625,-5.775,11.1125,13.976001,-1.92,15.144001,eccentric,6,5.0,28218.0,403431.0,146952.0,13300.0,-119.0
2026-04-09 22:26:16.537681,411750,2506494322,2506495806,-1.040416,0.046848,-0.22448,3.29,-5.6175,9.58125,13.976001,-1.92,15.144001,eccentric,6,5.0,28218.0,403431.0,146952.0,13300.0,-119.0
2026-04-09 22:26:16.581021,411751,2506508840,2506510743,-1.038464,-0.1464,-0.193248,0.23625,-7.8925,8.82875,15.000001,-2.384,13.632001,eccentric,6,5.0,28218.0,403431.0,146952.0,13300.0,-119.0
2026-04-09 22:26:16.583318,411752,2506517740,2506519437,-1.038464,-0.1464,-0.193248,1.4875,-9.87875,11.0775,15.000001,-2.384,13.632001,eccentric,6,5.0,28218.0,403431.0,146952.0,13300.0,-119.0
2026-04-09 22:26:16.608548,411762,2506526728,2506528161,-1.030656,-0.025376,-0.179584,4.515,-9.54625,14.2975,14.016001,-1.704,14.688001,eccentric,6,5.0,28163.0,403431.0,147219.0,13426.0,-124.0
2026-04-09 22:26:16.611105,411763,2506541243,2506543093,-1.030656,-0.025376,-0.179584,5.9325,-8.198751,17.94625,14.016001,-1.704,14.688001,eccentric,6,5.0,28163.0,403431.0,147219.0,13426.0,-124.0
2026-04-09 22:26:16.613575,411764,2506550174,2506551817,-0.999424,0.154208,-0.070272,6.39625,-4.80375,18.366251,16.696001,-2.504,12.248,eccentric,6,5.0,28163.0,403431.0,147219.0,13426.0,-124.0
2026-04-09 22:26:16.616162,411765,2506559219,2506560561,-0.999424,0.154208,-0.070272,2.54625,-1.1375,14.3325,16.696001,-2.504,12.248,eccentric,6,5.0,28163.0,403431.0,147219.0,13426.0,-124.0
2026-04-09 22:26:16.622333,411766,2506573726,2506575555,-1.009184,0.035136,-0.144448,-8.67125,1.39125,9.30125,16.984001,-2.104,12.496,eccentric,6,5.0,28163.0,403431.0,147219.0,13426.0,-124.0
2026-04-09 22:26:16.627508,411767,2506582747,2506584271,-1.009184,0.035136,-0.144448,-19.34625,0.9625,7.37625,16.984001,-2.104,12.496,eccentric,6,5.0,28163.0,403431.0,147219.0,13426.0,-124.0
2026-04-09 22:26:16.633549,411768,2506591711,2506593062,-0.991616,-0.027328,-0.206912,-26.62625,-0.805,7.88375,16.816,-3.0,14.328001,eccentric,6,5.0,28163.0,403431.0,147219.0,13426.0,-124.0
2026-04-09 22:26:16.663762,411769,2506600675,2506601784,-0.991616,-0.027328,-0.206912,-23.52,-2.09125,8.84625,16.816,-3.0,14.328001,eccentric,6,5.0,28163.0,403431.0,147219.0,13426.0,-124.0
2026-04-09 22:26:16.667347,411770,2506615172,2506616711,-0.96624,0.023424,-0.179584,-11.480001,-2.415,10.465,16.2,-3.176,15.912001,eccentric,6,5.0,28163.0,403431.0,147219.0,13426.0,-124.0
2026-04-09 22:26:16.698521,411780,2506624232,2506625474,-0.950624,0.099552,-0.226432,-3.6225,-2.625,10.4475,16.2,-3.176,14.984001,eccentric,6,5.0,28295.0,403431.0,146638.0,13193.0,-119.0
2026-04-09 22:26:16.701131,411781,2506633243,2506634323,-0.950624,0.099552,-0.226432,-6.46625,-4.78625,11.54125,15.344001,-2.648,14.984001,eccentric,6,5.0,28295.0,403431.0,146638.0,13193.0,-119.0
2026-04-09 22:26:16.703532,411782,2506647740,2506649340,-0.989664,0.037088,-0.18544,-13.4925,-9.12625,12.74875,15.768001,-3.192,13.992001,eccentric,6,5.0,28295.0,403431.0,146638.0,13193.0,-119.0
2026-04-09 22:26:16.706127,411783,2506656654,2506658078,-0.989664,0.037088,-0.18544,-17.99875,-12.41625,12.0925,15.768001,-3.192,13.992001,eccentric,6,5.0,28295.0,403431.0,146638.0,13193.0,-119.0
2026-04-09 22:26:16.708553,411784,2506665645,2506666783,-0.970144,0.027328,-0.179584,-14.9975,-14.665,12.6175,16.416,-2.944,15.408001,eccentric,6,5.0,28295.0,403431.0,146638.0,13193.0,-119.0
2026-04-09 22:26:16.738800,411785,2506680160,2506681640,-0.970144,0.027328,-0.179584,-10.71,-15.54,14.3325,16.416,-2.944,15.408001,eccentric,6,5.0,28295.0,403431.0,146638.0,13193.0,-119.0
2026-04-09 22:26:16.742376,411786,2506689092,2506690352,-0.993568,0.144448,-0.113216,-4.6725,-13.667501,15.995,15.448001,-2.936,13.984,eccentric,6,5.0,28295.0,403431.0,146638.0,13193.0,-119.0
2026-04-09 22:26:16.744826,411787,2506698002,2506699073,-0.993568,0.144448,-0.113216,2.1525,-11.40125,16.51125,15.448001,-2.936,13.984,eccentric,6,5.0,28295.0,403431.0,146638.0,13193.0,-119.0
2026-04-09 22:26:16.752146,411788,2506708649,2506709943,-1.030656,0.085888,-0.245952,-1.6625,-12.17125,16.6425,17.032001,-3.248,14.368001,eccentric,6,5.0,28295.0,403431.0,146638.0,13193.0,-119.0
2026-04-09 22:26:16.781336,411789,2506717589,2506718715,-1.030656,0.085888,-0.245952,-8.925,-16.54625,20.79875,17.032001,-3.248,14.368001,eccentric,6,5.0,28295.0,403431.0,146638.0,13193.0,-119.0
2026-04-09 22:26:16.809759,411800,2506732149,2506733726,-0.98576,0.001952,-0.17568,-12.81875,-20.965,23.35375,18.640001,-3.568,14.68,eccentric,6,5.0,28217.0,403431.0,147252.0,13556.0,-131.0
2026-04-09 22:26:16.812323,411801,2506741100,2506742446,-0.98576,0.001952,-0.17568,-13.265,-22.86375,25.4625,18.640001,-3.568,14.68,eccentric,6,5.0,28217.0,403431.0,147252.0,13556.0,-131.0
2026-04-09 22:26:16.814807,411802,2506750187,2506751213,-0.96624,0.111264,-0.081984,-8.925,-23.21375,28.58625,18.496,-3.816,13.176001,eccentric,6,5.0,28217.0,403431.0,147252.0,13556.0,-131.0
2026-04-09 22:26:16.817315,411803,2506764690,2506766214,-1.08336,0.17568,-0.279136,-7.875,-22.39125,30.2575,18.496,-3.816,13.432001,eccentric,6,5.0,28217.0,403431.0,147252.0,13556.0,-131.0
2026-04-09 22:26:16.820416,411804,2506773674,2506774952,-1.08336,0.17568,-0.279136,-9.5375,-23.73,31.885,17.912,-3.84,13.432001,eccentric,6,5.0,28217.0,403431.0,147252.0,13556.0,-131.0
2026-04-09 22:26:16.826150,411805,2506782641,2506783693,-1.08336,0.17568,-0.279136,-11.1825,-27.58,33.32,17.912,-3.84,13.432001,eccentric,6,5.0,28217.0,403431.0,147252.0,13556.0,-131.0
2026-04-09 22:26:16.883775,411806,2506797215,2506798642,-1.009184,0.0488,-0.119072,-10.07125,-30.7125,31.52625,18.616001,-4.024,13.080001,eccentric,6,5.0,28217.0,403431.0,147252.0,13556.0,-131.0
2026-04-09 22:26:16.886099,411807,2506806149,2506807348,-1.028704,0.138592,-0.074176,0.35875,-31.4475,29.3825,20.304,-3.944,11.376,eccentric,6,5.0,28217.0,403431.0,147252.0,13556.0,-131.0
2026-04-09 22:26:16.888544,411808,2506815071,2506816035,-1.028704,0.138592,-0.074176,7.32375,-29.1725,30.4325,20.304,-3.944,11.376,eccentric,6,5.0,28217.0,403431.0,147252.0,13556.0,-131.0
2026-04-09 22:26:16.918250,411818,2506829649,2506830986,-1.026752,0.242048,-0.06832,9.10875,-24.9025,31.99875,20.016,-4.024,14.048,eccentric,6,5.0,27975.0,403431.0,148632.0,14266.0,-121.0
2026-04-09 22:26:16.920068,411819,2506838638,2506839683,-1.026752,0.242048,-0.06832,5.005,-20.50125,30.7125,20.016,-4.024,14.048,eccentric,6,5.0,27975.0,403431.0,148632.0,14266.0,-121.0
2026-04-09 22:26:16.922809,411820,2506847543,2506848391,-1.120448,0.220576,-0.134688,-3.115,-18.147501,29.4,20.304,-4.608,14.472001,eccentric,6,5.0,27975.0,403431.0,148632.0,14266.0,-121.0
2026-04-09 22:26:16.924782,411821,2506856461,2506857129,-1.120448,0.220576,-0.134688,-6.08125,-18.9175,28.315,20.304,-4.608,14.472001,eccentric,6,5.0,27975.0,403431.0,148632.0,14266.0,-121.0
2026-04-09 22:26:16.927490,411822,2506871423,2506872080,-1.05408,0.160064,-0.0976,-8.23375,-20.57125,25.55,20.624,-4.72,14.288001,eccentric,6,5.0,27975.0,403431.0,148632.0,14266.0,-121.0
2026-04-09 22:26:16.929857,411823,2506880837,2506882874,-1.05408,0.160064,-0.0976,-10.21125,-20.36125,22.54875,20.624,-4.72,14.288001,eccentric,6,5.0,27975.0,403431.0,148632.0,14266.0,-121.0
2026-04-09 22:26:16.932307,411824,2506889814,2506891623,-1.126304,0.191296,-0.021472,-9.275,-18.655,21.0525,20.560001,-4.736,14.64,eccentric,6,5.0,27975.0,403431.0,148632.0,14266.0,-121.0
2026-04-09 22:26:16.963819,411825,2506898795,2506900349,-1.126304,0.191296,-0.021472,-9.65125,-17.14125,22.3125,20.560001,-4.736,14.64,eccentric,6,5.0,27975.0,403431.0,148632.0,14266.0,-121.0
2026-04-09 22:26:16.967354,411826,2506913350,2506915245,-1.188768,0.23424,-0.163968,-12.03125,-17.01875,23.4675,21.536001,-4.888,15.072001,eccentric,6,5.0,27975.0,403431.0,148632.0,14266.0,-121.0
2026-04-09 22:26:16.997000,411836,2506922279,2506924075,-1.188768,0.23424,-0.163968,-12.9325,-19.075,22.715,21.536001,-4.888,15.072001,eccentric,6,5.0,27960.0,403431.0,148347.0,14125.0,-115.0
2026-04-09 22:26:16.999831,411837,2506931267,2506932760,-1.138016,0.140544,-0.101504,-11.50625,-20.6325,20.72,21.752,-4.744,15.192,eccentric,6,5.0,27960.0,403431.0,148347.0,14125.0,-115.0
2026-04-09 22:26:17.000412,411838,2506945810,2506947661,-1.147776,0.181536,-0.02928,-4.725,-21.83125,19.460001,22.056002,-4.384,15.128,eccentric,6,5.0,27960.0,403431.0,148347.0,14125.0,-115.0
2026-04-09 22:26:17.001755,411839,2506954774,2506956423,-1.147776,0.181536,-0.02928,1.4525,-22.04125,19.80125,22.056002,-4.384,15.128,eccentric,6,5.0,27960.0,403431.0,148347.0,14125.0,-115.0
2026-04-09 22:26:17.036107,411840,2506963763,2506965120,-1.147776,0.181536,-0.02928,6.27375,-21.88375,20.43125,22.056002,-4.384,15.128,eccentric,6,5.0,27960.0,403431.0,148347.0,14125.0,-115.0
2026-04-09 22:26:17.040450,411841,2506978320,2506980025,-1.173152,0.25376,-0.050752,8.4,-20.92125,19.41625,21.728,-4.504,15.432001,eccentric,6,5.0,27960.0,403431.0,148347.0,14125.0,-115.0
2026-04-09 22:26:17.043063,411842,2506987230,2506988726,-1.120448,0.201056,-0.062464,-0.07875,-21.97125,18.1125,22.68,-5.032,15.552001,eccentric,6,5.0,27960.0,403431.0,148347.0,14125.0,-115.0
2026-04-09 22:26:17.046970,411843,2506996151,2506997421,-1.120448,0.201056,-0.062464,-9.47625,-23.00375,17.4475,22.68,-5.032,15.552001,eccentric,6,5.0,27960.0,403431.0,148347.0,14125.0,-115.0
2026-04-09 22:26:17.078477,411844,2507010668,2507012372,-1.130208,0.179584,-0.072224,-8.00625,-23.555,15.1375,22.000002,-4.848,17.184,eccentric,6,5.0,27960.0,403431.0,148347.0,14125.0,-115.0
2026-04-09 22:26:17.082755,411845,2507019602,2507021064,-1.130208,0.179584,-0.072224,-2.07375,-24.87625,10.49125,22.000002,-4.848,17.184,eccentric,6,5.0,27960.0,403431.0,148347.0,14125.0,-115.0
2026-04-09 22:26:17.107518,411856,2507028694,2507029791,-1.143872,0.244,-0.025376,2.17,-26.08375,9.4325,23.072,-4.504,16.36,eccentric,6,5.0,28342.0,403431.0,146701.0,13334.0,-123.0
2026-04-09 22:26:17.111614,411857,2507037593,2507038492,-1.143872,0.244,-0.025376,6.09875,-28.37625,6.8425,23.072,-4.504,16.36,eccentric,6,5.0,28342.0,403431.0,146701.0,13334.0,-123.0
2026-04-09 22:26:17.113272,411858,2507052186,2507053488,-1.188768,0.236192,-0.062464,10.2725,-30.485,3.1325,23.456001,-4.832,17.576,eccentric,6,5.0,28342.0,403431.0,146701.0,13334.0,-123.0
2026-04-09 22:26:17.114866,411859,2507061136,2507062215,-1.188768,0.236192,-0.062464,10.14125,-33.48625,0.6825,23.456001,-4.832,17.576,eccentric,6,5.0,28342.0,403431.0,146701.0,13334.0,-123.0
2026-04-09 22:26:17.118990,411860,2507070108,2507070997,-1.143872,0.169824,-0.054656,2.80875,-37.6425,-0.63875,23.472002,-4.976,18.816,eccentric,6,5.0,28342.0,403431.0,146701.0,13334.0,-123.0
2026-04-09 22:26:17.147602,411861,2507084612,2507085958,-1.143872,0.169824,-0.054656,-0.5425,-41.545002,-4.2,23.472002,-4.976,18.816,eccentric,6,5.0,28342.0,403431.0,146701.0,13334.0,-123.0
2026-04-09 22:26:17.183852,411862,2507093527,2507094639,-1.159488,0.16592,0.02928,1.505,-44.68625,-6.50125,24.168001,-4.776,18.832,eccentric,6,5.0,28342.0,403431.0,146701.0,13334.0,-123.0
2026-04-09 22:26:17.187356,411863,2507102435,2507103333,-1.159488,0.16592,0.02928,6.65875,-45.85,-6.86,24.168001,-4.776,18.832,eccentric,6,5.0,28342.0,403431.0,146701.0,13334.0,-123.0
2026-04-09 22:26:17.189889,411864,2507116901,2507118230,-1.206336,0.173728,0.054656,10.535,-45.68375,-6.1775,24.736002,-4.208,17.832,eccentric,6,5.0,28342.0,403431.0,146701.0,13334.0,-123.0
2026-04-09 22:26:17.214824,411874,2507126024,2507127520,-1.206336,0.124928,0.056608,10.823751,-44.24875,-4.27875,24.736002,-4.208,17.832,eccentric,6,5.0,28148.0,403431.0,148248.0,14391.0,-118.0
2026-04-09 22:26:17.217316,411875,2507134984,2507136251,-1.206336,0.124928,0.056608,8.53125,-43.9775,-2.44125,25.112001,-4.464,19.080002,eccentric,6,5.0,28148.0,403431.0,148248.0,14391.0,-118.0
2026-04-09 22:26:17.219850,411876,2507143903,2507144985,-1.206336,0.124928,0.056608,9.415,-41.99125,-1.02375,25.112001,-4.464,19.080002,eccentric,6,5.0,28148.0,403431.0,148248.0,14391.0,-118.0
2026-04-09 22:26:17.222326,411877,2507158469,2507159922,-1.235616,0.08784,0.054656,15.09375,-39.515,1.02375,24.704,-4.544,18.76,eccentric,6,5.0,28148.0,403431.0,148248.0,14391.0,-118.0
2026-04-09 22:26:17.224826,411878,2507167415,2507168682,-1.208288,0.091744,0.042944,16.35375,-37.2575,2.33625,24.52,-4.232,19.496,eccentric,6,5.0,28148.0,403431.0,148248.0,14391.0,-118.0
2026-04-09 22:26:17.227421,411879,2507176379,2507177439,-1.208288,0.091744,0.042944,18.725,-34.3875,9.19625,24.52,-4.232,19.496,eccentric,6,5.0,28148.0,403431.0,148248.0,14391.0,-118.0
2026-04-09 22:26:17.236194,411880,2507190880,2507192433,-1.284416,0.060512,0.132736,18.47125,-32.22625,13.5975,24.720001,-4.792,21.640001,eccentric,6,5.0,28148.0,403431.0,148248.0,14391.0,-118.0
2026-04-09 22:26:17.266343,411881,2507199791,2507201157,-1.284416,0.060512,0.132736,20.60625,-28.866251,15.96,24.720001,-4.792,21.640001,eccentric,6,5.0,28148.0,403431.0,148248.0,14391.0,-118.0
2026-04-09 22:26:17.269871,411882,2507208704,2507209865,-1.235616,0.11712,0.109312,24.0275,-23.00375,19.565,26.256,-4.464,22.184002,eccentric,6,5.0,28148.0,403431.0,148248.0,14391.0,-118.0
2026-04-09 22:26:17.272329,411883,2507223157,2507224844,-1.235616,0.11712,0.109312,15.91625,-17.63125,21.5775,26.256,-4.464,22.184002,eccentric,6,5.0,28148.0,403431.0,148248.0,14391.0,-118.0
2026-04-09 22:26:17.297373,411893,2507232074,2507233623,-1.177056,0.072224,0.121024,0.06125,-13.83375,23.56375,26.904001,-5.24,20.664001,eccentric,6,5.0,27892.0,403431.0,149750.0,15208.0,-123.0
2026-04-09 22:26:17.299802,411894,2507241075,2507242378,-1.177056,0.072224,0.121024,-10.745,-10.9725,28.25375,26.904001,-5.24,20.664001,eccentric,6,5.0,27892.0,403431.0,149750.0,15208.0,-123.0
2026-04-09 22:26:17.302303,411895,2507255568,2507257303,-1.21024,0.025376,0.081984,-15.47,-7.98,30.42375,25.104002,-4.608,23.576,eccentric,6,5.0,27892.0,403431.0,149750.0,15208.0,-123.0
2026-04-09 22:26:17.308621,411896,2507264494,2507266054,-1.21024,0.025376,0.081984,-13.67625,-5.71375,33.5475,25.104002,-4.608,23.576,eccentric,6,5.0,27892.0,403431.0,149750.0,15208.0,-123.0
2026-04-09 22:26:17.338810,411897,2507273423,2507274804,-1.1712,0.074176,0.027328,-8.07625,-4.445,37.70375,24.840002,-5.296001,24.992,eccentric,6,5.0,27892.0,403431.0,149750.0,15208.0,-123.0
2026-04-09 22:26:17.342383,411898,2507282351,2507283496,-1.1712,0.074176,0.027328,-3.15875,-3.50875,39.83875,24.840002,-5.296001,24.992,eccentric,6,5.0,27892.0,403431.0,149750.0,15208.0,-123.0
2026-04-09 22:26:17.344783,411899,2507296828,2507298376,-1.124352,0.105408,0.0488,-0.14,-2.5725,40.5125,26.544,-5.768,21.328001,eccentric,6,5.0,27892.0,403431.0,149750.0,15208.0,-123.0
2026-04-09 22:26:17.349988,411900,2507305745,2507307073,-1.124352,0.105408,0.0488,3.29875,-2.31875,40.32,26.544,-5.768,21.328001,eccentric,6,5.0,27892.0,403431.0,149750.0,15208.0,-123.0
2026-04-09 22:26:17.380049,411901,2507314675,2507315783,-1.128256,0.1464,0.089792,7.34125,-0.525,38.87625,25.576002,-6.744,22.912,eccentric,6,5.0,27892.0,403431.0,149750.0,15208.0,-123.0
2026-04-09 22:26:17.408538,411912,2507329561,2507330725,-1.085312,0.152256,0.060512,11.4625,-0.315,36.6975,26.632002,-6.352,21.576,eccentric,6,5.0,27838.0,403431.0,150704.0,15921.0,-126.0
2026-04-09 22:26:17.411073,411913,2507338521,2507339396,-1.085312,0.152256,0.060512,12.87125,0.32375,34.4925,26.632002,-6.352,21.576,eccentric,6,5.0,27838.0,403431.0,150704.0,15921.0,-126.0
2026-04-09 22:26:17.413592,411914,2507347455,2507348129,-1.05408,0.142496,0.015616,11.095,0.74375,34.326252,26.952002,-6.352,22.496,eccentric,6,5.0,27838.0,403431.0,150704.0,15921.0,-126.0
2026-04-09 22:26:17.416120,411915,2507356818,2507358974,-1.05408,0.142496,0.015616,8.82875,-0.245,32.82125,26.952002,-6.352,22.496,eccentric,6,5.0,27838.0,403431.0,150704.0,15921.0,-126.0
2026-04-09 22:26:17.421131,411916,2507371384,2507371863,-1.059936,0.122976,0.080032,8.47,-0.525,29.33,26.424002,-7.12,21.800001,eccentric,6,5.0,27838.0,403431.0,150704.0,15921.0,-126.0
2026-04-09 22:26:17.424889,411917,2507380767,2507382645,-1.059936,0.122976,0.080032,10.395,-1.61,27.9125,26.424002,-7.12,21.800001,eccentric,6,5.0,27838.0,403431.0,150704.0,15921.0,-126.0
2026-04-09 22:26:17.481385,411918,2507389766,2507391348,-1.020896,0.179584,0.103456,13.22125,-1.505,27.6325,26.800001,-7.128,22.776001,eccentric,6,5.0,27838.0,403431.0,150704.0,15921.0,-126.0
2026-04-09 22:26:17.484846,411919,2507404299,2507406285,-1.020896,0.179584,0.103456,14.3325,-0.83125,24.59625,26.800001,-7.128,22.776001,eccentric,6,5.0,27838.0,403431.0,150704.0,15921.0,-126.0
2026-04-09 22:26:17.487351,411920,2507413217,2507414975,-1.026752,0.181536,0.064416,12.43375,0.16625,21.21875,26.528002,-7.712,22.000002,eccentric,6,5.0,27838.0,403431.0,150704.0,15921.0,-126.0
2026-04-09 22:26:17.489834,411921,2507422185,2507423691,-1.026752,0.181536,0.064416,10.31625,0.74375,20.5975,26.528002,-7.712,22.000002,eccentric,6,5.0,27838.0,403431.0,150704.0,15921.0,-126.0
2026-04-09 22:26:17.518570,411931,2507436728,2507438597,-1.018944,0.189344,0.052704,8.42625,1.44375,19.355,27.504002,-7.216001,22.2,eccentric,6,5.0,27600.0,403431.0,151768.0,16619.0,-113.0
2026-04-09 22:26:17.521048,411932,2507445670,2507447318,-1.018944,0.189344,0.052704,5.1975,1.53125,16.6075,27.504002,-7.216001,22.2,eccentric,6,5.0,27600.0,403431.0,151768.0,16619.0,-113.0
2026-04-09 22:26:17.523579,411933,2507454683,2507456056,-0.997472,0.203008,0.085888,3.6225,1.96875,14.0,26.208002,-7.864,21.856,eccentric,6,5.0,27600.0,403431.0,151768.0,16619.0,-113.0
2026-04-09 22:26:17.526067,411934,2507463716,2507464781,-0.997472,0.203008,0.085888,2.38875,3.045,11.24375,26.208002,-7.864,21.856,eccentric,6,5.0,27600.0,403431.0,151768.0,16619.0,-113.0
2026-04-09 22:26:17.528531,411935,2507478248,2507479729,-1.013088,0.183488,0.089792,-2.24875,3.64,9.02125,26.400002,-8.240001,22.472,eccentric,6,5.0,27600.0,403431.0,151768.0,16619.0,-113.0
2026-04-09 22:26:17.531094,411936,2507487184,2507488413,-1.013088,0.183488,0.044896,-5.99375,3.2725,8.07625,26.400002,-8.240001,22.472,eccentric,6,5.0,27600.0,403431.0,151768.0,16619.0,-113.0
2026-04-09 22:26:17.561513,411937,2507496099,2507497174,-1.036512,0.183488,0.044896,-7.105,3.6225,6.9125,25.872002,-8.296001,25.104002,eccentric,6,5.0,27600.0,403431.0,151768.0,16619.0,-113.0
2026-04-09 22:26:17.564949,411938,2507510576,2507512054,-1.03456,0.183488,0.033184,-4.52375,3.955,6.3,27.336,-8.568001,22.272001,eccentric,6,5.0,27600.0,403431.0,151768.0,16619.0,-113.0
2026-04-09 22:26:17.578010,411939,2507519495,2507520745,-1.03456,0.183488,0.033184,-3.0625,5.43375,4.66375,27.336,-8.568001,22.272001,eccentric,6,5.0,27600.0,403431.0,151768.0,16619.0,-113.0
2026-04-09 22:26:17.605611,411949,2507529007,2507529900,-1.042368,0.169824,0.060512,-3.36875,5.46875,3.05375,27.392002,-7.920001,21.232,concentric,6,5.0,27545.0,403431.0,152059.0,16815.0,-117.0
2026-04-09 22:26:17.607098,411950,2507538021,2507538653,-1.042368,0.169824,0.060512,-4.82125,5.11875,1.56625,27.392002,-7.920001,21.232,concentric,6,5.0,27545.0,403431.0,152059.0,16815.0,-117.0
2026-04-09 22:26:17.608773,411951,2507552920,2507553585,-1.059936,0.183488,0.076128,-4.68125,5.36375,0.23625,26.296001,-8.232,24.888,concentric,6,5.0,27545.0,403431.0,152059.0,16815.0,-117.0
2026-04-09 22:26:17.612908,411952,2507562344,2507564352,-1.059936,0.183488,0.076128,-2.205,6.22125,-1.1025,26.296001,-8.232,24.888,concentric,6,5.0,27545.0,403431.0,152059.0,16815.0,-117.0
2026-04-09 22:26:17.614465,411953,2507571401,2507573141,-1.065792,0.20496,0.025376,-0.98875,6.8425,-3.22875,25.544,-8.200001,25.296001,concentric,6,5.0,27545.0,403431.0,152059.0,16815.0,-117.0
2026-04-09 22:26:17.644702,411954,2507585876,2507588058,-1.065792,0.20496,0.025376,-3.49125,7.21,-4.7425,25.544,-8.200001,25.296001,concentric,6,5.0,27545.0,403431.0,152059.0,16815.0,-117.0
2026-04-09 22:26:17.649099,411955,2507594782,2507596760,-1.061888,0.167872,0.042944,-9.37125,7.86625,-6.8075,27.560001,-8.336,22.240002,concentric,6,5.0,27545.0,403431.0,152059.0,16815.0,-117.0
2026-04-09 22:26:17.650678,411956,2507603728,2507605485,-1.061888,0.167872,0.042944,-13.81625,7.84,-8.9425,27.560001,-8.336,22.240002,concentric,6,5.0,27545.0,403431.0,152059.0,16815.0,-117.0
2026-04-09 22:26:17.680968,411957,2507612695,2507614208,-1.077504,0.138592,0.050752,-15.82,8.1725,-10.59625,27.2,-8.448,22.384,concentric,6,5.0,27545.0,403431.0,152059.0,16815.0,-117.0
2026-04-09 22:26:17.710365,411968,2507627209,2507629153,-1.077504,0.138592,0.050752,-14.1925,8.5925,-11.36625,27.2,-8.448,22.384,concentric,6,5.0,27462.0,403431.0,152666.0,17284.0,-118.0
2026-04-09 22:26:17.712781,411969,2507636521,2507637916,-1.065792,0.171776,0.044896,-10.94625,9.1175,-12.6875,27.248001,-8.192,22.2,concentric,6,5.0,27462.0,403431.0,152666.0,17284.0,-118.0
2026-04-09 22:26:17.713596,411970,2507645453,2507646629,-1.065792,0.171776,0.044896,-10.28125,9.625,-14.14,27.248001,-8.192,22.2,concentric,6,5.0,27462.0,403431.0,152666.0,17284.0,-118.0
2026-04-09 22:26:17.718458,411971,2507659954,2507661592,-1.079456,0.179584,0.046848,-13.335,10.21125,-16.44125,26.408,-8.176001,23.504002,concentric,6,5.0,27462.0,403431.0,152666.0,17284.0,-118.0
2026-04-09 22:26:17.721593,411972,2507668936,2507670315,-1.095072,0.113216,0.033184,-17.115,11.261251,-18.40125,26.336,-7.744,23.232,concentric,6,5.0,27462.0,403431.0,152666.0,17284.0,-118.0
2026-04-09 22:26:17.726471,411973,2507677883,2507679044,-1.095072,0.113216,0.033184,-19.76625,11.9,-18.76,26.336,-7.744,23.232,concentric,6,5.0,27462.0,403431.0,152666.0,17284.0,-118.0
2026-04-09 22:26:17.784769,411974,2507692473,2507694087,-1.059936,0.113216,0.06832,-19.4775,12.06625,-17.928751,26.904001,-7.528,21.744001,concentric,6,5.0,27462.0,403431.0,152666.0,17284.0,-118.0
2026-04-09 22:26:17.789621,411975,2507701405,2507702802,-1.059936,0.113216,0.06832,-15.26,12.90625,-17.57875,26.904001,-7.528,21.744001,concentric,6,5.0,27462.0,403431.0,152666.0,17284.0,-118.0
2026-04-09 22:26:17.797219,411976,2507710323,2507711483,-1.065792,0.167872,0.044896,-7.7175,14.7175,-18.62,27.312002,-7.664001,21.52,concentric,6,5.0,27462.0,403431.0,152666.0,17284.0,-118.0
2026-04-09 22:26:17.798312,411977,2507719224,2507720208,-1.065792,0.167872,0.044896,-4.9875,15.23375,-21.0175,27.312002,-7.664001,21.52,concentric,6,5.0,27462.0,403431.0,152666.0,17284.0,-118.0
2026-04-09 22:26:17.823356,411987,2507733814,2507735169,-1.087264,0.1952,0.0488,-7.245,15.855001,-23.59,26.808,-7.688,21.688002,concentric,6,5.0,27440.0,403431.0,152837.0,17498.0,-121.0
2026-04-09 22:26:17.824921,411988,2507742786,2507743858,-1.087264,0.1952,0.0488,-11.6025,16.6425,-26.27625,26.808,-7.688,21.688002,concentric,6,5.0,27440.0,403431.0,152837.0,17498.0,-121.0
2026-04-09 22:26:17.829205,411989,2507751710,2507752554,-1.097024,0.132736,0.031232,-16.56375,16.56375,-28.42,26.248001,-7.344,22.752,concentric,6,5.0,27440.0,403431.0,152837.0,17498.0,-121.0
2026-04-09 22:26:17.830820,411990,2507766281,2507767494,-1.097024,0.132736,0.031232,-17.4475,16.397501,-27.93875,26.248001,-7.344,22.752,concentric,6,5.0,27440.0,403431.0,152837.0,17498.0,-121.0
2026-04-09 22:26:17.832365,411991,2507775312,2507776240,-1.079456,0.101504,0.042944,-11.6375,16.205,-29.32125,25.912,-7.24,21.928001,concentric,6,5.0,27440.0,403431.0,152837.0,17498.0,-121.0
2026-04-09 22:26:17.836602,411992,2507784272,2507784981,-1.079456,0.101504,0.042944,-6.4575,16.2925,-31.473751,25.912,-7.24,21.928001,concentric,6,5.0,27440.0,403431.0,152837.0,17498.0,-121.0
2026-04-09 22:26:17.839047,411993,2507793616,2507795767,-1.071648,0.162016,0.052704,-3.82375,16.44125,-31.955,25.648,-6.672,22.408,concentric,6,5.0,27440.0,403431.0,152837.0,17498.0,-121.0
2026-04-09 22:26:17.867519,411994,2507808111,2507808677,-1.071648,0.162016,0.054656,-4.9175,16.87,-34.125,25.648,-6.672,22.408,concentric,6,5.0,27440.0,403431.0,152837.0,17498.0,-121.0
2026-04-09 22:26:17.872437,411995,2507817267,2507819417,-1.118496,0.15616,0.054656,-7.98,17.01875,-34.7025,26.168001,-6.440001,18.848001,concentric,6,5.0,27440.0,403431.0,152837.0,17498.0,-121.0
2026-04-09 22:26:17.873616,411996,2507826197,2507828108,-1.118496,0.15616,0.054656,-9.24875,17.80625,-34.86,26.168001,-6.440001,18.848001,concentric,6,5.0,27440.0,403431.0,152837.0,17498.0,-121.0
2026-04-09 22:26:17.898664,412006,2507840892,2507843170,-1.11264,0.095648,0.0488,-9.292501,18.64625,-34.69375,26.472002,-6.632,19.928001,concentric,6,5.0,27307.0,403431.0,153810.0,18283.0,-121.0
2026-04-09 22:26:17.902870,412007,2507849831,2507851874,-1.100928,0.10736,0.044896,-7.5775,19.73125,-33.495,26.568,-6.888001,19.736,concentric,6,5.0,27307.0,403431.0,153810.0,18283.0,-121.0
2026-04-09 22:26:17.905337,412008,2507858832,2507860615,-1.100928,0.10736,0.044896,-7.0,20.29125,-31.08875,26.568,-6.888001,19.736,concentric,6,5.0,27307.0,403431.0,153810.0,18283.0,-121.0
2026-04-09 22:26:17.933790,412009,2507873359,2507875547,-1.147776,0.162016,0.040992,-6.6325,21.04375,-29.95125,26.224,-6.480001,19.528002,concentric,6,5.0,27307.0,403431.0,153810.0,18283.0,-121.0
2026-04-09 22:26:17.938342,412010,2507882284,2507884241,-1.147776,0.162016,0.040992,-5.22375,22.05875,-30.24875,26.224,-6.480001,19.528002,concentric,6,5.0,27307.0,403431.0,153810.0,18283.0,-121.0
2026-04-09 22:26:17.939801,412011,2507891215,2507892909,-1.149728,0.162016,0.07808,-4.57625,23.765,-30.75625,25.864,-6.28,19.312,concentric,6,5.0,27307.0,403431.0,153810.0,18283.0,-121.0
2026-04-09 22:26:17.944006,412012,2507900129,2507901625,-1.149728,0.162016,0.07808,-5.55625,26.2675,-30.94,25.864,-6.28,19.312,concentric,6,5.0,27307.0,403431.0,153810.0,18283.0,-121.0
2026-04-09 22:26:17.974762,412013,2507914593,2507916557,-1.145824,0.124928,0.007808,-9.37125,28.02625,-31.885,24.792002,-6.16,19.616001,concentric,6,5.0,27307.0,403431.0,153810.0,18283.0,-121.0
2026-04-09 22:26:17.976192,412014,2507923504,2507925242,-1.145824,0.124928,0.007808,-12.915,27.72875,-33.39,24.792002,-6.16,19.616001,concentric,6,5.0,27307.0,403431.0,153810.0,18283.0,-121.0
2026-04-09 22:26:18.008687,412025,2507933022,2507934232,-1.143872,0.119072,-0.003904,-9.61625,28.30625,-32.78625,24.768002,-5.608,18.632,concentric,6,5.0,27350.0,403431.0,153620.0,18271.0,-122.0
2026-04-09 22:26:18.012896,412026,2507947607,2507949241,-1.143872,0.119072,-0.003904,-7.16625,29.155,-32.2875,24.768002,-5.608,18.632,concentric,6,5.0,27350.0,403431.0,153620.0,18271.0,-122.0
2026-04-09 22:26:18.014614,412027,2507956535,2507958028,-1.130208,0.197152,0.003904,-2.91375,30.09125,-32.94375,22.912,-5.832,19.808,concentric,6,5.0,27350.0,403431.0,153620.0,18271.0,-122.0
2026-04-09 22:26:18.016188,412028,2507965512,2507966725,-1.130208,0.197152,0.003904,1.77625,31.50875,-35.83125,22.912,-5.832,19.808,concentric,6,5.0,27350.0,403431.0,153620.0,18271.0,-122.0
2026-04-09 22:26:18.047286,412029,2507980027,2507981634,-1.126304,0.181536,0.044896,4.31375,32.40125,-38.815,25.000002,-5.184,17.328001,concentric,6,5.0,27350.0,403431.0,153620.0,18271.0,-122.0
2026-04-09 22:26:18.052008,412030,2507988943,2507990359,-1.126304,0.150304,-0.001952,1.7325,32.83,-42.7525,25.000002,-5.184,17.328001,concentric,6,5.0,27350.0,403431.0,153620.0,18271.0,-122.0
2026-04-09 22:26:18.086326,412031,2507997837,2507999058,-1.155584,0.150304,-0.001952,-2.58125,33.46875,-44.8525,24.544,-5.512,16.408,concentric,6,5.0,27350.0,403431.0,153620.0,18271.0,-122.0
2026-04-09 22:26:18.091073,412032,2508006728,2508007809,-1.155584,0.150304,-0.001952,-5.6875,33.25875,-45.49125,24.544,-5.512,16.408,concentric,6,5.0,27350.0,403431.0,153620.0,18271.0,-122.0
2026-04-09 22:26:18.093575,412033,2508021189,2508022761,-1.145824,0.130784,-0.023424,-6.51,32.9,-47.6175,24.504002,-4.968,17.272001,concentric,6,5.0,27350.0,403431.0,153620.0,18271.0,-122.0
2026-04-09 22:26:18.118788,412043,2508030408,2508031559,-1.143872,0.111264,-0.011712,-3.50875,33.0925,-47.915,24.312,-4.856,16.248001,concentric,6,5.0,27343.0,403431.0,153512.0,18300.0,-106.0
2026-04-09 22:26:18.121048,412044,2508039361,2508040334,-1.143872,0.111264,-0.011712,-0.93625,33.075,-48.85125,24.312,-4.856,16.248001,concentric,6,5.0,27343.0,403431.0,153512.0,18300.0,-106.0
2026-04-09 22:26:18.123618,412045,2508053855,2508055343,-1.157536,0.124928,-0.023424,0.07875,31.61375,-48.5625,23.840002,-4.184,16.376001,concentric,6,5.0,27343.0,403431.0,153512.0,18300.0,-106.0
2026-04-09 22:26:18.126054,412046,2508062892,2508064101,-1.157536,0.124928,-0.023424,1.8725,30.345,-47.232502,23.840002,-4.184,16.376001,concentric,6,5.0,27343.0,403431.0,153512.0,18300.0,-106.0
2026-04-09 22:26:18.128625,412047,2508071823,2508072893,-1.18096,0.12688,-0.040992,2.0825,30.397501,-46.66375,22.736002,-4.496,17.152,concentric,6,5.0,27343.0,403431.0,153512.0,18300.0,-106.0
2026-04-09 22:26:18.131096,412048,2508086438,2508087849,-1.18096,0.12688,-0.040992,3.0275,30.275,-45.701252,22.736002,-4.496,17.152,concentric,6,5.0,27343.0,403431.0,153512.0,18300.0,-106.0
2026-04-09 22:26:18.161293,412049,2508095358,2508096582,-1.15168,0.101504,0.011712,4.05125,30.7825,-45.1675,22.28,-4.248,16.888,concentric,6,5.0,27343.0,403431.0,153512.0,18300.0,-106.0
2026-04-09 22:26:18.164841,412050,2508104285,2508105301,-1.15168,0.101504,0.011712,3.73625,31.43,-44.835,22.28,-4.248,16.888,concentric,6,5.0,27343.0,403431.0,153512.0,18300.0,-106.0
2026-04-09 22:26:18.167317,412051,2508113221,2508114022,-1.167296,0.111264,-0.013664,3.36,33.13625,-44.66,23.344002,-3.536,15.208001,concentric,6,5.0,27343.0,403431.0,153512.0,18300.0,-106.0
2026-04-09 22:26:18.171086,412052,2508127702,2508128915,-1.167296,0.111264,-0.013664,2.52,33.8975,-41.763752,23.344002,-3.536,15.208001,concentric,6,5.0,27343.0,403431.0,153512.0,18300.0,-106.0
2026-04-09 22:26:18.198561,412062,2508136678,2508137785,-1.18096,0.132736,-0.074176,-0.1925,34.965,-39.61125,22.296001,-3.872,12.648001,concentric,6,5.0,27259.0,403431.0,154359.0,18725.0,-125.0
2026-04-09 22:26:18.201096,412063,2508145611,2508146566,-1.18096,0.132736,-0.074176,-0.53375,35.00875,-40.013752,22.296001,-3.872,12.648001,concentric,6,5.0,27259.0,403431.0,154359.0,18725.0,-125.0
2026-04-09 22:26:18.203601,412064,2508160135,2508161551,-1.177056,0.101504,-0.035136,-0.02625,35.11375,-43.11125,22.008001,-3.704,14.800001,concentric,6,5.0,27259.0,403431.0,154359.0,18725.0,-125.0
2026-04-09 22:26:18.233730,412065,2508169071,2508170287,-1.177056,0.101504,-0.035136,2.94,35.14875,-42.84,22.008001,-3.704,14.800001,concentric,6,5.0,27259.0,403431.0,154359.0,18725.0,-125.0
2026-04-09 22:26:18.237353,412066,2508177979,2508178982,-1.128256,0.0976,-0.015616,5.075,34.2475,-42.76125,21.904001,-3.296,15.016001,concentric,6,5.0,27259.0,403431.0,154359.0,18725.0,-125.0
2026-04-09 22:26:18.239776,412067,2508192466,2508193811,-1.175104,0.044896,-0.150304,4.15625,34.475,-43.89875,21.488,-3.56,14.216001,concentric,6,5.0,27259.0,403431.0,154359.0,18725.0,-125.0
2026-04-09 22:26:18.243571,412068,2508201385,2508202510,-1.175104,0.044896,-0.150304,3.07125,33.670002,-43.5925,21.488,-3.56,14.216001,concentric,6,5.0,27259.0,403431.0,154359.0,18725.0,-125.0
2026-04-09 22:26:18.273863,412069,2508210314,2508211250,-1.214144,0.070272,-0.095648,4.305,32.48,-40.67875,21.488,-3.488,15.336,concentric,6,5.0,27259.0,403431.0,154359.0,18725.0,-125.0
2026-04-09 22:26:18.277287,412070,2508224790,2508226130,-1.214144,0.070272,-0.095648,12.78375,31.08875,-40.81,21.152,-3.488,15.336,concentric,6,5.0,27259.0,403431.0,154359.0,18725.0,-125.0
2026-04-09 22:26:18.384959,412081,2508233867,2508234920,-1.204384,0.072224,-0.001952,14.69125,29.785,-45.535,21.048,-3.112,13.704,concentric,6,5.0,27273.0,403431.0,154475.0,18825.0,-114.0
2026-04-09 22:26:18.389050,412082,2508242904,2508243745,-1.204384,0.072224,-0.001952,12.792501,30.30125,-42.105,21.048,-3.112,13.704,concentric,6,5.0,27273.0,403431.0,154475.0,18825.0,-114.0
2026-04-09 22:26:18.392863,412083,2508252364,2508254526,-1.165344,0.062464,-0.00976,10.19375,32.68125,-40.5825,20.792002,-2.392,13.296001,concentric,6,5.0,27273.0,403431.0,154475.0,18825.0,-114.0
2026-04-09 22:26:18.394567,412084,2508266868,2508267368,-1.165344,0.062464,-0.00976,6.85125,36.0325,-41.2825,20.792002,-2.392,13.296001,concentric,6,5.0,27273.0,403431.0,154475.0,18825.0,-114.0
2026-04-09 22:26:18.397093,412085,2508276230,2508278125,-1.169248,0.037088,-0.132736,6.5625,38.5175,-40.145,20.016,-2.328,12.824,concentric,6,5.0,27273.0,403431.0,154475.0,18825.0,-114.0
2026-04-09 22:26:18.398539,412086,2508285313,2508286855,-1.169248,0.037088,-0.132736,4.585,37.51125,-38.71875,20.016,-2.328,12.824,concentric,6,5.0,27273.0,403431.0,154475.0,18825.0,-114.0
2026-04-09 22:26:18.402869,412087,2508294263,2508295554,-1.188768,0.040992,-0.203008,6.0025,35.28875,-35.1225,19.976002,-3.184,13.120001,concentric,6,5.0,27273.0,403431.0,154475.0,18825.0,-114.0
2026-04-09 22:26:18.405078,412088,2508308846,2508310528,-1.188768,0.040992,-0.203008,12.29375,32.55875,-32.865,19.976002,-3.184,13.120001,concentric,6,5.0,27273.0,403431.0,154475.0,18825.0,-114.0
2026-04-09 22:26:18.407026,412089,2508317765,2508319254,-1.153632,0.040992,-0.138592,18.15625,28.56,-34.01125,18.6,-2.672,13.808001,concentric,6,5.0,27273.0,403431.0,154475.0,18825.0,-114.0
2026-04-09 22:26:18.410393,412090,2508326700,2508327946,-1.153632,0.040992,-0.138592,22.05875,25.375,-34.125,18.6,-2.672,13.808001,concentric,6,5.0,27273.0,403431.0,154475.0,18825.0,-114.0
2026-04-09 22:26:18.435507,412100,2508341240,2508342819,-1.110688,0.083936,-0.128832,26.3025,23.63375,-32.59375,19.272001,-2.896,13.096001,concentric,6,5.0,27280.0,403431.0,154277.0,18773.0,-103.0
2026-04-09 22:26:18.437382,412101,2508350176,2508351531,-1.110688,0.083936,-0.144448,23.49375,22.05875,-33.32875,19.272001,-2.896,13.096001,concentric,6,5.0,27280.0,403431.0,154277.0,18773.0,-103.0
2026-04-09 22:26:18.438739,412102,2508359139,2508360328,-1.059936,0.052704,-0.148352,17.36,20.825,-33.06625,18.44,-2.176,14.352,concentric,6,5.0,27280.0,403431.0,154277.0,18773.0,-103.0
2026-04-09 22:26:18.442852,412103,2508373733,2508375328,-1.130208,0.064416,-0.226432,15.54875,19.69625,-32.2,18.088001,-2.144,13.944,concentric,6,5.0,27280.0,403431.0,154277.0,18773.0,-103.0
2026-04-09 22:26:18.444599,412104,2508382819,2508384068,-1.130208,0.064416,-0.226432,19.32875,17.9375,-29.2775,18.088001,-2.144,13.944,concentric,6,5.0,27280.0,403431.0,154277.0,18773.0,-103.0
2026-04-09 22:26:18.446500,412105,2508391731,2508392852,-1.056032,0.017568,-0.158112,23.33625,14.9975,-27.335001,17.328001,-1.568,12.848001,concentric,6,5.0,27280.0,403431.0,154277.0,18773.0,-103.0
2026-04-09 22:26:18.450231,412106,2508400694,2508401564,-1.056032,0.017568,-0.158112,27.67625,12.3025,-28.175,17.328001,-1.568,12.848001,concentric,6,5.0,27280.0,403431.0,154277.0,18773.0,-103.0
2026-04-09 22:26:18.478869,412107,2508415257,2508416542,-1.061888,-0.005856,-0.158112,31.85875,10.71875,-30.765,17.712,-1.4,12.448001,concentric,6,5.0,27280.0,403431.0,154277.0,18773.0,-103.0
2026-04-09 22:26:18.483345,412108,2508424225,2508425278,-1.061888,-0.005856,-0.158112,29.53125,9.00375,-29.2425,17.712,-1.4,12.448001,concentric,6,5.0,27280.0,403431.0,154277.0,18773.0,-103.0
2026-04-09 22:26:18.508325,412118,2508433592,2508434041,-1.059936,0.062464,-0.150304,24.675,8.5575,-25.54125,18.024,-1.992,12.464001,concentric,6,5.0,27366.0,403431.0,153475.0,18091.0,-129.0
2026-04-09 22:26:18.509846,412119,2508448606,2508449119,-1.059936,0.062464,-0.150304,24.0275,8.9775,-24.80625,18.024,-1.992,12.464001,concentric,6,5.0,27366.0,403431.0,153475.0,18091.0,-129.0
2026-04-09 22:26:18.513287,412120,2508458007,2508459942,-1.032608,0.064416,-0.177632,27.30875,8.645,-25.41875,16.992,-1.472,13.736001,concentric,6,5.0,27366.0,403431.0,153475.0,18091.0,-129.0
2026-04-09 22:26:18.515692,412121,2508466980,2508468702,-1.032608,0.064416,-0.177632,27.475,9.065,-27.04625,16.992,-1.472,13.736001,concentric,6,5.0,27366.0,403431.0,153475.0,18091.0,-129.0
2026-04-09 22:26:18.519873,412122,2508475973,2508477404,-1.046272,-0.040992,-0.144448,25.31375,9.59,-28.90125,16.720001,-1.472,13.888001,concentric,6,5.0,27366.0,403431.0,153475.0,18091.0,-129.0
2026-04-09 22:26:18.550994,412123,2508490477,2508492332,-1.046272,-0.040992,-0.144448,25.5325,10.61375,-28.98875,16.720001,-1.472,13.888001,concentric,6,5.0,27366.0,403431.0,153475.0,18091.0,-129.0
2026-04-09 22:26:18.553257,412124,2508499412,2508501055,-1.11264,-0.031232,-0.220576,23.28375,10.5,-27.25625,17.496,-1.552,12.208,concentric,6,5.0,27366.0,403431.0,153475.0,18091.0,-129.0
2026-04-09 22:26:18.557872,412125,2508508331,2508509736,-1.11264,-0.031232,-0.220576,25.01625,9.21375,-23.49375,17.496,-1.552,12.208,concentric,6,5.0,27366.0,403431.0,153475.0,18091.0,-129.0
2026-04-09 22:26:18.586206,412126,2508522980,2508524630,-1.09312,-0.042944,-0.232288,27.991251,7.25375,-19.69625,17.296001,-1.624,12.424001,concentric,6,5.0,27366.0,403431.0,153475.0,18091.0,-129.0
2026-04-09 22:26:18.616145,412136,2508531948,2508533520,-1.08336,-0.00976,-0.171776,29.82875,4.5325,-16.4325,17.400002,-1.008,12.328001,concentric,6,5.0,27495.0,403431.0,152268.0,17180.0,-110.0
2026-04-09 22:26:18.620413,412137,2508540918,2508542233,-1.08336,-0.00976,-0.171776,29.9775,3.29,-18.97875,17.400002,-1.008,12.328001,concentric,6,5.0,27495.0,403431.0,152268.0,17180.0,-110.0
2026-04-09 22:26:18.622094,412138,2508549806,2508550903,-1.08336,-0.00976,-0.171776,28.34125,4.76875,-20.685,17.400002,-1.008,12.328001,concentric,6,5.0,27495.0,403431.0,152268.0,17180.0,-110.0
2026-04-09 22:26:18.623670,412139,2508564376,2508565859,-1.091168,-0.027328,-0.052704,22.02375,8.32125,-19.60875,15.312,-0.952,12.296001,concentric,6,5.0,27495.0,403431.0,152268.0,17180.0,-110.0
2026-04-09 22:26:18.627917,412140,2508573325,2508574575,-1.06384,-0.105408,-0.277184,18.62875,11.75125,-19.39875,15.008,-0.664,14.128,concentric,6,5.0,27495.0,403431.0,152268.0,17180.0,-110.0
2026-04-09 22:26:18.630361,412141,2508582235,2508583295,-1.06384,-0.105408,-0.277184,12.69625,11.27,-18.3225,15.008,-0.664,14.128,concentric,6,5.0,27495.0,403431.0,152268.0,17180.0,-110.0
2026-04-09 22:26:18.682292,412142,2508596714,2508598282,-1.036512,-0.0976,-0.242048,10.185,9.45875,-14.44625,16.632,-1.184,12.224001,concentric,6,5.0,27495.0,403431.0,152268.0,17180.0,-110.0
2026-04-09 22:26:18.684516,412143,2508605639,2508606972,-1.036512,-0.0976,-0.242048,15.7325,8.04125,-13.30875,16.632,-1.184,12.224001,concentric,6,5.0,27495.0,403431.0,152268.0,17180.0,-110.0
2026-04-09 22:26:18.689161,412144,2508614526,2508615662,-0.993568,-0.033184,-0.066368,23.6075,9.03875,-15.39125,16.320002,-0.736,12.040001,concentric,6,5.0,27495.0,403431.0,152268.0,17180.0,-110.0
2026-04-09 22:26:18.690954,412145,2508628993,2508630553,-0.993568,-0.033184,-0.066368,23.54625,10.92875,-17.63125,16.320002,-0.736,12.040001,concentric,6,5.0,27495.0,403431.0,152268.0,17180.0,-110.0
2026-04-09 22:26:18.719975,412156,2508638056,2508639307,-0.95648,-0.027328,-0.15616,20.265,13.335,-18.40125,16.744001,-0.84,12.160001,concentric,6,5.0,27644.0,403431.0,151019.0,16400.0,-110.0
2026-04-09 22:26:18.724189,412157,2508646978,2508648002,-0.95648,-0.027328,-0.15616,13.667501,15.505,-20.7375,16.744001,-0.84,12.160001,concentric,6,5.0,27644.0,403431.0,151019.0,16400.0,-110.0
2026-04-09 22:26:18.725885,412158,2508661520,2508662953,-1.05408,-0.081984,-0.296704,5.4425,15.5225,-23.37125,14.936001,-0.64,13.304001,concentric,6,5.0,27644.0,403431.0,151019.0,16400.0,-110.0
2026-04-09 22:26:18.727478,412159,2508670471,2508671699,-1.05408,-0.081984,-0.296704,4.61125,12.215,-22.82,14.936001,-0.64,13.304001,concentric,6,5.0,27644.0,403431.0,151019.0,16400.0,-110.0
2026-04-09 22:26:18.731634,412160,2508679378,2508680430,-0.968192,-0.199104,-0.288896,10.08875,7.7875,-18.89125,14.784,-0.584,10.496,concentric,6,5.0,27644.0,403431.0,151019.0,16400.0,-110.0
2026-04-09 22:26:18.734097,412161,2508688293,2508689157,-0.968192,-0.199104,-0.288896,12.74875,3.68375,-18.26125,14.784,-0.584,10.496,concentric,6,5.0,27644.0,403431.0,151019.0,16400.0,-110.0
2026-04-09 22:26:18.766060,412162,2508702818,2508704119,-0.909632,-0.16592,-0.052704,22.960001,3.85875,-18.05125,14.656001,-0.16,13.184001,concentric,6,5.0,27644.0,403431.0,151019.0,16400.0,-110.0
2026-04-09 22:26:18.770462,412163,2508711739,2508712825,-0.909632,0.115168,-0.152256,28.49,6.44875,-17.22,14.656001,-0.16,13.184001,concentric,6,5.0,27644.0,403431.0,151019.0,16400.0,-110.0
2026-04-09 22:26:18.771968,412164,2508720628,2508721549,-1.028704,0.122976,-0.152256,23.54625,8.5225,-14.035,15.792001,0.088,11.912001,concentric,6,5.0,27644.0,403431.0,151019.0,16400.0,-110.0
2026-04-09 22:26:18.799572,412174,2508735432,2508736759,-0.935008,-0.115168,-0.314272,20.15125,9.42375,-16.1875,15.024001,-0.472,13.392,concentric,6,5.0,27666.0,403431.0,150531.0,15990.0,-119.0
2026-04-09 22:26:18.802091,412175,2508744514,2508745669,-0.935008,-0.115168,-0.314272,3.61375,6.58875,-24.42125,15.024001,-0.472,13.392,concentric,6,5.0,27666.0,403431.0,150531.0,15990.0,-119.0
2026-04-09 22:26:18.803672,412176,2508753478,2508754407,-0.942816,-0.257664,-0.122976,-7.79625,7.105,-25.45375,14.392001,-0.4,13.304001,concentric,6,5.0,27666.0,403431.0,150531.0,15990.0,-119.0
2026-04-09 22:26:18.834812,412177,2508768104,2508769397,-0.942816,-0.257664,-0.122976,-1.925,10.94625,-19.678751,14.392001,-0.4,13.304001,concentric,6,5.0,27666.0,403431.0,150531.0,15990.0,-119.0
2026-04-09 22:26:18.838654,412178,2508777018,2508778114,-0.977952,-0.02928,-0.300608,9.4325,11.59375,-12.5475,15.528001,-0.36,12.224001,concentric,6,5.0,27666.0,403431.0,150531.0,15990.0,-119.0
2026-04-09 22:26:18.842100,412179,2508785914,2508786810,-0.977952,-0.02928,-0.300608,21.7875,8.86375,-9.80875,15.528001,-0.36,12.224001,concentric,6,5.0,27666.0,403431.0,150531.0,15990.0,-119.0
2026-04-09 22:26:18.843198,412180,2508794899,2508795571,-0.895968,-0.07808,-0.152256,15.21625,4.235,-15.015,15.6,-0.752,11.84,concentric,6,5.0,27666.0,403431.0,150531.0,15990.0,-119.0
2026-04-09 22:26:18.873551,412181,2508809824,2508810529,-0.895968,-0.07808,-0.152256,9.835,4.01625,-13.15125,15.6,-0.752,11.84,concentric,6,5.0,27666.0,403431.0,150531.0,15990.0,-119.0
2026-04-09 22:26:18.877995,412182,2508819183,2508821310,-0.991616,-0.054656,-0.240096,5.95875,6.1775,-11.7775,15.272,-0.832,12.008,concentric,6,5.0,27666.0,403431.0,150531.0,15990.0,-119.0
2026-04-09 22:26:18.881087,412183,2508828095,2508830042,-0.991616,-0.054656,-0.240096,4.5325,7.90125,-11.82125,15.272,-0.832,12.008,concentric,6,5.0,27666.0,403431.0,150531.0,15990.0,-119.0
2026-04-09 22:26:18.911642,412193,2508842632,2508843000,-0.95648,-0.160064,-0.277184,-0.6125,6.825,-11.480001,15.664001,0.088,11.672001,concentric,6,5.0,27636.0,403431.0,150177.0,15473.0,-124.0
2026-04-09 22:26:18.913356,412194,2508851947,2508853941,-0.95648,-0.160064,-0.277184,-2.17,3.7625,-9.730001,15.664001,0.088,11.672001,concentric,6,5.0,27636.0,403431.0,150177.0,15473.0,-124.0
2026-04-09 22:26:18.915006,412195,2508860921,2508862726,-0.90768,-0.191296,-0.267424,-1.4,1.11125,-6.51875,15.856001,-0.176,10.84,concentric,6,5.0,27636.0,403431.0,150177.0,15473.0,-124.0
2026-04-09 22:26:18.919335,412196,2508869916,2508871437,-0.90768,-0.191296,-0.267424,4.45375,1.28625,-3.78,15.856001,-0.176,10.84,concentric,6,5.0,27636.0,403431.0,150177.0,15473.0,-124.0
2026-04-09 22:26:18.947645,412197,2508884421,2508886383,-1.007232,0.003904,-0.23424,15.93375,2.61625,-5.31125,15.496,-0.392,12.016001,concentric,6,5.0,27636.0,403431.0,150177.0,15473.0,-124.0
2026-04-09 22:26:18.986340,412198,2508893363,2508895091,-0.876448,-0.189344,-0.122976,18.165,4.7425,-7.21,15.264001,-0.608,11.272,concentric,6,5.0,27636.0,403431.0,150177.0,15473.0,-124.0
2026-04-09 22:26:18.996706,412199,2508902280,2508903786,-0.876448,-0.189344,-0.122976,8.9075,6.58,-9.00375,15.264001,-0.608,11.272,concentric,6,5.0,27636.0,403431.0,150177.0,15473.0,-124.0
2026-04-09 22:26:18.998357,412200,2508916755,2508918695,-0.874496,-0.230336,-0.101504,-2.9575,8.74125,-6.6325,13.488001,-0.464,13.344001,concentric,6,5.0,27636.0,403431.0,150177.0,15473.0,-124.0
2026-04-09 22:26:18.999949,412201,2508925648,2508927366,-0.874496,-0.230336,-0.101504,-6.2475,12.95875,-3.9025,13.488001,-0.464,13.344001,concentric,6,5.0,27636.0,403431.0,150177.0,15473.0,-124.0
2026-04-09 22:26:19.027467,412212,2508934590,2508936086,-0.903776,0.081984,-0.201056,0.9275,17.9025,-4.8475,15.256001,-0.888,11.848001,concentric,6,5.0,27676.0,403431.0,149524.0,14802.0,-119.0
2026-04-09 22:26:19.031638,412213,2508943941,2508944760,-0.903776,0.081984,-0.201056,11.042501,22.33,-6.3,15.256001,-0.888,11.848001,concentric,6,5.0,27676.0,403431.0,149524.0,14802.0,-119.0
2026-04-09 22:26:19.033413,412214,2508958448,2508959667,-0.851072,-0.201056,-0.265472,8.855001,24.33375,-12.18,14.264001,-0.52,12.76,concentric,6,5.0,27676.0,403431.0,149524.0,14802.0,-119.0
2026-04-09 22:26:19.034935,412215,2508967431,2508968491,-0.851072,-0.201056,-0.265472,-11.08625,21.13125,-12.1625,14.264001,-0.52,12.76,concentric,6,5.0,27676.0,403431.0,149524.0,14802.0,-119.0
2026-04-09 22:26:19.039167,412216,2508976373,2508977200,-0.854976,-0.25376,-0.103456,-23.1525,19.11,-5.075,15.400001,-0.336,11.480001,concentric,6,5.0,27676.0,403431.0,149524.0,14802.0,-119.0
2026-04-09 22:26:19.040916,412217,2508990924,2508992191,-0.854976,-0.25376,-0.103456,-14.18375,20.3525,-5.69625,15.400001,-0.336,11.480001,concentric,6,5.0,27676.0,403431.0,149524.0,14802.0,-119.0
2026-04-09 22:26:19.042436,412218,2508999866,2509000967,-0.845216,0.033184,-0.06832,0.79625,24.63125,-6.93,14.952001,0.064,11.376,concentric,6,5.0,27676.0,403431.0,149524.0,14802.0,-119.0
2026-04-09 22:26:19.073441,412219,2509008808,2509009668,-0.845216,0.033184,-0.06832,6.36125,26.08375,-8.82875,14.952001,0.064,11.376,concentric,6,5.0,27676.0,403431.0,149524.0,14802.0,-119.0
2026-04-09 22:26:19.078224,412220,2509023292,2509024556,-0.835456,-0.085888,-0.203008,-7.42875,22.96875,-11.935,14.184001,-0.472,11.264001,concentric,6,5.0,27676.0,403431.0,149524.0,14802.0,-119.0
2026-04-09 22:26:19.081321,412221,2509032215,2509033265,-0.835456,-0.085888,-0.203008,-22.12,17.66625,-11.3225,14.184001,-0.472,11.264001,concentric,6,5.0,27676.0,403431.0,149524.0,14802.0,-119.0
2026-04-09 22:26:19.109785,412231,2509041371,2509042108,-0.911584,-0.267424,-0.15616,-23.1175,12.50375,-10.4125,14.328001,-0.84,10.128,concentric,6,5.0,27955.0,403431.0,147568.0,13456.0,-125.0
2026-04-09 22:26:19.113348,412232,2509050903,2509052911,-0.911584,-0.267424,-0.15616,-12.005,9.63375,-7.8225,14.328001,-0.84,10.128,concentric,6,5.0,27955.0,403431.0,147568.0,13456.0,-125.0
2026-04-09 22:26:19.114873,412233,2509065432,2509065781,-0.929152,-0.101504,-0.138592,-1.9425,8.785,-2.61625,13.168,-0.832,12.296001,concentric,6,5.0,27955.0,403431.0,147568.0,13456.0,-125.0
2026-04-09 22:26:19.117432,412234,2509074656,2509076533,-0.911584,-0.08784,-0.134688,-1.70625,5.25,-0.39375,13.456,-1.032,12.256001,concentric,6,5.0,27955.0,403431.0,147568.0,13456.0,-125.0
2026-04-09 22:26:19.147539,412235,2509083602,2509085265,-0.911584,-0.08784,-0.134688,-10.99875,0.95375,0.315,13.456,-1.032,12.256001,concentric,6,5.0,27955.0,403431.0,147568.0,13456.0,-125.0
2026-04-09 22:26:19.152671,412236,2509098087,2509100190,-0.905728,-0.115168,-0.054656,-15.12,-1.575,1.015,14.456,-0.328,10.432,concentric,6,5.0,27955.0,403431.0,147568.0,13456.0,-125.0
2026-04-09 22:26:19.157529,412237,2509107011,2509108881,-0.905728,-0.115168,-0.054656,-13.15125,0.175,-1.365,14.456,-0.328,10.432,concentric,6,5.0,27955.0,403431.0,147568.0,13456.0,-125.0
2026-04-09 22:26:19.160396,412238,2509115947,2509117598,-0.909632,-0.015616,-0.095648,-9.1175,4.41,-1.93375,14.128,-0.824,11.000001,concentric,6,5.0,27955.0,403431.0,147568.0,13456.0,-125.0
2026-04-09 22:26:19.191066,412239,2509130441,2509132522,-0.909632,-0.015616,-0.095648,-11.43625,8.35625,-1.37375,14.128,-0.824,11.000001,concentric,6,5.0,27955.0,403431.0,147568.0,13456.0,-125.0
2026-04-09 22:26:19.217898,412249,2509139961,2509141265,-0.960384,-0.140544,-0.35136,-20.04625,7.525,-1.4175,15.328001,-0.296,10.856001,concentric,6,5.0,28026.0,403431.0,146921.0,12928.0,-127.0
2026-04-09 22:26:19.219666,412250,2509148939,2509150032,-0.960384,-0.140544,-0.35136,-31.38625,0.81375,-1.7675,15.328001,-0.296,10.856001,concentric,6,5.0,28026.0,403431.0,146921.0,12928.0,-127.0
2026-04-09 22:26:19.221186,412251,2509157895,2509158738,-0.90768,-0.1952,-0.26352,-36.21625,-7.07,1.61,14.872001,-1.208,11.152,concentric,6,5.0,28026.0,403431.0,146921.0,12928.0,-127.0
2026-04-09 22:26:19.225416,412252,2509172412,2509173647,-0.90768,-0.1952,-0.26352,-23.8525,-11.78625,5.705,14.872001,-1.208,11.152,concentric,6,5.0,28026.0,403431.0,146921.0,12928.0,-127.0
2026-04-09 22:26:19.227850,412253,2509181336,2509182415,-0.909632,-0.02928,-0.066368,-5.31125,-11.9,6.7025,15.072001,-1.448,11.712001,concentric,6,5.0,28026.0,403431.0,146921.0,12928.0,-127.0
2026-04-09 22:26:19.234642,412254,2509190311,2509191152,-0.909632,-0.02928,-0.066368,5.24125,-8.505,5.495,15.072001,-1.448,11.712001,concentric,6,5.0,28026.0,403431.0,146921.0,12928.0,-127.0
