pc_time,serial_num,sensor_ts,host_ts,ax,ay,az,gx,gy,gz,mx,my,mz,phase,rpe,weight_kg,ppg_a,ppg_b,ppg_c,ppg_d,ppg_e
2026-04-09 22:26:08.785030,410299,2498686336,2498687160,-0.894016,-0.05856,-0.0976,14.6475,-0.35875,-12.80125,15.752001,-2.832,11.584001,eccentric,6,5.0,27949.0,403431.0,149476.0,15259.0,-131.0
2026-04-09 22:26:08.788281,410300,2498700950,2498702080,-0.9272,-0.072224,-0.06832,-4.10375,0.5775,-10.01,16.240002,-2.472,10.792001,eccentric,6,5.0,27949.0,403431.0,149476.0,15259.0,-131.0
2026-04-09 22:26:08.790798,410301,2498709961,2498710776,-0.9272,-0.072224,-0.06832,-3.36,5.4425,-7.25375,16.240002,-2.472,10.792001,eccentric,6,5.0,27949.0,403431.0,149476.0,15259.0,-131.0
2026-04-09 22:26:08.793357,410302,2498718881,2498719478,-0.979904,-0.02928,-0.191296,5.39,7.25375,-6.7025,16.168001,-2.816,11.224001,eccentric,6,5.0,27949.0,403431.0,149476.0,15259.0,-131.0
2026-04-09 22:26:08.795850,410303,2498728084,2498730254,-0.979904,-0.02928,-0.191296,8.0325,5.38125,-6.60625,16.168001,-2.816,11.224001,eccentric,6,5.0,27949.0,403431.0,149476.0,15259.0,-131.0
2026-04-09 22:26:08.798410,410304,2498742607,2498743089,-0.913536,-0.064416,-0.10736,4.15625,3.885,-5.52125,16.176,-3.32,11.232,eccentric,6,5.0,27949.0,403431.0,149476.0,15259.0,-131.0
2026-04-09 22:26:08.800888,410305,2498751963,2498753847,-0.913536,-0.064416,-0.10736,-0.98875,3.395,-5.13625,16.176,-3.32,11.232,eccentric,6,5.0,27949.0,403431.0,149476.0,15259.0,-131.0
2026-04-09 22:26:08.813308,410306,2498761062,2498762583,-0.960384,-0.037088,-0.138592,-4.83,4.69,-3.29,15.216001,-2.488,9.648001,eccentric,6,5.0,27949.0,403431.0,149476.0,15259.0,-131.0
2026-04-09 22:26:08.841202,410316,2498775594,2498778114,-0.977952,-0.017568,-0.21472,-6.29125,6.51875,-1.51375,15.848001,-3.056,11.280001,eccentric,6,5.0,28054.0,403431.0,148741.0,14773.0,-105.0
2026-04-09 22:26:08.843224,410317,2498784575,2498786838,-0.977952,-0.017568,-0.21472,-8.91625,5.81875,-1.995,15.848001,-3.056,11.280001,eccentric,6,5.0,28054.0,403431.0,148741.0,14773.0,-105.0
2026-04-09 22:26:08.845806,410318,2498793565,2498795626,-0.977952,-0.017568,-0.21472,-10.91125,3.31625,-1.82,15.848001,-3.056,11.280001,eccentric,6,5.0,28054.0,403431.0,148741.0,14773.0,-105.0
2026-04-09 22:26:08.849558,410319,2498808057,2498808568,-0.952576,-0.105408,-0.130784,-11.41875,0.5425,0.4375,16.336,-2.824,11.64,eccentric,6,5.0,28054.0,403431.0,148741.0,14773.0,-105.0
2026-04-09 22:26:08.883479,410320,2498817423,2498819343,-0.958432,-0.007808,-0.134688,-7.39375,-0.14,4.1825,13.960001,-2.656,13.096001,eccentric,6,5.0,28054.0,403431.0,148741.0,14773.0,-105.0
2026-04-09 22:26:08.887079,410321,2498826351,2498828085,-0.958432,-0.007808,-0.134688,-1.58375,1.54,6.74625,13.960001,-2.656,13.096001,eccentric,6,5.0,28054.0,403431.0,148741.0,14773.0,-105.0
2026-04-09 22:26:08.889606,410322,2498835278,2498836795,-0.964288,0.025376,-0.1952,-2.6425,2.89625,7.9975,15.840001,-3.128,12.584001,eccentric,6,5.0,28054.0,403431.0,148741.0,14773.0,-105.0
2026-04-09 22:26:08.892136,410323,2498849773,2498851708,-0.964288,0.025376,-0.1952,-6.3175,2.33625,8.785,15.840001,-3.128,12.584001,eccentric,6,5.0,28054.0,403431.0,148741.0,14773.0,-105.0
2026-04-09 22:26:08.922265,410324,2498858841,2498860441,-0.960384,-0.023424,-0.130784,-8.60125,1.19,9.065,15.616001,-2.728,12.616,eccentric,6,5.0,28054.0,403431.0,148741.0,14773.0,-105.0
2026-04-09 22:26:08.925793,410325,2498867780,2498869143,-0.960384,-0.023424,-0.130784,-9.7475,0.98875,8.417501,15.616001,-2.728,12.616,eccentric,6,5.0,28054.0,403431.0,148741.0,14773.0,-105.0
2026-04-09 22:26:08.950755,410335,2498882408,2498884122,-0.919392,0.01952,-0.109312,-7.5775,0.5075,10.6925,16.272001,-3.712,11.784,eccentric,6,5.0,27953.0,403431.0,149175.0,15001.0,-137.0
2026-04-09 22:26:08.953242,410336,2498891430,2498892902,-0.919392,0.01952,-0.109312,-12.11,1.8725,12.88,16.272001,-3.712,11.784,eccentric,6,5.0,27953.0,403431.0,149175.0,15001.0,-137.0
2026-04-09 22:26:08.955828,410337,2498900397,2498901655,-0.872544,0.072224,-0.089792,-16.86125,3.395,14.07,16.744001,-3.424,12.176001,eccentric,6,5.0,27953.0,403431.0,149175.0,15001.0,-137.0
2026-04-09 22:26:08.958241,410338,2498909406,2498910422,-0.872544,0.072224,-0.089792,-21.875,6.78125,12.88875,16.744001,-3.424,12.176001,eccentric,6,5.0,27953.0,403431.0,149175.0,15001.0,-137.0
2026-04-09 22:26:08.965707,410339,2498923969,2498925372,-0.833504,0.095648,-0.128832,-25.92625,9.33625,12.4775,16.456001,-4.208,12.416,eccentric,6,5.0,27953.0,403431.0,149175.0,15001.0,-137.0
2026-04-09 22:26:08.996154,410340,2498932992,2498934080,-0.833504,0.095648,-0.128832,-26.29375,10.43,13.34375,16.456001,-4.208,12.416,eccentric,6,5.0,27953.0,403431.0,149175.0,15001.0,-137.0
2026-04-09 22:26:08.999529,410341,2498942025,2498942775,-0.837408,0.10736,-0.134688,-25.75125,10.77125,12.71375,16.224,-4.24,13.080001,eccentric,6,5.0,27953.0,403431.0,149175.0,15001.0,-137.0
2026-04-09 22:26:09.001990,410342,2498957028,2498957701,-0.901824,0.12688,-0.261568,-24.43,10.19375,13.71125,16.824001,-3.928,11.608001,eccentric,6,5.0,27953.0,403431.0,149175.0,15001.0,-137.0
2026-04-09 22:26:09.032194,410343,2498966319,2498968546,-0.901824,0.12688,-0.261568,-23.94,7.3675,15.49625,16.824001,-3.928,11.608001,eccentric,6,5.0,27953.0,403431.0,149175.0,15001.0,-137.0
2026-04-09 22:26:09.035789,410344,2498975257,2498977249,-0.856928,0.052704,-0.210816,-22.6975,2.89625,17.185,16.824001,-4.48,15.376,eccentric,6,5.0,27953.0,403431.0,149175.0,15001.0,-137.0
2026-04-09 22:26:09.095672,410355,2498984227,2498985948,-0.856928,0.052704,-0.210816,-20.772501,-2.56375,17.66625,16.568,-4.48,15.376,eccentric,6,5.0,28174.0,403431.0,147973.0,14212.0,-118.0
2026-04-09 22:26:09.098293,410356,2498998751,2499000915,-0.882304,0.103456,-0.169824,-20.41375,-9.09125,18.26125,17.160002,-4.192,11.552001,eccentric,6,5.0,28174.0,403431.0,147973.0,14212.0,-118.0
2026-04-09 22:26:09.100748,410357,2499007732,2499009673,-0.882304,0.103456,-0.169824,-16.07375,-14.28,21.245,17.160002,-4.192,11.552001,eccentric,6,5.0,28174.0,403431.0,147973.0,14212.0,-118.0
2026-04-09 22:26:09.103252,410358,2499016664,2499018370,-0.931104,0.212768,-0.187392,-11.20875,-16.9925,22.75,16.224,-4.336,12.968,eccentric,6,5.0,28174.0,403431.0,147973.0,14212.0,-118.0
2026-04-09 22:26:09.105756,410359,2499031199,2499033244,-0.931104,0.212768,-0.187392,-7.23625,-19.92375,23.7825,16.224,-4.336,12.968,eccentric,6,5.0,28174.0,403431.0,147973.0,14212.0,-118.0
2026-04-09 22:26:09.108224,410360,2499040188,2499041974,-0.948672,0.158112,-0.179584,-9.4325,-22.2425,24.1325,17.296001,-4.672,11.936001,eccentric,6,5.0,28174.0,403431.0,147973.0,14212.0,-118.0
2026-04-09 22:26:09.110746,410361,2499049106,2499050735,-0.948672,0.158112,-0.179584,-17.053751,-24.68375,25.08625,17.296001,-4.672,11.936001,eccentric,6,5.0,28174.0,403431.0,147973.0,14212.0,-118.0
2026-04-09 22:26:09.113279,410362,2499063714,2499065658,-1.001376,0.134688,-0.144448,-16.1875,-27.536251,28.525,16.888,-5.16,13.624001,eccentric,6,5.0,28174.0,403431.0,147973.0,14212.0,-118.0
2026-04-09 22:26:09.115730,410363,2499072653,2499074367,-1.001376,0.134688,-0.144448,-13.29125,-30.5725,29.88125,16.888,-5.16,13.624001,eccentric,6,5.0,28174.0,403431.0,147973.0,14212.0,-118.0
2026-04-09 22:26:09.152018,410373,2499081742,2499083270,-1.036512,0.181536,-0.187392,-6.86875,-33.38125,30.905,17.616001,-4.744,15.080001,eccentric,6,5.0,27995.0,403431.0,149011.0,14740.0,-131.0
2026-04-09 22:26:09.154972,410374,2499090817,2499091990,-1.036512,0.181536,-0.187392,0.00875,-35.16625,31.85,17.616001,-4.744,15.080001,eccentric,6,5.0,27995.0,403431.0,149011.0,14740.0,-131.0
2026-04-09 22:26:09.157041,410375,2499105297,2499106917,-1.028704,0.20496,-0.101504,-0.3675,-37.00375,30.8875,17.456001,-4.824,15.512001,eccentric,6,5.0,27995.0,403431.0,149011.0,14740.0,-131.0
2026-04-09 22:26:09.159486,410376,2499114293,2499115674,-1.028704,0.20496,-0.101504,2.24875,-36.79375,31.85,17.456001,-4.824,15.512001,eccentric,6,5.0,27995.0,403431.0,149011.0,14740.0,-131.0
2026-04-09 22:26:09.165745,410377,2499123234,2499124393,-1.065792,0.199104,-0.111264,2.625,-35.51625,30.70375,18.904001,-5.104,15.128,eccentric,6,5.0,27995.0,403431.0,149011.0,14740.0,-131.0
2026-04-09 22:26:09.195953,410378,2499137722,2499139306,-1.120448,0.249856,-0.109312,-0.37625,-34.2825,31.3775,19.2,-4.672,13.408001,eccentric,6,5.0,27995.0,403431.0,149011.0,14740.0,-131.0
2026-04-09 22:26:09.199498,410379,2499146639,2499147985,-1.120448,0.249856,-0.109312,6.13375,-33.90625,32.92625,19.2,-4.672,13.408001,eccentric,6,5.0,27995.0,403431.0,149011.0,14740.0,-131.0
2026-04-09 22:26:09.201957,410380,2499155556,2499156713,-1.120448,0.216672,-0.046848,7.42875,-33.32875,29.09375,19.2,-4.672,13.408001,eccentric,6,5.0,27995.0,403431.0,149011.0,14740.0,-131.0
2026-04-09 22:26:09.232209,410381,2499170056,2499171624,-1.028704,0.216672,-0.046848,8.02375,-30.7475,25.73375,20.04,-5.264,13.920001,eccentric,6,5.0,27995.0,403431.0,149011.0,14740.0,-131.0
2026-04-09 22:26:09.262051,410391,2499178982,2499180453,-1.149728,0.245952,-0.015616,7.8925,-27.78125,23.415,20.36,-4.8,13.872001,eccentric,6,5.0,27802.0,403431.0,149898.0,15221.0,-113.0
2026-04-09 22:26:09.264601,410392,2499187949,2499189171,-1.149728,0.245952,-0.015616,5.9325,-24.535,23.70375,20.36,-4.8,13.872001,eccentric,6,5.0,27802.0,403431.0,149898.0,15221.0,-113.0
2026-04-09 22:26:09.267024,410393,2499196843,2499197852,-1.175104,0.251808,-0.10736,7.63875,-20.9125,23.86125,20.560001,-5.016,14.176001,eccentric,6,5.0,27802.0,403431.0,149898.0,15221.0,-113.0
2026-04-09 22:26:09.269517,410394,2499211383,2499212827,-1.175104,0.251808,-0.10736,3.325,-19.5475,22.51375,20.560001,-5.016,14.176001,eccentric,6,5.0,27802.0,403431.0,149898.0,15221.0,-113.0
2026-04-09 22:26:09.272075,410395,2499220334,2499221594,-1.173152,0.197152,-0.095648,3.0625,-20.4225,24.78,20.504002,-5.208,15.824,eccentric,6,5.0,27802.0,403431.0,149898.0,15221.0,-113.0
2026-04-09 22:26:09.274472,410396,2499229274,2499230327,-1.173152,0.197152,-0.095648,3.03625,-22.60125,23.3275,20.504002,-5.208,15.824,eccentric,6,5.0,27802.0,403431.0,149898.0,15221.0,-113.0
2026-04-09 22:26:09.304748,410397,2499243741,2499245252,-1.175104,0.25376,0.0,3.56125,-24.10625,20.06375,21.880001,-4.736,15.536001,eccentric,6,5.0,27802.0,403431.0,149898.0,15221.0,-113.0
2026-04-09 22:26:09.308294,410398,2499252653,2499253969,-1.175104,0.25376,0.0,10.167501,-23.616251,20.055,21.880001,-4.736,15.536001,eccentric,6,5.0,27802.0,403431.0,149898.0,15221.0,-113.0
2026-04-09 22:26:09.310800,410399,2499261549,2499262637,-1.20048,0.26352,-0.0488,14.525,-20.81625,20.5625,21.856,-5.64,15.256001,eccentric,6,5.0,27802.0,403431.0,149898.0,15221.0,-113.0
2026-04-09 22:26:09.343479,410400,2499276052,2499277625,-1.20048,0.206912,-0.031232,4.87375,-19.3375,19.495,21.856,-5.64,15.256001,eccentric,6,5.0,27802.0,403431.0,149898.0,15221.0,-113.0
2026-04-09 22:26:09.404476,410411,2499285106,2499286436,-1.188768,0.206912,-0.031232,-1.67125,-19.18875,19.81875,21.192001,-4.76,15.448001,eccentric,6,5.0,27814.0,403431.0,150087.0,15482.0,-128.0
2026-04-09 22:26:09.407088,410412,2499294013,2499295133,-1.188768,0.206912,-0.031232,-0.1225,-19.85375,20.23,21.192001,-4.76,15.448001,eccentric,6,5.0,27814.0,403431.0,150087.0,15482.0,-128.0
2026-04-09 22:26:09.409638,410413,2499308477,2499310063,-1.202432,0.210816,-0.033184,3.08,-21.875,19.985,22.936,-4.968,15.064001,eccentric,6,5.0,27814.0,403431.0,150087.0,15482.0,-128.0
2026-04-09 22:26:09.415921,410414,2499317429,2499318857,-1.247328,0.279136,-0.021472,5.95,-24.8675,21.84875,22.608002,-5.32,17.2,eccentric,6,5.0,27814.0,403431.0,150087.0,15482.0,-128.0
2026-04-09 22:26:09.419281,410415,2499326338,2499327570,-1.247328,0.279136,-0.021472,12.9325,-27.4225,22.60125,22.608002,-5.32,17.2,eccentric,6,5.0,27814.0,403431.0,150087.0,15482.0,-128.0
2026-04-09 22:26:09.420758,410416,2499335274,2499336295,-1.247328,0.279136,-0.021472,14.5075,-29.46125,19.95875,22.608002,-5.32,17.2,eccentric,6,5.0,27814.0,403431.0,150087.0,15482.0,-128.0
2026-04-09 22:26:09.425145,410417,2499349714,2499351224,-1.260992,0.228384,-0.064416,11.655,-32.01625,17.053751,23.344002,-4.968,15.432001,eccentric,6,5.0,27814.0,403431.0,150087.0,15482.0,-128.0
2026-04-09 22:26:09.426811,410418,2499358728,2499359937,-1.286368,0.183488,0.00976,15.81125,-34.107502,16.03875,22.336,-4.224,17.992,eccentric,6,5.0,27814.0,403431.0,150087.0,15482.0,-128.0
2026-04-09 22:26:09.429326,410419,2499367759,2499368773,-1.286368,0.183488,0.00976,16.91375,-36.68,14.5775,22.336,-4.224,17.992,eccentric,6,5.0,27814.0,403431.0,150087.0,15482.0,-128.0
2026-04-09 22:26:09.453337,410429,2499382400,2499383800,-1.32736,0.160064,0.046848,19.08375,-37.975,18.08625,23.392,-4.96,18.368,eccentric,6,5.0,27436.0,403431.0,152607.0,17048.0,-124.0
2026-04-09 22:26:09.457651,410430,2499391408,2499392557,-1.32736,0.160064,0.046848,22.37375,-37.52,22.6625,23.392,-4.96,18.368,eccentric,6,5.0,27436.0,403431.0,152607.0,17048.0,-124.0
2026-04-09 22:26:09.459318,410431,2499400409,2499401316,-1.315648,0.13664,0.06832,27.195,-36.28625,24.80625,24.472002,-4.536,17.240002,eccentric,6,5.0,27436.0,403431.0,152607.0,17048.0,-124.0
2026-04-09 22:26:09.460871,410432,2499414932,2499416268,-1.315648,0.13664,0.06832,30.2575,-34.48375,27.825,24.472002,-4.536,17.240002,eccentric,6,5.0,27436.0,403431.0,152607.0,17048.0,-124.0
2026-04-09 22:26:09.467452,410433,2499423922,2499425037,-1.325408,0.142496,0.06832,29.4,-32.01625,32.2875,25.352001,-4.68,18.2,eccentric,6,5.0,27436.0,403431.0,152607.0,17048.0,-124.0
2026-04-09 22:26:09.496052,410434,2499432979,2499433740,-1.325408,0.142496,0.06832,24.63125,-29.37375,35.1225,25.352001,-4.68,18.2,eccentric,6,5.0,27436.0,403431.0,152607.0,17048.0,-124.0
2026-04-09 22:26:09.500507,410435,2499442409,2499444537,-1.313696,0.089792,0.142496,18.76,-26.18,37.8175,24.584002,-4.712,19.664001,eccentric,6,5.0,27436.0,403431.0,152607.0,17048.0,-124.0
2026-04-09 22:26:09.502821,410436,2499456872,2499457383,-1.309792,0.12688,0.081984,16.19625,-22.3125,41.763752,24.584002,-4.712,19.76,eccentric,6,5.0,27436.0,403431.0,152607.0,17048.0,-124.0
2026-04-09 22:26:09.534499,410437,2499466292,2499468149,-1.309792,0.12688,0.081984,14.533751,-19.39875,46.20875,25.672,-5.472,19.76,eccentric,6,5.0,27436.0,403431.0,152607.0,17048.0,-124.0
2026-04-09 22:26:09.536664,410438,2499475248,2499476844,-1.309792,0.12688,0.081984,13.5975,-17.8325,49.035,25.672,-5.472,19.76,eccentric,6,5.0,27436.0,403431.0,152607.0,17048.0,-124.0
2026-04-09 22:26:09.563769,410448,2499489724,2499491802,-1.264896,0.119072,0.066368,12.83625,-16.89625,49.91875,25.904001,-6.12,19.408,eccentric,6,5.0,27336.0,403431.0,153362.0,17427.0,-115.0
2026-04-09 22:26:09.565499,410449,2499498626,2499500481,-1.260992,0.160064,0.033184,8.61875,-15.2425,53.0425,26.256,-5.928001,19.568,eccentric,6,5.0,27336.0,403431.0,153362.0,17427.0,-115.0
2026-04-09 22:26:09.567063,410450,2499507589,2499509218,-1.260992,0.160064,0.033184,7.7525,-14.2275,55.335,26.256,-5.928001,19.568,eccentric,6,5.0,27336.0,403431.0,153362.0,17427.0,-115.0
2026-04-09 22:26:09.571167,410451,2499516602,2499517962,-1.260992,0.160064,0.06832,8.96,-14.23625,53.6375,26.256,-5.928001,19.568,eccentric,6,5.0,27336.0,403431.0,153362.0,17427.0,-115.0
2026-04-09 22:26:09.574959,410452,2499531182,2499532893,-1.235616,0.140544,0.06832,8.015,-13.93,51.1,25.256,-6.56,21.168001,eccentric,6,5.0,27336.0,403431.0,153362.0,17427.0,-115.0
2026-04-09 22:26:09.603591,410453,2499540193,2499541615,-1.192672,0.11712,0.042944,4.6375,-13.886251,51.33625,26.272001,-7.048,19.992,eccentric,6,5.0,27336.0,403431.0,153362.0,17427.0,-115.0
2026-04-09 22:26:09.607243,410454,2499549109,2499550316,-1.192672,0.11712,0.042944,4.82125,-14.07,52.325,26.272001,-7.048,19.992,eccentric,6,5.0,27336.0,403431.0,153362.0,17427.0,-115.0
2026-04-09 22:26:09.611340,410455,2499563590,2499565188,-1.159488,0.128832,0.070272,8.015,-14.23625,52.815,26.528002,-7.752,20.592001,eccentric,6,5.0,27336.0,403431.0,153362.0,17427.0,-115.0
2026-04-09 22:26:09.616319,410456,2499572660,2499573874,-1.159488,0.128832,0.070272,13.2825,-14.096251,53.52375,26.528002,-7.752,20.592001,eccentric,6,5.0,27336.0,403431.0,153362.0,17427.0,-115.0
2026-04-09 22:26:09.707067,410467,2499581692,2499582689,-1.134112,0.167872,0.074176,18.82125,-13.53625,52.28125,27.064001,-8.568001,21.472,eccentric,6,5.0,27265.0,403431.0,153930.0,17959.0,-121.0
2026-04-09 22:26:09.709505,410468,2499591600,2499593468,-1.134112,0.167872,0.074176,18.43625,-12.6875,50.995,27.064001,-8.568001,21.472,eccentric,6,5.0,27265.0,403431.0,153930.0,17959.0,-121.0
2026-04-09 22:26:09.712512,410469,2499606094,2499608371,-1.120448,0.169824,0.064416,15.72375,-11.68125,50.19,26.344002,-8.976001,21.144001,eccentric,6,5.0,27265.0,403431.0,153930.0,17959.0,-121.0
2026-04-09 22:26:09.714528,410470,2499615115,2499617074,-1.120448,0.169824,0.064416,11.2175,-11.8825,49.1925,26.344002,-8.976001,21.144001,eccentric,6,5.0,27265.0,403431.0,153930.0,17959.0,-121.0
2026-04-09 22:26:09.718275,410471,2499624036,2499625771,-1.108736,0.18544,0.040992,9.292501,-11.68125,46.08625,27.000002,-9.928,21.256,eccentric,6,5.0,27265.0,403431.0,153930.0,17959.0,-121.0
2026-04-09 22:26:09.720310,410472,2499638530,2499640660,-1.077504,0.208864,0.044896,12.2675,-11.41875,43.855,26.808,-10.288,23.592001,eccentric,6,5.0,27265.0,403431.0,153930.0,17959.0,-121.0
2026-04-09 22:26:09.724573,410473,2499647438,2499649292,-1.077504,0.208864,0.044896,14.035,-11.917501,41.55375,26.808,-10.288,23.592001,eccentric,6,5.0,27265.0,403431.0,153930.0,17959.0,-121.0
2026-04-09 22:26:09.727266,410474,2499656410,2499658002,-1.077504,0.208864,0.044896,14.51625,-11.2,38.7625,26.808,-10.288,23.592001,eccentric,6,5.0,27265.0,403431.0,153930.0,17959.0,-121.0
2026-04-09 22:26:09.729530,410475,2499670975,2499672935,-1.059936,0.251808,0.046848,13.1075,-10.325,35.2275,26.640001,-9.928,20.472,eccentric,6,5.0,27265.0,403431.0,153930.0,17959.0,-121.0
2026-04-09 22:26:09.732038,410476,2499679921,2499681649,-1.05408,0.23424,0.052704,7.665,-10.85,29.21625,27.032001,-10.488001,21.632002,eccentric,6,5.0,27265.0,403431.0,153930.0,17959.0,-121.0
2026-04-09 22:26:09.757051,410486,2499688883,2499690370,-1.05408,0.23424,0.052704,1.2075,-10.3075,25.3925,27.032001,-10.488001,21.632002,eccentric,6,5.0,27232.0,403431.0,154071.0,18180.0,-119.0
2026-04-09 22:26:09.759526,410487,2499697874,2499699118,-1.028704,0.203008,0.042944,-2.065,-9.730001,23.065,27.032001,-10.872001,22.568,eccentric,6,5.0,27232.0,403431.0,154071.0,18180.0,-119.0
2026-04-09 22:26:09.762089,410488,2499712408,2499714159,-1.028704,0.203008,0.042944,-2.485,-8.8025,19.74,26.912,-10.872001,22.568,eccentric,6,5.0,27232.0,403431.0,154071.0,18180.0,-119.0
2026-04-09 22:26:09.764549,410489,2499721361,2499722891,-1.009184,0.21472,0.035136,0.0875,-8.2075,17.00125,27.088001,-10.88,22.056002,eccentric,6,5.0,27232.0,403431.0,154071.0,18180.0,-119.0
2026-04-09 22:26:09.794734,410490,2499730340,2499731630,-1.009184,0.21472,0.035136,5.3375,-7.7,14.16625,27.088001,-10.88,22.056002,eccentric,6,5.0,27232.0,403431.0,154071.0,18180.0,-119.0
2026-04-09 22:26:09.798740,410491,2499744833,2499746539,-0.993568,0.242048,0.00976,8.89875,-7.83125,10.40375,26.472002,-11.096001,22.000002,eccentric,6,5.0,27232.0,403431.0,154071.0,18180.0,-119.0
2026-04-09 22:26:09.800933,410492,2499753760,2499755225,-0.993568,0.242048,0.00976,7.77875,-8.085,6.57125,26.472002,-11.096001,22.000002,eccentric,6,5.0,27232.0,403431.0,154071.0,18180.0,-119.0
2026-04-09 22:26:09.807097,410493,2499762733,2499763984,-0.99552,0.245952,0.013664,3.92,-7.97125,3.99,26.848001,-11.296001,22.672,eccentric,6,5.0,27232.0,403431.0,154071.0,18180.0,-119.0
2026-04-09 22:26:09.837236,410494,2499777244,2499779015,-0.99552,0.245952,0.013664,0.13125,-7.55125,1.1375,26.848001,-11.296001,22.672,eccentric,6,5.0,27232.0,403431.0,154071.0,18180.0,-119.0
2026-04-09 22:26:09.863240,410504,2499786767,2499788035,-0.999424,0.201056,0.037088,-2.07375,-6.50125,-2.2925,25.864,-11.416,23.432001,eccentric,6,5.0,27306.0,403431.0,153579.0,17915.0,-107.0
2026-04-09 22:26:09.865785,410505,2499795707,2499796799,-0.999424,0.201056,0.037088,-1.89,-6.37,-4.96125,25.864,-11.416,23.432001,eccentric,6,5.0,27306.0,403431.0,153579.0,17915.0,-107.0
2026-04-09 22:26:09.868294,410506,2499804634,2499805531,-0.98576,0.201056,0.013664,-0.58625,-5.495,-5.88875,26.6,-11.480001,20.496,eccentric,6,5.0,27306.0,403431.0,153579.0,17915.0,-107.0
2026-04-09 22:26:09.870792,410507,2499819269,2499820550,-0.997472,0.222528,0.040992,2.02125,-5.11,-7.63875,25.112001,-11.152,23.776001,eccentric,6,5.0,27306.0,403431.0,153579.0,17915.0,-107.0
2026-04-09 22:26:09.873296,410508,2499828214,2499829301,-0.997472,0.222528,0.040992,4.05125,-4.235,-10.2375,25.112001,-11.152,23.776001,eccentric,6,5.0,27306.0,403431.0,153579.0,17915.0,-107.0
2026-04-09 22:26:09.879655,410509,2499837222,2499838015,-0.997472,0.222528,0.040992,3.03625,-2.63375,-12.3375,25.112001,-11.152,23.776001,eccentric,6,5.0,27306.0,403431.0,153579.0,17915.0,-107.0
2026-04-09 22:26:09.911715,410510,2499851715,2499852909,-0.993568,0.230336,0.042944,-0.35875,-0.7175,-14.21875,26.048,-10.888001,25.632002,eccentric,6,5.0,27306.0,403431.0,153579.0,17915.0,-107.0
2026-04-09 22:26:09.916058,410511,2499860614,2499861681,-1.011136,0.222528,0.01952,-4.27875,0.16625,-16.31875,27.616001,-11.032001,22.552002,eccentric,6,5.0,27306.0,403431.0,153579.0,17915.0,-107.0
2026-04-09 22:26:09.919986,410512,2499869600,2499870373,-1.011136,0.222528,0.01952,-7.77875,1.16375,-18.445,27.616001,-11.032001,22.552002,eccentric,6,5.0,27306.0,403431.0,153579.0,17915.0,-107.0
2026-04-09 22:26:09.923739,410513,2499878977,2499881129,-1.007232,0.193248,0.025376,-8.785,2.65125,-20.65,26.376001,-10.448001,24.080002,eccentric,6,5.0,27306.0,403431.0,153579.0,17915.0,-107.0
2026-04-09 22:26:09.985792,410524,2499893645,2499894067,-1.007232,0.193248,0.025376,-10.15875,3.85875,-22.5575,26.376001,-10.448001,24.080002,eccentric,6,5.0,27287.0,403431.0,153943.0,18234.0,-106.0
2026-04-09 22:26:09.988032,410525,2499903175,2499904814,-1.011136,0.247904,0.05856,-10.955,5.6,-23.87875,26.048,-11.008,24.096,eccentric,6,5.0,27287.0,403431.0,153943.0,18234.0,-106.0
2026-04-09 22:26:09.990923,410526,2499912121,2499913552,-1.011136,0.247904,0.05856,-9.10875,7.91875,-26.6525,26.048,-11.008,24.096,eccentric,6,5.0,27287.0,403431.0,153943.0,18234.0,-106.0
2026-04-09 22:26:09.995149,410527,2499926653,2499928442,-1.038464,0.2928,0.042944,-10.29875,9.93125,-31.36,26.784,-10.68,22.688002,eccentric,6,5.0,27287.0,403431.0,153943.0,18234.0,-106.0
2026-04-09 22:26:09.996771,410528,2499935607,2499937212,-1.038464,0.2928,0.042944,-15.33875,11.8475,-35.35,26.784,-10.68,22.688002,eccentric,6,5.0,27287.0,403431.0,153943.0,18234.0,-106.0
2026-04-09 22:26:09.998368,410529,2499944557,2499945918,-1.05408,0.22448,0.011712,-21.6125,12.845,-37.54625,26.840002,-9.808001,22.264002,eccentric,6,5.0,27287.0,403431.0,153943.0,18234.0,-106.0
2026-04-09 22:26:10.002445,410530,2499953488,2499954608,-1.05408,0.22448,0.011712,-25.5325,13.46625,-39.83875,26.840002,-9.808001,22.264002,eccentric,6,5.0,27287.0,403431.0,153943.0,18234.0,-106.0
2026-04-09 22:26:10.031141,410531,2499967987,2499969545,-1.069696,0.169824,0.015616,-23.4675,13.90375,-41.265,25.960001,-9.512,22.416,eccentric,6,5.0,27287.0,403431.0,153943.0,18234.0,-106.0
2026-04-09 22:26:10.036607,410532,2499976913,2499978225,-1.069696,0.169824,0.015616,-15.88125,14.3325,-41.09,25.960001,-9.512,22.416,eccentric,6,5.0,27287.0,403431.0,153943.0,18234.0,-106.0
2026-04-09 22:26:10.068474,410542,2499986408,2499987087,-1.071648,0.240096,0.027328,-7.98,14.3675,-42.14,26.488,-9.568001,21.832,concentric,6,5.0,27239.0,403431.0,154410.0,18548.0,-116.0
2026-04-09 22:26:10.072662,410543,2499995819,2499997926,-1.071648,0.240096,0.027328,-5.62625,14.62125,-43.96875,26.488,-9.568001,21.832,concentric,6,5.0,27239.0,403431.0,154410.0,18548.0,-116.0
2026-04-09 22:26:10.074306,410544,2500010422,2500010779,-1.075552,0.267424,0.054656,-9.65125,15.02375,-44.4325,26.008001,-8.736,23.504002,concentric,6,5.0,27239.0,403431.0,154410.0,18548.0,-116.0
2026-04-09 22:26:10.076053,410545,2500019685,2500021526,-1.085312,0.236192,0.054656,-15.198751,15.785,-44.19625,25.792002,-9.120001,22.632002,concentric,6,5.0,27239.0,403431.0,154410.0,18548.0,-116.0
2026-04-09 22:26:10.080410,410546,2500028610,2500030275,-1.085312,0.236192,0.054656,-18.90875,17.535,-45.85,25.792002,-9.120001,22.632002,concentric,6,5.0,27239.0,403431.0,154410.0,18548.0,-116.0
2026-04-09 22:26:10.088775,410547,2500043124,2500045187,-1.10288,0.191296,0.042944,-19.3375,19.15375,-46.9525,26.6,-8.688001,21.432001,concentric,6,5.0,27239.0,403431.0,154410.0,18548.0,-116.0
2026-04-09 22:26:10.117945,410548,2500052057,2500053873,-1.10288,0.191296,0.042944,-20.8425,19.678751,-46.03375,26.6,-8.688001,21.432001,concentric,6,5.0,27239.0,403431.0,154410.0,18548.0,-116.0
2026-04-09 22:26:10.122040,410549,2500061003,2500062599,-1.116544,0.1952,0.013664,-20.93,20.0725,-45.00125,26.288002,-8.296001,20.808,concentric,6,5.0,27239.0,403431.0,154410.0,18548.0,-116.0
2026-04-09 22:26:10.124264,410550,2500075474,2500077491,-1.116544,0.1952,0.013664,-18.75125,20.405,-44.826252,26.288002,-8.296001,20.808,concentric,6,5.0,27239.0,403431.0,154410.0,18548.0,-116.0
2026-04-09 22:26:10.152237,410560,2500084367,2500086221,-1.126304,0.20496,0.060512,-16.14375,20.6675,-44.30125,26.416,-8.088,21.04,concentric,6,5.0,27294.0,403431.0,154041.0,18288.0,-108.0
2026-04-09 22:26:10.156433,410561,2500093839,2500095039,-1.126304,0.20496,0.060512,-11.7075,21.8925,-42.07875,26.416,-8.088,21.04,concentric,6,5.0,27294.0,403431.0,154041.0,18288.0,-108.0
2026-04-09 22:26:10.158043,410562,2500102769,2500103755,-1.114592,0.222528,0.07808,-7.21,23.3625,-41.51,25.68,-7.616,20.384,concentric,6,5.0,27294.0,403431.0,154041.0,18288.0,-108.0
2026-04-09 22:26:10.159657,410563,2500117288,2500118738,-1.114592,0.222528,0.07808,-7.8225,25.3575,-41.65875,25.68,-7.616,20.384,concentric,6,5.0,27294.0,403431.0,154041.0,18288.0,-108.0
2026-04-09 22:26:10.190790,410564,2500126240,2500127450,-1.118496,0.183488,0.037088,-9.54625,26.88875,-42.525,24.088001,-7.368001,20.752,concentric,6,5.0,27294.0,403431.0,154041.0,18288.0,-108.0
2026-04-09 22:26:10.193026,410565,2500135109,2500136169,-1.118496,0.183488,0.037088,-11.85625,28.18375,-40.81,24.088001,-7.368001,20.752,concentric,6,5.0,27294.0,403431.0,154041.0,18288.0,-108.0
2026-04-09 22:26:10.197007,410566,2500149640,2500151066,-1.124352,0.160064,0.003904,-12.15375,28.595,-36.82875,26.000002,-6.88,19.712002,concentric,6,5.0,27294.0,403431.0,154041.0,18288.0,-108.0
2026-04-09 22:26:10.203266,410567,2500158564,2500159773,-1.124352,0.160064,0.003904,-6.37875,29.995,-34.08125,26.000002,-6.88,19.712002,concentric,6,5.0,27294.0,403431.0,154041.0,18288.0,-108.0
2026-04-09 22:26:10.231083,410568,2500167456,2500168528,-1.116544,0.228384,0.124928,3.22,32.795002,-35.1575,25.312,-6.424,19.480001,concentric,6,5.0,27294.0,403431.0,154041.0,18288.0,-108.0
2026-04-09 22:26:10.235579,410569,2500181989,2500183450,-1.124352,0.279136,0.093696,5.46,36.12875,-37.86125,25.424002,-6.656,18.608002,concentric,6,5.0,27294.0,403431.0,154041.0,18288.0,-108.0
2026-04-09 22:26:10.302586,410580,2500191056,2500192381,-1.124352,0.279136,0.093696,-4.62,38.395,-41.65875,25.424002,-6.656,18.608002,concentric,6,5.0,27325.0,403431.0,153623.0,17950.0,-123.0
2026-04-09 22:26:10.304546,410581,2500200038,2500201109,-1.145824,0.193248,0.050752,-15.3825,41.53625,-42.86625,23.376001,-6.448,17.808,concentric,6,5.0,27325.0,403431.0,153623.0,17950.0,-123.0
2026-04-09 22:26:10.305889,410582,2500209004,2500209858,-1.145824,0.193248,0.050752,-22.14625,45.0275,-43.82875,24.504002,-6.448,17.808,concentric,6,5.0,27325.0,403431.0,153623.0,17950.0,-123.0
2026-04-09 22:26:10.310091,410583,2500223496,2500224797,-1.11264,0.121024,0.035136,-23.7475,47.705,-43.2775,24.928001,-6.432,18.0,concentric,6,5.0,27325.0,403431.0,153623.0,17950.0,-123.0
2026-04-09 22:26:10.311815,410584,2500232390,2500233468,-1.11264,0.121024,0.035136,-22.68875,49.8225,-42.62125,24.928001,-6.432,18.0,concentric,6,5.0,27325.0,403431.0,153623.0,17950.0,-123.0
2026-04-09 22:26:10.313380,410585,2500241305,2500242159,-1.134112,0.197152,-0.025376,-17.710001,51.59,-42.76125,24.224,-6.368001,17.072,concentric,6,5.0,27325.0,403431.0,153623.0,17950.0,-123.0
2026-04-09 22:26:10.317602,410586,2500255804,2500257083,-1.134112,0.197152,-0.025376,-13.448751,51.826252,-43.33,24.224,-6.368001,17.072,concentric,6,5.0,27325.0,403431.0,153623.0,17950.0,-123.0
2026-04-09 22:26:10.319339,410587,2500264725,2500265812,-1.147776,0.236192,-0.0488,-15.9075,51.52875,-43.72375,23.024,-6.144,17.992,concentric,6,5.0,27325.0,403431.0,153623.0,17950.0,-123.0
2026-04-09 22:26:10.320848,410588,2500273667,2500274615,-1.147776,0.236192,-0.0488,-16.45,50.26,-44.87875,23.024,-6.144,17.992,concentric,6,5.0,27325.0,403431.0,153623.0,17950.0,-123.0
2026-04-09 22:26:10.351367,410598,2500288515,2500289594,-1.139968,0.169824,-0.021472,-12.6175,49.175,-48.67625,23.448002,-5.824,17.736,concentric,6,5.0,27419.0,403431.0,152643.0,17236.0,-122.0
2026-04-09 22:26:10.353422,410599,2500297494,2500298307,-1.139968,0.169824,-0.021472,-9.4675,48.65,-50.14625,23.448002,-5.824,17.736,concentric,6,5.0,27419.0,403431.0,152643.0,17236.0,-122.0
2026-04-09 22:26:10.354724,410600,2500306546,2500307040,-1.139968,0.18544,-0.001952,-5.215,48.51,-50.28625,23.528002,-5.232,16.024,concentric,6,5.0,27419.0,403431.0,152643.0,17236.0,-122.0
2026-04-09 22:26:10.362444,410601,2500315944,2500317837,-1.139968,0.18544,-0.001952,-1.015,48.4225,-50.54,23.528002,-5.232,16.024,concentric,6,5.0,27419.0,403431.0,152643.0,17236.0,-122.0
2026-04-09 22:26:10.390960,410602,2500330458,2500332768,-1.126304,0.197152,-0.062464,-0.07,47.46,-51.28375,23.152,-5.296001,15.328001,concentric,6,5.0,27419.0,403431.0,152643.0,17236.0,-122.0
2026-04-09 22:26:10.395475,410603,2500339355,2500341477,-1.126304,0.197152,-0.062464,-2.3975,45.78,-50.79375,23.152,-5.296001,15.328001,concentric,6,5.0,27419.0,403431.0,152643.0,17236.0,-122.0
2026-04-09 22:26:10.397836,410604,2500348297,2500350223,-1.167296,0.167872,-0.0976,-4.0775,43.9075,-50.26875,22.408,-5.488,15.384001,concentric,6,5.0,27419.0,403431.0,152643.0,17236.0,-122.0
2026-04-09 22:26:10.428303,410605,2500362801,2500363126,-1.169248,0.138592,-0.046848,-2.23125,41.69375,-50.91625,22.632002,-4.56,14.712001,concentric,6,5.0,27419.0,403431.0,152643.0,17236.0,-122.0
2026-04-09 22:26:10.430517,410606,2500371971,2500373893,-1.169248,0.138592,-0.046848,2.5375,39.9175,-51.12625,22.632002,-4.56,14.712001,concentric,6,5.0,27419.0,403431.0,152643.0,17236.0,-122.0
2026-04-09 22:26:10.435256,410607,2500380914,2500382584,-1.218048,0.208864,0.056608,8.2425,39.8825,-50.365,21.800001,-4.84,15.624001,concentric,6,5.0,27419.0,403431.0,152643.0,17236.0,-122.0
2026-04-09 22:26:10.459363,410617,2500390320,2500391488,-1.218048,0.208864,0.056608,13.9125,43.5225,-49.65625,21.800001,-4.84,15.624001,concentric,6,5.0,27484.0,403431.0,152000.0,16773.0,-112.0
2026-04-09 22:26:10.460913,410618,2500404942,2500406410,-1.167296,0.160064,-0.052704,10.885,48.5625,-48.93875,19.552,-4.816001,16.744001,concentric,6,5.0,27484.0,403431.0,152000.0,16773.0,-112.0
2026-04-09 22:26:10.465117,410619,2500413901,2500415166,-1.167296,0.160064,-0.052704,-6.71125,50.05875,-48.37875,19.552,-4.816001,16.744001,concentric,6,5.0,27484.0,403431.0,152000.0,16773.0,-112.0
2026-04-09 22:26:10.467564,410620,2500422858,2500423883,-1.216096,0.074176,-0.081984,-14.2275,49.8225,-48.04625,19.088001,-4.32,16.184,concentric,6,5.0,27484.0,403431.0,152000.0,16773.0,-112.0
2026-04-09 22:26:10.496033,410621,2500437357,2500438769,-1.216096,0.074176,-0.081984,-11.69,49.035,-48.6325,19.088001,-4.32,16.184,concentric,6,5.0,27484.0,403431.0,152000.0,16773.0,-112.0
2026-04-09 22:26:10.499797,410622,2500446289,2500447511,-1.221952,0.101504,-0.124928,-5.3375,49.175,-47.38125,20.84,-3.8,12.896001,concentric,6,5.0,27484.0,403431.0,152000.0,16773.0,-112.0
2026-04-09 22:26:10.502180,410623,2500455154,2500456246,-1.221952,0.101504,-0.124928,0.6475,48.11625,-45.3775,20.84,-3.8,12.896001,concentric,6,5.0,27484.0,403431.0,152000.0,16773.0,-112.0
2026-04-09 22:26:10.532312,410624,2500469646,2500471145,-1.177056,0.122976,-0.128832,2.1525,46.75125,-43.12,20.0,-4.264,12.968,concentric,6,5.0,27484.0,403431.0,152000.0,16773.0,-112.0
2026-04-09 22:26:10.535921,410625,2500478592,2500479872,-1.177056,0.122976,-0.128832,0.5075,44.94875,-41.67625,20.0,-4.264,12.968,concentric,6,5.0,27484.0,403431.0,152000.0,16773.0,-112.0
2026-04-09 22:26:10.601545,410636,2500487655,2500488682,-1.157536,0.05856,-0.124928,-3.115,42.525,-41.4925,20.288,-4.176,14.296001,concentric,6,5.0,27667.0,403431.0,151133.0,16371.0,-120.0
2026-04-09 22:26:10.638592,410637,2500496666,2500497474,-1.157536,0.05856,-0.124928,-1.365,39.26125,-40.8625,20.288,-4.176,14.296001,concentric,6,5.0,27667.0,403431.0,151133.0,16371.0,-120.0
2026-04-09 22:26:10.642166,410638,2500511225,2500512457,-1.214144,0.056608,-0.244,2.905,35.42875,-39.03375,18.320002,-3.752,13.832001,concentric,6,5.0,27667.0,403431.0,151133.0,16371.0,-120.0
2026-04-09 22:26:10.644599,410639,2500520140,2500521206,-1.214144,0.056608,-0.244,8.74125,31.63125,-36.47,18.320002,-3.752,13.832001,concentric,6,5.0,27667.0,403431.0,151133.0,16371.0,-120.0
2026-04-09 22:26:10.647207,410640,2500529089,2500529908,-1.159488,0.050752,-0.181536,11.85625,26.7925,-33.985,19.080002,-3.728,11.920001,concentric,6,5.0,27667.0,403431.0,151133.0,16371.0,-120.0
2026-04-09 22:26:10.653418,410641,2500543523,2500544811,-1.136064,0.070272,-0.171776,13.93875,23.12625,-32.0075,18.952002,-3.728,12.344001,concentric,6,5.0,27667.0,403431.0,151133.0,16371.0,-120.0
2026-04-09 22:26:10.655830,410642,2500552583,2500553582,-1.136064,0.070272,-0.171776,17.94625,20.3875,-32.06875,18.952002,-3.728,12.344001,concentric,6,5.0,27667.0,403431.0,151133.0,16371.0,-120.0
2026-04-09 22:26:10.658355,410643,2500561507,2500562411,-1.10288,0.080032,-0.171776,17.87625,18.8125,-31.325,17.576,-3.832,13.608001,concentric,6,5.0,27667.0,403431.0,151133.0,16371.0,-120.0
2026-04-09 22:26:10.660830,410644,2500576086,2500577395,-1.10288,0.080032,-0.171776,18.27875,17.84125,-30.0125,17.576,-3.832,13.608001,concentric,6,5.0,27667.0,403431.0,151133.0,16371.0,-120.0
2026-04-09 22:26:10.663357,410645,2500584987,2500586106,-1.091168,0.066368,-0.16592,20.16875,16.38,-29.723751,18.576,-3.584,12.128,concentric,6,5.0,27667.0,403431.0,151133.0,16371.0,-120.0
2026-04-09 22:26:10.707003,410655,2500594049,2500594845,-1.091168,0.066368,-0.16592,20.32625,14.752501,-28.98875,18.576,-3.584,12.128,concentric,6,5.0,27711.0,403431.0,151040.0,16300.0,-121.0
2026-04-09 22:26:10.709600,410656,2500603473,2500605598,-1.079456,0.076128,-0.1952,22.715,13.877501,-27.18625,17.68,-3.04,12.336,concentric,6,5.0,27711.0,403431.0,151040.0,16300.0,-121.0
2026-04-09 22:26:10.712060,410657,2500618166,2500618530,-1.079456,0.076128,-0.1952,21.9625,11.73375,-26.355,17.68,-3.04,12.336,concentric,6,5.0,27711.0,403431.0,151040.0,16300.0,-121.0
2026-04-09 22:26:10.714635,410658,2500627463,2500629349,-1.050176,0.052704,-0.247904,23.485,10.43,-23.5025,17.584002,-3.136,12.344001,concentric,6,5.0,27711.0,403431.0,151040.0,16300.0,-121.0
2026-04-09 22:26:10.717103,410659,2500636404,2500638095,-1.050176,0.052704,-0.247904,22.225,9.6425,-23.2225,17.584002,-3.136,12.344001,concentric,6,5.0,27711.0,403431.0,151040.0,16300.0,-121.0
2026-04-09 22:26:10.735268,410660,2500650923,2500653015,-1.036512,0.033184,-0.162016,18.9525,8.56625,-21.91875,16.376001,-3.24,13.504001,concentric,6,5.0,27711.0,403431.0,151040.0,16300.0,-121.0
2026-04-09 22:26:10.736914,410661,2500659824,2500661715,-1.036512,0.033184,-0.162016,23.70375,8.70625,-21.34125,16.376001,-3.24,13.504001,concentric,6,5.0,27711.0,403431.0,151040.0,16300.0,-121.0
2026-04-09 22:26:10.738468,410662,2500668823,2500670496,-1.085312,0.122976,-0.183488,29.58375,9.45,-20.65,16.472,-3.04,15.776001,concentric,6,5.0,27711.0,403431.0,151040.0,16300.0,-121.0
2026-04-09 22:26:10.742695,410663,2500677845,2500679235,-1.085312,0.122976,-0.183488,29.715,9.948751,-19.81,16.472,-3.04,15.776001,concentric,6,5.0,27711.0,403431.0,151040.0,16300.0,-121.0
2026-04-09 22:26:10.770633,410673,2500692500,2500694164,-1.059936,0.040992,-0.169824,21.0875,8.9075,-19.18,16.480001,-2.824,14.312,concentric,6,5.0,27673.0,403431.0,150868.0,16118.0,-126.0
2026-04-09 22:26:10.772305,410674,2500701510,2500702966,-1.059936,0.066368,-0.076128,17.36875,9.765,-18.20875,16.480001,-2.824,14.312,concentric,6,5.0,27673.0,403431.0,150868.0,16118.0,-126.0
2026-04-09 22:26:10.776477,410675,2500710541,2500711707,-1.087264,0.066368,-0.076128,20.02,11.83875,-17.3775,17.552,-3.464,12.752001,concentric,6,5.0,27673.0,403431.0,150868.0,16118.0,-126.0
2026-04-09 22:26:10.778275,410676,2500725031,2500726661,-1.04432,0.037088,-0.277184,17.63125,14.42,-16.28375,15.720001,-2.776,14.344001,concentric,6,5.0,27673.0,403431.0,150868.0,16118.0,-126.0
2026-04-09 22:26:10.780451,410677,2500733988,2500735402,-1.04432,0.037088,-0.277184,8.58375,13.85125,-15.00625,15.720001,-2.776,14.344001,concentric,6,5.0,27673.0,403431.0,150868.0,16118.0,-126.0
2026-04-09 22:26:10.786297,410678,2500742953,2500744157,-1.118496,0.013664,-0.327936,7.58625,12.92375,-11.59375,15.264001,-2.584,12.264001,concentric,6,5.0,27673.0,403431.0,150868.0,16118.0,-126.0
2026-04-09 22:26:10.818315,410679,2500757452,2500759064,-1.118496,0.013664,-0.327936,13.658751,9.47625,-11.69,15.264001,-2.584,12.264001,concentric,6,5.0,27673.0,403431.0,150868.0,16118.0,-126.0
2026-04-09 22:26:10.820549,410680,2500766360,2500767768,-1.013088,-0.02928,-0.20496,15.53125,5.8275,-10.4825,16.544,-3.336,11.608001,concentric,6,5.0,27673.0,403431.0,150868.0,16118.0,-126.0
2026-04-09 22:26:10.825181,410681,2500775267,2500776495,-1.013088,-0.02928,-0.20496,16.02125,4.48,-9.47625,16.544,-3.336,11.608001,concentric,6,5.0,27673.0,403431.0,150868.0,16118.0,-126.0
2026-04-09 22:26:10.826753,410682,2500784145,2500785223,-1.057984,0.003904,-0.183488,14.06125,2.98375,-11.29625,16.392,-3.16,12.288,concentric,6,5.0,27673.0,403431.0,150868.0,16118.0,-126.0
2026-04-09 22:26:10.892722,410692,2500798707,2500800269,-1.057984,0.003904,-0.183488,13.8075,1.91625,-10.5875,16.392,-3.16,12.288,concentric,6,5.0,27455.0,403431.0,151671.0,16081.0,-129.0
2026-04-09 22:26:10.894351,410693,2500807664,2500808979,-1.028704,0.07808,-0.32208,17.19375,0.5075,-10.2025,16.304,-3.296,11.848001,concentric,6,5.0,27455.0,403431.0,151671.0,16081.0,-129.0
2026-04-09 22:26:10.896772,410694,2500816588,2500817683,-1.028704,0.07808,-0.32208,14.79625,0.48125,-8.575,16.304,-3.296,11.848001,concentric,6,5.0,27455.0,403431.0,151671.0,16081.0,-129.0
2026-04-09 22:26:10.898303,410695,2500831054,2500832559,-1.001376,-0.025376,-0.210816,7.8225,-0.20125,-7.16625,16.464,-3.176,11.808001,concentric,6,5.0,27455.0,403431.0,151671.0,16081.0,-129.0
2026-04-09 22:26:10.902621,410696,2500840031,2500841297,-1.001376,-0.025376,-0.210816,3.99875,0.3675,-7.48125,16.464,-3.176,11.808001,concentric,6,5.0,27455.0,403431.0,151671.0,16081.0,-129.0
2026-04-09 22:26:10.904379,410697,2500848943,2500850100,-0.958432,-0.001952,-0.193248,8.155,1.5225,-9.42375,14.008,-3.064,14.72,concentric,6,5.0,27455.0,403431.0,151671.0,16081.0,-129.0
2026-04-09 22:26:10.906029,410698,2500863425,2500865151,-1.018944,0.035136,-0.269376,11.655,2.42375,-13.13375,15.896001,-3.392,13.776001,concentric,6,5.0,27455.0,403431.0,151671.0,16081.0,-129.0
2026-04-09 22:26:10.939533,410699,2500872357,2500873895,-1.018944,0.035136,-0.269376,11.71625,3.94625,-13.30875,15.896001,-3.392,13.776001,concentric,6,5.0,27455.0,403431.0,151671.0,16081.0,-129.0
2026-04-09 22:26:10.941808,410700,2500881312,2500882638,-1.018944,0.035136,-0.269376,9.91375,3.84125,-10.77125,15.896001,-3.392,13.776001,concentric,6,5.0,27455.0,403431.0,151671.0,16081.0,-129.0
2026-04-09 22:26:10.993510,410711,2500895907,2500897608,-0.921344,-0.031232,-0.226432,2.3625,4.01625,-10.64875,15.920001,-2.416,10.512,concentric,6,5.0,27572.0,403431.0,150502.0,14930.0,-126.0
2026-04-09 22:26:10.997908,410712,2500904876,2500906333,-0.954528,-0.035136,-0.259616,-2.8525,3.605,-13.16,15.984001,-3.184,11.816001,concentric,6,5.0,27572.0,403431.0,150502.0,14930.0,-126.0
2026-04-09 22:26:10.999750,410713,2500913803,2500915073,-0.954528,-0.035136,-0.259616,-0.14,2.6775,-13.055,15.984001,-3.184,11.816001,concentric,6,5.0,27572.0,403431.0,150502.0,14930.0,-126.0
2026-04-09 22:26:11.003063,410714,2500922753,2500923820,-0.96624,0.021472,-0.26352,10.64875,2.07375,-11.6025,15.984001,-3.048,12.432,concentric,6,5.0,27572.0,403431.0,150502.0,14930.0,-126.0
2026-04-09 22:26:11.003323,410715,2500937303,2500938919,-0.96624,0.021472,-0.26352,19.25875,1.365,-10.66625,16.08,-3.048,12.432,concentric,6,5.0,27572.0,403431.0,150502.0,14930.0,-126.0
2026-04-09 22:26:11.007738,410716,2500946327,2500947702,-0.894016,-0.099552,-0.240096,15.89,0.805,-10.50875,15.568001,-3.44,12.264001,concentric,6,5.0,27572.0,403431.0,150502.0,14930.0,-126.0
2026-04-09 22:26:11.009352,410717,2500955296,2500956404,-0.894016,-0.099552,-0.240096,4.3575,0.21,-9.21375,15.568001,-3.44,12.264001,concentric,6,5.0,27572.0,403431.0,150502.0,14930.0,-126.0
2026-04-09 22:26:11.013007,410718,2500969831,2500971366,-0.854976,-0.060512,-0.150304,-5.45125,0.77875,-9.6425,14.864,-3.288,13.040001,concentric,6,5.0,27572.0,403431.0,150502.0,14930.0,-126.0
2026-04-09 22:26:11.043325,410719,2500978768,2500980157,-0.854976,-0.060512,-0.150304,-0.02625,2.86125,-11.80375,14.864,-3.288,13.040001,concentric,6,5.0,27572.0,403431.0,150502.0,14930.0,-126.0
2026-04-09 22:26:11.045886,410720,2500987650,2500988844,-0.96624,0.085888,-0.41968,11.27875,5.1275,-11.08625,15.800001,-3.328,12.584001,concentric,6,5.0,27572.0,403431.0,150502.0,14930.0,-126.0
2026-04-09 22:26:11.089351,410730,2501002179,2501003862,-0.96624,0.085888,-0.41968,14.44625,2.21375,-8.49625,15.800001,-3.328,12.584001,concentric,6,5.0,27664.0,403431.0,149750.0,14286.0,-126.0
2026-04-09 22:26:11.090903,410731,2501011136,2501012722,-0.894016,-0.062464,-0.181536,7.1225,-0.56,-6.51875,14.688001,-3.808,14.672001,concentric,6,5.0,27664.0,403431.0,149750.0,14286.0,-126.0
2026-04-09 22:26:11.095172,410732,2501020134,2501021459,-0.894016,-0.062464,-0.181536,-0.6825,-1.155,-10.28125,14.688001,-3.808,14.672001,concentric,6,5.0,27664.0,403431.0,149750.0,14286.0,-126.0
2026-04-09 22:26:11.096893,410733,2501029108,2501030196,-0.841312,-0.113216,-0.152256,-6.46625,0.28875,-13.335,14.200001,-2.728,14.208001,concentric,6,5.0,27664.0,403431.0,149750.0,14286.0,-126.0
2026-04-09 22:26:11.098435,410734,2501043632,2501045108,-0.88816,0.062464,-0.271328,0.525,3.3425,-12.8975,15.576001,-3.376,11.912001,concentric,6,5.0,27664.0,403431.0,149750.0,14286.0,-126.0
2026-04-09 22:26:11.102666,410735,2501052586,2501053862,-0.88816,0.062464,-0.271328,11.6725,8.295,-10.96375,15.576001,-3.376,11.912001,concentric,6,5.0,27664.0,403431.0,149750.0,14286.0,-126.0
2026-04-09 22:26:11.105132,410736,2501061567,2501062638,-0.88816,0.062464,-0.271328,13.09,10.56125,-12.25875,15.576001,-3.376,11.912001,concentric,6,5.0,27664.0,403431.0,149750.0,14286.0,-126.0
2026-04-09 22:26:11.133599,410737,2501076042,2501077564,-0.903776,-0.08784,-0.242048,3.0975,10.80625,-12.88,13.616,-2.968,13.224001,concentric,6,5.0,27664.0,403431.0,149750.0,14286.0,-126.0
2026-04-09 22:26:11.138151,410738,2501084959,2501086254,-0.911584,-0.081984,-0.089792,-4.0425,11.97,-10.21125,12.992001,-3.28,14.768001,concentric,6,5.0,27664.0,403431.0,149750.0,14286.0,-126.0
2026-04-09 22:26:11.201840,410748,2501094474,2501095500,-0.911584,-0.081984,-0.089792,-3.01,14.30625,-9.8,12.992001,-3.28,14.768001,concentric,6,5.0,27749.0,403431.0,148683.0,13299.0,-120.0
2026-04-09 22:26:11.203328,410749,2501108991,2501110399,-0.813984,0.0488,-0.240096,3.91125,17.36,-8.5575,14.248001,-3.336,12.944,concentric,6,5.0,27749.0,403431.0,148683.0,13299.0,-120.0
2026-04-09 22:26:11.207761,410750,2501117939,2501119139,-0.813984,0.0488,-0.240096,-0.35,18.9875,-8.84625,14.248001,-3.336,12.944,concentric,6,5.0,27749.0,403431.0,148683.0,13299.0,-120.0
2026-04-09 22:26:11.209346,410751,2501128210,2501129975,-0.935008,0.05856,-0.22448,-10.59625,20.9475,-9.7475,13.232,-3.2,13.904,concentric,6,5.0,27749.0,403431.0,148683.0,13299.0,-120.0
2026-04-09 22:26:11.210923,410752,2501137156,2501138722,-0.935008,0.05856,-0.22448,-6.86875,22.72375,-11.8125,13.232,-3.2,13.904,concentric,6,5.0,27749.0,403431.0,148683.0,13299.0,-120.0
2026-04-09 22:26:11.215139,410753,2501151624,2501153684,-0.901824,-0.122976,-0.122976,-4.4275,23.9225,-11.66375,15.592001,-3.024,11.432,concentric,6,5.0,27749.0,403431.0,148683.0,13299.0,-120.0
2026-04-09 22:26:11.216819,410754,2501160661,2501162446,-0.901824,-0.122976,-0.122976,-6.97375,24.01875,-8.4,15.592001,-3.024,11.432,concentric,6,5.0,27749.0,403431.0,148683.0,13299.0,-120.0
2026-04-09 22:26:11.218614,410755,2501169668,2501171164,-0.821792,-0.089792,-0.083936,-15.155,25.12125,-7.16625,13.968,-3.048,11.776001,concentric,6,5.0,27749.0,403431.0,148683.0,13299.0,-120.0
2026-04-09 22:26:11.227590,410756,2501178668,2501179886,-0.821792,-0.089792,-0.083936,-17.82375,28.21875,-3.43,13.968,-3.048,11.776001,concentric,6,5.0,27749.0,403431.0,148683.0,13299.0,-120.0
