pc_time,serial_num,sensor_ts,host_ts,ax,ay,az,gx,gy,gz,mx,my,mz,phase,rpe,weight_kg,ppg_a,ppg_b,ppg_c,ppg_d,ppg_e
2026-04-07 17:54:47.748279,286913,1558121170,1558121840,-1.231712,0.083936,0.089792,8.4875,-1.19,-3.4475,43.600002,3.376,55.784004,eccentric,3,3.0,21061.0,307871.0,277717.0,325258.0,284808.0
2026-04-07 17:54:47.752816,286914,1558130465,1558132585,-1.212192,0.093696,0.109312,6.79,-0.9275,-3.26375,44.024002,3.216,55.536003,eccentric,3,3.0,21061.0,307871.0,277717.0,325258.0,284808.0
2026-04-07 17:54:47.754329,286915,1558139381,1558141342,-1.212192,0.093696,0.109312,5.6525,-1.77625,-2.3975,44.024002,3.216,55.536003,eccentric,3,3.0,21061.0,307871.0,277717.0,325258.0,284808.0
2026-04-07 17:54:47.814379,286925,1558154568,1558156287,-1.198528,0.099552,0.105408,5.0925,-2.52875,-1.79375,43.344,2.968,55.944004,eccentric,3,3.0,21559.0,311948.0,280970.0,328753.0,287843.0
2026-04-07 17:54:47.817969,286926,1558163649,1558165042,-1.198528,0.099552,0.105408,4.96125,-2.5375,-1.35625,43.344,2.968,55.944004,eccentric,3,3.0,21559.0,311948.0,280970.0,328753.0,287843.0
2026-04-07 17:54:47.822983,286927,1558172578,1558173783,-1.202432,0.101504,0.085888,4.20875,-2.51125,-1.98625,43.696003,3.104,55.520004,eccentric,3,3.0,21559.0,311948.0,280970.0,328753.0,287843.0
2026-04-07 17:54:47.825541,286928,1558181504,1558182447,-1.202432,0.101504,0.085888,3.42125,-2.19625,-1.72375,43.696003,3.104,55.520004,eccentric,3,3.0,21559.0,311948.0,280970.0,328753.0,287843.0
2026-04-07 17:54:47.827973,286929,1558195989,1558197394,-1.216096,0.101504,0.062464,2.70375,-1.51375,-1.58375,43.624,2.976,56.312004,eccentric,3,3.0,21559.0,311948.0,280970.0,328753.0,287843.0
2026-04-07 17:54:47.830459,286930,1558204900,1558206145,-1.216096,0.101504,0.062464,3.6225,-0.97125,-3.0975,43.624,2.976,56.312004,eccentric,3,3.0,21559.0,311948.0,280970.0,328753.0,287843.0
2026-04-07 17:54:47.833235,286931,1558213807,1558214883,-1.22976,0.122976,0.06832,5.3725,-0.7175,-4.22625,43.56,3.032,56.632004,eccentric,3,3.0,21559.0,311948.0,280970.0,328753.0,287843.0
2026-04-07 17:54:47.840517,286932,1558228394,1558229922,-1.233664,0.11712,0.064416,8.12875,-0.42,-4.655,43.640003,3.136,60.376003,eccentric,3,3.0,21559.0,311948.0,280970.0,328753.0,287843.0
2026-04-07 17:54:47.870709,286933,1558237331,1558238692,-1.233664,0.11712,0.064416,8.14625,-0.16625,-4.97,43.640003,3.136,60.376003,eccentric,3,3.0,21559.0,311948.0,280970.0,328753.0,287843.0
2026-04-07 17:54:47.874287,286934,1558246290,1558247367,-1.233664,0.11712,0.064416,6.0025,1.4,-5.495,43.640003,3.136,60.376003,eccentric,3,3.0,21559.0,311948.0,280970.0,328753.0,287843.0
2026-04-07 17:54:47.901807,286945,1558255813,1558256262,-1.241472,0.109312,0.089792,5.0925,1.68,-5.87125,43.576,3.336,55.344,eccentric,3,3.0,21897.0,314625.0,283049.0,330897.0,289700.0
2026-04-07 17:54:47.911731,286946,1558270944,1558271316,-1.247328,0.119072,0.095648,5.48625,2.26625,-5.915,42.904003,2.832,56.416004,eccentric,3,3.0,21897.0,314625.0,283049.0,330897.0,289700.0
2026-04-07 17:54:47.914258,286947,1558280220,1558282115,-1.247328,0.119072,0.095648,5.11875,2.3625,-6.13375,42.904003,2.832,56.416004,eccentric,3,3.0,21897.0,314625.0,283049.0,330897.0,289700.0
2026-04-07 17:54:47.916715,286948,1558289139,1558290807,-1.245376,0.132736,0.062464,3.885,1.82875,-4.97875,43.2,2.872,56.424004,eccentric,3,3.0,21897.0,314625.0,283049.0,330897.0,289700.0
2026-04-07 17:54:47.919208,286949,1558298240,1558299551,-1.245376,0.132736,0.062464,0.79625,1.8375,-3.59625,43.2,2.872,56.424004,eccentric,3,3.0,21897.0,314625.0,283049.0,330897.0,289700.0
2026-04-07 17:54:47.925506,286950,1558312731,1558314586,-1.231712,0.12688,0.031232,-2.2575,2.3275,-2.275,42.816,3.416,56.264004,eccentric,3,3.0,21897.0,314625.0,283049.0,330897.0,289700.0
2026-04-07 17:54:47.955816,286951,1558321645,1558323287,-1.231712,0.12688,0.031232,-4.83875,1.89,-1.63625,42.816,3.416,56.264004,eccentric,3,3.0,21897.0,314625.0,283049.0,330897.0,289700.0
2026-04-07 17:54:47.968070,286952,1558330568,1558332048,-1.21024,0.113216,0.054656,-5.64375,2.26625,-1.89,43.624,3.536,55.296,eccentric,3,3.0,21897.0,314625.0,283049.0,330897.0,289700.0
2026-04-07 17:54:47.970566,286953,1558345041,1558346895,-1.21024,0.113216,0.054656,-5.08375,2.14375,-1.26,43.624,3.536,55.296,eccentric,3,3.0,21897.0,314625.0,283049.0,330897.0,289700.0
2026-04-07 17:54:48.001651,286963,1558354497,1558356071,-1.218048,0.113216,0.05856,-3.19375,2.38875,-1.1375,43.256,3.736,55.280003,eccentric,3,3.0,22088.0,316171.0,284373.0,332335.0,291057.0
2026-04-07 17:54:48.004201,286964,1558363482,1558364822,-1.218048,0.113216,0.05856,-1.715,3.4475,-0.69125,43.256,3.736,55.280003,eccentric,3,3.0,22088.0,316171.0,284373.0,332335.0,291057.0
2026-04-07 17:54:48.006718,286965,1558372388,1558373587,-1.221952,0.109312,0.037088,-0.455,3.675,-0.56,42.728,3.48,58.784004,eccentric,3,3.0,22088.0,316171.0,284373.0,332335.0,291057.0
2026-04-07 17:54:48.009238,286966,1558386937,1558388788,-1.221952,0.109312,0.037088,1.35625,3.115,-0.91,42.728,3.48,58.784004,eccentric,3,3.0,22088.0,316171.0,284373.0,332335.0,291057.0
2026-04-07 17:54:48.011788,286967,1558395955,1558397557,-1.198528,0.101504,0.033184,2.42375,4.48,-1.575,42.904003,3.52,59.08,eccentric,3,3.0,22088.0,316171.0,284373.0,332335.0,291057.0
2026-04-07 17:54:48.018197,286968,1558404920,1558406276,-1.198528,0.101504,0.033184,5.25,3.98125,-2.56375,42.904003,3.52,59.08,eccentric,3,3.0,22088.0,316171.0,284373.0,332335.0,291057.0
2026-04-07 17:54:48.049120,286969,1558419459,1558421231,-1.198528,0.083936,0.0,9.52875,2.91375,-3.4125,43.224003,3.672,54.680004,eccentric,3,3.0,22088.0,316171.0,284373.0,332335.0,291057.0
2026-04-07 17:54:48.051392,286970,1558428382,1558429919,-1.198528,0.083936,0.013664,15.67125,2.89625,-4.6025,43.224003,3.672,54.680004,eccentric,3,3.0,22088.0,316171.0,284373.0,332335.0,291057.0
2026-04-07 17:54:48.056199,286971,1558437325,1558438669,-1.157536,0.103456,0.013664,22.3475,2.1,-5.15375,43.008003,3.176,54.904003,eccentric,3,3.0,22088.0,316171.0,284373.0,332335.0,291057.0
2026-04-07 17:54:48.089060,286972,1558451827,1558453595,-1.143872,0.1464,0.01952,27.27375,1.75875,-5.18875,42.432003,3.392,56.04,eccentric,3,3.0,22088.0,316171.0,284373.0,332335.0,291057.0
2026-04-07 17:54:48.118310,286982,1558460755,1558462352,-1.143872,0.1464,0.01952,30.94,1.4,-6.09,42.432003,3.392,56.04,eccentric,3,3.0,22192.0,316891.0,284862.0,332754.0,291323.0
2026-04-07 17:54:48.126147,286983,1558469666,1558471066,-1.108736,0.132736,0.035136,32.55,0.95375,-6.06375,43.144,3.424,54.824,eccentric,3,3.0,22192.0,316891.0,284862.0,332754.0,291323.0
2026-04-07 17:54:48.127739,286984,1558484157,1558486004,-1.108736,0.132736,0.035136,30.66,1.09375,-6.3175,43.144,3.424,54.824,eccentric,3,3.0,22192.0,316891.0,284862.0,332754.0,291323.0
2026-04-07 17:54:48.129316,286985,1558493130,1558494771,-1.087264,0.101504,0.027328,28.385,0.4725,-5.81875,42.280003,3.544,55.912003,eccentric,3,3.0,22192.0,316891.0,284862.0,332754.0,291323.0
2026-04-07 17:54:48.133477,286986,1558502195,1558503599,-1.087264,0.101504,0.027328,25.9,0.42875,-5.0225,42.280003,3.544,55.912003,eccentric,3,3.0,22192.0,316891.0,284862.0,332754.0,291323.0
2026-04-07 17:54:48.135115,286987,1558511183,1558512318,-1.048224,0.093696,0.003904,24.9025,-0.21,-3.98125,43.000004,2.952,55.760002,eccentric,3,3.0,22192.0,316891.0,284862.0,332754.0,291323.0
2026-04-07 17:54:48.140951,286988,1558525763,1558527226,-1.048224,0.093696,0.003904,25.01625,-0.63875,-2.56375,43.000004,2.952,55.760002,eccentric,3,3.0,22192.0,316891.0,284862.0,332754.0,291323.0
2026-04-07 17:54:48.169368,286989,1558534702,1558535920,-1.022848,0.113216,-0.001952,23.96625,-0.84875,-1.11125,42.160004,3.144,54.568,eccentric,3,3.0,22192.0,316891.0,284862.0,332754.0,291323.0
2026-04-07 17:54:48.174031,286990,1558543579,1558544645,-1.022848,0.113216,-0.001952,22.00625,-1.1725,0.5075,42.160004,3.144,54.568,eccentric,3,3.0,22192.0,316891.0,284862.0,332754.0,291323.0
2026-04-07 17:54:48.204390,287001,1558558340,1558559655,-1.009184,0.124928,0.003904,19.18875,-0.44625,1.7675,42.312,2.84,54.608,eccentric,3,3.0,22479.0,319064.0,286401.0,334152.0,292299.0
2026-04-07 17:54:48.209039,287002,1558567315,1558568354,-1.009184,0.124928,0.003904,17.21125,0.175,2.52,42.312,2.84,54.608,eccentric,3,3.0,22479.0,319064.0,286401.0,334152.0,292299.0
2026-04-07 17:54:48.210888,287003,1558576341,1558577058,-0.99552,0.115168,0.013664,16.16125,0.3325,2.59,41.696003,2.864,54.968002,eccentric,3,3.0,22479.0,319064.0,286401.0,334152.0,292299.0
2026-04-07 17:54:48.214661,287004,1558585672,1558587810,-0.99552,0.115168,0.013664,15.8375,0.58625,1.7675,41.696003,2.864,54.968002,eccentric,3,3.0,22479.0,319064.0,286401.0,334152.0,292299.0
2026-04-07 17:54:48.218917,287005,1558600288,1558600747,-0.98576,0.119072,0.023424,16.397501,0.4025,0.95375,41.864002,2.536,55.480003,eccentric,3,3.0,22479.0,319064.0,286401.0,334152.0,292299.0
2026-04-07 17:54:48.224721,287006,1558609649,1558611534,-0.948672,0.10736,0.031232,17.185,-0.18375,0.67375,41.864002,2.536,53.744003,eccentric,3,3.0,22479.0,319064.0,286401.0,334152.0,292299.0
2026-04-07 17:54:48.253179,287007,1558618639,1558620258,-0.948672,0.10736,0.031232,17.47375,-1.1025,0.42875,42.192,2.416,53.744003,eccentric,3,3.0,22479.0,319064.0,286401.0,334152.0,292299.0
2026-04-07 17:54:48.257713,287008,1558633156,1558635169,-0.925248,0.103456,0.031232,16.59875,-1.9075,0.1575,41.672,2.496,54.024002,eccentric,3,3.0,22479.0,319064.0,286401.0,334152.0,292299.0
2026-04-07 17:54:48.259402,287009,1558642072,1558643881,-0.925248,0.103456,0.031232,14.42875,-2.45875,0.14875,41.672,2.496,54.024002,eccentric,3,3.0,22479.0,319064.0,286401.0,334152.0,292299.0
2026-04-07 17:54:48.266110,287010,1558651015,1558652589,-0.89792,0.089792,0.015616,12.3725,-3.12375,0.13125,41.656002,2.352,54.576004,eccentric,3,3.0,22479.0,319064.0,286401.0,334152.0,292299.0
2026-04-07 17:54:48.290246,287020,1558660143,1558661334,-0.89792,0.089792,0.015616,11.1125,-4.08625,-0.07,41.656002,2.352,54.576004,eccentric,3,3.0,22602.0,320176.0,287257.0,335086.0,293015.0
2026-04-07 17:54:48.291906,287021,1558674727,1558676264,-0.88816,0.08784,-0.01952,11.515,-4.935,0.4025,42.288002,2.848,54.144,eccentric,3,3.0,22602.0,320176.0,287257.0,335086.0,293015.0
2026-04-07 17:54:48.298410,287022,1558683687,1558684987,-0.88816,0.08784,-0.01952,12.62625,-5.81,0.49875,42.288002,2.848,54.144,eccentric,3,3.0,22602.0,320176.0,287257.0,335086.0,293015.0
2026-04-07 17:54:48.326907,287023,1558692684,1558693717,-0.862784,0.099552,-0.007808,14.42875,-6.9475,0.63,41.424004,2.624,54.2,eccentric,3,3.0,22602.0,320176.0,287257.0,335086.0,293015.0
2026-04-07 17:54:48.331415,287024,1558707196,1558708593,-0.862784,0.099552,-0.007808,15.05875,-7.51625,0.84875,41.424004,2.624,54.2,eccentric,3,3.0,22602.0,320176.0,287257.0,335086.0,293015.0
2026-04-07 17:54:48.332963,287025,1558716114,1558717279,-0.84912,0.0976,0.01952,14.58625,-8.6625,1.56625,41.52,1.848,54.384003,eccentric,3,3.0,22602.0,320176.0,287257.0,335086.0,293015.0
2026-04-07 17:54:48.338590,287026,1558725070,1558726048,-0.84912,0.0976,0.01952,14.74375,-9.94,2.4325,41.52,1.848,54.384003,eccentric,3,3.0,22602.0,320176.0,287257.0,335086.0,293015.0
2026-04-07 17:54:48.391962,287027,1558739572,1558740973,-0.851072,0.083936,0.023424,15.2775,-10.325,3.07125,41.52,1.808,54.672,eccentric,3,3.0,22602.0,320176.0,287257.0,335086.0,293015.0
2026-04-07 17:54:48.394250,287028,1558748494,1558749640,-0.851072,0.083936,0.023424,15.7325,-10.45625,3.03625,41.52,1.808,54.672,eccentric,3,3.0,22602.0,320176.0,287257.0,335086.0,293015.0
2026-04-07 17:54:48.419456,287038,1558757975,1558758458,-0.864736,0.0976,0.017568,15.68875,-10.57875,3.045,41.016003,2.176,54.176003,eccentric,3,3.0,22534.0,319604.0,286782.0,334620.0,292496.0
2026-04-07 17:54:48.421774,287039,1558767360,1558769215,-0.864736,0.0976,0.017568,15.8725,-10.42125,2.30125,41.016003,2.176,54.176003,eccentric,3,3.0,22534.0,319604.0,286782.0,334620.0,292496.0
2026-04-07 17:54:48.424252,287040,1558781840,1558784091,-0.882304,0.132736,0.023424,17.14125,-9.66875,1.61875,41.048,1.952,54.680004,eccentric,3,3.0,22534.0,319604.0,286782.0,334620.0,292496.0
2026-04-07 17:54:48.426745,287041,1558790906,1558792790,-0.884256,0.142496,0.060512,17.745,-9.09125,0.81375,40.704002,1.584,56.840004,eccentric,3,3.0,22534.0,319604.0,286782.0,334620.0,292496.0
2026-04-07 17:54:48.429225,287042,1558799967,1558801590,-0.884256,0.142496,0.060512,17.33375,-8.23375,-0.67375,40.704002,1.584,56.840004,eccentric,3,3.0,22534.0,319604.0,286782.0,334620.0,292496.0
2026-04-07 17:54:48.431754,287043,1558814541,1558816524,-0.890112,0.134688,0.072224,15.68875,-7.09625,-2.1,40.576,1.48,55.608,eccentric,3,3.0,22534.0,319604.0,286782.0,334620.0,292496.0
2026-04-07 17:54:48.437144,287044,1558823551,1558825274,-0.890112,0.134688,0.072224,14.62125,-5.9675,-3.57875,40.576,1.48,55.608,eccentric,3,3.0,22534.0,319604.0,286782.0,334620.0,292496.0
2026-04-07 17:54:48.467044,287045,1558832576,1558834010,-0.8784,0.119072,0.076128,13.85125,-5.31125,-3.84125,40.784,1.472,55.56,eccentric,3,3.0,22534.0,319604.0,286782.0,334620.0,292496.0
2026-04-07 17:54:48.470584,287046,1558841508,1558842781,-0.8784,0.119072,0.076128,13.55375,-4.41,-4.0775,40.784,1.472,55.56,eccentric,3,3.0,22534.0,319604.0,286782.0,334620.0,292496.0
2026-04-07 17:54:48.498155,287057,1558856503,1558857754,-0.899872,0.119072,0.044896,11.69,-2.51125,-4.87375,40.584003,1.896,54.976,eccentric,3,3.0,22452.0,319031.0,286354.0,334166.0,291999.0
2026-04-07 17:54:48.500653,287058,1558865552,1558866482,-0.899872,0.119072,0.044896,9.6425,-1.12,-5.46875,40.584003,1.896,54.976,eccentric,3,3.0,22452.0,319031.0,286354.0,334166.0,291999.0
2026-04-07 17:54:48.503327,287059,1558874608,1558875269,-0.872544,0.0976,0.081984,7.77875,0.58625,-5.57375,40.816,1.76,54.536003,eccentric,3,3.0,22452.0,319031.0,286354.0,334166.0,291999.0
2026-04-07 17:54:48.505534,287060,1558883863,1558886154,-0.872544,0.0976,0.081984,4.57625,1.0325,-5.46,40.816,1.76,54.536003,eccentric,3,3.0,22452.0,319031.0,286354.0,334166.0,291999.0
2026-04-07 17:54:48.510465,287061,1558898385,1558899070,-0.905728,0.06832,0.085888,0.98875,1.54,-4.90875,40.688004,1.76,54.608,eccentric,3,3.0,22452.0,319031.0,286354.0,334166.0,291999.0
2026-04-07 17:54:48.540690,287062,1558907954,1558909881,-0.905728,0.06832,0.085888,3.255,2.0825,-4.85625,40.688004,1.76,54.608,eccentric,3,3.0,22452.0,319031.0,286354.0,334166.0,291999.0
2026-04-07 17:54:48.544212,287063,1558916860,1558918580,-0.911584,0.091744,0.066368,7.9975,1.68,-5.3375,40.24,1.656,55.312004,eccentric,3,3.0,22452.0,319031.0,286354.0,334166.0,291999.0
2026-04-07 17:54:48.546816,287064,1558931437,1558933478,-0.933056,0.121024,0.06832,12.25,1.505,-5.88875,40.832,1.528,54.344,eccentric,3,3.0,22452.0,319031.0,286354.0,334166.0,291999.0
2026-04-07 17:54:48.553025,287065,1558940486,1558942218,-0.933056,0.121024,0.06832,16.6075,1.995,-7.37625,40.832,1.528,54.344,eccentric,3,3.0,22452.0,319031.0,286354.0,334166.0,291999.0
2026-04-07 17:54:48.585709,287066,1558949402,1558950917,-0.933056,0.121024,0.06832,18.83875,2.19625,-8.89,40.832,1.528,54.344,eccentric,3,3.0,22452.0,319031.0,286354.0,334166.0,291999.0
2026-04-07 17:54:48.611704,287076,1558958793,1558959647,-0.938912,0.12688,0.099552,20.72,2.0825,-9.47625,39.776,1.624,55.304,eccentric,3,3.0,22207.0,317211.0,284949.0,332809.0,290919.0
2026-04-07 17:54:48.614292,287077,1558973332,1558974593,-0.952576,0.115168,0.115168,21.9975,1.74125,-9.7825,40.624,1.68,54.608,eccentric,3,3.0,22207.0,317211.0,284949.0,332809.0,290919.0
2026-04-07 17:54:48.616738,287078,1558982260,1558983370,-0.952576,0.115168,0.115168,23.2575,1.4175,-10.64,40.624,1.68,54.608,eccentric,3,3.0,22207.0,317211.0,284949.0,332809.0,290919.0
2026-04-07 17:54:48.619326,287079,1558991210,1558992069,-0.968192,0.12688,0.109312,25.27875,1.575,-11.7775,40.624,1.68,56.056004,eccentric,3,3.0,22207.0,317211.0,284949.0,332809.0,290919.0
2026-04-07 17:54:48.621781,287080,1559005689,1559006983,-0.962336,0.12688,0.109312,24.9025,1.5925,-12.215,39.272003,0.352,56.056004,eccentric,3,3.0,22207.0,317211.0,284949.0,332809.0,290919.0
2026-04-07 17:54:48.628020,287081,1559014625,1559015708,-0.976,0.111264,0.113216,21.245,2.065,-13.2475,39.280003,0.672,55.584003,eccentric,3,3.0,22207.0,317211.0,284949.0,332809.0,290919.0
2026-04-07 17:54:48.687030,287082,1559023536,1559024417,-0.976,0.111264,0.113216,17.6575,2.91375,-14.11375,39.280003,0.672,55.584003,eccentric,3,3.0,22207.0,317211.0,284949.0,332809.0,290919.0
2026-04-07 17:54:48.690516,287083,1559038000,1559039314,-0.989664,0.124928,0.111264,15.26,2.2225,-13.43125,40.296,0.856,54.592003,eccentric,3,3.0,22207.0,317211.0,284949.0,332809.0,290919.0
2026-04-07 17:54:48.692993,287084,1559046920,1559048008,-0.989664,0.124928,0.111264,14.035,1.00625,-12.6,40.296,0.856,54.592003,eccentric,3,3.0,22207.0,317211.0,284949.0,332809.0,290919.0
2026-04-07 17:54:48.695472,287085,1559055835,1559056701,-0.976,0.101504,0.081984,12.74,-0.105,-10.98125,40.384003,0.872,54.944004,eccentric,3,3.0,22207.0,317211.0,284949.0,332809.0,290919.0
2026-04-07 17:54:48.720426,287095,1559070294,1559071741,-0.976,0.101504,0.081984,11.55875,-0.55125,-9.2575,40.384003,0.872,54.944004,eccentric,3,3.0,21971.0,315208.0,283286.0,330978.0,289287.0
2026-04-07 17:54:48.722951,287096,1559079217,1559080440,-0.987712,0.111264,0.103456,11.445,-0.91,-8.7325,40.264004,0.768,55.216003,eccentric,3,3.0,21971.0,315208.0,283286.0,330978.0,289287.0
2026-04-07 17:54:48.725459,287097,1559088205,1559089174,-0.987712,0.111264,0.103456,12.9325,-1.75,-7.49,40.264004,0.768,55.216003,eccentric,3,3.0,21971.0,315208.0,283286.0,330978.0,289287.0
2026-04-07 17:54:48.727970,287098,1559097125,1559097888,-0.977952,0.134688,0.11712,13.69375,-2.70375,-7.07,39.976,0.32,55.824,eccentric,3,3.0,21971.0,315208.0,283286.0,330978.0,289287.0
2026-04-07 17:54:48.730553,287099,1559112059,1559112814,-0.977952,0.130784,0.11712,13.09,-2.96625,-6.3525,39.976,0.808,55.768,eccentric,3,3.0,21971.0,315208.0,283286.0,330978.0,289287.0
2026-04-07 17:54:48.738186,287100,1559121425,1559123596,-0.977952,0.130784,0.11712,12.5475,-2.765,-6.1075,39.608,0.808,55.768,eccentric,3,3.0,21971.0,315208.0,283286.0,330978.0,289287.0
2026-04-07 17:54:48.745488,287101,1559130340,1559132283,-0.977952,0.130784,0.11712,12.7225,-2.38,-5.7925,39.608,0.808,55.768,eccentric,3,3.0,21971.0,315208.0,283286.0,330978.0,289287.0
2026-04-07 17:54:48.775794,287102,1559144846,1559145168,-0.981856,0.132736,0.121024,13.69375,-2.03,-5.9675,39.512,0.648,56.776,eccentric,3,3.0,21971.0,315208.0,283286.0,330978.0,289287.0
2026-04-07 17:54:48.779319,287103,1559154025,1559155942,-0.989664,0.148352,0.12688,13.37,-2.345,-6.5275,39.68,0.6,55.344,eccentric,3,3.0,21971.0,315208.0,283286.0,330978.0,289287.0
2026-04-07 17:54:48.807979,287113,1559163089,1559164739,-0.989664,0.148352,0.12688,11.87375,-2.26625,-6.51875,39.68,0.6,55.344,eccentric,3,3.0,22064.0,315848.0,283777.0,331519.0,289806.0
2026-04-07 17:54:48.810414,287114,1559172034,1559173472,-0.989664,0.138592,0.121024,10.85875,-2.16125,-6.4925,39.68,0.6,55.504,eccentric,3,3.0,22064.0,315848.0,283777.0,331519.0,289806.0
2026-04-07 17:54:48.812969,287115,1559186514,1559188425,-0.993568,0.138592,0.121024,10.7275,-2.0475,-5.64375,40.008003,0.184,55.504,eccentric,3,3.0,22064.0,315848.0,283777.0,331519.0,289806.0
2026-04-07 17:54:48.815444,287116,1559195566,1559197150,-0.989664,0.134688,0.105408,11.38375,-2.415,-5.67875,39.640003,1.096,55.856003,eccentric,3,3.0,22064.0,315848.0,283777.0,331519.0,289806.0
2026-04-07 17:54:48.818154,287117,1559204572,1559205860,-0.989664,0.134688,0.105408,12.0575,-1.37375,-6.1425,39.640003,1.096,55.856003,eccentric,3,3.0,22064.0,315848.0,283777.0,331519.0,289806.0
2026-04-07 17:54:48.848264,287118,1559219055,1559220803,-1.003328,0.150304,0.11712,13.51875,-0.42875,-6.825,39.024002,0.032,57.808002,eccentric,3,3.0,22064.0,315848.0,283777.0,331519.0,289806.0
2026-04-07 17:54:48.851693,287119,1559227962,1559229469,-1.003328,0.150304,0.11712,15.0675,0.32375,-6.50125,39.024002,0.032,57.808002,eccentric,3,3.0,22064.0,315848.0,283777.0,331519.0,289806.0
2026-04-07 17:54:48.854334,287120,1559236877,1559238171,-1.013088,0.154208,0.103456,15.0325,0.60375,-6.09,39.592003,-0.08,55.736004,eccentric,3,3.0,22064.0,315848.0,283777.0,331519.0,289806.0
2026-04-07 17:54:48.884445,287121,1559251352,1559253094,-1.013088,0.154208,0.103456,14.5775,0.98,-6.18625,39.592003,-0.08,55.736004,eccentric,3,3.0,22064.0,315848.0,283777.0,331519.0,289806.0
2026-04-07 17:54:48.912966,287132,1559260615,1559261820,-0.999424,0.138592,0.111264,14.14,0.76125,-6.195,38.912003,0.272,56.064003,eccentric,3,3.0,22601.0,320345.0,287411.0,335452.0,293364.0
2026-04-07 17:54:48.915804,287133,1559269526,1559270599,-0.999424,0.138592,0.111264,14.51625,1.14625,-6.04625,38.912003,0.272,56.064003,eccentric,3,3.0,22601.0,320345.0,287411.0,335452.0,293364.0
2026-04-07 17:54:48.918161,287134,1559278440,1559279304,-0.997472,0.142496,0.10736,16.05625,1.2425,-5.52125,40.4,-0.088,55.480003,eccentric,3,3.0,22601.0,320345.0,287411.0,335452.0,293364.0
2026-04-07 17:54:48.920595,287135,1559292956,1559294272,-0.987712,0.134688,0.076128,17.28125,1.26,-5.34625,38.608,-0.776,58.144,eccentric,3,3.0,22601.0,320345.0,287411.0,335452.0,293364.0
2026-04-07 17:54:48.922951,287136,1559301884,1559302986,-0.987712,0.134688,0.076128,17.91125,0.9625,-4.83875,38.608,-0.776,58.144,eccentric,3,3.0,22601.0,320345.0,287411.0,335452.0,293364.0
2026-04-07 17:54:48.932993,287137,1559310872,1559311720,-0.987712,0.134688,0.076128,17.2375,1.1725,-5.1625,38.608,-0.776,58.144,eccentric,3,3.0,22601.0,320345.0,287411.0,335452.0,293364.0
2026-04-07 17:54:48.939345,287138,1559325352,1559326543,-1.007232,0.138592,0.074176,17.2025,2.205,-6.0025,39.112003,-0.384,56.568,eccentric,3,3.0,22601.0,320345.0,287411.0,335452.0,293364.0
2026-04-07 17:54:48.986954,287139,1559334250,1559335284,-1.04432,0.167872,0.07808,17.10625,2.49375,-6.5975,38.960003,-0.216,56.320004,eccentric,3,3.0,22601.0,320345.0,287411.0,335452.0,293364.0
2026-04-07 17:54:48.990508,287140,1559343222,1559343980,-1.04432,0.167872,0.07808,17.4125,2.4675,-7.16625,38.960003,-0.216,56.320004,eccentric,3,3.0,22601.0,320345.0,287411.0,335452.0,293364.0
2026-04-07 17:54:48.992951,287141,1559352577,1559354746,-1.04432,0.183488,0.113216,19.1275,2.38875,-7.25375,38.960003,-0.216,56.320004,eccentric,3,3.0,22601.0,320345.0,287411.0,335452.0,293364.0
2026-04-07 17:54:49.021715,287151,1559367099,1559367763,-1.077504,0.183488,0.113216,21.72625,2.35375,-6.9475,39.616,-0.888,56.056004,eccentric,3,3.0,23060.0,323934.0,290336.0,338703.0,296442.0
2026-04-07 17:54:49.024234,287152,1559376439,1559378506,-1.095072,0.162016,0.177632,24.8325,2.02125,-6.39625,39.448,-1.192,56.24,eccentric,3,3.0,23060.0,323934.0,290336.0,338703.0,296442.0
2026-04-07 17:54:49.026781,287153,1559385351,1559387235,-1.095072,0.162016,0.177632,29.4875,0.76125,-5.6875,39.448,-1.192,56.24,eccentric,3,3.0,23060.0,323934.0,290336.0,338703.0,296442.0
2026-04-07 17:54:49.029309,287154,1559399898,1559402190,-1.10288,0.167872,0.1952,35.27125,0.48125,-4.87375,39.120003,-1.656,55.520004,eccentric,3,3.0,23060.0,323934.0,290336.0,338703.0,296442.0
2026-04-07 17:54:49.031690,287155,1559408859,1559410881,-1.10288,0.167872,0.1952,41.22125,0.04375,-4.725,39.120003,-1.656,55.520004,eccentric,3,3.0,23060.0,323934.0,290336.0,338703.0,296442.0
2026-04-07 17:54:49.034598,287156,1559417808,1559419609,-1.085312,0.173728,0.20496,45.07125,0.39375,-4.71625,39.088,-1.768,57.24,eccentric,3,3.0,23060.0,323934.0,290336.0,338703.0,296442.0
2026-04-07 17:54:49.064496,287157,1559432284,1559434541,-1.085312,0.173728,0.20496,46.12125,0.55125,-4.87375,39.088,-1.768,57.24,eccentric,3,3.0,23060.0,323934.0,290336.0,338703.0,296442.0
2026-04-07 17:54:49.068056,287158,1559441230,1559443230,-1.077504,0.163968,0.173728,44.94,0.74375,-4.85625,39.336002,-2.264,55.864002,eccentric,3,3.0,23060.0,323934.0,290336.0,338703.0,296442.0
2026-04-07 17:54:49.070486,287159,1559450177,1559451929,-1.077504,0.163968,0.173728,41.79,1.77625,-5.74,39.336002,-2.264,55.864002,eccentric,3,3.0,23060.0,323934.0,290336.0,338703.0,296442.0
2026-04-07 17:54:49.095497,287169,1559459101,1559460633,-1.057984,0.095648,0.148352,39.06875,2.8525,-7.07,39.36,-2.6,56.248,eccentric,3,3.0,23220.0,325435.0,291645.0,340316.0,297886.0
2026-04-07 17:54:49.098057,287170,1559474217,1559475575,-1.061888,0.035136,0.142496,35.0,3.675,-8.8375,39.304,-2.752,57.496002,eccentric,3,3.0,23220.0,325435.0,291645.0,340316.0,297886.0
2026-04-07 17:54:49.100515,287171,1559483158,1559484314,-1.061888,0.035136,0.142496,30.03,4.1125,-10.28125,39.304,-2.752,57.496002,eccentric,3,3.0,23220.0,325435.0,291645.0,340316.0,297886.0
2026-04-07 17:54:49.104237,287172,1559492233,1559493021,-1.061888,0.035136,0.142496,26.34625,4.5675,-12.01375,39.304,-2.752,57.496002,eccentric,3,3.0,23220.0,325435.0,291645.0,340316.0,297886.0
2026-04-07 17:54:49.134394,287173,1559501678,1559503794,-1.042368,0.074176,0.158112,21.04375,4.165,-13.9125,39.112003,-3.68,56.952003,eccentric,3,3.0,23220.0,325435.0,291645.0,340316.0,297886.0
2026-04-07 17:54:49.138133,287174,1559516194,1559516614,-0.979904,0.162016,0.173728,14.20125,3.7275,-14.1575,39.096,-2.68,56.408,eccentric,3,3.0,23220.0,325435.0,291645.0,340316.0,297886.0
2026-04-07 17:54:49.140544,287175,1559525502,1559527434,-0.979904,0.162016,0.173728,9.4675,4.03375,-13.2125,39.096,-2.68,56.408,eccentric,3,3.0,23220.0,325435.0,291645.0,340316.0,297886.0
2026-04-07 17:54:49.171677,287176,1559534500,1559536149,-1.104832,0.148352,0.07808,-1.35625,5.34625,-11.83,39.416,-2.752,56.704002,eccentric,3,3.0,23220.0,325435.0,291645.0,340316.0,297886.0
2026-04-07 17:54:49.174260,287177,1559549000,1559551037,-1.104832,0.148352,0.07808,-11.03375,6.5975,-10.01875,39.416,-2.752,56.704002,eccentric,3,3.0,23220.0,325435.0,291645.0,340316.0,297886.0
2026-04-07 17:54:49.176834,287178,1559557940,1559559730,-1.026752,0.162016,0.052704,-15.1375,6.44875,-9.02125,39.88,-2.336,55.840004,eccentric,3,3.0,23220.0,325435.0,291645.0,340316.0,297886.0
2026-04-07 17:54:49.209009,287189,1559566899,1559568526,-1.026752,0.162016,0.052704,-14.245,6.99125,-9.2575,39.88,-2.336,55.840004,eccentric,3,3.0,22941.0,323440.0,290229.0,338823.0,296473.0
2026-04-07 17:54:49.210691,287190,1559581421,1559583554,-1.04432,0.181536,0.052704,-10.395,7.665,-9.1875,38.68,-2.752,57.376003,eccentric,3,3.0,22941.0,323440.0,290229.0,338823.0,296473.0
2026-04-07 17:54:49.214743,287191,1559590399,1559592354,-1.04432,0.181536,0.052704,-9.03,8.1025,-9.03,38.68,-2.752,57.376003,eccentric,3,3.0,22941.0,323440.0,290229.0,338823.0,296473.0
2026-04-07 17:54:49.217330,287192,1559599428,1559601081,-1.020896,0.15616,0.056608,-8.26,8.2075,-9.12625,38.760002,-2.2,57.632004,eccentric,3,3.0,22941.0,323440.0,290229.0,338823.0,296473.0
2026-04-07 17:54:49.223545,287193,1559608485,1559609783,-1.020896,0.15616,0.056608,-5.59125,7.93625,-9.17875,38.760002,-2.2,57.632004,eccentric,3,3.0,22941.0,323440.0,290229.0,338823.0,296473.0
2026-04-07 17:54:49.252052,287194,1559622988,1559624687,-1.036512,0.158112,0.064416,-4.235,8.3475,-9.03,39.192,-2.728,57.648003,eccentric,3,3.0,22941.0,323440.0,290229.0,338823.0,296473.0
2026-04-07 17:54:49.256360,287195,1559631929,1559633375,-1.036512,0.158112,0.064416,-2.52,9.82625,-9.23125,39.192,-2.728,57.648003,eccentric,3,3.0,22941.0,323440.0,290229.0,338823.0,296473.0
2026-04-07 17:54:49.292890,287196,1559640877,1559642094,-1.036512,0.15616,0.070272,-1.6625,9.8175,-9.345,38.784,-2.216,55.680004,eccentric,3,3.0,22941.0,323440.0,290229.0,338823.0,296473.0
2026-04-07 17:54:49.295162,287197,1559655396,1559656999,-1.038464,0.158112,0.062464,-0.7175,9.8525,-8.95125,39.872,-2.232,55.256004,eccentric,3,3.0,22941.0,323440.0,290229.0,338823.0,296473.0
2026-04-07 17:54:49.326511,287207,1559664565,1559665770,-1.038464,0.158112,0.062464,-0.63875,10.31625,-8.505,39.872,-2.232,55.256004,eccentric,3,3.0,22880.0,323121.0,290096.0,338768.0,296499.0
2026-04-07 17:54:49.328053,287208,1559673530,1559674560,-1.038464,0.158112,0.062464,-1.47875,10.70125,-8.4525,39.872,-2.232,55.256004,eccentric,3,3.0,22880.0,323121.0,290096.0,338768.0,296499.0
2026-04-07 17:54:49.331475,287209,1559688013,1559689553,-1.050176,0.154208,0.046848,-1.2775,11.47125,-8.26875,40.128002,-2.272,56.904003,eccentric,3,3.0,22880.0,323121.0,290096.0,338768.0,296499.0
2026-04-07 17:54:49.333025,287210,1559697081,1559698265,-1.05408,0.148352,0.05856,-1.4525,12.27625,-8.2775,40.192,-1.808,56.608,eccentric,3,3.0,22880.0,323121.0,290096.0,338768.0,296499.0
2026-04-07 17:54:49.336426,287211,1559706151,1559706971,-1.05408,0.148352,0.05856,-2.70375,12.46,-7.63875,40.192,-1.808,56.608,eccentric,3,3.0,22880.0,323121.0,290096.0,338768.0,296499.0
2026-04-07 17:54:49.338069,287212,1559715214,1559715717,-1.057984,0.130784,0.054656,-3.10625,13.08125,-7.93625,39.888,-2.184,57.568005,eccentric,3,3.0,22880.0,323121.0,290096.0,338768.0,296499.0
2026-04-07 17:54:49.343478,287213,1559730187,1559730656,-1.057984,0.130784,0.054656,-2.73875,13.74625,-7.58625,39.888,-2.184,57.568005,eccentric,3,3.0,22880.0,323121.0,290096.0,338768.0,296499.0
2026-04-07 17:54:49.371933,287214,1559739656,1559741416,-1.056032,0.113216,0.06832,-2.75625,13.30875,-7.9625,40.536003,-2.08,56.280003,eccentric,3,3.0,22880.0,323121.0,290096.0,338768.0,296499.0
2026-04-07 17:54:49.376433,287215,1559748631,1559750141,-1.056032,0.113216,0.06832,-1.75,13.8425,-7.91,40.536003,-2.08,56.280003,eccentric,3,3.0,22880.0,323121.0,290096.0,338768.0,296499.0
2026-04-07 17:54:49.378958,287216,1559757543,1559758915,-1.059936,0.119072,0.072224,-0.42,13.755,-6.79,40.280003,-2.304,55.480003,eccentric,3,3.0,22880.0,323121.0,290096.0,338768.0,296499.0
2026-04-07 17:54:49.403999,287226,1559772077,1559774247,-1.059936,0.119072,0.072224,1.14625,13.02875,-6.965,40.280003,-2.304,55.480003,eccentric,3,3.0,22626.0,321074.0,288456.0,337025.0,294938.0
2026-04-07 17:54:49.405664,287227,1559781110,1559782964,-1.046272,0.130784,0.085888,1.79375,12.60875,-6.93,39.672,-2.464,57.672,eccentric,3,3.0,22626.0,321074.0,288456.0,337025.0,294938.0
2026-04-07 17:54:49.409641,287228,1559790066,1559791699,-1.046272,0.130784,0.085888,1.995,12.792501,-5.50375,39.672,-2.464,57.672,eccentric,3,3.0,22626.0,321074.0,288456.0,337025.0,294938.0
2026-04-07 17:54:49.439129,287229,1559804591,1559806601,-1.040416,0.103456,0.101504,2.24875,12.53875,-6.93875,39.288002,-2.16,57.336002,eccentric,3,3.0,22626.0,321074.0,288456.0,337025.0,294938.0
2026-04-07 17:54:49.443564,287230,1559813619,1559815337,-1.040416,0.103456,0.101504,1.68875,12.0925,-7.13125,39.288002,-2.16,57.336002,eccentric,3,3.0,22626.0,321074.0,288456.0,337025.0,294938.0
2026-04-07 17:54:49.445134,287231,1559822532,1559824025,-1.042368,0.089792,0.113216,1.58375,11.69,-7.385,40.104,-1.984,55.688004,eccentric,3,3.0,22626.0,321074.0,288456.0,337025.0,294938.0
2026-04-07 17:54:49.450558,287232,1559837006,1559838921,-1.032608,0.095648,0.103456,1.89,11.89125,-8.1375,40.328003,-1.672,55.296,eccentric,3,3.0,22626.0,321074.0,288456.0,337025.0,294938.0
2026-04-07 17:54:49.480820,287233,1559845943,1559847618,-1.032608,0.095648,0.103456,1.04125,12.15375,-8.60125,40.328003,-1.672,55.296,eccentric,3,3.0,22626.0,321074.0,288456.0,337025.0,294938.0
2026-04-07 17:54:49.484306,287234,1559854854,1559856331,-1.032608,0.11712,0.095648,-0.49875,12.2675,-9.31875,40.328003,-1.672,55.296,eccentric,3,3.0,22626.0,321074.0,288456.0,337025.0,294938.0
2026-04-07 17:54:49.514290,287245,1559864015,1559865083,-1.030656,0.11712,0.095648,-1.2075,12.60875,-9.19625,40.568,-1.312,55.192,eccentric,3,3.0,22528.0,320338.0,287921.0,336460.0,294467.0
2026-04-07 17:54:49.516797,287246,1559878712,1559880060,-1.0248,0.130784,0.0976,-2.49375,13.1075,-10.08875,40.616,-2.128,55.04,eccentric,3,3.0,22528.0,320338.0,287921.0,336460.0,294467.0
2026-04-07 17:54:49.519336,287247,1559887640,1559888787,-1.0248,0.130784,0.0976,-3.82375,12.6,-10.21125,40.616,-2.128,55.04,eccentric,3,3.0,22528.0,320338.0,287921.0,336460.0,294467.0
2026-04-07 17:54:49.521749,287248,1559896666,1559897508,-1.030656,0.12688,0.081984,-5.25875,12.67875,-10.77125,41.088,-1.256,56.816,eccentric,3,3.0,22528.0,320338.0,287921.0,336460.0,294467.0
2026-04-07 17:54:49.524234,287249,1559911165,1559912417,-1.030656,0.12688,0.081984,-7.28875,12.64375,-11.261251,41.088,-1.256,56.816,eccentric,3,3.0,22528.0,320338.0,287921.0,336460.0,294467.0
2026-04-07 17:54:49.588209,287250,1559920152,1559921154,-1.040416,0.113216,0.060512,-9.23125,13.16875,-10.87625,40.368,-1.664,56.128002,eccentric,3,3.0,22528.0,320338.0,287921.0,336460.0,294467.0
2026-04-07 17:54:49.591817,287251,1559929088,1559929837,-1.040416,0.113216,0.060512,-9.5025,12.71375,-11.76,40.368,-1.664,56.128002,eccentric,3,3.0,22528.0,320338.0,287921.0,336460.0,294467.0
2026-04-07 17:54:49.594349,287252,1559938436,1559940615,-1.018944,0.128832,0.062464,-8.1375,13.1075,-11.9,40.928,-1.336,54.632004,eccentric,3,3.0,22528.0,320338.0,287921.0,336460.0,294467.0
2026-04-07 17:54:49.596802,287253,1559952920,1559953496,-1.018944,0.128832,0.062464,-7.4375,13.15125,-12.01375,40.928,-1.336,54.632004,eccentric,3,3.0,22528.0,320338.0,287921.0,336460.0,294467.0
2026-04-07 17:54:49.625466,287263,1559962090,1559964297,-1.042368,0.119072,0.05856,-7.77875,13.43125,-12.7225,40.864002,-0.976,54.616,eccentric,3,3.0,22450.0,319674.0,287374.0,335800.0,293886.0
2026-04-07 17:54:49.627965,287264,1559971307,1559972977,-1.042368,0.119072,0.05856,-8.12,13.72,-12.3025,40.864002,-0.976,54.616,eccentric,3,3.0,22450.0,319674.0,287374.0,335800.0,293886.0
2026-04-07 17:54:49.630458,287265,1559985763,1559987883,-1.057984,0.128832,0.05856,-7.84875,13.5975,-11.83875,41.224003,-0.72,54.456,eccentric,3,3.0,22450.0,319674.0,287374.0,335800.0,293886.0
2026-04-07 17:54:49.632949,287266,1559994703,1559996612,-1.057984,0.128832,0.05856,-8.18125,13.825,-11.9,41.224003,-0.72,54.456,eccentric,3,3.0,22450.0,319674.0,287374.0,335800.0,293886.0
2026-04-07 17:54:49.635499,287267,1560003665,1560005376,-1.06384,0.134688,0.042944,-8.09375,13.90375,-11.52375,41.696003,-1.064,54.432003,eccentric,3,3.0,22450.0,319674.0,287374.0,335800.0,293886.0
2026-04-07 17:54:49.638460,287268,1560018543,1560020320,-1.061888,0.12688,0.023424,-7.245,13.06375,-11.7425,41.52,-0.992,54.160004,eccentric,3,3.0,22450.0,319674.0,287374.0,335800.0,293886.0
2026-04-07 17:54:49.640466,287269,1560027517,1560029050,-1.061888,0.12688,0.023424,-7.06125,12.6,-12.11,41.52,-0.992,54.160004,eccentric,3,3.0,22450.0,319674.0,287374.0,335800.0,293886.0
2026-04-07 17:54:49.670726,287270,1560036508,1560037889,-1.067744,0.119072,0.015616,-7.5425,12.4425,-12.355001,41.536003,-0.736,55.376003,eccentric,3,3.0,22450.0,319674.0,287374.0,335800.0,293886.0
2026-04-07 17:54:49.674239,287271,1560045424,1560046638,-1.067744,0.119072,0.015616,-7.97125,12.845,-12.39875,41.536003,-0.736,55.376003,eccentric,3,3.0,22450.0,319674.0,287374.0,335800.0,293886.0
2026-04-07 17:54:49.676848,287272,1560059866,1560061525,-1.056032,0.109312,0.01952,-7.455,12.87125,-11.31375,41.448,-0.64,54.504,eccentric,3,3.0,22450.0,319674.0,287374.0,335800.0,293886.0
2026-04-07 17:54:49.704286,287282,1560068930,1560070333,-1.056032,0.109312,0.01952,-6.7025,12.48625,-11.01625,41.448,-0.64,54.504,eccentric,3,3.0,22310.0,318468.0,286331.0,334667.0,292885.0
2026-04-07 17:54:49.706780,287283,1560077991,1560079046,-1.059936,0.103456,0.013664,-6.755,12.50375,-10.07125,40.960003,-1.096,56.768,eccentric,3,3.0,22310.0,318468.0,286331.0,334667.0,292885.0
2026-04-07 17:54:49.709217,287284,1560092471,1560093969,-1.059936,0.103456,0.013664,-7.93625,11.90875,-9.31,40.960003,-1.096,56.768,concentric,3,3.0,22310.0,318468.0,286331.0,334667.0,292885.0
2026-04-07 17:54:49.715060,287285,1560101416,1560102706,-1.085312,0.10736,0.001952,-8.35625,11.08625,-8.4,40.784,-0.944,55.264004,concentric,3,3.0,22310.0,318468.0,286331.0,334667.0,292885.0
2026-04-07 17:54:49.744484,287286,1560110340,1560111420,-1.085312,0.10736,0.001952,-8.225,11.05125,-7.28,40.784,-0.944,55.264004,concentric,3,3.0,22310.0,318468.0,286331.0,334667.0,292885.0
2026-04-07 17:54:49.748035,287287,1560124790,1560126277,-1.075552,0.101504,-0.003904,-7.34125,10.2025,-6.5625,41.648003,0.16,53.968002,concentric,3,3.0,22310.0,318468.0,286331.0,334667.0,292885.0
2026-04-07 17:54:49.750871,287288,1560133706,1560134971,-1.075552,0.101504,-0.003904,-6.44875,9.45875,-6.22125,41.648003,0.16,53.968002,concentric,3,3.0,22310.0,318468.0,286331.0,334667.0,292885.0
2026-04-07 17:54:49.756708,287289,1560142651,1560143701,-1.098976,0.10736,0.00976,-6.48375,9.24,-5.95875,42.320004,0.408,53.392002,concentric,3,3.0,22310.0,318468.0,286331.0,334667.0,292885.0
2026-04-07 17:54:49.786975,287290,1560151653,1560152416,-1.098976,0.10736,0.00976,-5.9675,9.40625,-6.09,42.320004,0.408,53.392002,concentric,3,3.0,22310.0,318468.0,286331.0,334667.0,292885.0
2026-04-07 17:54:49.820559,287301,1560167185,1560169434,-1.081408,0.07808,0.017568,-7.2625,8.8375,-6.16,42.056004,0.056,54.424004,concentric,3,3.0,22415.0,319245.0,286921.0,335246.0,293444.0
2026-04-07 17:54:49.823000,287302,1560176120,1560178187,-1.081408,0.07808,0.01952,-9.02125,9.52875,-6.4225,42.056004,0.056,54.424004,concentric,3,3.0,22415.0,319245.0,286921.0,335246.0,293444.0
2026-04-07 17:54:49.825569,287303,1560185041,1560186926,-1.085312,0.076128,0.01952,-10.4125,10.36875,-6.51,42.024002,0.64,53.632004,concentric,3,3.0,22415.0,319245.0,286921.0,335246.0,293444.0
2026-04-07 17:54:49.828090,287304,1560199514,1560199835,-1.046272,0.076128,0.021472,-10.03625,9.42375,-6.2825,41.616,0.28,54.112003,concentric,3,3.0,22415.0,319245.0,286921.0,335246.0,293444.0
2026-04-07 17:54:49.830573,287305,1560208717,1560210634,-1.046272,0.076128,0.021472,-10.4475,9.23125,-5.67875,41.616,0.28,54.112003,concentric,3,3.0,22415.0,319245.0,286921.0,335246.0,293444.0
2026-04-07 17:54:49.833014,287306,1560217655,1560219339,-1.03456,0.093696,0.011712,-11.3575,9.89625,-4.9175,41.72,0.408,54.488003,concentric,3,3.0,22415.0,319245.0,286921.0,335246.0,293444.0
2026-04-07 17:54:49.839281,287307,1560226631,1560228094,-1.03456,0.093696,0.011712,-12.705,9.7825,-4.55,41.72,0.408,54.488003,concentric,3,3.0,22415.0,319245.0,286921.0,335246.0,293444.0
2026-04-07 17:54:49.889525,287308,1560241144,1560243018,-1.030656,0.095648,0.015616,-14.48125,10.0625,-3.6925,42.432003,0.472,53.224003,concentric,3,3.0,22415.0,319245.0,286921.0,335246.0,293444.0
2026-04-07 17:54:49.893009,287309,1560250076,1560251712,-1.030656,0.095648,0.015616,-16.70375,10.68375,-3.59625,42.432003,0.472,53.224003,concentric,3,3.0,22415.0,319245.0,286921.0,335246.0,293444.0
2026-04-07 17:54:49.895467,287310,1560259010,1560260417,-1.026752,0.103456,0.01952,-17.815,11.27875,-3.12375,41.960003,0.872,52.888004,concentric,3,3.0,22415.0,319245.0,286921.0,335246.0,293444.0
2026-04-07 17:54:49.920516,287320,1560273635,1560275342,-1.026752,0.103456,0.01952,-18.57625,11.41875,-3.61375,41.960003,0.872,52.888004,concentric,3,3.0,22377.0,318670.0,286286.0,334374.0,292597.0
2026-04-07 17:54:49.922984,287321,1560282572,1560284068,-1.020896,0.089792,0.02928,-18.48,10.87625,-3.38625,42.808002,1.488,52.744003,concentric,3,3.0,22377.0,318670.0,286286.0,334374.0,292597.0
2026-04-07 17:54:49.925527,287322,1560291518,1560292807,-1.020896,0.089792,0.02928,-17.9375,10.15875,-3.3075,42.808002,1.488,52.744003,concentric,3,3.0,22377.0,318670.0,286286.0,334374.0,292597.0
2026-04-07 17:54:49.927996,287323,1560306057,1560307752,-1.020896,0.101504,0.037088,-16.905,10.167501,-3.00125,42.24,0.976,54.728004,concentric,3,3.0,22377.0,318670.0,286286.0,334374.0,292597.0
2026-04-07 17:54:49.930531,287324,1560315020,1560316490,-1.020896,0.101504,0.037088,-16.00375,10.3075,-3.01,42.24,0.976,54.728004,concentric,3,3.0,22377.0,318670.0,286286.0,334374.0,292597.0
2026-04-07 17:54:49.962038,287325,1560323939,1560325219,-1.022848,0.099552,0.042944,-14.805,10.4475,-3.31625,41.504,0.432,54.848003,concentric,3,3.0,22377.0,318670.0,286286.0,334374.0,292597.0
2026-04-07 17:54:49.974913,287326,1560332902,1560333972,-1.022848,0.099552,0.042944,-14.3325,10.40375,-3.745,41.504,0.432,54.848003,concentric,3,3.0,22377.0,318670.0,286286.0,334374.0,292597.0
2026-04-07 17:54:49.976520,287327,1560347397,1560348859,-1.036512,0.101504,0.054656,-13.32625,10.2375,-4.06,42.544003,1.152,52.696003,concentric,3,3.0,22377.0,318670.0,286286.0,334374.0,292597.0
2026-04-07 17:54:49.978058,287328,1560356290,1560357549,-1.036512,0.101504,0.054656,-11.7425,10.36875,-5.1275,42.544003,1.152,52.696003,concentric,3,3.0,22377.0,318670.0,286286.0,334374.0,292597.0
2026-04-07 17:54:50.004745,287338,1560365796,1560366250,-1.048224,0.099552,0.060512,-11.13,9.49375,-5.6525,42.696003,0.648,52.888004,concentric,3,3.0,22292.0,318066.0,285827.0,333876.0,292123.0
2026-04-07 17:54:50.006428,287339,1560375267,1560377115,-1.048224,0.099552,0.060512,-9.695,8.88125,-6.30875,42.696003,0.648,52.888004,concentric,3,3.0,22292.0,318066.0,285827.0,333876.0,292123.0
2026-04-07 17:54:50.008013,287340,1560389877,1560392053,-1.057984,0.10736,0.066368,-9.87875,7.35875,-5.5475,42.464,0.904,53.552002,concentric,3,3.0,22292.0,318066.0,285827.0,333876.0,292123.0
2026-04-07 17:54:50.013889,287341,1560398807,1560400768,-1.0736,0.0976,0.064416,-9.4675,6.32625,-6.30875,42.968002,1.16,54.704002,concentric,3,3.0,22292.0,318066.0,285827.0,333876.0,292123.0
2026-04-07 17:54:50.043276,287342,1560407797,1560409515,-1.0736,0.0976,0.064416,-8.575,6.04625,-7.0175,42.968002,1.16,54.704002,concentric,3,3.0,22292.0,318066.0,285827.0,333876.0,292123.0
2026-04-07 17:54:50.046785,287343,1560422396,1560424336,-1.087264,0.109312,0.052704,-7.81375,5.005,-6.85125,43.000004,1.592,52.760002,concentric,3,3.0,22292.0,318066.0,285827.0,333876.0,292123.0
2026-04-07 17:54:50.051770,287344,1560431339,1560433039,-1.087264,0.109312,0.052704,-6.72875,3.885,-7.49,43.000004,1.592,52.760002,concentric,3,3.0,22292.0,318066.0,285827.0,333876.0,292123.0
2026-04-07 17:54:50.054213,287345,1560440301,1560441728,-1.095072,0.101504,0.033184,-6.39625,3.4475,-7.49,43.640003,1.512,53.56,concentric,3,3.0,22292.0,318066.0,285827.0,333876.0,292123.0
2026-04-07 17:54:50.084374,287346,1560454793,1560456623,-1.095072,0.101504,0.033184,-7.6825,3.22875,-7.84,43.640003,1.512,53.56,concentric,3,3.0,22292.0,318066.0,285827.0,333876.0,292123.0
2026-04-07 17:54:50.113223,287357,1560463746,1560465732,-1.085312,0.081984,0.037088,-8.855001,2.1875,-7.3675,43.248,1.64,52.520004,concentric,3,3.0,22211.0,317180.0,285052.0,332977.0,291287.0
2026-04-07 17:54:50.119291,287358,1560472749,1560474530,-1.085312,0.081984,0.037088,-8.6275,1.14625,-6.3175,43.248,1.64,52.520004,concentric,3,3.0,22211.0,317180.0,285052.0,332977.0,291287.0
2026-04-07 17:54:50.121706,287359,1560487318,1560489501,-1.075552,0.06832,0.02928,-7.9625,0.2975,-5.74875,43.072002,2.032,52.520004,concentric,3,3.0,22211.0,317180.0,285052.0,332977.0,291287.0
2026-04-07 17:54:50.124201,287360,1560496262,1560498206,-1.075552,0.06832,0.02928,-6.0025,-1.16375,-4.935,43.072002,2.032,52.520004,concentric,3,3.0,22211.0,317180.0,285052.0,332977.0,291287.0
2026-04-07 17:54:50.126832,287361,1560505259,1560506945,-1.067744,0.093696,0.023424,-5.04,-1.61875,-3.49125,42.488003,1.544,53.496002,concentric,3,3.0,22211.0,317180.0,285052.0,332977.0,291287.0
2026-04-07 17:54:50.129210,287362,1560514308,1560515678,-1.067744,0.093696,0.023424,-5.425,-2.03875,-2.33625,42.488003,1.544,53.496002,concentric,3,3.0,22211.0,317180.0,285052.0,332977.0,291287.0
2026-04-07 17:54:50.200719,287363,1560528822,1560530605,-1.061888,0.111264,0.021472,-5.67,-2.84375,-1.2075,42.296,1.712,53.72,concentric,3,3.0,22211.0,317180.0,285052.0,332977.0,291287.0
2026-04-07 17:54:50.204363,287364,1560537767,1560539292,-1.061888,0.111264,0.027328,-5.50375,-3.21125,-0.6475,42.296,1.712,53.72,concentric,3,3.0,22211.0,317180.0,285052.0,332977.0,291287.0
2026-04-07 17:54:50.206712,287365,1560546695,1560547958,-1.075552,0.122976,0.027328,-5.78375,-3.15,-0.46375,43.160004,2.16,54.752003,concentric,3,3.0,22211.0,317180.0,285052.0,332977.0,291287.0
2026-04-07 17:54:50.209273,287366,1560561219,1560562864,-1.087264,0.10736,0.025376,-6.09875,-4.01625,-0.56,42.664,1.72,52.776,concentric,3,3.0,22211.0,317180.0,285052.0,332977.0,291287.0
2026-04-07 17:54:50.234286,287376,1560570395,1560571645,-1.087264,0.10736,0.025376,-5.88875,-4.095,-1.54,42.664,1.72,52.776,concentric,3,3.0,22334.0,318153.0,285814.0,333806.0,292056.0
2026-04-07 17:54:50.239214,287377,1560579392,1560580430,-1.075552,0.109312,0.023424,-3.57875,-3.66625,-2.03875,42.584003,2.272,52.544003,concentric,3,3.0,22334.0,318153.0,285814.0,333806.0,292056.0
2026-04-07 17:54:50.241777,287378,1560588310,1560589105,-1.075552,0.109312,0.023424,-0.74375,-3.17625,-3.1325,42.584003,2.272,52.544003,concentric,3,3.0,22334.0,318153.0,285814.0,333806.0,292056.0
2026-04-07 17:54:50.244222,287379,1560603014,1560604034,-1.065792,0.113216,0.023424,1.75875,-3.14125,-4.375,41.472,1.4,55.08,concentric,3,3.0,22334.0,318153.0,285814.0,333806.0,292056.0
2026-04-07 17:54:50.246696,287380,1560612016,1560612812,-1.065792,0.113216,0.023424,3.5,-3.1325,-4.5675,41.472,1.4,55.08,concentric,3,3.0,22334.0,318153.0,285814.0,333806.0,292056.0
2026-04-07 17:54:50.249200,287381,1560621072,1560621580,-1.056032,0.103456,0.023424,3.08,-2.47625,-4.62875,41.632004,1.872,55.264004,concentric,3,3.0,22334.0,318153.0,285814.0,333806.0,292056.0
2026-04-07 17:54:50.251709,287382,1560636041,1560636533,-1.056032,0.103456,0.023424,2.54625,-2.14375,-4.4975,41.632004,1.872,55.264004,concentric,3,3.0,22334.0,318153.0,285814.0,333806.0,292056.0
2026-04-07 17:54:50.281989,287383,1560645537,1560647314,-1.052128,0.093696,0.011712,1.925,-1.60125,-4.34,41.896004,1.496,54.4,concentric,3,3.0,22334.0,318153.0,285814.0,333806.0,292056.0
2026-04-07 17:54:50.285450,287384,1560654488,1560656020,-1.052128,0.093696,0.011712,1.8725,-1.54,-4.3225,41.896004,1.496,54.4,concentric,3,3.0,22334.0,318153.0,285814.0,333806.0,292056.0
2026-04-07 17:54:50.288040,287385,1560663391,1560664757,-1.056032,0.115168,0.007808,2.4675,-1.61,-3.99,42.472,1.888,52.984,concentric,3,3.0,22334.0,318153.0,285814.0,333806.0,292056.0
2026-04-07 17:54:50.316686,287395,1560677909,1560679707,-1.056032,0.115168,0.007808,3.15875,-1.63625,-2.94875,42.472,1.888,52.984,concentric,3,3.0,22327.0,318123.0,285747.0,333679.0,291879.0
2026-04-07 17:54:50.319260,287396,1560686863,1560688539,-1.065792,0.11712,0.015616,3.03625,-1.56625,-2.3625,42.960003,1.728,53.064003,concentric,3,3.0,22327.0,318123.0,285747.0,333679.0,291879.0
2026-04-07 17:54:50.321712,287397,1560695829,1560697257,-1.065792,0.11712,0.015616,2.8,-1.26,-1.9425,42.960003,1.728,53.064003,concentric,3,3.0,22327.0,318123.0,285747.0,333679.0,291879.0
2026-04-07 17:54:50.324206,287398,1560710357,1560712165,-1.067744,0.10736,0.01952,3.35125,-0.945,-1.95125,41.800003,1.768,53.568,concentric,3,3.0,22327.0,318123.0,285747.0,333679.0,291879.0
2026-04-07 17:54:50.354531,287399,1560719327,1560720896,-1.065792,0.111264,0.023424,5.2325,-1.1025,-1.70625,41.800003,1.184,54.408,concentric,3,3.0,22327.0,318123.0,285747.0,333679.0,291879.0
2026-04-07 17:54:50.357966,287400,1560728256,1560729614,-1.065792,0.111264,0.023424,6.62375,-0.63,-2.1875,41.728,1.184,54.408,concentric,3,3.0,22327.0,318123.0,285747.0,333679.0,291879.0
2026-04-07 17:54:50.360480,287401,1560742729,1560744499,-1.059936,0.128832,0.037088,7.7175,-0.62125,-2.17,42.352,1.48,53.760002,concentric,3,3.0,22327.0,318123.0,285747.0,333679.0,291879.0
2026-04-07 17:54:50.365431,287402,1560751747,1560753213,-1.059936,0.128832,0.037088,7.81375,0.14,-2.4675,42.352,1.48,53.760002,concentric,3,3.0,22327.0,318123.0,285747.0,333679.0,291879.0
2026-04-07 17:54:50.395668,287403,1560760683,1560761921,-1.057984,0.121024,0.017568,6.72875,0.00875,-1.9425,41.816,1.208,54.072002,concentric,3,3.0,22327.0,318123.0,285747.0,333679.0,291879.0
2026-04-07 17:54:50.425309,287414,1560770097,1560770827,-1.057984,0.121024,0.017568,5.11,0.41125,-2.03875,41.816,1.208,54.072002,concentric,3,3.0,22391.0,318564.0,286112.0,334069.0,292265.0
2026-04-07 17:54:50.426796,287415,1560784980,1560785740,-1.067744,0.10736,0.011712,3.84125,1.19,-2.3625,42.672,1.392,53.888004,concentric,3,3.0,22391.0,318564.0,286112.0,334069.0,292265.0
2026-04-07 17:54:50.433523,287416,1560794406,1560796548,-1.067744,0.10736,0.011712,3.47375,1.435,-3.1325,42.672,1.392,53.888004,concentric,3,3.0,22391.0,318564.0,286112.0,334069.0,292265.0
2026-04-07 17:54:50.435263,287417,1560803354,1560805263,-1.069696,0.124928,0.015616,4.2525,1.12,-3.36875,42.296,1.336,53.848003,concentric,3,3.0,22391.0,318564.0,286112.0,334069.0,292265.0
2026-04-07 17:54:50.438693,287418,1560812299,1560814020,-1.069696,0.124928,0.015616,5.145,1.70625,-4.2175,42.296,1.336,53.848003,concentric,3,3.0,22391.0,318564.0,286112.0,334069.0,292265.0
2026-04-07 17:54:50.442191,287419,1560826862,1560828944,-1.067744,0.12688,0.033184,4.82125,1.6275,-4.655,42.328003,0.896,53.656002,concentric,3,3.0,22391.0,318564.0,286112.0,334069.0,292265.0
2026-04-07 17:54:50.485629,287420,1560835776,1560837630,-1.067744,0.12688,0.033184,3.00125,1.575,-4.76875,42.328003,0.896,53.656002,concentric,3,3.0,22391.0,318564.0,286112.0,334069.0,292265.0
2026-04-07 17:54:50.489142,287421,1560844709,1560846302,-1.071648,0.10736,0.033184,1.1375,1.7325,-5.25,42.464,1.488,55.072002,concentric,3,3.0,22391.0,318564.0,286112.0,334069.0,292265.0
2026-04-07 17:54:50.491716,287422,1560859220,1560861254,-1.071648,0.10736,0.023424,-0.25375,1.575,-5.11,42.464,1.488,55.072002,concentric,3,3.0,22391.0,318564.0,286112.0,334069.0,292265.0
2026-04-07 17:54:50.517162,287432,1560868622,1560870255,-1.065792,0.103456,0.023424,-0.21875,1.11125,-4.52375,42.392002,1.648,55.888004,concentric,3,3.0,22372.0,318615.0,286187.0,334222.0,292415.0
2026-04-07 17:54:50.519202,287433,1560877613,1560879047,-1.065792,0.103456,0.023424,-0.51625,0.21,-3.77125,42.392002,1.648,55.888004,concentric,3,3.0,22372.0,318615.0,286187.0,334222.0,292415.0
2026-04-07 17:54:50.521702,287434,1560886568,1560887783,-1.061888,0.115168,-0.003904,-0.735,-0.04375,-4.01625,41.920002,1.312,53.424004,concentric,3,3.0,22372.0,318615.0,286187.0,334222.0,292415.0
2026-04-07 17:54:50.524208,287435,1560901110,1560902792,-1.069696,0.122976,-0.013664,-1.35625,-0.7175,-2.8525,42.136,1.072,53.568,concentric,3,3.0,22372.0,318615.0,286187.0,334222.0,292415.0
2026-04-07 17:54:50.526791,287436,1560910067,1560911524,-1.069696,0.122976,-0.013664,-1.3825,-1.3825,-2.4675,42.136,1.072,53.568,concentric,3,3.0,22372.0,318615.0,286187.0,334222.0,292415.0
2026-04-07 17:54:50.532943,287437,1560919057,1560920254,-1.069696,0.122976,-0.013664,0.1575,-2.09125,-2.65125,42.136,1.072,53.568,concentric,3,3.0,22372.0,318615.0,286187.0,334222.0,292415.0
2026-04-07 17:54:50.563128,287438,1560933522,1560935228,-1.056032,0.121024,0.00976,0.51625,-2.84375,-2.02125,42.04,1.52,53.160004,concentric,3,3.0,22372.0,318615.0,286187.0,334222.0,292415.0
2026-04-07 17:54:50.566655,287439,1560942462,1560943919,-1.061888,0.11712,0.037088,1.575,-3.605,-1.3825,42.464,1.28,54.24,concentric,3,3.0,22372.0,318615.0,286187.0,334222.0,292415.0
2026-04-07 17:54:50.569176,287440,1560951367,1560952614,-1.061888,0.11712,0.037088,1.91625,-3.6925,-0.5775,42.464,1.28,54.24,concentric,3,3.0,22372.0,318615.0,286187.0,334222.0,292415.0
2026-04-07 17:54:50.599427,287441,1560965823,1560967556,-1.06384,0.121024,0.052704,2.24,-3.815,-0.55125,42.120003,0.616,54.304,concentric,3,3.0,22372.0,318615.0,286187.0,334222.0,292415.0
2026-04-07 17:54:50.627922,287451,1560974760,1560976317,-1.06384,0.121024,0.052704,2.7825,-3.9025,-0.1925,42.120003,0.616,54.304,concentric,3,3.0,22765.0,321956.0,289032.0,337423.0,295389.0
2026-04-07 17:54:50.630490,287452,1560983669,1560985008,-1.065792,0.13664,0.035136,2.45,-3.77125,-0.63,42.144,0.88,54.504,concentric,3,3.0,22765.0,321956.0,289032.0,337423.0,295389.0
2026-04-07 17:54:50.632987,287453,1560998150,1560999925,-1.065792,0.13664,0.035136,0.77,-3.0625,-1.2075,42.144,0.88,54.504,concentric,3,3.0,22765.0,321956.0,289032.0,337423.0,295389.0
2026-04-07 17:54:50.635495,287454,1561007157,1561008680,-1.05408,0.122976,0.027328,-0.77875,-2.555,-1.54875,41.72,1.104,55.616,concentric,3,3.0,22765.0,321956.0,289032.0,337423.0,295389.0
2026-04-07 17:54:50.638097,287455,1561016086,1561017387,-1.05408,0.122976,0.027328,-1.505,-1.61875,-2.31,41.72,1.104,55.616,concentric,3,3.0,22765.0,321956.0,289032.0,337423.0,295389.0
2026-04-07 17:54:50.640500,287456,1561025106,1561026124,-1.040416,0.105408,0.02928,-0.9275,-1.23375,-2.5025,41.912003,1.072,55.096004,concentric,3,3.0,22765.0,321956.0,289032.0,337423.0,295389.0
2026-04-07 17:54:50.670697,287457,1561039617,1561041017,-1.040416,0.105408,0.02928,-0.21875,-1.225,-2.5725,41.912003,1.072,55.096004,concentric,3,3.0,22765.0,321956.0,289032.0,337423.0,295389.0
2026-04-07 17:54:50.674220,287458,1561048529,1561049721,-1.03456,0.099552,0.044896,0.3325,-1.4525,-2.345,41.856003,1.304,53.184002,concentric,3,3.0,22765.0,321956.0,289032.0,337423.0,295389.0
2026-04-07 17:54:50.677447,287459,1561057460,1561058408,-1.03456,0.099552,0.044896,0.11375,-1.435,-2.065,41.856003,1.304,53.184002,concentric,3,3.0,22765.0,321956.0,289032.0,337423.0,295389.0
2026-04-07 17:54:50.706732,287470,1561072397,1561073383,-1.048224,0.121024,0.044896,-0.385,-1.16375,-2.26625,42.296,1.0,54.528004,concentric,3,3.0,22934.0,323304.0,290134.0,338622.0,296375.0
2026-04-07 17:54:50.709242,287471,1561081396,1561082123,-1.04432,0.113216,0.050752,-2.61625,-0.77875,-2.33625,41.480003,1.04,56.184002,concentric,3,3.0,22934.0,323304.0,290134.0,338622.0,296375.0
2026-04-07 17:54:50.711741,287472,1561090780,1561092989,-1.04432,0.113216,0.050752,-4.45375,-1.225,-2.555,41.480003,1.04,56.184002,concentric,3,3.0,22934.0,323304.0,290134.0,338622.0,296375.0
2026-04-07 17:54:50.714271,287473,1561099730,1561101699,-1.04432,0.113216,0.050752,-4.27,-1.33,-2.54625,41.480003,1.04,56.184002,concentric,3,3.0,22934.0,323304.0,290134.0,338622.0,296375.0
2026-04-07 17:54:50.744505,287474,1561114230,1561114559,-1.071648,0.111264,0.052704,-3.5175,0.0,-2.89625,41.68,0.6,56.104004,concentric,3,3.0,22934.0,323304.0,290134.0,338622.0,296375.0
2026-04-07 17:54:50.747962,287475,1561123440,1561125316,-1.065792,0.124928,0.052704,-1.3825,0.81375,-4.08625,41.976,1.352,54.928,concentric,3,3.0,22934.0,323304.0,290134.0,338622.0,296375.0
2026-04-07 17:54:50.750437,287476,1561132380,1561134008,-1.065792,0.124928,0.052704,-1.23375,0.98875,-4.73375,41.976,1.352,54.928,concentric,3,3.0,22934.0,323304.0,290134.0,338622.0,296375.0
2026-04-07 17:54:50.789816,287477,1561146895,1561148968,-1.067744,0.111264,0.060512,0.00875,0.6475,-5.24125,42.352,1.04,54.88,concentric,3,3.0,22934.0,323304.0,290134.0,338622.0,296375.0
2026-04-07 17:54:50.791567,287478,1561155802,1561157660,-1.067744,0.111264,0.060512,0.83125,1.5925,-5.915,42.352,1.04,54.88,concentric,3,3.0,22934.0,323304.0,290134.0,338622.0,296375.0
2026-04-07 17:54:50.793142,287479,1561164704,1561166337,-1.065792,0.119072,0.0488,1.47,1.3825,-6.1775,41.640003,1.616,54.856003,concentric,3,3.0,22934.0,323304.0,290134.0,338622.0,296375.0
2026-04-07 17:54:50.822348,287489,1561179234,1561181237,-1.065792,0.119072,0.0488,1.09375,1.33,-6.3,41.640003,1.616,54.856003,concentric,3,3.0,22682.0,321435.0,288619.0,336923.0,294702.0
2026-04-07 17:54:50.823981,287490,1561188213,1561189993,-1.06384,0.134688,0.052704,0.5425,1.6975,-6.44875,41.968002,0.576,54.424004,concentric,3,3.0,22682.0,321435.0,288619.0,336923.0,294702.0
2026-04-07 17:54:50.825524,287491,1561197123,1561198772,-1.06384,0.134688,0.052704,-0.14,2.03,-6.5975,41.968002,0.576,54.424004,concentric,3,3.0,22682.0,321435.0,288619.0,336923.0,294702.0
2026-04-07 17:54:50.829627,287492,1561211673,1561213685,-1.065792,0.142496,0.05856,-1.4,2.44125,-6.2125,42.064003,1.608,54.632004,concentric,3,3.0,22682.0,321435.0,288619.0,336923.0,294702.0
2026-04-07 17:54:50.836682,287493,1561220610,1561222363,-1.065792,0.142496,0.05856,-3.185,2.345,-6.09,42.064003,1.608,54.632004,concentric,3,3.0,22682.0,321435.0,288619.0,336923.0,294702.0
2026-04-07 17:54:50.864465,287494,1561229550,1561231094,-1.059936,0.115168,0.040992,-5.83625,1.75875,-5.6175,41.792004,1.424,54.816,concentric,3,3.0,22682.0,321435.0,288619.0,336923.0,294702.0
2026-04-07 17:54:50.868192,287495,1561238521,1561239797,-1.059936,0.115168,0.040992,-7.07875,1.7325,-5.32875,41.792004,1.424,54.816,concentric,3,3.0,22682.0,321435.0,288619.0,336923.0,294702.0
2026-04-07 17:54:50.871365,287496,1561253108,1561254692,-1.05408,0.122976,0.03904,-6.65875,2.16125,-6.09,41.496002,1.304,54.968002,concentric,3,3.0,22682.0,321435.0,288619.0,336923.0,294702.0
2026-04-07 17:54:50.877136,287497,1561262060,1561263404,-1.048224,0.124928,0.05856,-5.565,1.715,-6.09875,41.736004,1.096,57.112003,concentric,3,3.0,22682.0,321435.0,288619.0,336923.0,294702.0
2026-04-07 17:54:50.906406,287507,1561271082,1561272368,-1.048224,0.124928,0.05856,-4.26125,1.435,-6.32625,41.736004,1.096,57.112003,concentric,3,3.0,22438.0,319538.0,287140.0,335351.0,293323.0
2026-04-07 17:54:50.907934,287508,1561285744,1561287395,-1.056032,0.11712,0.072224,-3.2025,1.1025,-5.50375,41.312,1.016,56.08,concentric,3,3.0,22438.0,319538.0,287140.0,335351.0,293323.0
2026-04-07 17:54:50.912120,287509,1561294763,1561296122,-1.056032,0.11712,0.072224,-2.3625,0.84875,-4.34875,41.312,1.016,56.08,concentric,3,3.0,22438.0,319538.0,287140.0,335351.0,293323.0
2026-04-07 17:54:50.918414,287510,1561303848,1561304849,-1.050176,0.119072,0.052704,-0.18375,0.04375,-4.375,41.648003,1.024,56.056004,concentric,3,3.0,22438.0,319538.0,287140.0,335351.0,293323.0
2026-04-07 17:54:50.946977,287511,1561312833,1561313542,-1.050176,0.119072,0.052704,2.065,-0.49,-4.4275,41.648003,1.024,56.056004,concentric,3,3.0,22438.0,319538.0,287140.0,335351.0,293323.0
2026-04-07 17:54:50.951434,287512,1561327722,1561328481,-1.050176,0.140544,0.05856,3.66625,-0.315,-5.18,42.544003,1.72,54.624004,concentric,3,3.0,22438.0,319538.0,287140.0,335351.0,293323.0
2026-04-07 17:54:50.952990,287513,1561337121,1561339254,-1.050176,0.140544,0.05856,4.2525,0.07,-5.3725,42.544003,1.72,54.624004,concentric,3,3.0,22438.0,319538.0,287140.0,335351.0,293323.0
2026-04-07 17:54:50.960891,287514,1561346119,1561347989,-1.042368,0.130784,0.070272,2.24875,0.69125,-5.25875,41.280003,1.104,56.160004,concentric,3,3.0,22438.0,319538.0,287140.0,335351.0,293323.0
2026-04-07 17:54:50.989453,287515,1561360629,1561362896,-1.042368,0.130784,0.070272,0.3675,1.54875,-4.83,41.280003,1.104,56.160004,concentric,3,3.0,22438.0,319538.0,287140.0,335351.0,293323.0
2026-04-07 17:54:51.018058,287526,1561369577,1561371586,-1.036512,0.115168,0.08784,-1.33875,2.0125,-4.8825,41.568,1.84,56.056004,concentric,3,3.0,22505.0,320143.0,287799.0,336249.0,294248.0
2026-04-07 17:54:51.022347,287527,1561379023,1561380309,-1.036512,0.115168,0.08784,-1.4525,2.24,-5.46875,41.568,1.84,56.056004,concentric,3,3.0,22505.0,320143.0,287799.0,336249.0,294248.0
2026-04-07 17:54:51.023927,287528,1561388024,1561389135,-1.038464,0.11712,0.05856,-2.8,1.28625,-5.1275,41.664,1.272,55.016003,concentric,3,3.0,22505.0,320143.0,287799.0,336249.0,294248.0
2026-04-07 17:54:51.025563,287529,1561402611,1561404048,-1.042368,0.113216,0.046848,-4.03375,0.44625,-4.48875,41.272003,1.376,57.04,concentric,3,3.0,22505.0,320143.0,287799.0,336249.0,294248.0
2026-04-07 17:54:51.029608,287530,1561411753,1561412796,-1.042368,0.113216,0.046848,-3.465,0.74375,-4.3225,41.272003,1.376,57.04,concentric,3,3.0,22505.0,320143.0,287799.0,336249.0,294248.0
2026-04-07 17:54:51.034625,287531,1561420708,1561421467,-1.042368,0.113216,0.046848,-2.8175,0.58625,-4.10375,41.272003,1.376,57.04,concentric,3,3.0,22505.0,320143.0,287799.0,336249.0,294248.0
2026-04-07 17:54:51.087891,287532,1561430186,1561432264,-1.042368,0.122976,0.052704,-2.73875,0.39375,-3.99,40.784,1.176,53.520004,concentric,3,3.0,22505.0,320143.0,287799.0,336249.0,294248.0
2026-04-07 17:54:51.090121,287533,1561445088,1561447200,-1.046272,0.122976,0.076128,-2.695,1.12875,-4.08625,42.304,1.168,55.08,concentric,3,3.0,22505.0,320143.0,287799.0,336249.0,294248.0
2026-04-07 17:54:51.094751,287534,1561454530,1561455896,-1.046272,0.122976,0.076128,-2.19625,1.26,-4.515,42.304,1.168,55.08,concentric,3,3.0,22505.0,320143.0,287799.0,336249.0,294248.0
2026-04-07 17:54:51.096553,287535,1561463456,1561464587,-1.05408,0.11712,0.091744,-2.12625,1.32125,-4.6025,41.776,1.992,56.072002,concentric,3,3.0,22505.0,320143.0,287799.0,336249.0,294248.0
2026-04-07 17:54:51.120525,287545,1561478095,1561479689,-1.05408,0.11712,0.091744,-1.65375,0.88375,-5.27625,41.776,1.992,56.072002,concentric,3,3.0,22730.0,322283.0,289682.0,338444.0,296244.0
2026-04-07 17:54:51.122945,287546,1561487193,1561488413,-1.052128,0.11712,0.080032,-0.3325,0.60375,-5.565,41.320004,1.232,56.736004,concentric,3,3.0,22730.0,322283.0,289682.0,338444.0,296244.0
2026-04-07 17:54:51.129186,287547,1561496163,1561497110,-1.052128,0.11712,0.080032,0.3325,0.86625,-6.53625,41.320004,1.232,56.736004,concentric,3,3.0,22730.0,322283.0,289682.0,338444.0,296244.0
2026-04-07 17:54:51.131706,287548,1561505110,1561505917,-1.057984,0.130784,0.062464,0.315,1.28625,-7.44625,41.144,1.184,56.304,concentric,3,3.0,22730.0,322283.0,289682.0,338444.0,296244.0
2026-04-07 17:54:51.134278,287549,1561519634,1561520835,-1.057984,0.130784,0.062464,-0.7,2.02125,-7.39375,41.144,1.184,56.304,concentric,3,3.0,22730.0,322283.0,289682.0,338444.0,296244.0
2026-04-07 17:54:51.164564,287550,1561528581,1561529530,-1.061888,0.115168,0.05856,-2.09125,2.6075,-7.9275,42.008003,1.88,56.248,concentric,3,3.0,22730.0,322283.0,289682.0,338444.0,296244.0
2026-04-07 17:54:51.167960,287551,1561537504,1561538305,-1.061888,0.115168,0.05856,-3.6225,2.59,-7.93625,42.008003,1.88,56.248,concentric,3,3.0,22730.0,322283.0,289682.0,338444.0,296244.0
2026-04-07 17:54:51.170563,287552,1561552521,1561553215,-1.057984,0.083936,0.052704,-4.12125,3.08,-8.1375,41.816,1.528,55.360004,concentric,3,3.0,22730.0,322283.0,289682.0,338444.0,296244.0
2026-04-07 17:54:51.176821,287553,1561561839,1561563979,-1.057984,0.083936,0.052704,-2.8,3.5525,-7.83125,41.816,1.528,55.360004,concentric,3,3.0,22730.0,322283.0,289682.0,338444.0,296244.0
2026-04-07 17:54:51.205421,287563,1561570765,1561572695,-1.065792,0.128832,0.103456,-3.01875,2.905,-8.3475,41.472,1.888,55.56,concentric,3,3.0,22688.0,322046.0,289459.0,338153.0,295902.0
2026-04-07 17:54:51.207958,287564,1561580238,1561581649,-1.065792,0.128832,0.103456,0.79625,3.465,-8.61875,41.472,1.888,55.56,concentric,3,3.0,22688.0,322046.0,289459.0,338153.0,295902.0
2026-04-07 17:54:51.210584,287565,1561594737,1561596606,-1.061888,0.132736,0.066368,0.30625,2.8525,-8.98625,41.096,1.312,55.120003,concentric,3,3.0,22688.0,322046.0,289459.0,338153.0,295902.0
2026-04-07 17:54:51.216687,287566,1561603720,1561605327,-1.08336,0.10736,0.044896,-3.3425,2.6425,-8.198751,42.176003,1.864,54.168003,concentric,3,3.0,22688.0,322046.0,289459.0,338153.0,295902.0
2026-04-07 17:54:51.247342,287567,1561612743,1561614093,-1.08336,0.10736,0.044896,-5.67875,2.65125,-8.88125,42.176003,1.864,54.168003,concentric,3,3.0,22688.0,322046.0,289459.0,338153.0,295902.0
2026-04-07 17:54:51.250543,287568,1561621681,1561622775,-1.08336,0.10736,0.044896,-4.7425,2.47625,-9.065,42.176003,1.864,54.168003,concentric,3,3.0,22688.0,322046.0,289459.0,338153.0,295902.0
2026-04-07 17:54:51.253029,287569,1561636186,1561637753,-1.059936,0.105408,0.066368,-3.1675,2.51125,-9.38875,41.968002,2.064,56.536003,concentric,3,3.0,22688.0,322046.0,289459.0,338153.0,295902.0
2026-04-07 17:54:51.257983,287570,1561645116,1561646469,-1.06384,0.101504,0.085888,-3.19375,2.33625,-9.65125,42.016003,2.2,53.384003,concentric,3,3.0,22688.0,322046.0,289459.0,338153.0,295902.0
2026-04-07 17:54:51.288114,287571,1561654139,1561655204,-1.06384,0.101504,0.085888,-3.98125,2.73875,-8.89875,42.016003,2.2,53.384003,concentric,3,3.0,22688.0,322046.0,289459.0,338153.0,295902.0
2026-04-07 17:54:51.291697,287572,1561668659,1561670121,-1.05408,0.10736,0.08784,-5.11875,2.47625,-7.875,41.632004,2.368,55.544003,concentric,3,3.0,22688.0,322046.0,289459.0,338153.0,295902.0
2026-04-07 17:54:51.319275,287583,1561677654,1561678865,-1.05408,0.10736,0.08784,-6.48375,2.96625,-7.49875,41.632004,2.368,55.544003,concentric,3,3.0,22544.0,320705.0,288404.0,337033.0,294879.0
2026-04-07 17:54:51.321755,287584,1561686612,1561687550,-1.067744,0.109312,0.076128,-7.58625,3.01875,-7.88375,41.064003,1.76,57.640003,concentric,3,3.0,22544.0,320705.0,288404.0,337033.0,294879.0
2026-04-07 17:54:51.326065,287585,1561701115,1561702478,-1.067744,0.109312,0.076128,-6.965,3.15875,-8.0675,41.064003,1.76,57.640003,concentric,3,3.0,22544.0,320705.0,288404.0,337033.0,294879.0
2026-04-07 17:54:51.327622,287586,1561710083,1561711171,-1.050176,0.115168,0.072224,-6.685,2.68625,-8.26875,41.696003,2.056,57.272003,concentric,3,3.0,22544.0,320705.0,288404.0,337033.0,294879.0
2026-04-07 17:54:51.332174,287587,1561719047,1561719873,-1.050176,0.115168,0.072224,-7.30625,3.3425,-8.417501,41.696003,2.056,57.272003,concentric,3,3.0,22544.0,320705.0,288404.0,337033.0,294879.0
2026-04-07 17:54:51.389283,287588,1561733606,1561734795,-1.050176,0.105408,0.081984,-8.2425,3.38625,-8.2075,41.976,2.368,55.472004,concentric,3,3.0,22544.0,320705.0,288404.0,337033.0,294879.0
2026-04-07 17:54:51.391713,287589,1561742518,1561743477,-1.050176,0.105408,0.081984,-8.39125,3.75375,-8.47,41.976,2.368,55.472004,concentric,3,3.0,22544.0,320705.0,288404.0,337033.0,294879.0
2026-04-07 17:54:51.394505,287590,1561751465,1561752164,-1.046272,0.093696,0.099552,-8.47875,3.01875,-7.74375,42.296,2.824,55.544003,concentric,3,3.0,22544.0,320705.0,288404.0,337033.0,294879.0
2026-04-07 17:54:51.398353,287591,1561760758,1561762941,-1.046272,0.093696,0.099552,-8.44375,2.93125,-8.16375,42.296,2.824,55.544003,concentric,3,3.0,22544.0,320705.0,288404.0,337033.0,294879.0
2026-04-07 17:54:51.458450,287601,1561775851,1561777888,-1.050176,0.081984,0.056608,-7.48125,2.835,-8.8025,42.136,3.176,54.920002,concentric,3,3.0,22350.0,319188.0,287252.0,335824.0,293812.0
2026-04-07 17:54:51.461802,287602,1561784822,1561786561,-1.052128,0.101504,0.046848,-6.58875,2.77375,-7.77,41.272003,2.76,54.960003,concentric,3,3.0,22350.0,319188.0,287252.0,335824.0,293812.0
2026-04-07 17:54:51.464314,287603,1561793863,1561795289,-1.052128,0.101504,0.046848,-4.8475,3.15,-8.02375,41.272003,2.76,54.960003,concentric,3,3.0,22350.0,319188.0,287252.0,335824.0,293812.0
2026-04-07 17:54:51.469229,287604,1561802808,1561804004,-1.052128,0.101504,0.046848,-4.75125,2.94875,-8.21625,41.272003,2.76,54.960003,concentric,3,3.0,22350.0,319188.0,287252.0,335824.0,293812.0
2026-04-07 17:54:51.471721,287605,1561817315,1561818968,-1.056032,0.11712,0.062464,-5.24125,2.91375,-7.77,42.032,2.864,56.864002,concentric,3,3.0,22350.0,319188.0,287252.0,335824.0,293812.0
2026-04-07 17:54:51.474231,287606,1561826208,1561827681,-1.061888,0.115168,0.08784,-5.845,4.095,-7.28875,41.824,2.552,55.808002,concentric,3,3.0,22350.0,319188.0,287252.0,335824.0,293812.0
2026-04-07 17:54:51.477854,287607,1561835137,1561836355,-1.061888,0.115168,0.08784,-6.895,3.89375,-7.51625,41.824,2.552,55.808002,concentric,3,3.0,22350.0,319188.0,287252.0,335824.0,293812.0
2026-04-07 17:54:51.479288,287608,1561849578,1561851286,-1.065792,0.103456,0.103456,-7.34125,3.6925,-7.97125,42.208,2.592,55.480003,concentric,3,3.0,22350.0,319188.0,287252.0,335824.0,293812.0
2026-04-07 17:54:51.481768,287609,1561858496,1561859974,-1.065792,0.103456,0.103456,-7.07875,3.78875,-8.33,42.208,2.592,55.480003,concentric,3,3.0,22350.0,319188.0,287252.0,335824.0,293812.0
2026-04-07 17:54:51.484260,287610,1561867473,1561868724,-1.069696,0.10736,0.083936,-6.41375,4.10375,-8.7325,41.648003,2.984,55.424004,concentric,3,3.0,22350.0,319188.0,287252.0,335824.0,293812.0
2026-04-07 17:54:51.512899,287620,1561882412,1561884107,-1.069696,0.10736,0.083936,-5.94125,4.095,-8.417501,41.648003,2.984,55.424004,concentric,3,3.0,22214.0,318211.0,286504.0,335071.0,293212.0
2026-04-07 17:54:51.515420,287621,1561891362,1561892834,-1.059936,0.103456,0.064416,-5.99375,4.61125,-8.925,41.864002,3.072,55.296,concentric,3,3.0,22214.0,318211.0,286504.0,335071.0,293212.0
2026-04-07 17:54:51.517933,287622,1561900301,1561901571,-1.059936,0.103456,0.064416,-5.60875,4.20875,-9.10875,41.864002,3.072,55.296,concentric,3,3.0,22214.0,318211.0,286504.0,335071.0,293212.0
2026-04-07 17:54:51.548236,287623,1561914781,1561916539,-1.069696,0.0976,0.052704,-5.915,4.47125,-8.98625,41.872,3.176,56.376003,concentric,3,3.0,22214.0,318211.0,286504.0,335071.0,293212.0
2026-04-07 17:54:51.551707,287624,1561923699,1561925227,-1.069696,0.0976,0.052704,-5.59125,4.4625,-8.8375,41.872,3.176,56.376003,concentric,3,3.0,22214.0,318211.0,286504.0,335071.0,293212.0
2026-04-07 17:54:51.557365,287625,1561932666,1561933910,-1.069696,0.101504,0.064416,-5.31125,4.20875,-8.7325,42.248,3.056,54.776,concentric,3,3.0,22214.0,318211.0,286504.0,335071.0,293212.0
2026-04-07 17:54:51.559176,287626,1561941597,1561942655,-1.069696,0.101504,0.064416,-5.4775,4.0425,-8.14625,42.248,3.056,54.776,concentric,3,3.0,22214.0,318211.0,286504.0,335071.0,293212.0
2026-04-07 17:54:51.589428,287627,1561956135,1561957572,-1.077504,0.091744,0.054656,-5.4775,3.78875,-7.49,42.256,2.712,55.248,concentric,3,3.0,22214.0,318211.0,286504.0,335071.0,293212.0
2026-04-07 17:54:51.592991,287628,1561965047,1561966261,-1.09312,0.095648,0.050752,-5.08375,3.42125,-6.86875,42.168003,3.032,54.832,concentric,3,3.0,22214.0,318211.0,286504.0,335071.0,293212.0
2026-04-07 17:54:51.620479,287639,1561974010,1561974918,-1.09312,0.095648,0.050752,-4.025,3.66625,-6.7025,42.168003,3.032,54.832,concentric,3,3.0,22082.0,317000.0,285526.0,333990.0,292312.0
2026-04-07 17:54:51.622977,287640,1561988576,1561989912,-1.095072,0.101504,0.089792,-2.9225,3.6575,-6.85125,41.08,2.376,56.448,concentric,3,3.0,22082.0,317000.0,285526.0,333990.0,292312.0
2026-04-07 17:54:51.625452,287641,1561997600,1561998661,-1.095072,0.101504,0.089792,-1.2075,3.64,-6.57125,41.08,2.376,56.448,concentric,3,3.0,22082.0,317000.0,285526.0,333990.0,292312.0
2026-04-07 17:54:51.627953,287642,1562006507,1562007353,-1.077504,0.124928,0.13664,0.21875,2.17,-5.88875,41.568,2.384,56.152004,concentric,3,3.0,22082.0,317000.0,285526.0,333990.0,292312.0
2026-04-07 17:54:51.634226,287643,1562021052,1562022268,-1.077504,0.124928,0.13664,3.82375,0.2625,-3.84125,41.568,2.384,56.152004,concentric,3,3.0,22082.0,317000.0,285526.0,333990.0,292312.0
2026-04-07 17:54:51.690498,287644,1562030039,1562031014,-1.048224,0.105408,0.091744,7.28,-1.61,-1.68875,41.536003,2.896,55.752003,concentric,3,3.0,22082.0,317000.0,285526.0,333990.0,292312.0
2026-04-07 17:54:51.692963,287645,1562038994,1562039711,-1.048224,0.105408,0.091744,6.6325,-1.19875,-0.945,41.536003,2.896,55.752003,concentric,3,3.0,22082.0,317000.0,285526.0,333990.0,292312.0
2026-04-07 17:54:51.695448,287646,1562048314,1562050479,-1.057984,0.081984,0.044896,5.005,-0.805,-1.715,42.592003,3.256,55.624004,concentric,3,3.0,22082.0,317000.0,285526.0,333990.0,292312.0
2026-04-07 17:54:51.698118,287647,1562062820,1562063306,-1.057984,0.081984,0.044896,3.35125,-0.035,-2.135,42.592003,3.256,55.624004,concentric,3,3.0,22082.0,317000.0,285526.0,333990.0,292312.0
2026-04-07 17:54:51.700620,287648,1562072176,1562074064,-1.067744,0.080032,0.042944,4.69,0.735,-3.4475,42.04,2.928,55.72,concentric,3,3.0,22082.0,317000.0,285526.0,333990.0,292312.0
2026-04-07 17:54:51.725492,287658,1562081233,1562082774,-1.067744,0.080032,0.042944,7.8575,1.04125,-4.4975,42.04,2.928,55.72,concentric,3,3.0,21938.0,316133.0,284940.0,333525.0,291917.0
2026-04-07 17:54:51.728037,287659,1562095795,1562097742,-1.059936,0.0976,0.064416,10.05375,0.76125,-4.06,41.536003,2.48,57.136,concentric,3,3.0,21938.0,316133.0,284940.0,333525.0,291917.0
2026-04-07 17:54:51.730452,287660,1562104768,1562106461,-1.059936,0.0976,0.064416,10.9725,0.46375,-4.2,41.536003,2.48,57.136,concentric,3,3.0,21938.0,316133.0,284940.0,333525.0,291917.0
2026-04-07 17:54:51.735428,287661,1562113712,1562115217,-1.052128,0.089792,0.076128,10.7975,0.2275,-4.2525,42.008003,2.264,55.864002,concentric,3,3.0,21938.0,316133.0,284940.0,333525.0,291917.0
2026-04-07 17:54:51.737980,287662,1562122667,1562123940,-1.052128,0.089792,0.076128,9.87875,0.97125,-4.06875,42.008003,2.264,55.864002,concentric,3,3.0,21938.0,316133.0,284940.0,333525.0,291917.0
2026-04-07 17:54:51.768098,287663,1562137258,1562138967,-1.06384,0.093696,0.07808,9.66,1.23375,-3.98125,41.552002,2.44,55.792004,concentric,3,3.0,21938.0,316133.0,284940.0,333525.0,291917.0
2026-04-07 17:54:51.771797,287664,1562146180,1562147667,-1.069696,0.0976,0.074176,8.82,1.8025,-4.24375,41.928,3.096,56.08,concentric,3,3.0,21938.0,316133.0,284940.0,333525.0,291917.0
2026-04-07 17:54:51.778054,287665,1562155145,1562156374,-1.069696,0.0976,0.074176,8.855001,1.995,-4.375,41.928,3.096,56.08,concentric,3,3.0,21938.0,316133.0,284940.0,333525.0,291917.0
2026-04-07 17:54:51.783776,287666,1562169758,1562171278,-1.061888,0.11712,0.070272,9.68625,2.135,-3.85875,41.320004,2.2,57.200005,concentric,3,3.0,21938.0,316133.0,284940.0,333525.0,291917.0
2026-04-07 17:54:51.809280,287676,1562178817,1562180079,-1.061888,0.11712,0.070272,9.4675,2.8525,-3.71,41.320004,2.2,57.200005,concentric,3,3.0,21836.0,315345.0,284393.0,333033.0,291536.0
2026-04-07 17:54:51.811703,287677,1562187798,1562188835,-1.061888,0.119072,0.066368,7.56,3.61375,-4.62,41.768,1.96,56.808002,concentric,3,3.0,21836.0,315345.0,284393.0,333033.0,291536.0
2026-04-07 17:54:51.815386,287678,1562202418,1562203746,-1.061888,0.119072,0.066368,5.11875,3.9375,-4.55875,41.768,1.96,56.808002,concentric,3,3.0,21836.0,315345.0,284393.0,333033.0,291536.0
2026-04-07 17:54:51.845637,287679,1562211394,1562212442,-1.065792,0.111264,0.080032,3.815,4.12125,-5.20625,42.072002,1.936,58.168003,concentric,3,3.0,21836.0,315345.0,284393.0,333033.0,291536.0
2026-04-07 17:54:51.849171,287680,1562220476,1562221126,-1.065792,0.111264,0.080032,4.095,4.52375,-5.81875,42.072002,1.936,58.168003,concentric,3,3.0,21836.0,315345.0,284393.0,333033.0,291536.0
2026-04-07 17:54:51.851725,287681,1562229732,1562231887,-1.077504,0.105408,0.076128,2.9925,5.075,-5.94125,41.792004,2.008,56.176003,concentric,3,3.0,21836.0,315345.0,284393.0,333033.0,291536.0
2026-04-07 17:54:51.856669,287682,1562244226,1562244731,-1.077504,0.105408,0.076128,3.38625,5.1275,-7.0175,41.792004,2.008,56.176003,concentric,3,3.0,21836.0,315345.0,284393.0,333033.0,291536.0
2026-04-07 17:54:51.886991,287683,1562253768,1562255494,-1.085312,0.11712,0.056608,5.03125,5.5125,-7.09625,41.432003,1.72,56.072002,concentric,3,3.0,21836.0,315345.0,284393.0,333033.0,291536.0
2026-04-07 17:54:51.890443,287684,1562262747,1562264215,-1.085312,0.11712,0.056608,5.85375,5.80125,-7.49,41.432003,1.72,56.072002,concentric,3,3.0,21836.0,315345.0,284393.0,333033.0,291536.0
2026-04-07 17:54:51.892971,287685,1562271683,1562272904,-1.085312,0.124928,0.05856,6.2125,5.85375,-8.505,41.896004,2.176,56.128002,concentric,3,3.0,21836.0,315345.0,284393.0,333033.0,291536.0
2026-04-07 17:54:51.922937,287696,1562286271,1562287855,-1.075552,0.115168,0.07808,6.13375,4.78625,-8.96875,41.896004,1.936,54.640003,concentric,3,3.0,21772.0,314988.0,284211.0,332965.0,291570.0
2026-04-07 17:54:51.925479,287697,1562295353,1562296620,-1.075552,0.115168,0.07808,5.76625,4.095,-8.65375,42.216003,1.936,54.640003,concentric,3,3.0,21772.0,314988.0,284211.0,332965.0,291570.0
2026-04-07 17:54:51.927979,287698,1562304337,1562305342,-1.075552,0.115168,0.07808,5.6,3.9025,-8.3475,42.216003,1.936,54.640003,concentric,3,3.0,21772.0,314988.0,284211.0,332965.0,291570.0
2026-04-07 17:54:51.931683,287699,1562318840,1562320273,-1.08336,0.0976,0.07808,4.4975,3.54375,-8.1375,42.152,1.888,56.096004,concentric,3,3.0,21772.0,314988.0,284211.0,332965.0,291570.0
2026-04-07 17:54:51.994482,287700,1562327789,1562328972,-1.071648,0.095648,0.08784,4.26125,3.00125,-7.69125,41.912003,1.736,57.488003,concentric,3,3.0,21772.0,314988.0,284211.0,332965.0,291570.0
2026-04-07 17:54:51.998905,287701,1562336728,1562337638,-1.071648,0.095648,0.08784,5.3725,2.625,-6.74625,41.912003,1.736,57.488003,concentric,3,3.0,21772.0,314988.0,284211.0,332965.0,291570.0
2026-04-07 17:54:52.001392,287702,1562351244,1562352567,-1.08336,0.111264,0.066368,6.37875,2.975,-6.23,42.52,2.072,56.352,concentric,3,3.0,21772.0,314988.0,284211.0,332965.0,291570.0
2026-04-07 17:54:52.003878,287703,1562360205,1562361274,-1.08336,0.111264,0.066368,5.95875,2.695,-6.29125,42.52,2.072,56.352,concentric,3,3.0,21772.0,314988.0,284211.0,332965.0,291570.0
2026-04-07 17:54:52.005377,287704,1562369148,1562369942,-1.089216,0.113216,0.076128,5.32,2.59875,-6.5975,41.984,2.048,56.552002,concentric,3,3.0,21772.0,314988.0,284211.0,332965.0,291570.0
2026-04-07 17:54:52.031387,287714,1562378254,1562378752,-1.089216,0.113216,0.076128,5.145,2.695,-6.475,41.984,2.048,56.552002,concentric,3,3.0,21890.0,316142.0,285251.0,334229.0,292724.0
2026-04-07 17:54:52.033029,287715,1562393380,1562393706,-1.089216,0.089792,0.08784,6.405,3.6575,-6.34375,41.568,1.896,56.384003,concentric,3,3.0,21890.0,316142.0,285251.0,334229.0,292724.0
2026-04-07 17:54:52.037520,287716,1562402678,1562404543,-1.089216,0.089792,0.08784,7.55125,3.63125,-6.29125,41.568,1.896,56.384003,concentric,3,3.0,21890.0,316142.0,285251.0,334229.0,292724.0
2026-04-07 17:54:52.038954,287717,1562411658,1562413282,-1.077504,0.095648,0.105408,9.30125,3.29,-6.2475,41.824,1.848,57.544003,concentric,3,3.0,21890.0,316142.0,285251.0,334229.0,292724.0
2026-04-07 17:54:52.040503,287718,1562426260,1562428171,-1.077504,0.095648,0.105408,10.29,3.7625,-6.2475,41.824,1.848,57.544003,concentric,3,3.0,21890.0,316142.0,285251.0,334229.0,292724.0
2026-04-07 17:54:52.070687,287719,1562435301,1562436921,-1.081408,0.103456,0.101504,8.8725,4.08625,-6.195,41.824,1.384,57.24,concentric,3,3.0,21890.0,316142.0,285251.0,334229.0,292724.0
2026-04-07 17:54:52.076707,287720,1562444235,1562445618,-1.081408,0.103456,0.101504,5.60875,3.63125,-5.64375,41.824,1.384,57.24,concentric,3,3.0,21890.0,316142.0,285251.0,334229.0,292724.0
2026-04-07 17:54:52.079272,287721,1562453160,1562454325,-1.081408,0.0976,0.089792,3.52625,3.045,-5.95875,42.120003,1.832,56.416004,concentric,3,3.0,21890.0,316142.0,285251.0,334229.0,292724.0
2026-04-07 17:54:52.081863,287722,1562467620,1562469205,-1.077504,0.080032,0.072224,2.47625,2.415,-5.635,42.36,1.24,55.592003,concentric,3,3.0,21890.0,316142.0,285251.0,334229.0,292724.0
2026-04-07 17:54:52.139220,287732,1562476948,1562477907,-1.077504,0.080032,0.072224,2.2925,2.42375,-5.15375,42.36,1.24,55.592003,concentric,3,3.0,21864.0,316040.0,285169.0,334142.0,292612.0
2026-04-07 17:54:52.141721,287733,1562485864,1562486627,-1.077504,0.080032,0.072224,3.24625,2.09125,-4.8475,42.36,1.24,55.592003,concentric,3,3.0,21864.0,316040.0,285169.0,334142.0,292612.0
2026-04-07 17:54:52.144237,287734,1562495347,1562497454,-1.077504,0.085888,0.081984,4.99625,1.95125,-4.8125,42.056004,1.664,57.056004,concentric,3,3.0,21864.0,316040.0,285169.0,334142.0,292612.0
2026-04-07 17:54:52.146694,287735,1562509882,1562510304,-1.081408,0.089792,0.080032,7.02625,1.8025,-4.06,41.616,1.08,59.216003,concentric,3,3.0,21864.0,316040.0,285169.0,334142.0,292612.0
2026-04-07 17:54:52.149236,287736,1562519182,1562521089,-1.081408,0.089792,0.080032,9.37125,1.33875,-3.94625,41.616,1.08,59.216003,concentric,3,3.0,21864.0,316040.0,285169.0,334142.0,292612.0
2026-04-07 17:54:52.151710,287737,1562528200,1562529866,-1.06384,0.10736,0.111264,10.43875,0.98875,-3.43,42.152,1.176,59.288002,concentric,3,3.0,21864.0,316040.0,285169.0,334142.0,292612.0
2026-04-07 17:54:52.156678,287738,1562542708,1562544819,-1.06384,0.10736,0.111264,8.98625,1.07625,-2.82625,42.152,1.176,59.288002,concentric,3,3.0,21864.0,316040.0,285169.0,334142.0,292612.0
2026-04-07 17:54:52.186947,287739,1562551648,1562553527,-1.069696,0.10736,0.111264,6.15125,1.09375,-2.66875,42.008003,1.4,56.784004,concentric,3,3.0,21864.0,316040.0,285169.0,334142.0,292612.0
2026-04-07 17:54:52.190467,287740,1562560610,1562562231,-1.069696,0.10736,0.111264,3.84125,0.97125,-2.35375,42.008003,1.4,56.784004,concentric,3,3.0,21864.0,316040.0,285169.0,334142.0,292612.0
2026-04-07 17:54:52.218020,287751,1562575072,1562577585,-1.069696,0.109312,0.091744,2.7125,0.84875,-1.7325,41.912003,0.984,56.912003,concentric,3,3.0,21981.0,316939.0,285911.0,334936.0,293248.0
2026-04-07 17:54:52.224240,287752,1562583999,1562586254,-1.069696,0.109312,0.091744,1.3475,0.5075,-1.26875,41.912003,0.984,56.912003,concentric,3,3.0,21981.0,316939.0,285911.0,334936.0,293248.0
2026-04-07 17:54:52.226718,287753,1562593003,1562595042,-1.065792,0.099552,0.076128,2.10875,0.5425,-1.1725,42.184002,0.632,58.160004,concentric,3,3.0,21981.0,316939.0,285911.0,334936.0,293248.0
2026-04-07 17:54:52.229196,287754,1562601982,1562603743,-1.065792,0.099552,0.076128,3.31625,0.49875,-0.95375,42.184002,0.632,58.160004,concentric,3,3.0,21981.0,316939.0,285911.0,334936.0,293248.0
2026-04-07 17:54:52.234269,287755,1562616506,1562618699,-1.067744,0.111264,0.070272,4.7075,0.6825,-1.47875,42.24,0.848,58.464005,concentric,3,3.0,21981.0,316939.0,285911.0,334936.0,293248.0
2026-04-07 17:54:52.239143,287756,1562625456,1562627451,-1.067744,0.111264,0.070272,5.775,0.91875,-1.855,42.24,0.848,58.464005,concentric,3,3.0,21981.0,316939.0,285911.0,334936.0,293248.0
2026-04-07 17:54:52.289679,287757,1562634371,1562636156,-1.06384,0.109312,0.0976,5.62625,1.07625,-2.205,42.624,0.6,58.144,concentric,3,3.0,21981.0,316939.0,285911.0,334936.0,293248.0
2026-04-07 17:54:52.291807,287758,1562648881,1562651036,-1.057984,0.111264,0.095648,5.10125,1.26,-2.51125,42.736004,0.368,55.320004,concentric,3,3.0,21981.0,316939.0,285911.0,334936.0,293248.0
2026-04-07 17:54:52.297917,287759,1562657787,1562659736,-1.057984,0.111264,0.095648,4.7075,2.10875,-2.8525,42.736004,0.368,55.320004,concentric,3,3.0,21981.0,316939.0,285911.0,334936.0,293248.0
2026-04-07 17:54:52.300463,287760,1562666677,1562668410,-1.057984,0.111264,0.095648,4.24375,2.31,-3.0975,42.736004,0.368,55.320004,concentric,3,3.0,21981.0,316939.0,285911.0,334936.0,293248.0
2026-04-07 17:54:52.329202,287770,1562681454,1562683390,-1.050176,0.115168,0.095648,3.92,2.82625,-3.2375,42.328003,0.944,57.960003,concentric,3,3.0,22118.0,318023.0,286807.0,335888.0,294094.0
2026-04-07 17:54:52.331706,287771,1562690454,1562692155,-1.050176,0.103456,0.083936,3.57875,3.98125,-3.10625,41.800003,0.992,57.128002,concentric,3,3.0,22118.0,318023.0,286807.0,335888.0,294094.0
2026-04-07 17:54:52.334340,287772,1562699490,1562700906,-1.050176,0.103456,0.083936,4.235,4.34875,-3.45625,41.800003,0.992,57.128002,concentric,3,3.0,22118.0,318023.0,286807.0,335888.0,294094.0
2026-04-07 17:54:52.336761,287773,1562708494,1562709631,-1.046272,0.113216,0.08784,4.76,4.83,-3.7975,41.744003,0.864,56.912003,concentric,3,3.0,22118.0,318023.0,286807.0,335888.0,294094.0
2026-04-07 17:54:52.339407,287774,1562722985,1562724559,-1.046272,0.113216,0.08784,4.62875,4.55875,-4.55875,41.744003,0.864,56.912003,concentric,3,3.0,22118.0,318023.0,286807.0,335888.0,294094.0
2026-04-07 17:54:52.347144,287775,1562731906,1562733266,-1.046272,0.119072,0.091744,3.255,4.725,-4.71625,41.976,0.376,58.472004,concentric,3,3.0,22118.0,318023.0,286807.0,335888.0,294094.0
2026-04-07 17:54:52.375755,287776,1562740881,1562741990,-1.046272,0.119072,0.091744,2.23125,4.99625,-3.9375,41.976,0.376,58.472004,concentric,3,3.0,22118.0,318023.0,286807.0,335888.0,294094.0
2026-04-07 17:54:52.380183,287777,1562755349,1562756970,-1.040416,0.0976,0.085888,1.72375,5.425,-3.99,42.184002,1.176,57.232002,concentric,3,3.0,22118.0,318023.0,286807.0,335888.0,294094.0
2026-04-07 17:54:52.381803,287778,1562764238,1562765653,-1.040416,0.0976,0.085888,0.5425,5.04,-4.15625,42.184002,1.176,57.232002,concentric,3,3.0,22118.0,318023.0,286807.0,335888.0,294094.0
2026-04-07 17:54:52.388341,287779,1562773204,1562774343,-1.03456,0.103456,0.103456,1.32125,4.62875,-5.45125,43.216003,0.56,57.032,concentric,3,3.0,22118.0,318023.0,286807.0,335888.0,294094.0
2026-04-07 17:54:52.413495,287789,1562787840,1562789372,-1.03456,0.103456,0.08784,2.31,5.74,-5.53875,43.216003,0.56,57.032,concentric,3,3.0,22325.0,320003.0,288498.0,337779.0,295687.0
2026-04-07 17:54:52.415011,287790,1562796794,1562798145,-1.028704,0.111264,0.08784,1.715,6.23,-5.81,41.848003,0.664,59.728004,concentric,3,3.0,22325.0,320003.0,288498.0,337779.0,295687.0
2026-04-07 17:54:52.421132,287791,1562805730,1562806862,-1.028704,0.111264,0.08784,0.245,6.69375,-5.53875,41.848003,0.664,59.728004,concentric,3,3.0,22325.0,320003.0,288498.0,337779.0,295687.0
2026-04-07 17:54:52.449412,287792,1562820209,1562821767,-1.028704,0.10736,0.095648,-1.54875,7.25375,-5.01375,41.88,0.688,58.672,concentric,3,3.0,22325.0,320003.0,288498.0,337779.0,295687.0
2026-04-07 17:54:52.453931,287793,1562829114,1562830463,-1.022848,0.099552,0.093696,-2.66,7.385,-4.8125,42.792004,0.864,59.432003,concentric,3,3.0,22325.0,320003.0,288498.0,337779.0,295687.0
2026-04-07 17:54:52.455557,287794,1562838040,1562839147,-1.022848,0.099552,0.093696,-2.28375,7.5075,-5.04,42.792004,0.864,59.432003,concentric,3,3.0,22325.0,320003.0,288498.0,337779.0,295687.0
2026-04-07 17:54:52.460936,287795,1562846951,1562847842,-1.022848,0.099552,0.093696,-2.24875,7.4725,-5.9325,42.792004,0.864,59.432003,concentric,3,3.0,22325.0,320003.0,288498.0,337779.0,295687.0
2026-04-07 17:54:52.489378,287796,1562861442,1562862736,-1.050176,0.103456,0.080032,-1.925,7.56,-6.2825,42.672,0.656,56.736004,concentric,3,3.0,22325.0,320003.0,288498.0,337779.0,295687.0
2026-04-07 17:54:52.493055,287797,1562870379,1562871430,-1.05408,0.122976,0.070272,-0.81375,7.3325,-6.50125,42.816,0.32,56.4,concentric,3,3.0,22325.0,320003.0,288498.0,337779.0,295687.0
2026-04-07 17:54:52.524165,287808,1562879815,1562880187,-1.05408,0.122976,0.070272,1.04125,6.3525,-6.44875,42.816,0.32,56.4,concentric,3,3.0,22346.0,320445.0,289003.0,338529.0,296368.0
2026-04-07 17:54:52.526807,287809,1562894671,1562895197,-1.071648,0.134688,0.072224,1.4,5.81,-6.195,42.832,0.424,57.008003,concentric,3,3.0,22346.0,320445.0,289003.0,338529.0,296368.0
2026-04-07 17:54:52.529313,287810,1562904219,1562906001,-1.071648,0.134688,0.072224,0.105,5.775,-5.74875,42.832,0.424,57.008003,concentric,3,3.0,22346.0,320445.0,289003.0,338529.0,296368.0
2026-04-07 17:54:52.531784,287811,1562913266,1562914738,-1.077504,0.113216,0.091744,-0.63875,6.2125,-4.85625,42.208,0.552,58.056004,concentric,3,3.0,22346.0,320445.0,289003.0,338529.0,296368.0
2026-04-07 17:54:52.534253,287812,1562922368,1562923470,-1.077504,0.113216,0.091744,-0.2275,5.10125,-4.5675,42.208,0.552,58.056004,concentric,3,3.0,22346.0,320445.0,289003.0,338529.0,296368.0
2026-04-07 17:54:52.586931,287813,1562936858,1562938412,-1.079456,0.115168,0.101504,0.1575,4.45375,-3.7975,42.608,0.752,58.056004,concentric,3,3.0,22346.0,320445.0,289003.0,338529.0,296368.0
2026-04-07 17:54:52.590466,287814,1562945870,1562947096,-1.079456,0.115168,0.101504,0.28,4.17375,-3.78875,42.608,0.752,58.056004,concentric,3,3.0,22346.0,320445.0,289003.0,338529.0,296368.0
2026-04-07 17:54:52.592929,287815,1562954734,1562955808,-1.079456,0.134688,0.099552,1.53125,3.7275,-3.03625,42.552002,0.664,57.096004,concentric,3,3.0,22346.0,320445.0,289003.0,338529.0,296368.0
2026-04-07 17:54:52.595662,287816,1562969209,1562970675,-1.081408,0.150304,0.070272,1.49625,3.26375,-1.88125,42.552002,0.752,57.24,concentric,3,3.0,22346.0,320445.0,289003.0,338529.0,296368.0
2026-04-07 17:54:52.624146,287826,1562978196,1562979822,-1.081408,0.150304,0.070272,0.1225,3.5,-1.225,42.944,0.752,57.24,concentric,3,3.0,22792.0,324273.0,292136.0,341964.0,299383.0
2026-04-07 17:54:52.626744,287827,1562987291,1562988544,-1.081408,0.150304,0.070272,-1.65375,4.24375,-1.7675,42.944,0.752,57.24,concentric,3,3.0,22792.0,324273.0,292136.0,341964.0,299383.0
2026-04-07 17:54:52.629255,287828,1562996281,1562997367,-1.087264,0.160064,0.064416,-3.71,4.4625,-1.7325,42.248,-0.2,58.152004,concentric,3,3.0,22792.0,324273.0,292136.0,341964.0,299383.0
2026-04-07 17:54:52.631725,287829,1563011030,1563012279,-1.079456,0.1464,0.066368,-5.71375,4.33125,-2.31,43.08,0.512,56.624004,concentric,3,3.0,22792.0,324273.0,292136.0,341964.0,299383.0
2026-04-07 17:54:52.634281,287830,1563019944,1563021023,-1.079456,0.1464,0.066368,-8.09375,4.48,-2.89625,43.08,0.512,56.624004,concentric,3,3.0,22792.0,324273.0,292136.0,341964.0,299383.0
2026-04-07 17:54:52.664435,287831,1563028889,1563029736,-1.079456,0.1464,0.072224,-10.87625,5.60875,-3.77125,43.08,0.512,56.624004,concentric,3,3.0,22792.0,324273.0,292136.0,341964.0,299383.0
2026-04-07 17:54:52.668009,287832,1563043895,1563044705,-1.11264,0.124928,0.072224,-10.73625,6.20375,-5.11,43.544003,0.792,55.632004,concentric,3,3.0,22792.0,324273.0,292136.0,341964.0,299383.0
2026-04-07 17:54:52.670438,287833,1563052808,1563053421,-1.106784,0.11712,0.070272,-8.7675,5.45125,-5.76625,42.624,0.608,56.792004,concentric,3,3.0,22792.0,324273.0,292136.0,341964.0,299383.0
2026-04-07 17:54:52.676149,287834,1563062034,1563064216,-1.106784,0.11712,0.070272,-5.67,4.9,-6.895,42.624,0.608,56.792004,concentric,3,3.0,22792.0,324273.0,292136.0,341964.0,299383.0
2026-04-07 17:54:52.725631,287835,1563071002,1563072910,-1.095072,0.119072,0.083936,-3.33375,5.39,-7.42875,42.760002,0.832,59.024002,concentric,3,3.0,22792.0,324273.0,292136.0,341964.0,299383.0
2026-04-07 17:54:52.751627,287845,1563085580,1563087878,-1.095072,0.119072,0.083936,-2.5375,5.45125,-7.1575,42.760002,0.832,59.024002,concentric,3,3.0,22935.0,325448.0,293177.0,343110.0,300417.0
2026-04-07 17:54:52.754215,287846,1563094472,1563096596,-1.097024,0.119072,0.081984,-2.94875,4.52375,-7.09625,42.952003,0.656,56.592003,concentric,3,3.0,22935.0,325448.0,293177.0,343110.0,300417.0
2026-04-07 17:54:52.757048,287847,1563103390,1563105299,-1.097024,0.119072,0.081984,-4.33125,4.2525,-6.55375,42.952003,0.656,56.592003,concentric,3,3.0,22935.0,325448.0,293177.0,343110.0,300417.0
2026-04-07 17:54:52.759173,287848,1563117873,1563118179,-1.091168,0.113216,0.05856,-5.85375,3.6225,-5.55625,43.104004,0.8,56.936,concentric,3,3.0,22935.0,325448.0,293177.0,343110.0,300417.0
2026-04-07 17:54:52.761708,287849,1563127033,1563128934,-1.091168,0.113216,0.05856,-6.9125,3.59625,-4.4275,43.104004,0.8,56.936,concentric,3,3.0,22935.0,325448.0,293177.0,343110.0,300417.0
2026-04-07 17:54:52.764267,287850,1563136105,1563137711,-1.089216,0.105408,0.070272,-8.04125,3.96375,-3.98125,43.216003,0.904,56.736004,concentric,3,3.0,22935.0,325448.0,293177.0,343110.0,300417.0
2026-04-07 17:54:52.766689,287851,1563145120,1563146436,-1.089216,0.105408,0.070272,-9.03,4.305,-3.91125,43.216003,0.904,56.736004,concentric,3,3.0,22935.0,325448.0,293177.0,343110.0,300417.0
2026-04-07 17:54:52.775610,287852,1563159659,1563161344,-1.085312,0.10736,0.06832,-9.31875,4.17375,-3.64875,42.912003,0.744,56.960003,concentric,3,3.0,22935.0,325448.0,293177.0,343110.0,300417.0
2026-04-07 17:54:52.805688,287853,1563168609,1563170058,-1.085312,0.10736,0.06832,-8.4875,4.0425,-3.49125,42.912003,0.744,56.960003,concentric,3,3.0,22935.0,325448.0,293177.0,343110.0,300417.0
2026-04-07 17:54:52.809170,287854,1563177521,1563178772,-1.071648,0.109312,0.074176,-8.0675,3.47375,-3.64875,42.504,0.992,57.784004,concentric,3,3.0,22935.0,325448.0,293177.0,343110.0,300417.0
2026-04-07 17:54:52.837062,287865,1563192105,1563193703,-1.06384,0.10736,0.074176,-7.86625,3.57,-3.6575,42.912003,1.712,56.992004,concentric,3,3.0,22852.0,324795.0,292607.0,342511.0,299866.0
2026-04-07 17:54:52.839269,287866,1563201044,1563202403,-1.06384,0.10736,0.074176,-7.77,3.77125,-4.22625,42.912003,1.712,56.992004,concentric,3,3.0,22852.0,324795.0,292607.0,342511.0,299866.0
2026-04-07 17:54:52.841752,287867,1563210085,1563211149,-1.06384,0.105408,0.07808,-8.015,4.41,-4.5325,42.912003,1.712,56.992004,concentric,3,3.0,22852.0,324795.0,292607.0,342511.0,299866.0
2026-04-07 17:54:52.844299,287868,1563224644,1563226107,-1.052128,0.105408,0.07808,-8.3475,4.71625,-4.445,43.600002,1.624,58.184002,concentric,3,3.0,22852.0,324795.0,292607.0,342511.0,299866.0
2026-04-07 17:54:52.849468,287869,1563233606,1563234809,-1.069696,0.11712,0.056608,-7.98,5.53875,-4.41875,42.664,1.488,57.536003,concentric,3,3.0,22852.0,324795.0,292607.0,342511.0,299866.0
2026-04-07 17:54:52.855894,287870,1563242564,1563243501,-1.069696,0.11712,0.056608,-6.99125,5.83625,-4.585,42.664,1.488,57.536003,concentric,3,3.0,22852.0,324795.0,292607.0,342511.0,299866.0
2026-04-07 17:54:52.891929,287871,1563257068,1563258388,-1.06384,0.119072,0.070272,-7.23625,6.055,-4.69875,43.072002,1.376,56.936,concentric,3,3.0,22852.0,324795.0,292607.0,342511.0,299866.0
2026-04-07 17:54:52.895458,287872,1563265990,1563267110,-1.06384,0.119072,0.070272,-7.81375,6.475,-5.11,43.072002,1.376,56.936,concentric,3,3.0,22852.0,324795.0,292607.0,342511.0,299866.0
2026-04-07 17:54:52.898238,287873,1563274924,1563275792,-1.071648,0.111264,0.062464,-8.30375,6.65,-5.38125,43.232002,1.528,56.352,concentric,3,3.0,22852.0,324795.0,292607.0,342511.0,299866.0
2026-04-07 17:54:52.922909,287883,1563284356,1563286623,-1.071648,0.111264,0.062464,-7.98875,6.48375,-5.67,43.232002,1.528,56.352,concentric,3,3.0,22723.0,323852.0,291896.0,341802.0,299290.0
2026-04-07 17:54:52.925556,287884,1563298896,1563299475,-1.059936,0.10736,0.06832,-7.23625,6.34375,-6.055,43.272003,1.568,56.768,concentric,3,3.0,22723.0,323852.0,291896.0,341802.0,299290.0
2026-04-07 17:54:52.927984,287885,1563308114,1563310290,-1.059936,0.10736,0.06832,-7.3325,6.46625,-6.405,43.272003,1.568,56.768,concentric,3,3.0,22723.0,323852.0,291896.0,341802.0,299290.0
2026-04-07 17:54:52.930571,287886,1563317041,1563319036,-1.0736,0.103456,0.06832,-7.70875,6.88625,-6.22125,43.424004,1.808,56.656002,concentric,3,3.0,22723.0,323852.0,291896.0,341802.0,299290.0
2026-04-07 17:54:52.960635,287887,1563331530,1563331874,-1.08336,0.10736,0.060512,-6.545,7.455,-5.6525,43.600002,1.84,57.4,concentric,3,3.0,22723.0,323852.0,291896.0,341802.0,299290.0
2026-04-07 17:54:52.964185,287888,1563340755,1563342617,-1.08336,0.10736,0.060512,-4.52375,7.49,-5.55625,43.600002,1.84,57.4,concentric,3,3.0,22723.0,323852.0,291896.0,341802.0,299290.0
2026-04-07 17:54:52.966713,287889,1563349672,1563351344,-1.08336,0.10736,0.060512,-2.91375,7.6475,-5.32,43.600002,1.84,57.4,concentric,3,3.0,22723.0,323852.0,291896.0,341802.0,299290.0
2026-04-07 17:54:52.971688,287890,1563358581,1563360105,-1.085312,0.105408,0.066368,-2.3275,7.735,-4.92625,43.352,1.712,56.056004,concentric,3,3.0,22723.0,323852.0,291896.0,341802.0,299290.0
2026-04-07 17:54:53.002942,287891,1563373079,1563375049,-1.087264,0.101504,0.076128,-3.3075,6.7025,-4.66375,43.440002,1.888,55.864002,concentric,3,3.0,22723.0,323852.0,291896.0,341802.0,299290.0
2026-04-07 17:54:53.036071,287901,1563382055,1563384376,-1.087264,0.101504,0.076128,-2.80875,7.14875,-4.935,43.440002,1.888,55.864002,concentric,3,3.0,22592.0,322704.0,290895.0,340676.0,298303.0
2026-04-07 17:54:53.037717,287902,1563391023,1563393116,-1.087264,0.093696,0.072224,-1.7675,7.07,-4.73375,43.440002,1.888,55.864002,concentric,3,3.0,22592.0,322704.0,290895.0,340676.0,298303.0
2026-04-07 17:54:53.039369,287903,1563405591,1563406057,-1.087264,0.093696,0.072224,-0.6125,7.0525,-5.29375,43.344,1.744,55.344,concentric,3,3.0,22592.0,322704.0,290895.0,340676.0,298303.0
2026-04-07 17:54:53.043480,287904,1563414968,1563416857,-1.081408,0.105408,0.066368,0.6825,6.46625,-5.45125,43.888,1.552,57.776,concentric,3,3.0,22592.0,322704.0,290895.0,340676.0,298303.0
2026-04-07 17:54:53.046174,287905,1563423898,1563425567,-1.081408,0.105408,0.066368,1.6625,6.69375,-5.3725,43.888,1.552,57.776,concentric,3,3.0,22592.0,322704.0,290895.0,340676.0,298303.0
2026-04-07 17:54:53.052145,287906,1563432849,1563434262,-1.095072,0.103456,0.054656,2.275,6.8775,-5.6175,42.824,1.6,57.256004,concentric,3,3.0,22592.0,322704.0,290895.0,340676.0,298303.0
2026-04-07 17:54:53.080842,287907,1563447360,1563449222,-1.095072,0.103456,0.054656,2.80875,7.2975,-6.46625,42.824,1.6,57.256004,concentric,3,3.0,22592.0,322704.0,290895.0,340676.0,298303.0
2026-04-07 17:54:53.085179,287908,1563456224,1563457923,-1.09312,0.10736,0.066368,3.6925,7.035,-6.60625,43.648003,1.264,56.296,concentric,3,3.0,22592.0,322704.0,290895.0,340676.0,298303.0
2026-04-07 17:54:53.086778,287909,1563465119,1563466598,-1.09312,0.10736,0.066368,4.4975,7.595,-6.71125,43.648003,1.264,56.296,concentric,3,3.0,22592.0,322704.0,290895.0,340676.0,298303.0
2026-04-07 17:54:53.116912,287910,1563479651,1563481495,-1.089216,0.10736,0.085888,4.87375,7.51625,-7.4375,43.336002,1.376,56.320004,concentric,3,3.0,22592.0,322704.0,290895.0,340676.0,298303.0
2026-04-07 17:54:53.143037,287920,1563488626,1563490322,-1.089216,0.10736,0.085888,5.22375,7.77875,-7.81375,43.336002,1.376,56.320004,concentric,3,3.0,22586.0,322446.0,290606.0,340271.0,297908.0
2026-04-07 17:54:53.145456,287921,1563497533,1563499011,-1.095072,0.101504,0.081984,5.73125,7.95375,-8.4,43.896004,1.232,56.648003,concentric,3,3.0,22586.0,322446.0,290606.0,340271.0,297908.0
2026-04-07 17:54:53.147931,287922,1563512038,1563513951,-1.095072,0.109312,0.080032,5.85375,7.65625,-7.72625,43.976,1.936,57.472004,concentric,3,3.0,22586.0,322446.0,290606.0,340271.0,297908.0
2026-04-07 17:54:53.150501,287923,1563521005,1563522692,-1.095072,0.109312,0.080032,6.23,7.8575,-7.4375,43.976,1.936,57.472004,concentric,3,3.0,22586.0,322446.0,290606.0,340271.0,297908.0
2026-04-07 17:54:53.186832,287924,1563530050,1563531385,-1.095072,0.109312,0.080032,6.69375,8.68875,-7.69125,43.976,1.936,57.472004,concentric,3,3.0,22586.0,322446.0,290606.0,340271.0,297908.0
2026-04-07 17:54:53.191749,287925,1563544591,1563546313,-1.110688,0.115168,0.080032,6.57125,9.05625,-7.93625,43.632004,1.48,57.432003,concentric,3,3.0,22586.0,322446.0,290606.0,340271.0,297908.0
2026-04-07 17:54:53.194194,287926,1563554278,1563555105,-1.11264,0.119072,0.070272,5.8275,9.1,-8.085,44.120003,1.6,55.744003,concentric,3,3.0,22586.0,322446.0,290606.0,340271.0,297908.0
2026-04-07 17:54:53.196727,287927,1563563221,1563563810,-1.11264,0.119072,0.070272,4.78625,8.68875,-8.72375,44.120003,1.6,55.744003,concentric,3,3.0,22586.0,322446.0,290606.0,340271.0,297908.0
2026-04-07 17:54:53.199208,287928,1563572410,1563574556,-1.114592,0.105408,0.060512,3.07125,8.2775,-8.96875,43.800003,1.48,57.08,concentric,3,3.0,22586.0,322446.0,290606.0,340271.0,297908.0
2026-04-07 17:54:53.231622,287939,1563587121,1563587545,-1.114592,0.105408,0.060512,2.75625,8.225,-9.073751,43.800003,1.48,57.08,concentric,3,3.0,22576.0,322232.0,290371.0,339924.0,297616.0
2026-04-07 17:54:53.234422,287940,1563596457,1563598353,-1.106784,0.08784,0.064416,3.4475,7.245,-8.84625,43.480003,1.592,56.216003,concentric,3,3.0,22576.0,322232.0,290371.0,339924.0,297616.0
2026-04-07 17:54:53.237933,287941,1563605471,1563607113,-1.106784,0.08784,0.064416,6.2825,6.4575,-8.33,43.480003,1.592,56.216003,concentric,3,3.0,22576.0,322232.0,290371.0,339924.0,297616.0
2026-04-07 17:54:53.239211,287942,1563614499,1563615819,-1.09312,0.101504,0.070272,8.18125,6.16,-7.77,44.008003,1.528,55.960003,concentric,3,3.0,22576.0,322232.0,290371.0,339924.0,297616.0
2026-04-07 17:54:53.241808,287943,1563628989,1563630750,-1.09312,0.101504,0.070272,8.79375,4.97,-6.93,44.008003,1.528,55.960003,concentric,3,3.0,22576.0,322232.0,290371.0,339924.0,297616.0
2026-04-07 17:54:53.271863,287944,1563637916,1563639456,-1.110688,0.134688,0.052704,8.3125,5.3725,-6.11625,44.528004,1.28,56.448,concentric,3,3.0,22576.0,322232.0,290371.0,339924.0,297616.0
2026-04-07 17:54:53.275493,287945,1563646829,1563648160,-1.110688,0.134688,0.052704,7.1575,5.27625,-6.1075,44.528004,1.28,56.448,concentric,3,3.0,22576.0,322232.0,290371.0,339924.0,297616.0
2026-04-07 17:54:53.278017,287946,1563661285,1563663039,-1.139968,0.140544,0.085888,6.7725,5.53,-6.5625,44.208004,1.344,56.176003,concentric,3,3.0,22576.0,322232.0,290371.0,339924.0,297616.0
2026-04-07 17:54:53.282908,287947,1563670246,1563671795,-1.139968,0.140544,0.085888,5.495,6.16,-7.58625,44.208004,1.344,56.176003,concentric,3,3.0,22576.0,322232.0,290371.0,339924.0,297616.0
2026-04-07 17:54:53.313188,287948,1563679180,1563680494,-1.198528,0.158112,0.089792,3.4475,6.30875,-8.86375,43.608,1.4,56.784004,concentric,3,3.0,22576.0,322232.0,290371.0,339924.0,297616.0
2026-04-07 17:54:53.347646,287958,1563693723,1563695438,-1.216096,0.152256,0.076128,0.72625,6.37,-9.65125,43.664,1.584,60.08,concentric,3,3.0,22894.0,324794.0,292457.0,342179.0,299740.0
2026-04-07 17:54:53.349173,287959,1563702662,1563704149,-1.216096,0.152256,0.076128,-1.32125,6.51,-10.36875,43.664,1.584,60.08,concentric,3,3.0,22894.0,324794.0,292457.0,342179.0,299740.0
2026-04-07 17:54:53.353561,287960,1563711596,1563712886,-1.216096,0.152256,0.076128,-2.37125,6.01125,-11.89125,43.664,1.584,60.08,concentric,3,3.0,22894.0,324794.0,292457.0,342179.0,299740.0
2026-04-07 17:54:53.355976,287961,1563720533,1563721650,-1.276608,0.115168,0.072224,-2.96625,6.22125,-13.79,44.192,1.632,57.368004,concentric,3,3.0,22894.0,324794.0,292457.0,342179.0,299740.0
2026-04-07 17:54:53.362295,287962,1563735055,1563736660,-1.286368,0.099552,0.050752,-2.49375,6.2125,-14.980001,44.08,1.888,57.256004,concentric,3,3.0,22894.0,324794.0,292457.0,342179.0,299740.0
2026-04-07 17:54:53.363942,287963,1563743977,1563745444,-1.286368,0.099552,0.050752,-0.28875,5.5825,-15.02375,44.08,1.888,57.256004,concentric,3,3.0,22894.0,324794.0,292457.0,342179.0,299740.0
2026-04-07 17:54:53.365481,287964,1563752904,1563754220,-1.301984,0.089792,0.0488,1.96875,5.565,-14.7875,44.08,1.504,55.816,concentric,3,3.0,22894.0,324794.0,292457.0,342179.0,299740.0
2026-04-07 17:54:53.396411,287965,1563767517,1563769125,-1.301984,0.089792,0.0488,4.78625,5.04,-13.658751,43.264004,1.504,55.816,concentric,3,3.0,22894.0,324794.0,292457.0,342179.0,299740.0
2026-04-07 17:54:53.399233,287966,1563776469,1563777811,-1.257088,0.11712,0.072224,8.84625,3.99,-11.62,44.016003,1.592,56.448,concentric,3,3.0,22894.0,324794.0,292457.0,342179.0,299740.0
2026-04-07 17:54:53.434255,287976,1563785996,1563786634,-1.257088,0.11712,0.072224,12.3725,2.5025,-10.77125,44.016003,1.592,56.448,concentric,3,3.0,23049.0,325871.0,293252.0,342923.0,300447.0
2026-04-07 17:54:53.436777,287977,1563795374,1563797442,-1.24928,0.142496,0.07808,14.62125,1.81125,-10.01,43.944,1.768,57.368004,concentric,3,3.0,23049.0,325871.0,293252.0,342923.0,300447.0
2026-04-07 17:54:53.439168,287978,1563809899,1563810328,-1.24928,0.142496,0.07808,12.85375,1.46125,-9.345,43.944,1.768,57.368004,concentric,3,3.0,23049.0,325871.0,293252.0,342923.0,300447.0
2026-04-07 17:54:53.441700,287979,1563819338,1563821113,-1.24928,0.150304,0.06832,8.8375,1.6625,-8.82,44.048,2.176,56.096004,concentric,3,3.0,23049.0,325871.0,293252.0,342923.0,300447.0
2026-04-07 17:54:53.444184,287980,1563828290,1563829832,-1.24928,0.150304,0.06832,5.99375,1.09375,-8.0675,44.048,2.176,56.096004,concentric,3,3.0,23049.0,325871.0,293252.0,342923.0,300447.0
2026-04-07 17:54:53.455509,287981,1563842797,1563844785,-1.241472,0.15616,0.062464,4.76,0.5075,-7.6125,43.2,1.52,57.144,concentric,3,3.0,23049.0,325871.0,293252.0,342923.0,300447.0
2026-04-07 17:54:53.489461,287982,1563851745,1563853515,-1.241472,0.15616,0.062464,4.50625,0.67375,-8.09375,43.2,1.52,57.144,concentric,3,3.0,23049.0,325871.0,293252.0,342923.0,300447.0
2026-04-07 17:54:53.492908,287983,1563860702,1563862212,-1.237568,0.142496,0.072224,4.375,0.04375,-8.21625,43.792004,2.224,56.704002,concentric,3,3.0,23049.0,325871.0,293252.0,342923.0,300447.0
2026-04-07 17:54:53.495468,287984,1563869623,1563870903,-1.237568,0.142496,0.072224,4.7075,-0.1225,-7.86625,43.792004,2.224,56.704002,concentric,3,3.0,23049.0,325871.0,293252.0,342923.0,300447.0
