pc_time,serial_num,sensor_ts,host_ts,ax,ay,az,gx,gy,gz,mx,my,mz,phase,rpe,weight_kg,ppg_a,ppg_b,ppg_c,ppg_d,ppg_e
2026-04-07 17:54:14.859613,280776,1525233736,1525234447,-1.192672,0.111264,0.027328,5.18,4.61125,-4.76,45.4,1.808,54.728004,eccentric,3,3.0,20120.0,299710.0,271155.0,317909.0,279127.0
2026-04-07 17:54:14.863141,280777,1525243137,1525245200,-1.186816,0.115168,0.00976,4.655,4.97,-5.0925,45.712,1.624,54.320004,eccentric,3,3.0,20120.0,299710.0,271155.0,317909.0,279127.0
2026-04-07 17:54:14.866772,280778,1525252074,1525253879,-1.186816,0.115168,0.00976,3.71875,5.18875,-4.8475,45.712,1.624,54.320004,eccentric,3,3.0,20120.0,299710.0,271155.0,317909.0,279127.0
2026-04-07 17:54:14.921908,280789,1525266585,1525269077,-1.175104,0.124928,0.023424,3.99875,5.15375,-4.43625,45.312,1.136,55.360004,eccentric,3,3.0,20180.0,299791.0,271150.0,317853.0,279063.0
2026-04-07 17:54:14.924415,280790,1525275561,1525277797,-1.175104,0.124928,0.023424,4.0075,4.8125,-4.52375,45.312,1.136,55.360004,eccentric,3,3.0,20180.0,299791.0,271150.0,317853.0,279063.0
2026-04-07 17:54:14.927007,280791,1525284482,1525286539,-1.196576,0.128832,0.025376,3.56125,4.90875,-4.68125,45.928,1.488,54.392002,eccentric,3,3.0,20180.0,299791.0,271150.0,317853.0,279063.0
2026-04-07 17:54:14.929424,280792,1525293390,1525295273,-1.196576,0.128832,0.025376,3.5525,4.71625,-4.5325,45.928,1.488,54.392002,eccentric,3,3.0,20180.0,299791.0,271150.0,317853.0,279063.0
2026-04-07 17:54:14.931894,280793,1525307908,1525310205,-1.212192,0.134688,0.007808,3.28125,4.97875,-4.9875,45.592003,1.2,55.648003,eccentric,3,3.0,20180.0,299791.0,271150.0,317853.0,279063.0
2026-04-07 17:54:14.934395,280794,1525316851,1525318970,-1.212192,0.134688,0.007808,1.49625,4.76875,-5.52125,45.592003,1.2,55.648003,eccentric,3,3.0,20180.0,299791.0,271150.0,317853.0,279063.0
2026-04-07 17:54:14.944438,280795,1525325794,1525327708,-1.227808,0.119072,0.005856,1.5575,5.3375,-6.125,44.768,1.136,55.544003,eccentric,3,3.0,20180.0,299791.0,271150.0,317853.0,279063.0
2026-04-07 17:54:15.002953,280796,1525340257,1525340604,-1.227808,0.119072,0.005856,0.8925,4.795,-6.1425,44.768,1.136,55.544003,eccentric,3,3.0,20180.0,299791.0,271150.0,317853.0,279063.0
2026-04-07 17:54:15.003092,280797,1525349558,1525351365,-1.253184,0.122976,0.021472,0.735,4.27,-5.3025,45.000004,1.696,54.696003,eccentric,3,3.0,20180.0,299791.0,271150.0,317853.0,279063.0
2026-04-07 17:54:15.018551,280798,1525358496,1525360109,-1.253184,0.122976,0.021472,0.945,3.85,-5.27625,45.000004,1.696,54.696003,eccentric,3,3.0,20180.0,299791.0,271150.0,317853.0,279063.0
2026-04-07 17:54:15.034550,280808,1525373252,1525375073,-1.255136,0.119072,0.023424,1.05875,3.52625,-5.005,45.04,1.664,54.08,eccentric,3,3.0,20163.0,299746.0,271094.0,317752.0,278972.0
2026-04-07 17:54:15.049225,280809,1525382230,1525383790,-1.266848,0.11712,0.0,-0.21,3.0625,-4.12125,45.112003,2.584,54.352,eccentric,3,3.0,20163.0,299746.0,271094.0,317752.0,278972.0
2026-04-07 17:54:15.049445,280810,1525391161,1525392493,-1.266848,0.11712,0.0,-1.9775,2.73,-3.64,45.112003,2.584,54.352,eccentric,3,3.0,20163.0,299746.0,271094.0,317752.0,278972.0
2026-04-07 17:54:15.049498,280811,1525400182,1525401244,-1.266848,0.11712,0.0,-3.21125,2.1875,-2.8875,45.112003,2.584,54.352,eccentric,3,3.0,20163.0,299746.0,271094.0,317752.0,278972.0
2026-04-07 17:54:15.049535,280812,1525414803,1525416233,-1.257088,0.109312,-0.001952,-4.6025,1.39125,-1.995,45.432003,2.448,53.120003,eccentric,3,3.0,20163.0,299746.0,271094.0,317752.0,278972.0
2026-04-07 17:54:15.049706,280813,1525423884,1525424947,-1.255136,0.115168,0.0,-5.25,0.9975,-1.6275,44.608,2.368,54.168003,eccentric,3,3.0,20163.0,299746.0,271094.0,317752.0,278972.0
2026-04-07 17:54:15.049743,280814,1525432865,1525433647,-1.255136,0.115168,0.0,-5.0925,0.42,-1.70625,44.608,2.368,54.168003,eccentric,3,3.0,20163.0,299746.0,271094.0,317752.0,278972.0
2026-04-07 17:54:15.079107,280815,1525447385,1525449327,-1.247328,0.122976,0.025376,-4.4625,-0.07,-1.63625,45.04,2.152,54.048004,eccentric,3,3.0,20163.0,299746.0,271094.0,317752.0,278972.0
2026-04-07 17:54:15.081967,280816,1525456326,1525458013,-1.247328,0.122976,0.025376,-3.29,-0.35875,-0.74375,45.04,2.152,54.048004,eccentric,3,3.0,20163.0,299746.0,271094.0,317752.0,278972.0
2026-04-07 17:54:15.085067,280817,1525465245,1525466695,-1.237568,0.122976,0.031232,-2.905,-0.4025,-1.07625,44.808002,2.624,53.856003,eccentric,3,3.0,20163.0,299746.0,271094.0,317752.0,278972.0
2026-04-07 17:54:15.111590,280827,1525479870,1525481662,-1.237568,0.122976,0.031232,-3.5,-0.5775,-1.79375,44.808002,2.624,53.856003,eccentric,3,3.0,20247.0,300538.0,271714.0,318397.0,279585.0
2026-04-07 17:54:15.112113,280828,1525488854,1525490380,-1.241472,0.124928,0.001952,-3.4475,-0.69125,-2.66875,44.152,2.64,56.056004,eccentric,3,3.0,20247.0,300538.0,271714.0,318397.0,279585.0
2026-04-07 17:54:15.115059,280829,1525497820,1525499180,-1.241472,0.124928,0.001952,-2.0825,-0.6475,-3.07125,44.152,2.64,56.056004,eccentric,3,3.0,20247.0,300538.0,271714.0,318397.0,279585.0
2026-04-07 17:54:15.118334,280830,1525506744,1525507911,-1.23952,0.115168,-0.003904,-0.55125,-0.72625,-3.6925,44.168003,2.696,54.744003,eccentric,3,3.0,20247.0,300538.0,271714.0,318397.0,279585.0
2026-04-07 17:54:15.148410,280831,1525521224,1525522850,-1.23952,0.115168,-0.003904,1.9775,-1.28625,-4.5325,44.168003,2.696,54.744003,eccentric,3,3.0,20247.0,300538.0,271714.0,318397.0,279585.0
2026-04-07 17:54:15.152118,280832,1525530128,1525531524,-1.243424,0.101504,-0.001952,3.26375,-0.86625,-4.9175,44.648003,2.744,54.160004,eccentric,3,3.0,20247.0,300538.0,271714.0,318397.0,279585.0
2026-04-07 17:54:15.154700,280833,1525539048,1525540321,-1.243424,0.101504,-0.001952,3.98125,-0.86625,-5.565,44.648003,2.744,54.160004,eccentric,3,3.0,20247.0,300538.0,271714.0,318397.0,279585.0
2026-04-07 17:54:15.184693,280834,1525553550,1525555246,-1.22976,0.093696,-0.005856,5.1975,-0.98875,-5.88,45.160004,3.56,53.72,eccentric,3,3.0,20247.0,300538.0,271714.0,318397.0,279585.0
2026-04-07 17:54:15.188199,280835,1525562456,1525563934,-1.22976,0.089792,-0.011712,4.34875,-1.4,-5.69625,45.160004,3.56,53.72,eccentric,3,3.0,20247.0,300538.0,271714.0,318397.0,279585.0
2026-04-07 17:54:15.222072,280846,1525571564,1525572914,-1.225856,0.089792,-0.011712,2.59,-1.6275,-5.74875,44.440002,3.272,54.032,eccentric,3,3.0,20427.0,301726.0,272525.0,319172.0,280114.0
2026-04-07 17:54:15.227006,280847,1525586135,1525588010,-1.206336,0.089792,-0.003904,0.7,-1.47875,-5.04,44.432003,3.04,54.424004,eccentric,3,3.0,20427.0,301726.0,272525.0,319172.0,280114.0
2026-04-07 17:54:15.229415,280848,1525595100,1525596715,-1.206336,0.089792,-0.003904,0.1925,-1.68,-4.0775,44.432003,3.04,54.424004,eccentric,3,3.0,20427.0,301726.0,272525.0,319172.0,280114.0
2026-04-07 17:54:15.231899,280849,1525604032,1525605447,-1.184864,0.0976,-0.005856,0.97125,-1.9425,-3.77125,43.392002,2.984,55.024002,eccentric,3,3.0,20427.0,301726.0,272525.0,319172.0,280114.0
2026-04-07 17:54:15.234722,280850,1525612966,1525614240,-1.184864,0.0976,-0.005856,2.44125,-2.26625,-3.43875,43.392002,2.984,55.024002,eccentric,3,3.0,20427.0,301726.0,272525.0,319172.0,280114.0
2026-04-07 17:54:15.239470,280851,1525627556,1525629231,-1.163392,0.105408,0.0,3.4125,-2.7825,-3.4125,43.344,3.616,53.280003,eccentric,3,3.0,20427.0,301726.0,272525.0,319172.0,280114.0
2026-04-07 17:54:15.295864,280852,1525636460,1525637932,-1.163392,0.105408,0.0,4.12125,-3.01,-3.3425,43.344,3.616,53.280003,eccentric,3,3.0,20427.0,301726.0,272525.0,319172.0,280114.0
2026-04-07 17:54:15.299671,280853,1525645372,1525646607,-1.14192,0.0976,-0.007808,3.57,-3.54375,-3.22875,43.456,3.68,53.352,eccentric,3,3.0,20427.0,301726.0,272525.0,319172.0,280114.0
2026-04-07 17:54:15.302063,280854,1525659854,1525661607,-1.14192,0.0976,-0.007808,3.07125,-3.5175,-3.115,43.456,3.68,53.352,eccentric,3,3.0,20427.0,301726.0,272525.0,319172.0,280114.0
2026-04-07 17:54:15.304483,280855,1525668766,1525670301,-1.08336,0.076128,-0.017568,3.325,-3.98125,-3.71875,43.392002,3.728,53.472004,eccentric,3,3.0,20427.0,301726.0,272525.0,319172.0,280114.0
2026-04-07 17:54:15.329443,280865,1525677724,1525679050,-1.08336,0.076128,-0.017568,5.17125,-4.4975,-4.4625,43.392002,3.728,53.472004,eccentric,3,3.0,20592.0,303204.0,273736.0,320500.0,281231.0
2026-04-07 17:54:15.331873,280866,1525692206,1525693956,-1.04432,0.074176,-0.02928,6.2475,-5.15375,-5.1975,43.512,3.744,52.968002,eccentric,3,3.0,20592.0,303204.0,273736.0,320500.0,281231.0
2026-04-07 17:54:15.334422,280867,1525701109,1525702711,-1.04432,0.074176,-0.02928,7.35875,-5.90625,-5.50375,43.512,3.744,52.968002,eccentric,3,3.0,20592.0,303204.0,273736.0,320500.0,281231.0
2026-04-07 17:54:15.337030,280868,1525710147,1525711494,-1.013088,0.076128,-0.02928,8.44375,-6.43125,-4.585,43.016003,3.488,50.568,eccentric,3,3.0,20592.0,303204.0,273736.0,320500.0,281231.0
2026-04-07 17:54:15.339440,280869,1525724680,1525726468,-0.95648,0.072224,-0.031232,9.1175,-7.30625,-3.57,42.832,3.656,53.192,eccentric,3,3.0,20592.0,303204.0,273736.0,320500.0,281231.0
2026-04-07 17:54:15.345770,280870,1525733609,1525735209,-0.95648,0.072224,-0.031232,9.26625,-8.86375,-2.9225,42.832,3.656,53.192,eccentric,3,3.0,20592.0,303204.0,273736.0,320500.0,281231.0
2026-04-07 17:54:15.375870,280871,1525742560,1525743889,-0.95648,0.072224,-0.031232,8.96,-9.61625,-1.95125,42.832,3.656,53.192,eccentric,3,3.0,20592.0,303204.0,273736.0,320500.0,281231.0
2026-04-07 17:54:15.379660,280872,1525751522,1525752609,-0.911584,0.060512,-0.017568,8.75875,-10.35125,-1.68,42.296,3.568,53.352,eccentric,3,3.0,20592.0,303204.0,273736.0,320500.0,281231.0
2026-04-07 17:54:15.382042,280873,1525766000,1525767499,-0.894016,0.081984,-0.007808,8.995,-11.83,-0.8225,42.640003,3.144,53.552002,eccentric,3,3.0,20592.0,303204.0,273736.0,320500.0,281231.0
2026-04-07 17:54:15.408724,280883,1525775100,1525776210,-0.894016,0.081984,-0.007808,9.59,-13.50125,0.4725,42.640003,3.144,53.552002,eccentric,3,3.0,20648.0,303985.0,274496.0,321365.0,281919.0
2026-04-07 17:54:15.411420,280884,1525784106,1525784995,-0.894016,0.093696,0.001952,9.24,-14.665,1.53125,42.04,3.608,53.128002,eccentric,3,3.0,20648.0,303985.0,274496.0,321365.0,281919.0
2026-04-07 17:54:15.415280,280885,1525798618,1525799953,-0.894016,0.093696,0.001952,7.90125,-15.26875,2.31,42.04,3.608,53.128002,eccentric,3,3.0,20648.0,303985.0,274496.0,321365.0,281919.0
2026-04-07 17:54:15.421200,280886,1525807594,1525808701,-0.882304,0.115168,0.00976,6.755,-15.855001,3.535,42.272003,3.328,53.064003,eccentric,3,3.0,20648.0,303985.0,274496.0,321365.0,281919.0
2026-04-07 17:54:15.449584,280887,1525816556,1525817398,-0.882304,0.115168,0.00976,5.03125,-15.846251,3.31625,42.272003,3.328,53.064003,eccentric,3,3.0,20648.0,303985.0,274496.0,321365.0,281919.0
2026-04-07 17:54:15.454171,280888,1525831037,1525832294,-0.895968,0.109312,0.011712,3.0275,-15.23375,2.4325,42.352,3.688,53.032,eccentric,3,3.0,20648.0,303985.0,274496.0,321365.0,281919.0
2026-04-07 17:54:15.455640,280889,1525839991,1525841014,-0.895968,0.109312,0.011712,1.47,-14.735,1.155,42.352,3.688,53.032,eccentric,3,3.0,20648.0,303985.0,274496.0,321365.0,281919.0
2026-04-07 17:54:15.462612,280890,1525848939,1525849720,-0.880352,0.091744,-0.007808,0.07,-14.27125,-0.21875,41.920002,3.696,53.344,eccentric,3,3.0,20648.0,303985.0,274496.0,321365.0,281919.0
2026-04-07 17:54:15.490955,280891,1525863429,1525864607,-0.880352,0.091744,0.007808,-1.49625,-12.915,-2.0475,41.920002,3.696,53.344,eccentric,3,3.0,20648.0,303985.0,274496.0,321365.0,281919.0
2026-04-07 17:54:15.526869,280902,1525872890,1525873426,-0.88816,0.089792,0.0,-1.65375,-11.6375,-3.6925,41.664,3.616,53.416004,eccentric,3,3.0,20576.0,303434.0,274121.0,321106.0,281790.0
2026-04-07 17:54:15.529482,280903,1525881931,1525882291,-0.88816,0.089792,0.0,-0.90125,-12.1275,-4.6725,41.664,3.616,53.416004,eccentric,3,3.0,20576.0,303434.0,274121.0,321106.0,281790.0
2026-04-07 17:54:15.531922,280904,1525891215,1525893101,-0.872544,0.08784,-0.001952,0.3675,-13.3175,-4.89125,41.144,3.816,53.04,eccentric,3,3.0,20576.0,303434.0,274121.0,321106.0,281790.0
2026-04-07 17:54:15.534422,280905,1525905827,1525908132,-0.876448,0.085888,0.023424,0.1925,-13.3875,-4.83875,40.664,3.28,54.032,eccentric,3,3.0,20576.0,303434.0,274121.0,321106.0,281790.0
2026-04-07 17:54:15.536928,280906,1525914807,1525916836,-0.876448,0.085888,0.023424,0.49,-13.06375,-4.2,40.664,3.28,54.032,eccentric,3,3.0,20576.0,303434.0,274121.0,321106.0,281790.0
2026-04-07 17:54:15.539599,280907,1525923753,1525925691,-0.876448,0.085888,0.007808,0.39375,-13.335,-3.29,40.664,3.28,54.032,eccentric,3,3.0,20576.0,303434.0,274121.0,321106.0,281790.0
2026-04-07 17:54:15.544452,280908,1525932753,1525934428,-0.870592,0.095648,0.0,-0.81375,-12.20625,-3.26375,40.56,3.68,54.120003,eccentric,3,3.0,20576.0,303434.0,274121.0,321106.0,281790.0
2026-04-07 17:54:15.614623,280909,1525947240,1525949325,-0.866688,0.066368,0.01952,-1.435,-11.24375,-3.73625,40.696003,3.784,53.440002,eccentric,3,3.0,20576.0,303434.0,274121.0,321106.0,281790.0
2026-04-07 17:54:15.618366,280910,1525956146,1525958035,-0.866688,0.066368,0.01952,-0.9625,-10.31625,-3.70125,40.696003,3.784,53.440002,eccentric,3,3.0,20576.0,303434.0,274121.0,321106.0,281790.0
2026-04-07 17:54:15.642032,280911,1525965122,1525966725,-0.864736,0.081984,0.037088,1.53125,-10.0275,-4.31375,40.112003,4.168,52.624004,eccentric,3,3.0,20576.0,303434.0,274121.0,321106.0,281790.0
2026-04-07 17:54:15.666849,280921,1525979659,1525981706,-0.864736,0.081984,0.037088,5.18875,-9.2225,-4.4975,40.112003,4.168,52.624004,eccentric,3,3.0,20499.0,302978.0,273813.0,320966.0,281733.0
2026-04-07 17:54:15.669473,280922,1525988580,1525990422,-0.851072,0.08784,0.064416,7.4725,-7.245,-4.73375,41.328003,4.12,53.312004,eccentric,3,3.0,20499.0,302978.0,273813.0,320966.0,281733.0
2026-04-07 17:54:15.671922,280923,1525997568,1525999128,-0.851072,0.08784,0.064416,8.16375,-5.46875,-4.655,41.328003,4.12,53.312004,eccentric,3,3.0,20499.0,302978.0,273813.0,320966.0,281733.0
2026-04-07 17:54:15.674462,280924,1526012075,1526014048,-0.827648,0.091744,0.083936,7.875,-3.64875,-4.4975,40.2,3.904,53.128002,eccentric,3,3.0,20499.0,302978.0,273813.0,320966.0,281733.0
2026-04-07 17:54:15.676974,280925,1526021100,1526022748,-0.827648,0.091744,0.083936,7.3325,-2.0125,-4.94375,40.2,3.904,53.128002,eccentric,3,3.0,20499.0,302978.0,273813.0,320966.0,281733.0
2026-04-07 17:54:15.679500,280926,1526030072,1526031464,-0.821792,0.0976,0.07808,6.90375,-0.37625,-5.27625,40.208,3.752,53.456,eccentric,3,3.0,20499.0,302978.0,273813.0,320966.0,281733.0
2026-04-07 17:54:15.681869,280927,1526044609,1526046421,-0.821792,0.124928,0.0976,6.79,1.0675,-6.23875,40.208,3.752,53.456,eccentric,3,3.0,20499.0,302978.0,273813.0,320966.0,281733.0
2026-04-07 17:54:15.684392,280928,1526053591,1526055187,-0.831552,0.124928,0.0976,5.20625,2.65125,-7.55125,39.504,3.192,55.032,eccentric,3,3.0,20499.0,302978.0,273813.0,320966.0,281733.0
2026-04-07 17:54:15.686903,280929,1526062584,1526063924,-0.831552,0.124928,0.0976,4.03375,4.24375,-8.015,39.504,3.192,55.032,eccentric,3,3.0,20499.0,302978.0,273813.0,320966.0,281733.0
2026-04-07 17:54:15.689366,280930,1526071601,1526072654,-0.860832,0.10736,0.064416,2.35375,5.285,-9.135,39.600002,3.832,54.408,eccentric,3,3.0,20499.0,302978.0,273813.0,320966.0,281733.0
2026-04-07 17:54:15.714804,280940,1526086155,1526087626,-0.89792,0.085888,0.066368,1.645,6.79875,-9.9575,39.032,3.776,53.264004,eccentric,3,3.0,20427.0,302278.0,273231.0,320229.0,281024.0
2026-04-07 17:54:15.716944,280941,1526095086,1526096328,-0.89792,0.085888,0.066368,5.1275,6.755,-10.92,39.032,3.776,53.264004,eccentric,3,3.0,20427.0,302278.0,273231.0,320229.0,281024.0
2026-04-07 17:54:15.719465,280942,1526104049,1526105058,-0.89792,0.085888,0.066368,12.55625,6.30875,-12.01375,39.032,3.776,53.264004,eccentric,3,3.0,20427.0,302278.0,273231.0,320229.0,281024.0
2026-04-07 17:54:15.749646,280943,1526118585,1526119983,-0.90768,0.08784,0.080032,19.6175,5.41625,-12.25875,39.816,3.84,54.432003,eccentric,3,3.0,20427.0,302278.0,273231.0,320229.0,281024.0
2026-04-07 17:54:15.753292,280944,1526127500,1526128719,-0.938912,0.119072,0.121024,22.5925,5.3375,-11.87375,39.992,3.824,53.128002,eccentric,3,3.0,20427.0,302278.0,273231.0,320229.0,281024.0
2026-04-07 17:54:15.755712,280945,1526136407,1526137384,-0.938912,0.119072,0.121024,22.51375,6.04625,-10.64875,39.992,3.824,53.128002,eccentric,3,3.0,20427.0,302278.0,273231.0,320229.0,281024.0
2026-04-07 17:54:15.761905,280946,1526151004,1526152327,-0.940864,0.150304,0.119072,20.2125,6.04625,-9.33625,39.920002,3.424,54.72,eccentric,3,3.0,20427.0,302278.0,273231.0,320229.0,281024.0
2026-04-07 17:54:15.792165,280947,1526159985,1526161025,-0.940864,0.150304,0.119072,16.49375,6.09875,-8.3825,39.920002,3.424,54.72,eccentric,3,3.0,20427.0,302278.0,273231.0,320229.0,281024.0
2026-04-07 17:54:15.795783,280948,1526169004,1526169718,-0.976,0.142496,0.099552,14.21875,6.22125,-7.83125,39.312,3.552,53.416004,eccentric,3,3.0,20427.0,302278.0,273231.0,320229.0,281024.0
2026-04-07 17:54:15.823186,280959,1526178387,1526180516,-0.976,0.142496,0.099552,13.67625,6.92125,-7.49875,39.312,3.552,53.416004,eccentric,3,3.0,20382.0,301803.0,272803.0,319736.0,280613.0
2026-04-07 17:54:15.827469,280960,1526193026,1526193474,-0.987712,0.121024,0.080032,14.41125,7.35,-7.875,40.296,3.28,53.192,eccentric,3,3.0,20382.0,301803.0,272803.0,319736.0,280613.0
2026-04-07 17:54:15.829177,280961,1526202369,1526204261,-0.987712,0.121024,0.080032,18.08625,6.71125,-8.05,40.296,3.28,53.192,eccentric,3,3.0,20382.0,301803.0,272803.0,319736.0,280613.0
2026-04-07 17:54:15.830761,280962,1526211310,1526212976,-0.976,0.158112,0.076128,22.61,6.8425,-8.82,40.416,3.08,54.384003,eccentric,3,3.0,20382.0,301803.0,272803.0,319736.0,280613.0
2026-04-07 17:54:15.834838,280963,1526220279,1526221669,-0.976,0.158112,0.076128,25.515,8.14625,-9.765,40.416,3.08,54.384003,eccentric,3,3.0,20382.0,301803.0,272803.0,319736.0,280613.0
2026-04-07 17:54:15.863538,280964,1526235539,1526236861,-0.997472,0.163968,0.103456,24.03625,9.03875,-10.4475,40.128002,2.624,54.648003,eccentric,3,3.0,20382.0,301803.0,272803.0,319736.0,280613.0
2026-04-07 17:54:15.899333,280965,1526244612,1526245637,-0.997472,0.163968,0.103456,23.09125,9.98375,-10.29875,40.128002,2.624,54.648003,eccentric,3,3.0,20382.0,301803.0,272803.0,319736.0,280613.0
2026-04-07 17:54:15.901637,280966,1526253789,1526254743,-1.016992,0.134688,0.10736,22.960001,10.33375,-9.1875,40.168003,2.776,52.432003,eccentric,3,3.0,20382.0,301803.0,272803.0,319736.0,280613.0
2026-04-07 17:54:15.906321,280967,1526268404,1526269691,-1.040416,0.152256,0.07808,23.31,10.28125,-7.98,40.984,3.184,53.512,eccentric,3,3.0,20382.0,301803.0,272803.0,319736.0,280613.0
2026-04-07 17:54:15.930409,280977,1526278340,1526278972,-1.040416,0.152256,0.07808,22.23375,9.6775,-7.8225,40.984,3.184,53.512,eccentric,3,3.0,20468.0,302304.0,273134.0,320123.0,280996.0
2026-04-07 17:54:15.932860,280978,1526287759,1526289752,-1.016992,0.142496,0.064416,21.805,9.56375,-7.525,40.504,2.368,53.568,eccentric,3,3.0,20468.0,302304.0,273134.0,320123.0,280996.0
2026-04-07 17:54:15.934364,280979,1526296695,1526298466,-1.016992,0.142496,0.064416,21.9275,9.30125,-6.65875,40.504,2.368,53.568,eccentric,3,3.0,20468.0,302304.0,273134.0,320123.0,280996.0
2026-04-07 17:54:15.938890,280980,1526305774,1526307390,-1.016992,0.095648,0.056608,22.1375,8.51375,-6.16875,40.504,2.368,53.568,eccentric,3,3.0,20468.0,302304.0,273134.0,320123.0,280996.0
2026-04-07 17:54:15.940592,280981,1526320402,1526322388,-1.0248,0.10736,0.056608,23.03875,8.5925,-5.41625,40.856003,2.088,53.384003,eccentric,3,3.0,20468.0,302304.0,273134.0,320123.0,280996.0
2026-04-07 17:54:15.942851,280982,1526329340,1526331094,-1.016992,0.105408,0.060512,24.5875,8.505,-4.4975,40.336002,1.632,53.728004,eccentric,3,3.0,20468.0,302304.0,273134.0,320123.0,280996.0
2026-04-07 17:54:15.972126,280983,1526338335,1526339771,-1.016992,0.105408,0.060512,27.3875,8.25125,-3.87625,40.336002,1.632,53.728004,eccentric,3,3.0,20468.0,302304.0,273134.0,320123.0,280996.0
2026-04-07 17:54:15.975724,280984,1526352884,1526354660,-1.028704,0.12688,0.062464,30.1175,8.23375,-3.12375,40.24,1.392,52.008003,eccentric,3,3.0,20468.0,302304.0,273134.0,320123.0,280996.0
2026-04-07 17:54:15.978239,280985,1526361815,1526363394,-1.028704,0.12688,0.062464,31.12375,7.7875,-2.87875,40.24,1.392,52.008003,eccentric,3,3.0,20468.0,302304.0,273134.0,320123.0,280996.0
2026-04-07 17:54:15.983149,280986,1526370748,1526372109,-1.01504,0.132736,0.0488,30.02125,8.0325,-2.24875,40.352,1.224,53.840004,eccentric,3,3.0,20468.0,302304.0,273134.0,320123.0,280996.0
2026-04-07 17:54:16.008099,280996,1526385379,1526387095,-1.01504,0.132736,0.0488,28.74375,8.4875,-2.3975,40.352,1.224,53.840004,eccentric,3,3.0,20627.0,303712.0,274238.0,321282.0,281928.0
2026-04-07 17:54:16.010680,280997,1526394383,1526395791,-1.032608,0.124928,0.037088,28.13125,9.4675,-3.26375,40.112003,0.728,53.944004,eccentric,3,3.0,20627.0,303712.0,274238.0,321282.0,281928.0
2026-04-07 17:54:16.014364,280998,1526403430,1526404485,-1.032608,0.124928,0.037088,28.6825,9.8,-4.5325,40.112003,0.728,53.944004,eccentric,3,3.0,20627.0,303712.0,274238.0,321282.0,281928.0
2026-04-07 17:54:16.044684,280999,1526412380,1526413192,-1.030656,0.144448,0.050752,30.7125,10.167501,-5.55625,40.544003,0.592,54.904003,eccentric,3,3.0,20627.0,303712.0,274238.0,321282.0,281928.0
2026-04-07 17:54:16.048106,281000,1526426820,1526428073,-1.04432,0.140544,0.056608,31.4475,9.948751,-6.13375,42.592003,0.768,52.856003,eccentric,3,3.0,20627.0,303712.0,274238.0,321282.0,281928.0
2026-04-07 17:54:16.050680,281001,1526435729,1526436769,-1.04432,0.140544,0.056608,30.51125,10.43,-6.7725,40.976,0.768,52.856003,eccentric,3,3.0,20627.0,303712.0,274238.0,321282.0,281928.0
2026-04-07 17:54:16.056984,281002,1526444679,1526445486,-1.04432,0.140544,0.056608,29.11125,11.38375,-6.69375,40.976,0.768,52.856003,eccentric,3,3.0,20627.0,303712.0,274238.0,321282.0,281928.0
2026-04-07 17:54:16.088309,281003,1526459168,1526460383,-1.036512,0.130784,0.054656,27.78125,11.97875,-6.5275,40.432003,0.32,53.968002,eccentric,3,3.0,20627.0,303712.0,274238.0,321282.0,281928.0
2026-04-07 17:54:16.092025,281004,1526468036,1526469130,-1.050176,0.130784,0.027328,25.9525,12.8975,-6.92125,41.096,-0.144,54.256004,eccentric,3,3.0,20627.0,303712.0,274238.0,321282.0,281928.0
2026-04-07 17:54:16.121949,281015,1526477372,1526477980,-1.050176,0.130784,0.027328,25.13875,13.4925,-7.2275,41.096,-0.144,54.256004,eccentric,3,3.0,20454.0,302095.0,272911.0,319882.0,280820.0
2026-04-07 17:54:16.124518,281016,1526486654,1526488769,-1.050176,0.13664,0.037088,23.59,13.81625,-7.58625,41.096,-0.144,54.256004,eccentric,3,3.0,20454.0,302095.0,272911.0,319882.0,280820.0
2026-04-07 17:54:16.127016,281017,1526501179,1526501655,-1.046272,0.13664,0.037088,21.6125,13.95625,-7.34125,40.728,-0.528,56.896004,eccentric,3,3.0,20454.0,302095.0,272911.0,319882.0,280820.0
2026-04-07 17:54:16.129453,281018,1526510741,1526512436,-1.05408,0.111264,0.040992,20.50125,13.755,-6.265,41.248,-0.784,55.552002,eccentric,3,3.0,20454.0,302095.0,272911.0,319882.0,280820.0
2026-04-07 17:54:16.131908,281019,1526519674,1526521157,-1.05408,0.111264,0.040992,20.58,13.72,-6.0375,41.248,-0.784,55.552002,eccentric,3,3.0,20454.0,302095.0,272911.0,319882.0,280820.0
2026-04-07 17:54:16.162086,281020,1526534154,1526536065,-1.05408,0.130784,0.040992,21.28,13.97375,-5.74,41.016003,-0.4,55.440002,eccentric,3,3.0,20454.0,302095.0,272911.0,319882.0,280820.0
2026-04-07 17:54:16.165679,281021,1526543063,1526544737,-1.05408,0.130784,0.040992,22.33,13.79875,-5.8275,41.016003,-0.4,55.440002,eccentric,3,3.0,20454.0,302095.0,272911.0,319882.0,280820.0
2026-04-07 17:54:16.202171,281022,1526551971,1526553410,-1.050176,0.144448,0.03904,22.225,13.5625,-5.99375,41.68,-0.12,54.016003,eccentric,3,3.0,20454.0,302095.0,272911.0,319882.0,280820.0
2026-04-07 17:54:16.205689,281023,1526566437,1526568342,-1.050176,0.144448,0.03904,20.4225,14.14875,-5.915,41.68,-0.12,54.016003,eccentric,3,3.0,20454.0,302095.0,272911.0,319882.0,280820.0
2026-04-07 17:54:16.250699,281033,1526575335,1526577028,-1.050176,0.130784,0.037088,18.2525,14.5075,-6.27375,41.576,-0.24,53.352,eccentric,3,3.0,20304.0,300963.0,272040.0,319015.0,280206.0
2026-04-07 17:54:16.253197,281034,1526584666,1526585784,-1.050176,0.130784,0.037088,16.45,15.417501,-7.49875,41.576,-0.24,53.352,eccentric,3,3.0,20304.0,300963.0,272040.0,319015.0,280206.0
2026-04-07 17:54:16.255656,281035,1526593586,1526594495,-1.056032,0.11712,0.0488,15.65375,15.365,-7.39375,41.912003,-1.016,53.744003,eccentric,3,3.0,20304.0,300963.0,272040.0,319015.0,280206.0
2026-04-07 17:54:16.258296,281036,1526608189,1526609411,-1.050176,0.111264,0.095648,15.2775,14.2625,-7.84875,41.776,-1.288,53.264004,eccentric,3,3.0,20304.0,300963.0,272040.0,319015.0,280206.0
2026-04-07 17:54:16.260712,281037,1526617055,1526618138,-1.050176,0.111264,0.095648,13.755,13.30875,-8.33,41.776,-1.288,53.264004,eccentric,3,3.0,20304.0,300963.0,272040.0,319015.0,280206.0
2026-04-07 17:54:16.263317,281038,1526625969,1526626823,-1.050176,0.111264,0.095648,10.99875,12.775,-8.72375,41.776,-1.288,53.264004,eccentric,3,3.0,20304.0,300963.0,272040.0,319015.0,280206.0
2026-04-07 17:54:16.265687,281039,1526640545,1526641886,-1.046272,0.095648,0.109312,7.2275,12.32875,-8.77625,41.752003,-0.704,53.592003,eccentric,3,3.0,20304.0,300963.0,272040.0,319015.0,280206.0
2026-04-07 17:54:16.268185,281040,1526649489,1526650598,-1.048224,0.101504,0.08784,3.17625,10.955,-9.23125,41.600002,-0.752,53.184002,eccentric,3,3.0,20304.0,300963.0,272040.0,319015.0,280206.0
2026-04-07 17:54:16.270648,281041,1526658540,1526659311,-1.048224,0.101504,0.08784,0.51625,9.948751,-8.7675,41.600002,-0.752,53.184002,eccentric,3,3.0,20304.0,300963.0,272040.0,319015.0,280206.0
2026-04-07 17:54:16.300835,281042,1526667922,1526670107,-1.032608,0.122976,0.054656,-0.6475,9.415,-8.47875,41.600002,-0.52,54.376003,eccentric,3,3.0,20304.0,300963.0,272040.0,319015.0,280206.0
2026-04-07 17:54:16.330788,281052,1526682450,1526683031,-1.032608,0.122976,0.054656,-3.4475,9.073751,-8.70625,41.760002,-0.52,54.376003,eccentric,3,3.0,20246.0,300552.0,271793.0,318808.0,280063.0
2026-04-07 17:54:16.341450,281053,1526691644,1526693783,-1.028704,0.130784,0.02928,-7.0875,8.49625,-8.33875,41.968002,-0.496,53.600002,concentric,3,3.0,20246.0,300552.0,271793.0,318808.0,280063.0
2026-04-07 17:54:16.342937,281054,1526700560,1526702495,-1.028704,0.130784,0.02928,-8.81125,8.0675,-7.69125,41.968002,-0.496,53.600002,concentric,3,3.0,20246.0,300552.0,271793.0,318808.0,280063.0
2026-04-07 17:54:16.345387,281055,1526715061,1526715402,-1.01504,0.132736,0.025376,-9.24,6.86875,-7.49,41.832,-0.328,54.656002,concentric,3,3.0,20246.0,300552.0,271793.0,318808.0,280063.0
2026-04-07 17:54:16.346927,281056,1526724334,1526726167,-1.01504,0.132736,0.025376,-9.96625,6.23,-7.49875,41.832,-0.328,54.656002,concentric,3,3.0,20246.0,300552.0,271793.0,318808.0,280063.0
2026-04-07 17:54:16.351092,281057,1526733268,1526734906,-1.0248,0.132736,0.015616,-10.2375,5.8625,-7.88375,42.304,-0.856,53.784004,concentric,3,3.0,20246.0,300552.0,271793.0,318808.0,280063.0
2026-04-07 17:54:16.357014,281058,1526742292,1526743619,-1.0248,0.132736,0.015616,-10.395,5.45125,-7.7175,42.304,-0.856,53.784004,concentric,3,3.0,20246.0,300552.0,271793.0,318808.0,280063.0
2026-04-07 17:54:16.384644,281059,1526756832,1526758553,-1.05408,0.150304,0.001952,-10.52625,5.90625,-8.3125,42.160004,-0.272,53.224003,concentric,3,3.0,20246.0,300552.0,271793.0,318808.0,280063.0
2026-04-07 17:54:16.389188,281060,1526765748,1526767235,-1.05408,0.150304,0.001952,-11.445,6.2825,-8.93375,42.160004,-0.272,53.224003,concentric,3,3.0,20246.0,300552.0,271793.0,318808.0,280063.0
2026-04-07 17:54:16.390697,281061,1526774667,1526775905,-1.050176,0.132736,-0.003904,-12.81,6.1775,-9.073751,42.536003,-0.12,53.016003,concentric,3,3.0,20246.0,300552.0,271793.0,318808.0,280063.0
2026-04-07 17:54:16.419505,281072,1526789287,1526790939,-1.04432,0.101504,0.003904,-13.53625,6.02,-9.56375,42.112003,0.224,55.600002,concentric,3,3.0,20160.0,299945.0,271379.0,318423.0,279758.0
2026-04-07 17:54:16.420861,281073,1526798219,1526799652,-1.04432,0.101504,0.003904,-12.915,5.985,-9.33625,42.112003,0.224,55.600002,concentric,3,3.0,20160.0,299945.0,271379.0,318423.0,279758.0
2026-04-07 17:54:16.424871,281074,1526807242,1526808411,-1.04432,0.101504,0.003904,-11.17375,6.55375,-8.8725,42.112003,0.224,55.600002,concentric,3,3.0,20160.0,299945.0,271379.0,318423.0,279758.0
2026-04-07 17:54:16.453436,281075,1526821842,1526823302,-1.040416,0.091744,0.003904,-10.0275,6.65,-8.65375,42.112003,-0.208,52.344,concentric,3,3.0,20160.0,299945.0,271379.0,318423.0,279758.0
2026-04-07 17:54:16.457955,281076,1526830799,1526832003,-1.03456,0.099552,0.005856,-9.2575,6.195,-7.81375,42.704002,0.192,53.048004,concentric,3,3.0,20160.0,299945.0,271379.0,318423.0,279758.0
2026-04-07 17:54:16.459546,281077,1526839734,1526840691,-1.03456,0.099552,0.005856,-8.225,6.62375,-6.83375,42.704002,0.192,53.048004,concentric,3,3.0,20160.0,299945.0,271379.0,318423.0,279758.0
2026-04-07 17:54:16.499533,281078,1526854283,1526855597,-1.028704,0.119072,0.0,-7.0175,6.50125,-6.0725,42.664,0.536,52.824,concentric,3,3.0,20160.0,299945.0,271379.0,318423.0,279758.0
2026-04-07 17:54:16.500860,281079,1526863214,1526864309,-1.028704,0.119072,0.0,-6.22125,6.51875,-5.5475,42.664,0.536,52.824,concentric,3,3.0,20160.0,299945.0,271379.0,318423.0,279758.0
2026-04-07 17:54:16.504460,281080,1526872281,1526873026,-1.036512,0.140544,0.00976,-6.02,6.545,-5.73125,43.096,1.04,52.296,concentric,3,3.0,20160.0,299945.0,271379.0,318423.0,279758.0
2026-04-07 17:54:16.531961,281090,1526881788,1526882087,-1.036512,0.140544,0.00976,-5.24125,7.04375,-6.2125,43.096,1.04,52.296,concentric,3,3.0,20118.0,299544.0,271017.0,318054.0,279487.0
2026-04-07 17:54:16.534404,281091,1526896645,1526897069,-1.03456,0.1464,0.005856,-5.005,7.525,-7.39375,42.688004,0.456,53.08,concentric,3,3.0,20118.0,299544.0,271017.0,318054.0,279487.0
2026-04-07 17:54:16.536981,281092,1526906005,1526907891,-1.03456,0.1464,0.005856,-5.27625,7.84,-8.12875,42.688004,0.456,53.08,concentric,3,3.0,20118.0,299544.0,271017.0,318054.0,279487.0
2026-04-07 17:54:16.539428,281093,1526915104,1526916676,-1.036512,0.132736,-0.003904,-5.97625,8.49625,-9.1,42.536003,1.088,52.688004,concentric,3,3.0,20118.0,299544.0,271017.0,318054.0,279487.0
2026-04-07 17:54:16.541945,281094,1526924117,1526925400,-1.036512,0.132736,-0.003904,-7.0175,9.16125,-10.12375,42.536003,1.088,52.688004,concentric,3,3.0,20118.0,299544.0,271017.0,318054.0,279487.0
2026-04-07 17:54:16.572122,281095,1526938655,1526940352,-1.032608,0.0976,0.001952,-8.68,10.28125,-10.98125,42.616,0.656,52.464,concentric,3,3.0,20118.0,299544.0,271017.0,318054.0,279487.0
2026-04-07 17:54:16.575678,281096,1526947666,1526949056,-1.032608,0.0976,0.001952,-9.3275,10.77125,-11.40125,42.616,0.656,52.464,concentric,3,3.0,20118.0,299544.0,271017.0,318054.0,279487.0
2026-04-07 17:54:16.578305,281097,1526956610,1526957757,-1.048224,0.080032,-0.005856,-8.75,10.71,-11.64625,42.192,1.024,51.152004,concentric,3,3.0,20118.0,299544.0,271017.0,318054.0,279487.0
2026-04-07 17:54:16.583335,281098,1526971215,1526972689,-1.048224,0.101504,0.001952,-9.05625,10.71,-10.6575,42.848003,0.656,53.864002,concentric,3,3.0,20118.0,299544.0,271017.0,318054.0,279487.0
2026-04-07 17:54:16.618093,281108,1526980877,1526981508,-1.048224,0.101504,0.001952,-9.0125,10.63125,-9.8175,42.848003,0.656,53.864002,concentric,3,3.0,20180.0,300012.0,271385.0,318442.0,279800.0
2026-04-07 17:54:16.620743,281109,1526990161,1526992334,-1.05408,0.101504,-0.00976,-9.35375,10.63125,-9.065,42.784,1.152,52.944004,concentric,3,3.0,20180.0,300012.0,271385.0,318442.0,279800.0
2026-04-07 17:54:16.623147,281110,1526999176,1527001061,-1.05408,0.101504,-0.00976,-12.4075,10.49125,-8.70625,42.784,1.152,52.944004,concentric,3,3.0,20180.0,300012.0,271385.0,318442.0,279800.0
2026-04-07 17:54:16.626991,281111,1527013720,1527015979,-1.056032,0.093696,-0.017568,-14.07,10.4125,-8.89875,43.248,1.648,52.160004,concentric,3,3.0,20180.0,300012.0,271385.0,318442.0,279800.0
2026-04-07 17:54:16.667167,281112,1527022653,1527024680,-1.056032,0.093696,-0.017568,-14.62125,10.94625,-9.17875,43.248,1.648,52.160004,concentric,3,3.0,20180.0,300012.0,271385.0,318442.0,279800.0
2026-04-07 17:54:16.670713,281113,1527031651,1527033372,-1.050176,0.091744,-0.013664,-13.95625,10.5875,-9.730001,43.392002,1.384,52.096,concentric,3,3.0,20180.0,300012.0,271385.0,318442.0,279800.0
2026-04-07 17:54:16.673835,281114,1527040586,1527042098,-1.050176,0.091744,-0.013664,-13.53625,10.42125,-10.14125,43.392002,1.384,52.096,concentric,3,3.0,20180.0,300012.0,271385.0,318442.0,279800.0
2026-04-07 17:54:16.675836,281115,1527055074,1527057018,-1.038464,0.093696,-0.001952,-12.83625,10.10625,-10.08875,43.320004,1.904,52.136,concentric,3,3.0,20180.0,300012.0,271385.0,318442.0,279800.0
2026-04-07 17:54:16.678245,281116,1527064012,1527065751,-1.038464,0.093696,-0.001952,-11.78625,9.87875,-9.1,43.320004,1.904,52.136,concentric,3,3.0,20180.0,300012.0,271385.0,318442.0,279800.0
2026-04-07 17:54:16.708386,281117,1527072924,1527074464,-1.050176,0.093696,0.007808,-10.7975,10.10625,-9.073751,43.56,1.984,51.992,concentric,3,3.0,20180.0,300012.0,271385.0,318442.0,279800.0
2026-04-07 17:54:16.739611,281128,1527087612,1527089402,-1.050176,0.093696,0.007808,-11.36625,10.54375,-9.44125,43.56,1.984,51.992,concentric,3,3.0,20169.0,299823.0,271209.0,318204.0,279550.0
2026-04-07 17:54:16.742027,281129,1527096617,1527098138,-1.0736,0.115168,0.017568,-12.32875,10.4475,-9.80875,43.088,2.048,51.256004,concentric,3,3.0,20169.0,299823.0,271209.0,318204.0,279550.0
2026-04-07 17:54:16.744416,281130,1527105535,1527106924,-1.0736,0.115168,0.017568,-13.4225,9.5725,-9.12625,43.088,2.048,51.256004,concentric,3,3.0,20169.0,299823.0,271209.0,318204.0,279550.0
2026-04-07 17:54:16.747052,281131,1527120067,1527121851,-1.06384,0.076128,0.005856,-14.21,9.63375,-8.53125,42.888,1.608,53.664,concentric,3,3.0,20169.0,299823.0,271209.0,318204.0,279550.0
2026-04-07 17:54:16.749512,281132,1527129064,1527130576,-1.06384,0.076128,0.005856,-13.36125,9.2575,-8.54875,42.888,1.608,53.664,concentric,3,3.0,20169.0,299823.0,271209.0,318204.0,279550.0
2026-04-07 17:54:16.751921,281133,1527137994,1527139302,-1.065792,0.070272,0.013664,-10.87625,8.2425,-8.32125,42.536003,1.736,54.24,concentric,3,3.0,20169.0,299823.0,271209.0,318204.0,279550.0
2026-04-07 17:54:16.797056,281134,1527152610,1527154265,-1.048224,0.093696,0.01952,-7.105,7.0,-8.32125,42.768,2.16,51.616,concentric,3,3.0,20169.0,299823.0,271209.0,318204.0,279550.0
2026-04-07 17:54:16.799506,281135,1527161627,1527162971,-1.048224,0.093696,0.01952,-3.675,6.3175,-7.77,42.768,2.16,51.616,concentric,3,3.0,20169.0,299823.0,271209.0,318204.0,279550.0
2026-04-07 17:54:16.801936,281136,1527170560,1527171660,-1.042368,0.093696,0.021472,-3.0975,6.02875,-6.72,43.88,2.432,53.608,concentric,3,3.0,20169.0,299823.0,271209.0,318204.0,279550.0
2026-04-07 17:54:16.826875,281146,1527179876,1527180310,-1.042368,0.093696,0.021472,-3.5875,5.46,-5.48625,43.88,2.432,53.608,concentric,3,3.0,20153.0,299595.0,271011.0,317998.0,279377.0
2026-04-07 17:54:16.829401,281147,1527194905,1527195301,-1.038464,0.089792,0.021472,-4.2,5.03125,-4.5675,43.576,2.512,51.320004,concentric,3,3.0,20153.0,299595.0,271011.0,317998.0,279377.0
2026-04-07 17:54:16.831894,281148,1527204232,1527206140,-1.038464,0.089792,0.021472,-3.33375,4.80375,-4.1475,43.576,2.512,51.320004,concentric,3,3.0,20153.0,299595.0,271011.0,317998.0,279377.0
2026-04-07 17:54:16.834534,281149,1527213202,1527214842,-1.050176,0.10736,0.00976,-2.7125,4.55,-4.305,43.016003,2.08,52.824,concentric,3,3.0,20153.0,299595.0,271011.0,317998.0,279377.0
2026-04-07 17:54:16.836966,281150,1527222168,1527223547,-1.050176,0.10736,0.00976,-2.24875,4.6025,-4.89125,43.016003,2.08,52.824,concentric,3,3.0,20153.0,299595.0,271011.0,317998.0,279377.0
2026-04-07 17:54:16.900999,281151,1527236683,1527238537,-1.06384,0.115168,0.007808,-2.31875,4.71625,-4.655,43.624,1.832,52.960003,concentric,3,3.0,20153.0,299595.0,271011.0,317998.0,279377.0
2026-04-07 17:54:16.904937,281152,1527245585,1527247223,-1.06384,0.115168,0.007808,-2.37125,4.83,-4.99625,43.624,1.832,52.960003,concentric,3,3.0,20153.0,299595.0,271011.0,317998.0,279377.0
2026-04-07 17:54:16.906948,281153,1527254491,1527255906,-1.04432,0.095648,-0.007808,-2.4325,3.63125,-5.52125,43.992,1.904,51.488003,concentric,3,3.0,20153.0,299595.0,271011.0,317998.0,279377.0
2026-04-07 17:54:16.909404,281154,1527268996,1527270790,-1.04432,0.095648,-0.007808,-2.275,3.33375,-6.195,43.992,1.904,51.488003,concentric,3,3.0,20153.0,299595.0,271011.0,317998.0,279377.0
2026-04-07 17:54:16.934384,281164,1527277915,1527279885,-1.026752,0.076128,-0.01952,-1.96875,3.45625,-6.5275,43.744003,2.552,52.408,concentric,3,3.0,20213.0,300149.0,271436.0,318435.0,279710.0
2026-04-07 17:54:16.936974,281165,1527286869,1527288608,-1.026752,0.076128,-0.01952,-0.945,3.01,-6.32625,43.744003,2.552,52.408,concentric,3,3.0,20213.0,300149.0,271436.0,318435.0,279710.0
2026-04-07 17:54:16.939448,281166,1527301377,1527303547,-1.020896,0.076128,-0.01952,0.49,2.19625,-5.94125,44.056004,2.616,51.584003,concentric,3,3.0,20213.0,300149.0,271436.0,318435.0,279710.0
2026-04-07 17:54:16.941926,281167,1527310341,1527312299,-1.020896,0.12688,-0.005856,0.86625,1.72375,-5.215,44.056004,2.616,51.584003,concentric,3,3.0,20213.0,300149.0,271436.0,318435.0,279710.0
2026-04-07 17:54:16.944419,281168,1527319457,1527321015,-1.042368,0.12688,-0.005856,1.56625,0.77875,-4.0075,44.4,2.56,51.016003,concentric,3,3.0,20213.0,300149.0,271436.0,318435.0,279710.0
2026-04-07 17:54:16.946968,281169,1527328441,1527329748,-1.042368,0.12688,-0.005856,1.26,-0.035,-2.8525,44.4,2.56,51.016003,concentric,3,3.0,20213.0,300149.0,271436.0,318435.0,279710.0
2026-04-07 17:54:16.977113,281170,1527342962,1527344683,-1.056032,0.132736,-0.01952,-1.58375,0.41125,-3.28125,43.536003,2.624,52.104004,concentric,3,3.0,20213.0,300149.0,271436.0,318435.0,279710.0
2026-04-07 17:54:16.980852,281171,1527351962,1527353368,-1.059936,0.093696,-0.027328,-3.675,-0.28875,-3.4825,43.872,2.512,51.208004,concentric,3,3.0,20213.0,300149.0,271436.0,318435.0,279710.0
2026-04-07 17:54:16.983310,281172,1527360865,1527362032,-1.059936,0.093696,-0.027328,-3.045,-1.05875,-3.73625,43.872,2.512,51.208004,concentric,3,3.0,20213.0,300149.0,271436.0,318435.0,279710.0
2026-04-07 17:54:16.987051,281173,1527375322,1527377021,-1.061888,0.095648,-0.015616,0.2275,-0.98875,-4.54125,43.56,2.344,52.304,concentric,3,3.0,20213.0,300149.0,271436.0,318435.0,279710.0
2026-04-07 17:54:17.014530,281184,1527384421,1527385847,-1.061888,0.095648,-0.015616,3.89375,-1.645,-5.46875,43.56,2.344,52.304,concentric,3,3.0,20213.0,300119.0,271421.0,318391.0,279645.0
2026-04-07 17:54:17.016914,281185,1527393469,1527394580,-1.048224,0.099552,-0.017568,6.88625,-1.9775,-5.92375,43.928,1.976,52.392002,concentric,3,3.0,20213.0,300119.0,271421.0,318391.0,279645.0
2026-04-07 17:54:17.022046,281186,1527407997,1527409469,-1.048224,0.099552,-0.017568,7.525,-2.31875,-5.24125,43.928,1.976,52.392002,concentric,3,3.0,20213.0,300119.0,271421.0,318391.0,279645.0
2026-04-07 17:54:17.028283,281187,1527416924,1527418166,-1.06384,0.109312,-0.003904,6.685,-2.16125,-4.6725,43.888,1.72,52.184002,concentric,3,3.0,20213.0,300119.0,271421.0,318391.0,279645.0
2026-04-07 17:54:17.059495,281188,1527425850,1527426902,-1.06384,0.109312,-0.003904,5.20625,-1.9775,-4.29625,43.888,1.72,52.184002,concentric,3,3.0,20213.0,300119.0,271421.0,318391.0,279645.0
2026-04-07 17:54:17.061694,281189,1527434768,1527435607,-1.069696,0.111264,-0.011712,4.235,-1.49625,-4.025,43.448,1.928,52.56,concentric,3,3.0,20213.0,300119.0,271421.0,318391.0,279645.0
2026-04-07 17:54:17.066512,281190,1527449214,1527450473,-1.069696,0.111264,-0.011712,3.5175,-1.715,-3.75375,43.448,1.928,52.56,concentric,3,3.0,20213.0,300119.0,271421.0,318391.0,279645.0
2026-04-07 17:54:17.101997,281191,1527458197,1527459258,-1.087264,0.134688,-0.003904,3.61375,-1.61,-4.20875,43.648003,2.424,53.08,concentric,3,3.0,20213.0,300119.0,271421.0,318391.0,279645.0
2026-04-07 17:54:17.104417,281192,1527467128,1527467950,-1.087264,0.134688,-0.003904,3.5525,-1.6975,-4.3225,43.648003,2.424,53.08,concentric,3,3.0,20213.0,300119.0,271421.0,318391.0,279645.0
2026-04-07 17:54:17.129392,281202,1527481881,1527483230,-1.08336,0.11712,-0.017568,2.84375,-0.91,-4.38375,43.416,2.344,52.472004,concentric,3,3.0,20183.0,299915.0,271230.0,318085.0,279343.0
2026-04-07 17:54:17.131915,281203,1527490901,1527491950,-1.08336,0.11712,-0.017568,2.54625,-0.65625,-4.73375,43.416,2.344,52.472004,concentric,3,3.0,20183.0,299915.0,271230.0,318085.0,279343.0
2026-04-07 17:54:17.134365,281204,1527499846,1527500769,-1.059936,0.08784,-0.017568,3.38625,-0.63875,-4.7425,43.384003,2.312,52.304,concentric,3,3.0,20183.0,299915.0,271230.0,318085.0,279343.0
2026-04-07 17:54:17.136964,281205,1527514375,1527515734,-1.071648,0.095648,-0.005856,4.2875,-0.1925,-4.78625,43.392002,1.304,53.928,concentric,3,3.0,20183.0,299915.0,271230.0,318085.0,279343.0
2026-04-07 17:54:17.139629,281206,1527523307,1527524457,-1.071648,0.095648,-0.005856,5.0225,-0.00875,-4.5325,43.392002,1.304,53.928,concentric,3,3.0,20183.0,299915.0,271230.0,318085.0,279343.0
2026-04-07 17:54:17.144510,281207,1527532252,1527533159,-1.081408,0.12688,-0.003904,5.85375,-0.315,-3.50875,43.216003,1.784,53.56,concentric,3,3.0,20183.0,299915.0,271230.0,318085.0,279343.0
2026-04-07 17:54:17.174636,281208,1527546712,1527548133,-1.081408,0.12688,-0.003904,5.1975,-0.8225,-2.275,43.216003,1.784,53.56,concentric,3,3.0,20183.0,299915.0,271230.0,318085.0,279343.0
2026-04-07 17:54:17.178202,281209,1527555618,1527556882,-1.09312,0.130784,-0.005856,3.8675,-0.98875,-1.42625,43.52,2.192,53.000004,concentric,3,3.0,20183.0,299915.0,271230.0,318085.0,279343.0
2026-04-07 17:54:17.180691,281210,1527564538,1527565623,-1.09312,0.130784,-0.005856,1.89875,-1.4525,-1.84625,43.52,2.192,53.000004,concentric,3,3.0,20183.0,299915.0,271230.0,318085.0,279343.0
2026-04-07 17:54:17.185701,281211,1527573431,1527574319,-1.120448,0.105408,-0.021472,0.98875,-1.82,-2.51125,43.744003,1.64,51.072002,concentric,3,3.0,20183.0,299915.0,271230.0,318085.0,279343.0
2026-04-07 17:54:17.214442,281221,1527587976,1527589360,-1.120448,0.105408,-0.021472,1.89875,-2.38,-3.465,43.744003,1.64,51.072002,concentric,3,3.0,20083.0,299001.0,270491.0,317314.0,278707.0
2026-04-07 17:54:17.216924,281222,1527596902,1527598079,-1.1224,0.0976,-0.023424,4.06875,-3.07125,-4.305,43.536003,1.664,54.296,concentric,3,3.0,20083.0,299001.0,270491.0,317314.0,278707.0
2026-04-07 17:54:17.219680,281223,1527605855,1527606840,-1.1224,0.0976,-0.023424,6.41375,-3.84125,-4.8825,43.536003,1.664,54.296,concentric,3,3.0,20083.0,299001.0,270491.0,317314.0,278707.0
2026-04-07 17:54:17.249676,281224,1527620365,1527621758,-1.120448,0.113216,-0.001952,6.895,-4.26125,-5.005,42.68,0.872,55.408,concentric,3,3.0,20083.0,299001.0,270491.0,317314.0,278707.0
2026-04-07 17:54:17.253285,281225,1527629286,1527630449,-1.120448,0.113216,-0.001952,5.83625,-5.04875,-5.215,42.68,0.872,55.408,concentric,3,3.0,20083.0,299001.0,270491.0,317314.0,278707.0
2026-04-07 17:54:17.255599,281226,1527638194,1527639147,-1.104832,0.113216,0.005856,3.2725,-5.18875,-4.76875,42.752003,1.752,53.456,concentric,3,3.0,20083.0,299001.0,270491.0,317314.0,278707.0
2026-04-07 17:54:17.285840,281227,1527652746,1527654029,-1.118496,0.101504,0.011712,0.42875,-5.22375,-4.9175,43.568,1.592,53.160004,concentric,3,3.0,20083.0,299001.0,270491.0,317314.0,278707.0
2026-04-07 17:54:17.289418,281228,1527661709,1527662749,-1.118496,0.101504,0.011712,-0.77875,-4.34875,-4.4275,43.568,1.592,53.160004,concentric,3,3.0,20083.0,299001.0,270491.0,317314.0,278707.0
2026-04-07 17:54:17.291950,281229,1527670616,1527671442,-1.118496,0.101504,0.011712,-0.1575,-4.725,-4.05125,43.568,1.592,53.160004,concentric,3,3.0,20083.0,299001.0,270491.0,317314.0,278707.0
2026-04-07 17:54:17.319451,281240,1527685442,1527686389,-1.120448,0.132736,0.007808,-0.5075,-4.94375,-4.095,43.24,1.536,53.296,concentric,3,3.0,19903.0,297349.0,269119.0,315810.0,277310.0
2026-04-07 17:54:17.321951,281241,1527694477,1527695211,-1.124352,0.124928,-0.013664,-1.4875,-4.24375,-3.96375,42.336002,1.472,55.056004,concentric,3,3.0,19903.0,297349.0,269119.0,315810.0,277310.0
2026-04-07 17:54:17.324471,281242,1527703866,1527706034,-1.124352,0.124928,-0.013664,-3.045,-4.445,-3.29,42.336002,1.472,55.056004,concentric,3,3.0,19903.0,297349.0,269119.0,315810.0,277310.0
2026-04-07 17:54:17.327007,281243,1527712816,1527714740,-1.120448,0.099552,0.003904,-3.57875,-4.50625,-3.535,42.672,1.704,54.752003,concentric,3,3.0,19903.0,297349.0,269119.0,315810.0,277310.0
2026-04-07 17:54:17.357113,281244,1527727340,1527729640,-1.120448,0.099552,0.003904,-2.0475,-4.0075,-3.99875,42.672,1.704,54.752003,concentric,3,3.0,19903.0,297349.0,269119.0,315810.0,277310.0
2026-04-07 17:54:17.360627,281245,1527736263,1527738317,-1.104832,0.105408,0.011712,0.04375,-4.655,-4.13,43.568,2.12,53.736004,concentric,3,3.0,19903.0,297349.0,269119.0,315810.0,277310.0
2026-04-07 17:54:17.363189,281246,1527745192,1527747038,-1.104832,0.105408,0.011712,1.5575,-5.18875,-4.795,43.568,2.12,53.736004,concentric,3,3.0,19903.0,297349.0,269119.0,315810.0,277310.0
2026-04-07 17:54:17.398552,281247,1527759824,1527761947,-1.085312,0.10736,0.021472,2.2575,-5.3025,-4.235,42.640003,1.976,54.664,concentric,3,3.0,19903.0,297349.0,269119.0,315810.0,277310.0
2026-04-07 17:54:17.401895,281248,1527768756,1527770654,-1.085312,0.10736,0.021472,1.785,-5.03125,-3.3775,42.640003,1.976,54.664,concentric,3,3.0,19903.0,297349.0,269119.0,315810.0,277310.0
2026-04-07 17:54:17.404434,281249,1527777713,1527779346,-1.075552,0.0976,0.015616,0.86625,-4.61125,-2.765,42.592003,1.984,53.896004,concentric,3,3.0,19903.0,297349.0,269119.0,315810.0,277310.0
2026-04-07 17:54:17.436113,281259,1527786830,1527788093,-1.075552,0.0976,0.015616,0.175,-3.745,-2.49375,42.592003,1.984,53.896004,concentric,3,3.0,19923.0,297481.0,269243.0,315954.0,277442.0
2026-04-07 17:54:17.439464,281260,1527801374,1527803058,-1.069696,0.105408,0.031232,0.0175,-3.6925,-2.35375,43.176003,1.8,54.304,concentric,3,3.0,19923.0,297481.0,269243.0,315954.0,277442.0
2026-04-07 17:54:17.446862,281261,1527810410,1527811794,-1.069696,0.105408,0.031232,0.39375,-3.36,-2.17,43.176003,1.8,54.304,concentric,3,3.0,19923.0,297481.0,269243.0,315954.0,277442.0
2026-04-07 17:54:17.449372,281262,1527819416,1527820614,-1.065792,0.105408,0.02928,0.175,-3.4825,-2.02125,42.336002,1.304,54.144,concentric,3,3.0,19923.0,297481.0,269243.0,315954.0,277442.0
2026-04-07 17:54:17.451945,281263,1527833934,1527835539,-1.046272,0.083936,0.025376,-0.1575,-2.87875,-1.74125,42.896004,1.736,55.912003,concentric,3,3.0,19923.0,297481.0,269243.0,315954.0,277442.0
2026-04-07 17:54:17.456860,281264,1527842931,1527844294,-1.046272,0.083936,0.025376,-0.9975,-2.52,-1.53125,42.896004,1.736,55.912003,concentric,3,3.0,19923.0,297481.0,269243.0,315954.0,277442.0
2026-04-07 17:54:17.487218,281265,1527851920,1527853031,-1.046272,0.083936,0.025376,-0.9975,-2.1875,-1.7675,42.896004,1.736,55.912003,concentric,3,3.0,19923.0,297481.0,269243.0,315954.0,277442.0
2026-04-07 17:54:17.490658,281266,1527860878,1527861740,-1.040416,0.056608,0.021472,-1.0675,-2.2225,-2.2225,42.768,1.448,54.904003,concentric,3,3.0,19923.0,297481.0,269243.0,315954.0,277442.0
2026-04-07 17:54:17.493186,281267,1527875389,1527876621,-1.0248,0.083936,0.025376,1.07625,-3.66625,-2.345,42.864002,1.032,54.296,concentric,3,3.0,19923.0,297481.0,269243.0,315954.0,277442.0
2026-04-07 17:54:17.518133,281277,1527884846,1527885486,-1.0248,0.083936,0.025376,3.49125,-5.2325,-2.0475,42.864002,1.032,54.296,concentric,3,3.0,19809.0,296648.0,268634.0,315392.0,276895.0
2026-04-07 17:54:17.520641,281278,1527894242,1527896406,-1.028704,0.128832,0.050752,4.20875,-4.87375,-1.88125,42.448,1.24,56.592003,concentric,3,3.0,19809.0,296648.0,268634.0,315392.0,276895.0
2026-04-07 17:54:17.523133,281279,1527908799,1527909273,-1.028704,0.128832,0.050752,3.00125,-4.6025,-1.42625,42.448,1.24,56.592003,concentric,3,3.0,19809.0,296648.0,268634.0,315392.0,276895.0
2026-04-07 17:54:17.553509,281280,1527918239,1527920123,-1.028704,0.121024,0.0488,-0.58625,-4.0775,-1.785,41.904003,1.36,56.664,concentric,3,3.0,19809.0,296648.0,268634.0,315392.0,276895.0
2026-04-07 17:54:17.557546,281281,1527927225,1527928819,-1.028704,0.121024,0.0488,-3.815,-3.22,-2.37125,41.904003,1.36,56.664,concentric,3,3.0,19809.0,296648.0,268634.0,315392.0,276895.0
2026-04-07 17:54:17.559395,281282,1527936140,1527937542,-1.04432,0.121024,0.046848,-4.6025,-2.6075,-4.2,42.600002,1.384,54.744003,concentric,3,3.0,19809.0,296648.0,268634.0,315392.0,276895.0
2026-04-07 17:54:17.561925,281283,1527950634,1527952458,-1.04432,0.121024,0.046848,-4.71625,-2.1175,-5.76625,42.600002,1.384,54.744003,concentric,3,3.0,19809.0,296648.0,268634.0,315392.0,276895.0
2026-04-07 17:54:17.592161,281284,1527959616,1527961184,-1.05408,0.122976,0.05856,-5.1625,-1.81125,-6.83375,42.688004,1.344,54.528004,concentric,3,3.0,19809.0,296648.0,268634.0,315392.0,276895.0
2026-04-07 17:54:17.595816,281285,1527968533,1527969881,-1.05408,0.122976,0.05856,-7.67375,-1.05875,-7.30625,42.688004,1.344,54.528004,concentric,3,3.0,19809.0,296648.0,268634.0,315392.0,276895.0
2026-04-07 17:54:17.623258,281296,1527983023,1527984738,-1.069696,0.103456,0.03904,-9.40625,-0.0175,-8.05875,42.424004,1.752,54.488003,concentric,3,3.0,19529.0,294602.0,267149.0,313982.0,275550.0
2026-04-07 17:54:17.625695,281297,1527992427,1527993540,-1.069696,0.103456,0.03904,-9.4325,0.18375,-8.085,42.424004,1.752,54.488003,concentric,3,3.0,19529.0,294602.0,267149.0,313982.0,275550.0
2026-04-07 17:54:17.628208,281298,1528001517,1528002313,-1.077504,0.089792,0.040992,-8.2425,-0.21875,-9.05625,42.24,1.76,55.896004,concentric,3,3.0,19529.0,294602.0,267149.0,313982.0,275550.0
2026-04-07 17:54:17.630663,281299,1528010453,1528011018,-1.077504,0.089792,0.040992,-8.89875,0.37625,-10.29875,42.24,1.76,55.896004,concentric,3,3.0,19529.0,294602.0,267149.0,313982.0,275550.0
2026-04-07 17:54:17.639492,281300,1528025224,1528025977,-1.069696,0.103456,0.052704,-10.01,0.67375,-9.63375,42.480003,1.624,55.816,concentric,3,3.0,19529.0,294602.0,267149.0,313982.0,275550.0
2026-04-07 17:54:17.695869,281301,1528034712,1528036790,-1.081408,0.111264,0.060512,-12.06625,0.93625,-8.67125,43.016003,1.784,54.120003,concentric,3,3.0,19529.0,294602.0,267149.0,313982.0,275550.0
2026-04-07 17:54:17.699667,281302,1528043639,1528045477,-1.081408,0.111264,0.060512,-14.14875,0.9625,-7.98875,43.016003,1.784,54.120003,concentric,3,3.0,19529.0,294602.0,267149.0,313982.0,275550.0
2026-04-07 17:54:17.705792,281303,1528052588,1528054147,-1.081408,0.111264,0.060512,-15.2425,1.04125,-6.7725,43.016003,1.784,54.120003,concentric,3,3.0,19529.0,294602.0,267149.0,313982.0,275550.0
2026-04-07 17:54:17.708179,281304,1528067128,1528069044,-1.0736,0.124928,0.05856,-16.616251,1.12,-6.5975,42.072002,2.664,54.776,concentric,3,3.0,19529.0,294602.0,267149.0,313982.0,275550.0
2026-04-07 17:54:17.710667,281305,1528076029,1528077747,-1.077504,0.11712,0.05856,-18.05125,1.5575,-6.6325,41.984,2.464,54.440002,concentric,3,3.0,19529.0,294602.0,267149.0,313982.0,275550.0
2026-04-07 17:54:17.741871,281315,1528085238,1528086582,-1.077504,0.11712,0.05856,-19.95,1.995,-6.83375,41.984,2.464,54.440002,concentric,3,3.0,19393.0,293428.0,266299.0,313126.0,274732.0
2026-04-07 17:54:17.744589,281316,1528099780,1528101496,-1.0736,0.115168,0.03904,-21.0525,2.4675,-7.4025,42.168003,2.52,55.624004,concentric,3,3.0,19393.0,293428.0,266299.0,313126.0,274732.0
2026-04-07 17:54:17.746967,281317,1528108760,1528110290,-1.0736,0.115168,0.03904,-21.3675,2.00375,-7.76125,42.168003,2.52,55.624004,concentric,3,3.0,19393.0,293428.0,266299.0,313126.0,274732.0
2026-04-07 17:54:17.749375,281318,1528117696,1528118976,-1.056032,0.103456,0.021472,-21.88375,1.8025,-8.295,41.864002,3.144,54.384003,concentric,3,3.0,19393.0,293428.0,266299.0,313126.0,274732.0
2026-04-07 17:54:17.751920,281319,1528132226,1528133929,-1.056032,0.103456,0.021472,-22.2075,2.1525,-9.17,41.864002,3.144,54.384003,concentric,3,3.0,19393.0,293428.0,266299.0,313126.0,274732.0
2026-04-07 17:54:17.754413,281320,1528141228,1528142655,-1.059936,0.093696,0.033184,-21.77,1.96,-9.40625,41.912003,2.632,55.640003,concentric,3,3.0,19393.0,293428.0,266299.0,313126.0,274732.0
2026-04-07 17:54:17.784604,281321,1528150216,1528151406,-1.059936,0.093696,0.033184,-21.07875,1.89875,-9.30125,41.912003,2.632,55.640003,concentric,3,3.0,19393.0,293428.0,266299.0,313126.0,274732.0
2026-04-07 17:54:17.788219,281322,1528159120,1528160146,-1.057984,0.10736,0.03904,-20.06375,1.5925,-9.03875,42.608,3.288,54.944004,concentric,3,3.0,19393.0,293428.0,266299.0,313126.0,274732.0
2026-04-07 17:54:17.790670,281323,1528173580,1528175043,-1.057984,0.10736,0.03904,-19.460001,1.58375,-8.75,42.608,3.288,54.944004,concentric,3,3.0,19393.0,293428.0,266299.0,313126.0,274732.0
2026-04-07 17:54:17.795680,281324,1528182519,1528183725,-1.048224,0.109312,0.062464,-20.57125,0.7,-8.5225,42.52,3.728,54.680004,concentric,3,3.0,19393.0,293428.0,266299.0,313126.0,274732.0
2026-04-07 17:54:17.820632,281334,1528191514,1528192458,-1.048224,0.109312,0.062464,-21.63875,0.46375,-7.4725,42.52,3.728,54.680004,concentric,3,3.0,19312.0,292718.0,265766.0,312630.0,274283.0
2026-04-07 17:54:17.825713,281335,1528206041,1528207419,-1.057984,0.099552,0.05856,-23.178751,0.7175,-6.8775,42.384003,3.944,54.376003,concentric,3,3.0,19312.0,292718.0,265766.0,312630.0,274283.0
2026-04-07 17:54:17.828179,281336,1528214986,1528216159,-1.048224,0.095648,0.046848,-23.8525,1.12875,-6.755,42.224003,3.992,53.688004,concentric,3,3.0,19312.0,292718.0,265766.0,312630.0,274283.0
2026-04-07 17:54:17.859483,281337,1528223909,1528224857,-1.048224,0.095648,0.046848,-25.2175,1.30375,-7.14875,42.224003,3.992,53.688004,concentric,3,3.0,19312.0,292718.0,265766.0,312630.0,274283.0
2026-04-07 17:54:17.861617,281338,1528238388,1528239747,-1.057984,0.103456,0.02928,-26.18875,1.2425,-7.4375,42.488003,4.304,53.72,concentric,3,3.0,19312.0,292718.0,265766.0,312630.0,274283.0
2026-04-07 17:54:17.866245,281339,1528247283,1528248452,-1.057984,0.103456,0.02928,-26.11875,1.81125,-7.4025,42.488003,4.304,53.72,concentric,3,3.0,19312.0,292718.0,265766.0,312630.0,274283.0
2026-04-07 17:54:17.868690,281340,1528256169,1528257165,-1.052128,0.103456,0.042944,-25.27875,2.0475,-7.18375,41.848003,4.272,55.384003,concentric,3,3.0,19312.0,292718.0,265766.0,312630.0,274283.0
2026-04-07 17:54:17.897203,281341,1528270647,1528272071,-1.052128,0.103456,0.042944,-23.765,2.38,-7.13125,41.848003,4.272,55.384003,concentric,3,3.0,19312.0,292718.0,265766.0,312630.0,274283.0
2026-04-07 17:54:17.901683,281342,1528279556,1528280751,-1.052128,0.095648,0.050752,-22.68,2.19625,-7.2975,42.264004,4.496,53.688004,concentric,3,3.0,19312.0,292718.0,265766.0,312630.0,274283.0
2026-04-07 17:54:17.925756,281352,1528288720,1528289738,-1.052128,0.095648,0.050752,-21.9975,2.6425,-7.09625,42.264004,4.496,53.688004,concentric,3,3.0,19252.0,292247.0,265415.0,312365.0,274071.0
2026-04-07 17:54:17.930025,281353,1528297679,1528298478,-1.04432,0.085888,0.05856,-20.93875,2.65125,-7.035,42.640003,4.856,54.608,concentric,3,3.0,19252.0,292247.0,265415.0,312365.0,274071.0
2026-04-07 17:54:17.932469,281354,1528312636,1528313443,-1.04432,0.085888,0.05856,-19.845,3.36875,-6.8425,42.640003,4.856,54.608,concentric,3,3.0,19252.0,292247.0,265415.0,312365.0,274071.0
2026-04-07 17:54:17.934042,281355,1528321555,1528322183,-1.048224,0.101504,0.054656,-18.9175,4.06,-6.4925,42.376003,5.208,55.208004,concentric,3,3.0,19252.0,292247.0,265415.0,312365.0,274071.0
2026-04-07 17:54:17.964782,281356,1528330877,1528332952,-1.048224,0.101504,0.054656,-18.94375,4.2875,-5.59125,42.376003,5.208,55.208004,concentric,3,3.0,19252.0,292247.0,265415.0,312365.0,274071.0
2026-04-07 17:54:18.004288,281357,1528345354,1528345795,-1.013088,0.072224,0.074176,-17.38625,4.66375,-5.32,42.624,5.288,53.480003,concentric,3,3.0,19252.0,292247.0,265415.0,312365.0,274071.0
2026-04-07 17:54:18.006573,281358,1528354637,1528356507,-1.013088,0.072224,0.074176,-15.88125,3.85875,-6.23,42.624,5.288,53.480003,concentric,3,3.0,19252.0,292247.0,265415.0,312365.0,274071.0
2026-04-07 17:54:18.011230,281359,1528363603,1528365198,-1.036512,0.138592,0.05856,-12.4425,3.7975,-6.615,42.424004,5.752,54.016003,concentric,3,3.0,19252.0,292247.0,265415.0,312365.0,274071.0
2026-04-07 17:54:18.014632,281360,1528372557,1528373901,-1.036512,0.138592,0.05856,-17.31625,3.89375,-6.11625,42.424004,5.752,54.016003,concentric,3,3.0,19252.0,292247.0,265415.0,312365.0,274071.0
2026-04-07 17:54:18.043725,281371,1528387540,1528388820,-1.046272,0.093696,0.035136,-22.19,4.8825,-5.9675,42.904003,5.56,53.712,concentric,3,3.0,19104.0,291038.0,264537.0,311588.0,273419.0
2026-04-07 17:54:18.045494,281372,1528396487,1528397539,-1.048224,0.066368,0.021472,-20.7025,4.52375,-4.57625,42.584003,5.92,53.248,concentric,3,3.0,19104.0,291038.0,264537.0,311588.0,273419.0
2026-04-07 17:54:18.047062,281373,1528405415,1528406258,-1.048224,0.066368,0.021472,-15.65375,4.01625,-4.8825,42.584003,5.92,53.248,concentric,3,3.0,19104.0,291038.0,264537.0,311588.0,273419.0
2026-04-07 17:54:18.050355,281374,1528420023,1528421174,-1.05408,0.070272,0.07808,-10.29,4.1125,-5.2325,43.08,5.328,53.72,concentric,3,3.0,19104.0,291038.0,264537.0,311588.0,273419.0
2026-04-07 17:54:18.052819,281375,1528428975,1528429890,-1.05408,0.070272,0.07808,-5.3375,4.5325,-6.475,43.08,5.328,53.72,concentric,3,3.0,19104.0,291038.0,264537.0,311588.0,273419.0
2026-04-07 17:54:18.054359,281376,1528437911,1528438636,-1.056032,0.0976,0.081984,-3.66625,5.005,-5.78375,42.848003,5.872,53.248,concentric,3,3.0,19104.0,291038.0,264537.0,311588.0,273419.0
2026-04-07 17:54:18.060234,281377,1528447330,1528449464,-1.056032,0.0976,0.081984,-5.66125,4.83875,-5.03125,42.848003,5.872,53.248,concentric,3,3.0,19104.0,291038.0,264537.0,311588.0,273419.0
2026-04-07 17:54:18.089569,281378,1528461825,1528462314,-1.069696,0.072224,0.060512,-9.80875,5.5825,-4.22625,42.760002,5.896,53.864002,concentric,3,3.0,19104.0,291038.0,264537.0,311588.0,273419.0
2026-04-07 17:54:18.093233,281379,1528471243,1528473076,-1.069696,0.072224,0.060512,-12.11875,5.7925,-4.27875,42.760002,5.896,53.864002,concentric,3,3.0,19104.0,291038.0,264537.0,311588.0,273419.0
2026-04-07 17:54:18.095670,281380,1528480196,1528481802,-1.06384,0.062464,0.050752,-11.235,6.53625,-4.06875,42.88,6.088,52.504,concentric,3,3.0,19104.0,291038.0,264537.0,311588.0,273419.0
2026-04-07 17:54:18.120590,281390,1528489817,1528490911,-1.06384,0.062464,0.050752,-7.2975,5.495,-3.92,42.88,6.088,52.504,concentric,3,3.0,19244.0,292340.0,265638.0,312832.0,274534.0
2026-04-07 17:54:18.123150,281391,1528504412,1528505858,-1.06384,0.072224,0.054656,-3.0625,6.15125,-3.955,42.376003,5.584,55.744003,concentric,3,3.0,19244.0,292340.0,265638.0,312832.0,274534.0
2026-04-07 17:54:18.125708,281392,1528513374,1528514562,-1.06384,0.072224,0.054656,-0.13125,6.6325,-4.13,42.376003,5.584,55.744003,concentric,3,3.0,19244.0,292340.0,265638.0,312832.0,274534.0
2026-04-07 17:54:18.164583,281393,1528522352,1528523267,-1.067744,0.085888,0.050752,1.84625,6.16875,-4.24375,42.288002,5.784,54.184002,concentric,3,3.0,19244.0,292340.0,265638.0,312832.0,274534.0
2026-04-07 17:54:18.168101,281394,1528536848,1528538136,-1.067744,0.101504,0.056608,3.3775,5.565,-4.0425,42.896004,5.896,54.184002,concentric,3,3.0,19244.0,292340.0,265638.0,312832.0,274534.0
2026-04-07 17:54:18.174381,281395,1528545792,1528546857,-1.067744,0.101504,0.056608,3.98125,4.89125,-3.85875,42.896004,5.896,54.184002,concentric,3,3.0,19244.0,292340.0,265638.0,312832.0,274534.0
2026-04-07 17:54:18.176849,281396,1528554683,1528555549,-1.067744,0.101504,0.056608,4.20875,4.5325,-4.43625,42.896004,5.896,54.184002,concentric,3,3.0,19244.0,292340.0,265638.0,312832.0,274534.0
2026-04-07 17:54:18.182020,281397,1528569171,1528570440,-1.057984,0.074176,0.052704,5.3375,4.655,-5.50375,43.048,5.768,53.08,concentric,3,3.0,19244.0,292340.0,265638.0,312832.0,274534.0
2026-04-07 17:54:18.212171,281398,1528578104,1528579171,-1.071648,0.0976,0.060512,6.2825,4.515,-6.23,43.144,6.272,52.592003,concentric,3,3.0,19244.0,292340.0,265638.0,312832.0,274534.0
2026-04-07 17:54:18.238104,281408,1528587088,1528588012,-1.071648,0.0976,0.060512,8.79375,4.7775,-6.2125,43.144,6.272,52.592003,concentric,3,3.0,19227.0,292269.0,265606.0,312849.0,274591.0
2026-04-07 17:54:18.240653,281409,1528596186,1528596838,-1.071648,0.091744,0.052704,9.66875,4.43625,-6.43125,43.144,6.272,52.592003,concentric,3,3.0,19227.0,292269.0,265606.0,312849.0,274591.0
2026-04-07 17:54:18.243137,281410,1528611180,1528611794,-1.057984,0.091744,0.052704,8.9425,4.3925,-6.37,43.472004,5.656,53.504,concentric,3,3.0,19227.0,292269.0,265606.0,312849.0,274591.0
2026-04-07 17:54:18.245633,281411,1528620420,1528622582,-1.067744,0.064416,0.0488,7.65625,4.78625,-5.99375,43.160004,5.024,54.696003,concentric,3,3.0,19227.0,292269.0,265606.0,312849.0,274591.0
2026-04-07 17:54:18.248171,281412,1528629410,1528631319,-1.067744,0.064416,0.0488,8.16375,5.18875,-5.53875,43.160004,5.024,54.696003,concentric,3,3.0,19227.0,292269.0,265606.0,312849.0,274591.0
2026-04-07 17:54:18.255679,281413,1528643960,1528646276,-1.065792,0.064416,0.054656,9.17,5.24125,-5.705,43.112003,5.12,53.552002,concentric,3,3.0,19227.0,292269.0,265606.0,312849.0,274591.0
2026-04-07 17:54:18.299654,281414,1528652918,1528654986,-1.065792,0.064416,0.054656,10.955,5.04875,-5.06625,43.112003,5.12,53.552002,concentric,3,3.0,19227.0,292269.0,265606.0,312849.0,274591.0
2026-04-07 17:54:18.303199,281415,1528661953,1528663699,-1.06384,0.095648,0.064416,12.34625,4.75125,-4.45375,42.688004,5.072,53.552002,concentric,3,3.0,19227.0,292269.0,265606.0,312849.0,274591.0
2026-04-07 17:54:18.305649,281416,1528670898,1528672412,-1.06384,0.095648,0.064416,11.87375,4.34875,-3.885,42.688004,5.072,53.552002,concentric,3,3.0,19227.0,292269.0,265606.0,312849.0,274591.0
2026-04-07 17:54:18.333121,281427,1528685459,1528687678,-1.061888,0.101504,0.066368,10.71,3.98125,-3.73625,43.208,4.968,53.888004,concentric,3,3.0,19229.0,292480.0,265808.0,313103.0,274812.0
2026-04-07 17:54:18.335633,281428,1528694423,1528696382,-1.061888,0.101504,0.066368,8.785,4.27,-3.9375,43.208,4.968,53.888004,concentric,3,3.0,19229.0,292480.0,265808.0,313103.0,274812.0
2026-04-07 17:54:18.338286,281429,1528703530,1528705114,-1.06384,0.083936,0.056608,7.70875,4.445,-4.235,43.312,5.136,53.976,concentric,3,3.0,19229.0,292480.0,265808.0,313103.0,274812.0
2026-04-07 17:54:18.340725,281430,1528718084,1528720126,-1.065792,0.080032,0.050752,7.42875,4.82125,-4.8125,43.016003,5.112001,54.312004,concentric,3,3.0,19229.0,292480.0,265808.0,313103.0,274812.0
2026-04-07 17:54:18.343221,281431,1528727037,1528728904,-1.065792,0.080032,0.050752,7.91875,4.82125,-5.1975,43.016003,5.112001,54.312004,concentric,3,3.0,19229.0,292480.0,265808.0,313103.0,274812.0
2026-04-07 17:54:18.348140,281432,1528735984,1528737633,-1.065792,0.080032,0.050752,9.7125,4.78625,-5.20625,43.016003,5.112001,54.312004,concentric,3,3.0,19229.0,292480.0,265808.0,313103.0,274812.0
2026-04-07 17:54:18.380924,281433,1528750499,1528752561,-1.06384,0.081984,0.050752,11.445,4.69875,-5.20625,43.280003,4.648,52.448,concentric,3,3.0,19229.0,292480.0,265808.0,313103.0,274812.0
2026-04-07 17:54:18.384355,281434,1528759424,1528761257,-1.079456,0.089792,0.056608,12.18875,4.3225,-5.495,43.4,5.232,53.88,concentric,3,3.0,19229.0,292480.0,265808.0,313103.0,274812.0
2026-04-07 17:54:18.386910,281435,1528768349,1528769940,-1.079456,0.089792,0.056608,12.01375,4.0075,-5.27625,43.4,5.232,53.88,concentric,3,3.0,19229.0,292480.0,265808.0,313103.0,274812.0
2026-04-07 17:54:18.389399,281436,1528777262,1528778685,-1.075552,0.076128,0.056608,11.2875,4.3225,-5.08375,43.4,5.232,54.952003,concentric,3,3.0,19229.0,292480.0,265808.0,313103.0,274812.0
2026-04-07 17:54:18.451979,281446,1528791925,1528793613,-1.075552,0.076128,0.056608,10.3075,4.73375,-4.69,43.056004,4.648,54.952003,concentric,3,3.0,19211.0,292205.0,265615.0,312951.0,274693.0
2026-04-07 17:54:18.456242,281447,1528800895,1528802382,-1.089216,0.0976,0.074176,10.22875,5.08375,-5.27625,43.472004,4.344,54.368004,concentric,3,3.0,19211.0,292205.0,265615.0,312951.0,274693.0
2026-04-07 17:54:18.457971,281448,1528809801,1528811057,-1.089216,0.0976,0.074176,9.275,5.10125,-4.97875,43.472004,4.344,54.368004,concentric,3,3.0,19211.0,292205.0,265615.0,312951.0,274693.0
2026-04-07 17:54:18.459612,281449,1528824315,1528825980,-1.087264,0.105408,0.072224,7.4025,5.39,-4.865,43.176003,3.984,53.608,concentric,3,3.0,19211.0,292205.0,265615.0,312951.0,274693.0
2026-04-07 17:54:18.463653,281450,1528833276,1528834761,-1.087264,0.105408,0.072224,4.27875,5.32875,-4.3225,43.176003,3.984,53.608,concentric,3,3.0,19211.0,292205.0,265615.0,312951.0,274693.0
2026-04-07 17:54:18.465287,281451,1528842236,1528843470,-1.09312,0.080032,0.052704,1.98625,6.02875,-4.095,42.992,4.592,55.384003,concentric,3,3.0,19211.0,292205.0,265615.0,312951.0,274693.0
2026-04-07 17:54:18.471136,281452,1528856682,1528858402,-1.09312,0.080032,0.052704,0.79625,6.39625,-4.15625,42.992,4.592,55.384003,concentric,3,3.0,19211.0,292205.0,265615.0,312951.0,274693.0
2026-04-07 17:54:18.499763,281453,1528865637,1528867099,-1.098976,0.072224,0.05856,1.9425,6.825,-4.2175,43.128002,4.416,55.464005,concentric,3,3.0,19211.0,292205.0,265615.0,312951.0,274693.0
2026-04-07 17:54:18.503495,281454,1528874575,1528875822,-1.098976,0.072224,0.05856,2.37125,6.39625,-3.64,43.128002,4.416,55.464005,concentric,3,3.0,19211.0,292205.0,265615.0,312951.0,274693.0
2026-04-07 17:54:18.531822,281464,1528889425,1528891004,-1.106784,0.095648,0.05856,0.805,6.3175,-3.07125,43.600002,4.712,54.304,concentric,3,3.0,19109.0,291482.0,265107.0,312513.0,274388.0
2026-04-07 17:54:18.534369,281465,1528898509,1528899742,-1.091168,0.093696,0.0488,-0.02625,5.59125,-2.93125,43.208,4.6,53.592003,concentric,3,3.0,19109.0,291482.0,265107.0,312513.0,274388.0
2026-04-07 17:54:18.536944,281466,1528907417,1528908474,-1.091168,0.093696,0.0488,-0.81375,5.67875,-3.77125,43.208,4.6,53.592003,concentric,3,3.0,19109.0,291482.0,265107.0,312513.0,274388.0
2026-04-07 17:54:18.539382,281467,1528916392,1528917183,-1.091168,0.093696,0.0488,-1.365,6.60625,-4.34875,43.208,4.6,53.592003,concentric,3,3.0,19109.0,291482.0,265107.0,312513.0,274388.0
2026-04-07 17:54:18.543155,281468,1528930910,1528932122,-1.08336,0.091744,0.060512,-1.61875,6.99125,-4.48,44.04,4.144,53.488003,concentric,3,3.0,19109.0,291482.0,265107.0,312513.0,274388.0
2026-04-07 17:54:18.553111,281469,1528939916,1528940810,-1.075552,0.099552,0.054656,-1.82875,6.88625,-4.4625,43.440002,4.432,55.224003,concentric,3,3.0,19109.0,291482.0,265107.0,312513.0,274388.0
2026-04-07 17:54:18.598435,281470,1528948826,1528949489,-1.075552,0.099552,0.054656,-3.00125,6.8775,-3.94625,43.440002,4.432,55.224003,concentric,3,3.0,19109.0,291482.0,265107.0,312513.0,274388.0
2026-04-07 17:54:18.600637,281471,1528963648,1528964437,-1.065792,0.08784,0.062464,-5.2325,6.8775,-4.0075,43.936,4.52,54.272003,concentric,3,3.0,19109.0,291482.0,265107.0,312513.0,274388.0
2026-04-07 17:54:18.603259,281472,1528972614,1528973124,-1.065792,0.08784,0.062464,-6.7025,6.545,-3.5525,43.936,4.52,54.272003,concentric,3,3.0,19109.0,291482.0,265107.0,312513.0,274388.0
2026-04-07 17:54:18.605681,281473,1528981987,1528983875,-1.079456,0.089792,0.0488,-6.93875,7.02625,-3.15875,43.944,4.704,54.000004,concentric,3,3.0,19109.0,291482.0,265107.0,312513.0,274388.0
2026-04-07 17:54:18.633080,281484,1528991190,1528992598,-1.079456,0.089792,0.0488,-6.25625,7.21,-3.14125,43.944,4.704,54.000004,concentric,3,3.0,19033.0,290911.0,264771.0,312242.0,274188.0
2026-04-07 17:54:18.635665,281485,1529005766,1529007613,-1.071648,0.099552,0.05856,-5.775,6.76375,-2.61625,43.768,4.304,55.264004,concentric,3,3.0,19033.0,290911.0,264771.0,312242.0,274188.0
2026-04-07 17:54:18.638271,281486,1529014705,1529016360,-1.071648,0.099552,0.05856,-4.61125,6.15125,-2.8175,43.768,4.304,55.264004,concentric,3,3.0,19033.0,290911.0,264771.0,312242.0,274188.0
2026-04-07 17:54:18.640626,281487,1529023690,1529025074,-1.071648,0.089792,0.066368,-5.425,7.06125,-2.765,43.712,4.0,55.920002,concentric,3,3.0,19033.0,290911.0,264771.0,312242.0,274188.0
2026-04-07 17:54:18.674667,281488,1529038192,1529040039,-1.071648,0.07808,0.042944,-8.70625,7.8925,-2.40625,43.712,4.0,53.872,concentric,3,3.0,19033.0,290911.0,264771.0,312242.0,274188.0
2026-04-07 17:54:18.678214,281489,1529047103,1529048791,-1.069696,0.07808,0.042944,-13.5625,8.05,-2.72125,43.800003,4.44,53.552002,concentric,3,3.0,19033.0,290911.0,264771.0,312242.0,274188.0
2026-04-07 17:54:18.680752,281490,1529056017,1529057466,-1.069696,0.07808,0.042944,-17.14125,8.16375,-2.70375,43.800003,4.44,53.552002,concentric,3,3.0,19033.0,290911.0,264771.0,312242.0,274188.0
2026-04-07 17:54:18.683135,281491,1529064916,1529066148,-1.05408,0.066368,0.03904,-19.145,8.04125,-2.02125,44.816,4.96,53.624004,concentric,3,3.0,19033.0,290911.0,264771.0,312242.0,274188.0
2026-04-07 17:54:18.713377,281492,1529079390,1529081073,-1.065792,0.080032,0.060512,-19.31125,7.58625,-1.70625,44.960003,4.944,54.72,concentric,3,3.0,19033.0,290911.0,264771.0,312242.0,274188.0
2026-04-07 17:54:18.739626,281502,1529088310,1529089941,-1.065792,0.080032,0.060512,-18.10375,7.0875,-0.6125,44.960003,4.944,54.72,concentric,3,3.0,18943.0,290400.0,264581.0,312237.0,274335.0
2026-04-07 17:54:18.741940,281503,1529097206,1529098722,-1.065792,0.080032,0.060512,-16.96625,6.4575,0.14,44.960003,4.944,54.72,concentric,3,3.0,18943.0,290400.0,264581.0,312237.0,274335.0
2026-04-07 17:54:18.745084,281504,1529111714,1529113656,-1.097024,0.113216,0.042944,-17.99875,6.335,-0.0175,44.624,5.024,53.768,concentric,3,3.0,18943.0,290400.0,264581.0,312237.0,274335.0
2026-04-07 17:54:18.750698,281505,1529120687,1529122365,-1.106784,0.124928,0.042944,-20.53625,6.62375,-0.70875,44.936,5.32,53.672,concentric,3,3.0,18943.0,290400.0,264581.0,312237.0,274335.0
2026-04-07 17:54:18.753137,281506,1529129599,1529131087,-1.106784,0.124928,0.042944,-21.945,6.57125,-2.135,44.936,5.32,53.672,concentric,3,3.0,18943.0,290400.0,264581.0,312237.0,274335.0
2026-04-07 17:54:18.755662,281507,1529144114,1529146032,-1.118496,0.0976,0.05856,-22.05,6.57125,-3.5875,44.592003,5.512,53.872,concentric,3,3.0,18943.0,290400.0,264581.0,312237.0,274335.0
2026-04-07 17:54:18.785909,281508,1529153081,1529154731,-1.118496,0.0976,0.05856,-20.39625,7.0525,-5.78375,44.592003,5.512,53.872,concentric,3,3.0,18943.0,290400.0,264581.0,312237.0,274335.0
2026-04-07 17:54:18.789428,281509,1529161999,1529163446,-1.118496,0.089792,0.052704,-18.69875,7.0525,-7.2625,44.776,5.568,53.440002,concentric,3,3.0,18943.0,290400.0,264581.0,312237.0,274335.0
2026-04-07 17:54:18.810715,281510,1529176464,1529178345,-1.118496,0.089792,0.052704,-16.35375,6.545,-7.49,44.776,5.568,53.440002,concentric,3,3.0,18943.0,290400.0,264581.0,312237.0,274335.0
2026-04-07 17:54:18.813158,281511,1529185390,1529187055,-1.097024,0.081984,0.042944,-14.81375,6.5275,-7.56,44.72,5.464,52.928,concentric,3,3.0,18943.0,290400.0,264581.0,312237.0,274335.0
2026-04-07 17:54:18.841913,281521,1529194482,1529195808,-1.097024,0.081984,0.042944,-14.67375,6.29125,-6.83375,44.72,5.464,52.928,concentric,3,3.0,18803.0,289283.0,263744.0,311409.0,273720.0
2026-04-07 17:54:18.844416,281522,1529203408,1529204495,-1.095072,0.085888,0.027328,-15.37375,6.06375,-6.25625,44.376003,6.048,52.944004,concentric,3,3.0,18803.0,289283.0,263744.0,311409.0,273720.0
2026-04-07 17:54:18.847007,281523,1529217908,1529219495,-1.095072,0.085888,0.027328,-16.7825,6.2475,-5.775,44.376003,6.048,52.944004,concentric,3,3.0,18803.0,289283.0,263744.0,311409.0,273720.0
2026-04-07 17:54:18.849376,281524,1529226889,1529228199,-1.110688,0.091744,0.02928,-17.19375,5.985,-4.935,44.296,5.864,52.816,concentric,3,3.0,18803.0,289283.0,263744.0,311409.0,273720.0
2026-04-07 17:54:18.851886,281525,1529235900,1529236888,-1.110688,0.091744,0.02928,-15.61,5.3375,-4.19125,44.296,5.864,52.816,concentric,3,3.0,18803.0,289283.0,263744.0,311409.0,273720.0
2026-04-07 17:54:18.897345,281526,1529250441,1529251743,-1.098976,0.101504,0.044896,-13.99125,5.69625,-4.27875,44.336002,5.92,53.648003,concentric,3,3.0,18803.0,289283.0,263744.0,311409.0,273720.0
2026-04-07 17:54:18.900984,281527,1529259357,1529260468,-1.10288,0.109312,0.050752,-13.22125,5.7225,-5.075,44.336002,7.968,51.392002,concentric,3,3.0,18803.0,289283.0,263744.0,311409.0,273720.0
2026-04-07 17:54:18.903396,281528,1529268284,1529269152,-1.10288,0.109312,0.050752,-13.78125,6.195,-6.08125,45.032,6.536,51.392002,concentric,3,3.0,18803.0,289283.0,263744.0,311409.0,273720.0
2026-04-07 17:54:18.905670,281529,1529282746,1529284071,-1.085312,0.093696,0.037088,-13.1075,6.51,-6.6325,44.672,6.32,52.464,concentric,3,3.0,18803.0,289283.0,263744.0,311409.0,273720.0
2026-04-07 17:54:18.934105,281540,1529291928,1529293393,-1.085312,0.093696,0.037088,-13.1425,6.27375,-7.2625,44.672,6.32,52.464,concentric,3,3.0,18785.0,288970.0,263452.0,310926.0,273269.0
2026-04-07 17:54:18.935730,281541,1529300993,1529302180,-1.081408,0.064416,0.023424,-12.495,7.02625,-7.55125,44.712,6.168,51.752003,concentric,3,3.0,18785.0,288970.0,263452.0,310926.0,273269.0
2026-04-07 17:54:18.942513,281542,1529309956,1529310940,-1.081408,0.064416,0.023424,-11.13875,7.07,-8.11125,44.712,6.168,51.752003,concentric,3,3.0,18785.0,288970.0,263452.0,310926.0,273269.0
2026-04-07 17:54:18.944239,281543,1529324563,1529325849,-1.077504,0.07808,0.033184,-8.12875,6.51,-8.07625,44.816,5.92,52.232002,concentric,3,3.0,18785.0,288970.0,263452.0,310926.0,273269.0
2026-04-07 17:54:18.945779,281544,1529333533,1529334622,-1.077504,0.07808,0.033184,-4.9875,6.405,-8.015,44.816,5.92,52.232002,concentric,3,3.0,18785.0,288970.0,263452.0,310926.0,273269.0
2026-04-07 17:54:18.976646,281545,1529342608,1529343344,-1.077504,0.08784,0.02928,-2.75625,6.04625,-7.72625,44.552002,6.368001,52.056004,concentric,3,3.0,18785.0,288970.0,263452.0,310926.0,273269.0
2026-04-07 17:54:18.981372,281546,1529357573,1529358243,-1.077504,0.08784,0.02928,-1.225,5.78375,-7.77875,44.552002,6.368001,52.056004,concentric,3,3.0,18785.0,288970.0,263452.0,310926.0,273269.0
2026-04-07 17:54:18.982879,281547,1529366825,1529369001,-1.08336,0.08784,0.040992,0.49,5.11875,-7.56,45.352,6.352,51.752003,concentric,3,3.0,18785.0,288970.0,263452.0,310926.0,273269.0
2026-04-07 17:54:18.989921,281548,1529375770,1529377759,-1.08336,0.08784,0.040992,0.875,4.4625,-7.18375,45.352,6.352,51.752003,concentric,3,3.0,18785.0,288970.0,263452.0,310926.0,273269.0
2026-04-07 17:54:19.018341,281549,1529384738,1529386519,-1.081408,0.080032,0.027328,1.19875,4.3575,-7.9625,44.632004,6.176,52.104004,concentric,3,3.0,18785.0,288970.0,263452.0,310926.0,273269.0
2026-04-07 17:54:19.044453,281559,1529399269,1529401476,-1.081408,0.080032,0.042944,1.645,4.17375,-8.72375,44.632004,6.176,52.104004,concentric,3,3.0,18721.0,288535.0,263120.0,310625.0,273125.0
2026-04-07 17:54:19.048657,281560,1529408226,1529410191,-1.08336,0.085888,0.031232,3.64,4.165,-8.295,44.808002,6.656,51.960003,concentric,3,3.0,18721.0,288535.0,263120.0,310625.0,273125.0
2026-04-07 17:54:19.050391,281561,1529417304,1529418887,-1.08336,0.085888,0.031232,5.36375,3.8325,-7.805,44.808002,6.656,51.960003,concentric,3,3.0,18721.0,288535.0,263120.0,310625.0,273125.0
2026-04-07 17:54:19.051964,281562,1529431821,1529433817,-1.079456,0.081984,0.031232,6.34375,4.165,-7.5425,44.952003,6.144,53.496002,concentric,3,3.0,18721.0,288535.0,263120.0,310625.0,273125.0
2026-04-07 17:54:19.056026,281563,1529440774,1529442567,-1.091168,0.095648,0.035136,7.0,4.66375,-7.4375,44.576,5.752,53.160004,concentric,3,3.0,18721.0,288535.0,263120.0,310625.0,273125.0
2026-04-07 17:54:19.084683,281564,1529449746,1529451293,-1.091168,0.095648,0.035136,7.035,4.5325,-7.4375,44.576,5.752,53.160004,concentric,3,3.0,18721.0,288535.0,263120.0,310625.0,273125.0
2026-04-07 17:54:19.090027,281565,1529464278,1529466177,-1.095072,0.081984,0.037088,7.11375,4.41875,-7.07,45.160004,6.056,52.632004,concentric,3,3.0,18721.0,288535.0,263120.0,310625.0,273125.0
2026-04-07 17:54:19.091626,281566,1529473223,1529474907,-1.095072,0.081984,0.037088,8.54,4.3925,-7.67375,45.160004,6.056,52.632004,concentric,3,3.0,18721.0,288535.0,263120.0,310625.0,273125.0
2026-04-07 17:54:19.093530,281567,1529482154,1529483605,-1.104832,0.083936,0.03904,10.08,4.12125,-7.76125,44.632004,6.176,53.488003,concentric,3,3.0,18721.0,288535.0,263120.0,310625.0,273125.0
2026-04-07 17:54:19.149351,281577,1529491120,1529492255,-1.104832,0.083936,0.03904,11.68125,4.06875,-7.3675,44.632004,6.176,53.488003,concentric,3,3.0,18694.0,288198.0,262877.0,310405.0,272993.0
2026-04-07 17:54:19.151905,281578,1529506457,1529507185,-1.118496,0.101504,0.03904,12.31125,4.0775,-6.69375,45.064003,6.664001,52.232002,concentric,3,3.0,18694.0,288198.0,262877.0,310405.0,272993.0
2026-04-07 17:54:19.154436,281579,1529515786,1529517934,-1.118496,0.101504,0.03904,11.9,3.89375,-6.41375,45.064003,6.664001,52.232002,concentric,3,3.0,18694.0,288198.0,262877.0,310405.0,272993.0
2026-04-07 17:54:19.157635,281580,1529524794,1529526663,-1.114592,0.089792,0.031232,10.7625,4.10375,-6.23,44.288002,5.736,52.760002,concentric,3,3.0,18694.0,288198.0,262877.0,310405.0,272993.0
2026-04-07 17:54:19.159400,281581,1529533794,1529535390,-1.114592,0.089792,0.031232,10.3425,3.8675,-5.83625,44.288002,5.736,52.760002,concentric,3,3.0,18694.0,288198.0,262877.0,310405.0,272993.0
2026-04-07 17:54:19.161948,281582,1529548385,1529550365,-1.1224,0.089792,0.033184,11.2175,3.85875,-5.705,44.832,5.552,52.632004,concentric,3,3.0,18694.0,288198.0,262877.0,310405.0,272993.0
2026-04-07 17:54:19.198361,281583,1529557328,1529559079,-1.1224,0.089792,0.033184,12.2325,3.57875,-5.8625,44.832,5.552,52.632004,concentric,3,3.0,18694.0,288198.0,262877.0,310405.0,272993.0
2026-04-07 17:54:19.201855,281584,1529566296,1529567768,-1.120448,0.089792,0.044896,13.36125,3.36875,-5.83625,44.632004,5.608,52.984,concentric,3,3.0,18694.0,288198.0,262877.0,310405.0,272993.0
2026-04-07 17:54:19.204424,281585,1529580777,1529582680,-1.110688,0.101504,0.046848,14.0875,3.24625,-5.635,44.632004,5.456,52.464,concentric,3,3.0,18694.0,288198.0,262877.0,310405.0,272993.0
2026-04-07 17:54:19.210626,281586,1529589687,1529591363,-1.110688,0.101504,0.046848,14.55125,3.465,-5.45125,44.848003,5.456,52.464,concentric,3,3.0,18694.0,288198.0,262877.0,310405.0,272993.0
2026-04-07 17:54:19.238180,281597,1529598720,1529600187,-1.110688,0.101504,0.046848,12.64375,3.28125,-5.3725,44.848003,5.456,52.464,concentric,3,3.0,18667.0,288070.0,262823.0,310292.0,272905.0
2026-04-07 17:54:19.240670,281598,1529613487,1529615167,-1.114592,0.08784,0.031232,10.64875,3.01,-5.36375,44.968002,5.576,51.416004,concentric,3,3.0,18667.0,288070.0,262823.0,310292.0,272905.0
2026-04-07 17:54:19.243341,281599,1529622440,1529623915,-1.108736,0.074176,0.037088,9.9225,3.22875,-5.4075,44.640003,5.408001,55.760002,concentric,3,3.0,18667.0,288070.0,262823.0,310292.0,272905.0
2026-04-07 17:54:19.245677,281600,1529631430,1529632665,-1.108736,0.074176,0.037088,11.55875,2.91375,-4.92625,44.640003,5.408001,55.760002,concentric,3,3.0,18667.0,288070.0,262823.0,310292.0,272905.0
2026-04-07 17:54:19.251924,281601,1529640334,1529641401,-1.108736,0.074176,0.037088,12.92375,2.835,-5.10125,44.640003,5.408001,55.760002,concentric,3,3.0,18667.0,288070.0,262823.0,310292.0,272905.0
2026-04-07 17:54:19.282055,281602,1529654842,1529656384,-1.118496,0.093696,0.037088,13.72875,3.00125,-5.34625,44.712,5.368,53.840004,concentric,3,3.0,18667.0,288070.0,262823.0,310292.0,272905.0
2026-04-07 17:54:19.285615,281603,1529663791,1529665076,-1.1224,0.099552,0.044896,14.42,2.96625,-5.2675,45.744003,4.984,52.584003,concentric,3,3.0,18667.0,288070.0,262823.0,310292.0,272905.0
2026-04-07 17:54:19.288127,281604,1529672710,1529673801,-1.1224,0.099552,0.044896,14.323751,2.93125,-5.005,45.744003,4.984,52.584003,concentric,3,3.0,18667.0,288070.0,262823.0,310292.0,272905.0
2026-04-07 17:54:19.318427,281605,1529687320,1529688773,-1.139968,0.099552,0.03904,13.9125,2.91375,-5.355,44.920002,5.104,54.168003,concentric,3,3.0,18667.0,288070.0,262823.0,310292.0,272905.0
2026-04-07 17:54:19.344362,281615,1529696483,1529697500,-1.139968,0.099552,0.03904,13.230001,3.4825,-5.7225,44.920002,5.104,54.168003,concentric,3,3.0,18675.0,288154.0,262920.0,310415.0,272982.0
2026-04-07 17:54:19.347032,281616,1529705498,1529706229,-1.165344,0.115168,0.037088,13.43125,3.745,-6.20375,45.112003,4.768,53.104004,concentric,3,3.0,18675.0,288154.0,262920.0,310415.0,272982.0
2026-04-07 17:54:19.353169,281617,1529714826,1529716965,-1.165344,0.115168,0.037088,12.792501,4.025,-6.16875,45.112003,4.768,53.104004,concentric,3,3.0,18675.0,288154.0,262920.0,310415.0,272982.0
2026-04-07 17:54:19.355664,281618,1529729341,1529729863,-1.192672,0.093696,0.011712,11.24375,4.2175,-6.34375,45.296,4.768,53.336002,concentric,3,3.0,18675.0,288154.0,262920.0,310415.0,272982.0
2026-04-07 17:54:19.358224,281619,1529738978,1529740691,-1.192672,0.093696,0.011712,11.61125,5.31125,-6.825,45.296,4.768,53.336002,concentric,3,3.0,18675.0,288154.0,262920.0,310415.0,272982.0
2026-04-07 17:54:19.360662,281620,1529747913,1529749366,-1.218048,0.089792,0.033184,11.8825,5.20625,-7.27125,45.352,4.592,54.448,concentric,3,3.0,18675.0,288154.0,262920.0,310415.0,272982.0
2026-04-07 17:54:19.390889,281621,1529762421,1529764301,-1.221952,0.095648,0.031232,13.22125,4.5675,-7.34125,44.624,4.712,55.736004,concentric,3,3.0,18675.0,288154.0,262920.0,310415.0,272982.0
2026-04-07 17:54:19.394423,281622,1529771378,1529773003,-1.221952,0.095648,0.031232,13.8075,4.3225,-6.9125,44.624,4.712,55.736004,concentric,3,3.0,18675.0,288154.0,262920.0,310415.0,272982.0
2026-04-07 17:54:19.397276,281623,1529780314,1529781691,-1.221952,0.095648,0.031232,12.92375,4.235,-6.62375,44.624,4.712,55.736004,concentric,3,3.0,18675.0,288154.0,262920.0,310415.0,272982.0
2026-04-07 17:54:19.401895,281624,1529789217,1529790402,-1.221952,0.095648,0.054656,13.11625,4.12125,-6.39625,45.08,5.056,52.56,concentric,3,3.0,18675.0,288154.0,262920.0,310415.0,272982.0
2026-04-07 17:54:19.459877,281634,1529803954,1529805544,-1.214144,0.109312,0.056608,12.97625,3.71875,-6.48375,44.632004,4.568,54.312004,concentric,3,3.0,18679.0,288113.0,262821.0,310322.0,272935.0
2026-04-07 17:54:19.463235,281635,1529812949,1529814308,-1.214144,0.109312,0.056608,13.20375,3.70125,-6.23,44.632004,4.568,54.312004,concentric,3,3.0,18679.0,288113.0,262821.0,310322.0,272935.0
2026-04-07 17:54:19.465736,281636,1529821878,1529822995,-1.225856,0.13664,0.042944,12.60875,3.99875,-6.18625,44.632004,4.272,55.224003,concentric,3,3.0,18679.0,288113.0,262821.0,310322.0,272935.0
2026-04-07 17:54:19.502075,281637,1529836350,1529837883,-1.225856,0.13664,0.042944,12.08375,4.0425,-5.845,45.144,4.272,55.224003,concentric,3,3.0,18679.0,288113.0,262821.0,310322.0,272935.0
2026-04-07 17:54:19.505612,281638,1529845259,1529846580,-1.237568,0.130784,0.031232,10.99,4.40125,-6.37875,45.264004,5.112001,53.464,concentric,3,3.0,18679.0,288113.0,262821.0,310322.0,272935.0
2026-04-07 17:54:19.508176,281639,1529854175,1529855265,-1.237568,0.130784,0.031232,8.70625,5.01375,-6.64125,45.264004,5.112001,53.464,concentric,3,3.0,18679.0,288113.0,262821.0,310322.0,272935.0
2026-04-07 17:54:19.510679,281640,1529868677,1529870193,-1.221952,0.099552,0.037088,8.05,5.3375,-7.41125,45.04,4.664,53.632004,concentric,3,3.0,18679.0,288113.0,262821.0,310322.0,272935.0
2026-04-07 17:54:19.513159,281641,1529877595,1529878867,-1.221952,0.099552,0.037088,9.0475,5.36375,-7.945,45.04,4.664,53.632004,concentric,3,3.0,18679.0,288113.0,262821.0,310322.0,272935.0
2026-04-07 17:54:19.515661,281642,1529886505,1529887577,-1.231712,0.105408,0.0488,8.9775,5.78375,-7.945,44.712,4.44,53.416004,concentric,3,3.0,18679.0,288113.0,262821.0,310322.0,272935.0
2026-04-07 17:54:19.543302,281653,1529901071,1529902709,-1.231712,0.105408,0.0488,7.35,5.85375,-7.56,44.712,4.44,53.416004,concentric,3,3.0,18711.0,288060.0,262590.0,309954.0,272570.0
