pc_time,serial_num,sensor_ts,host_ts,ax,ay,az,gx,gy,gz,mx,my,mz,phase,rpe,weight_kg,ppg_a,ppg_b,ppg_c,ppg_d,ppg_e
2026-04-08 21:42:24.579681,157570,1609503716809969,1316776525,0.890112,0.378688,0.070272,-14.74375,8.2425,-1.3475,-14.128,-9.248,-16.312,eccentric,4,3.0,17294.0,134959.0,222086.0,274137.0,258806.0
2026-04-08 21:42:24.583195,157571,1609503716818867,1316785164,0.890112,0.378688,0.070272,-23.0475,7.93625,-0.7,-14.128,-9.248,-16.312,eccentric,4,3.0,17294.0,134959.0,222086.0,274137.0,258806.0
2026-04-08 21:42:24.586957,157572,1609503716833376,1316799999,0.974048,0.347456,-0.099552,-27.25625,10.68375,-6.81625,-13.968,-9.440001,-18.952002,eccentric,4,3.0,17294.0,134959.0,222086.0,274137.0,258806.0
2026-04-08 21:42:24.617254,157573,1609503716842307,1316808754,0.974048,0.347456,-0.099552,-31.29,14.65625,-7.48125,-13.968,-9.440001,-18.952002,eccentric,4,3.0,17294.0,134959.0,222086.0,274137.0,258806.0
2026-04-08 21:42:24.620684,157574,1609503716856800,1316823603,0.862784,0.368928,-0.236192,-31.12375,17.80625,-3.92875,-14.152,-9.536,-18.960001,eccentric,4,3.0,17294.0,134959.0,222086.0,274137.0,258806.0
2026-04-08 21:42:24.651889,157585,1609503716865770,1316832379,0.862784,0.368928,-0.236192,-21.34125,17.22875,1.12875,-14.152,-9.536,-18.960001,eccentric,4,3.0,17480.0,135428.0,222452.0,274285.0,258816.0
2026-04-08 21:42:24.654433,157586,1609503716874730,1316841073,0.753472,0.386496,0.111264,-12.76625,13.29125,5.60875,-14.104001,-9.512,-18.76,eccentric,4,3.0,17480.0,135428.0,222452.0,274285.0,258816.0
2026-04-08 21:42:24.656928,157587,1609503716889277,1316856001,0.753472,0.386496,0.111264,-8.09375,7.84,5.38125,-14.104001,-9.512,-18.76,eccentric,4,3.0,17480.0,135428.0,222452.0,274285.0,258816.0
2026-04-08 21:42:24.659366,157588,1609503716898240,1316864707,0.88816,0.310368,-0.076128,-8.74125,4.235,1.37375,-14.472001,-9.064,-17.584002,eccentric,4,3.0,17480.0,135428.0,222452.0,274285.0,258816.0
2026-04-08 21:42:24.665755,157589,1609503716912764,1316879605,0.860832,0.355264,-0.121024,-3.465,4.165,-1.67125,-14.584001,-8.896001,-18.52,eccentric,4,3.0,17480.0,135428.0,222452.0,274285.0,258816.0
2026-04-08 21:42:24.696991,157590,1609503716921673,1316888290,0.860832,0.355264,-0.121024,6.41375,5.6175,-1.8025,-14.584001,-8.896001,-18.52,eccentric,4,3.0,17480.0,135428.0,222452.0,274285.0,258816.0
2026-04-08 21:42:24.699512,157591,1609503716936158,1316903122,0.812032,0.40016,-0.00976,12.005,7.37625,1.8025,-14.6,-9.272,-18.800001,eccentric,4,3.0,17480.0,135428.0,222452.0,274285.0,258816.0
2026-04-08 21:42:24.701918,157592,1609503716945095,1316911799,0.812032,0.40016,-0.00976,12.1275,7.35,3.6925,-14.6,-9.272,-18.800001,eccentric,4,3.0,17480.0,135428.0,222452.0,274285.0,258816.0
2026-04-08 21:42:24.705711,157593,1609503716954060,1316920514,0.772992,0.392352,0.162016,3.21125,5.87125,3.08,-14.504001,-9.232,-18.688002,eccentric,4,3.0,17480.0,135428.0,222452.0,274285.0,258816.0
2026-04-08 21:42:24.735710,157604,1609503716968877,1316935509,0.772992,0.392352,0.162016,-5.41625,4.3925,0.72625,-14.504001,-9.232,-18.688002,eccentric,4,3.0,17484.0,135549.0,222720.0,274635.0,259132.0
2026-04-08 21:42:24.738195,157605,1609503716977889,1316944205,0.704672,0.365024,0.060512,-5.425,3.885,0.245,-14.68,-9.176001,-14.904,eccentric,4,3.0,17484.0,135549.0,222720.0,274635.0,259132.0
2026-04-08 21:42:24.795925,157606,1609503716992346,1316959061,0.696864,0.304512,-0.22448,-3.33375,3.745,0.13125,-14.712001,-9.152,-18.192001,eccentric,4,3.0,17484.0,135549.0,222720.0,274635.0,259132.0
2026-04-08 21:42:24.799487,157607,1609503717001310,1316967761,0.696864,0.304512,-0.22448,-2.21375,4.165,-1.42625,-14.712001,-9.152,-18.192001,eccentric,4,3.0,17484.0,135549.0,222720.0,274635.0,259132.0
2026-04-08 21:42:24.801963,157608,1609503717015776,1316982643,0.767136,0.339648,-0.10736,-4.78625,5.25,-2.3625,-14.408001,-8.888001,-18.336,eccentric,4,3.0,17484.0,135549.0,222720.0,274635.0,259132.0
2026-04-08 21:42:24.804474,157609,1609503717024719,1316991309,0.767136,0.339648,-0.10736,-8.1375,4.66375,-0.91875,-14.408001,-8.888001,-18.336,eccentric,4,3.0,17484.0,135549.0,222720.0,274635.0,259132.0
2026-04-08 21:42:24.806903,157610,1609503717033718,1316999963,0.694912,0.286944,0.066368,-3.35125,4.2875,1.4,-14.464001,-9.048,-18.12,eccentric,4,3.0,17484.0,135549.0,222720.0,274635.0,259132.0
2026-04-08 21:42:24.809419,157611,1609503717048200,1317014863,0.694912,0.286944,0.066368,4.7075,2.2925,4.445,-14.464001,-9.048,-18.12,eccentric,4,3.0,17484.0,135549.0,222720.0,274635.0,259132.0
2026-04-08 21:42:24.811948,157612,1609503717057169,1317023606,0.687104,0.199104,-0.228384,5.705,0.81375,4.69875,-14.400001,-9.208,-18.456001,eccentric,4,3.0,17484.0,135549.0,222720.0,274635.0,259132.0
2026-04-08 21:42:24.839400,157623,1609503717071837,1317038711,0.774944,0.257664,-0.247904,0.035,1.51375,1.91625,-14.712001,-9.384001,-18.424002,eccentric,4,3.0,17673.0,136013.0,223179.0,274985.0,259357.0
2026-04-08 21:42:24.842104,157624,1609503717080758,1317047368,0.774944,0.257664,-0.247904,-5.69625,5.11,0.2975,-14.712001,-9.384001,-18.424002,eccentric,4,3.0,17673.0,136013.0,223179.0,274985.0,259357.0
2026-04-08 21:42:24.844376,157625,1609503717089696,1317056042,0.774944,0.257664,-0.247904,-6.65875,7.46375,3.7275,-14.712001,-9.384001,-18.424002,eccentric,4,3.0,17673.0,136013.0,223179.0,274985.0,259357.0
2026-04-08 21:42:24.874730,157626,1609503717104221,1317070986,0.718336,0.298656,0.160064,-2.0125,6.53625,11.24375,-14.776001,-9.072001,-18.752,eccentric,4,3.0,17673.0,136013.0,223179.0,274985.0,259357.0
2026-04-08 21:42:24.879169,157627,1609503717113123,1317079651,0.72224,0.18544,0.130784,2.5375,4.5675,18.445,-14.984001,-9.024,-19.016,eccentric,4,3.0,17673.0,136013.0,223179.0,274985.0,259357.0
2026-04-08 21:42:24.886099,157628,1609503717127617,1317094555,0.72224,0.18544,0.130784,6.51875,2.40625,20.2825,-14.984001,-9.024,-19.016,eccentric,4,3.0,17673.0,136013.0,223179.0,274985.0,259357.0
2026-04-08 21:42:24.894853,157629,1609503717136619,1317103214,0.720288,0.16592,-0.261568,7.32375,2.05625,19.18875,-14.952001,-8.992001,-18.08,eccentric,4,3.0,17673.0,136013.0,223179.0,274985.0,259357.0
2026-04-08 21:42:24.923549,157630,1609503717151122,1317118136,0.720288,0.16592,0.050752,10.535,5.50375,18.375,-14.952001,-8.992001,-18.08,eccentric,4,3.0,17673.0,136013.0,223179.0,274985.0,259357.0
2026-04-08 21:42:24.951948,157641,1609503717160034,1317126832,0.84912,0.261568,0.056608,10.68375,8.19,21.665,-15.504001,-8.872001,-16.6,eccentric,4,3.0,17645.0,135972.0,223206.0,275141.0,259559.0
2026-04-08 21:42:24.956214,157642,1609503717169439,1317135674,0.84912,0.261568,0.056608,8.7325,7.455,28.0525,-15.504001,-8.872001,-16.6,eccentric,4,3.0,17645.0,135972.0,223206.0,275141.0,259559.0
2026-04-08 21:42:24.957982,157643,1609503717184017,1317150653,0.616832,0.245952,0.183488,15.07625,4.1475,31.7975,-15.488001,-8.512,-18.416,eccentric,4,3.0,17645.0,135972.0,223206.0,275141.0,259559.0
2026-04-08 21:42:24.959501,157644,1609503717193031,1317159329,0.769088,0.103456,0.060512,21.866251,-0.4025,38.64875,-15.664001,-7.608,-17.336,eccentric,4,3.0,17645.0,135972.0,223206.0,275141.0,259559.0
2026-04-08 21:42:24.962799,157645,1609503717207495,1317174201,0.769088,0.103456,0.060512,22.505,-4.2875,43.6625,-15.664001,-7.608,-17.336,eccentric,4,3.0,17645.0,135972.0,223206.0,275141.0,259559.0
2026-04-08 21:42:24.969872,157646,1609503717216477,1317182918,0.843264,0.083936,-0.249856,25.03375,-4.17375,39.87375,-15.984001,-7.808001,-16.976002,eccentric,4,3.0,17645.0,135972.0,223206.0,275141.0,259559.0
2026-04-08 21:42:24.998458,157647,1609503717230947,1317197796,0.843264,0.083936,-0.249856,26.88875,-1.0675,35.665,-15.984001,-7.808001,-16.976002,eccentric,4,3.0,17645.0,135972.0,223206.0,275141.0,259559.0
2026-04-08 21:42:25.002905,157648,1609503717239846,1317206490,0.872544,0.154208,0.021472,26.57375,1.68,34.79,-16.064001,-7.064,-18.592001,eccentric,4,3.0,17645.0,135972.0,223206.0,275141.0,259559.0
2026-04-08 21:42:25.004414,157649,1609503717248788,1317215181,0.872544,0.154208,0.021472,30.2575,5.1975,37.21375,-16.064001,-7.064,-18.592001,eccentric,4,3.0,17645.0,135972.0,223206.0,275141.0,259559.0
2026-04-08 21:42:25.099407,157660,1609503717263479,1317230150,0.765184,0.128832,0.12688,34.125,7.7,44.1175,-15.992001,-6.904,-18.240002,eccentric,4,3.0,17554.0,135802.0,223110.0,275043.0,259535.0
2026-04-08 21:42:25.103759,157661,1609503717272570,1317238923,0.765184,0.074176,-0.212768,33.4775,8.16375,48.97375,-15.992001,-6.904,-18.496,eccentric,4,3.0,17554.0,135802.0,223110.0,275043.0,259535.0
2026-04-08 21:42:25.105453,157662,1609503717287095,1317253777,0.765184,0.074176,-0.212768,31.1325,9.2225,48.326252,-16.392,-6.496,-18.496,eccentric,4,3.0,17554.0,135802.0,223110.0,275043.0,259535.0
2026-04-08 21:42:25.107013,157663,1609503717296130,1317262513,0.88816,0.12688,0.06832,32.10375,9.23125,49.21875,-16.880001,-5.856,-16.912,eccentric,4,3.0,17554.0,135802.0,223110.0,275043.0,259535.0
2026-04-08 21:42:25.111222,157664,1609503717305184,1317271223,0.88816,0.12688,0.06832,32.71625,9.66,53.1825,-16.880001,-5.856,-16.912,eccentric,4,3.0,17554.0,135802.0,223110.0,275043.0,259535.0
2026-04-08 21:42:25.112953,157665,1609503717319720,1317286142,0.782752,0.044896,-0.193248,36.75,12.075,56.41125,-16.904001,-5.36,-17.264,eccentric,4,3.0,17554.0,135802.0,223110.0,275043.0,259535.0
2026-04-08 21:42:25.115419,157666,1609503717328636,1317294810,0.782752,0.044896,-0.193248,33.0225,14.6825,59.0625,-16.904001,-5.36,-17.264,eccentric,4,3.0,17554.0,135802.0,223110.0,275043.0,259535.0
2026-04-08 21:42:25.117881,157667,1609503717343082,1317309662,0.882304,0.025376,-0.02928,25.90875,17.535,58.3625,-17.304,-5.432,-17.800001,eccentric,4,3.0,17554.0,135802.0,223110.0,275043.0,259535.0
2026-04-08 21:42:25.119481,157668,1609503717351966,1317318296,0.882304,0.025376,-0.02928,23.975,19.04875,57.225,-17.304,-5.432,-17.800001,eccentric,4,3.0,17554.0,135802.0,223110.0,275043.0,259535.0
2026-04-08 21:42:25.160784,157679,1609503717366591,1317333410,0.911584,0.037088,-0.001952,22.32125,19.55625,58.03875,-17.92,-4.696,-17.504002,eccentric,4,3.0,17578.0,135744.0,222972.0,274918.0,259425.0
2026-04-08 21:42:25.164537,157680,1609503717375643,1317342118,0.890112,0.017568,-0.128832,22.46125,18.33125,61.11875,-18.320002,-4.008,-17.640001,eccentric,4,3.0,17578.0,135744.0,222972.0,274918.0,259425.0
2026-04-08 21:42:25.167919,157681,1609503717384577,1317350834,0.890112,0.017568,-0.128832,23.38875,18.03375,63.06125,-18.320002,-4.008,-17.640001,eccentric,4,3.0,17578.0,135744.0,222972.0,274918.0,259425.0
2026-04-08 21:42:25.169455,157682,1609503717399052,1317365699,0.892064,0.011712,0.005856,26.2675,18.655,62.16,-18.344002,-3.624,-17.424002,eccentric,4,3.0,17578.0,135744.0,222972.0,274918.0,259425.0
2026-04-08 21:42:25.177479,157683,1609503717407986,1317374422,0.892064,0.011712,0.005856,29.93375,20.9475,61.215,-18.344002,-3.624,-17.424002,eccentric,4,3.0,17578.0,135744.0,222972.0,274918.0,259425.0
2026-04-08 21:42:25.179956,157684,1609503717422496,1317389329,0.853024,-0.064416,-0.115168,34.265,22.54875,63.83125,-18.664001,-3.448,-17.344002,eccentric,4,3.0,17578.0,135744.0,222972.0,274918.0,259425.0
2026-04-08 21:42:25.184407,157685,1609503717431401,1317398013,0.853024,-0.064416,-0.115168,35.07875,21.72625,67.515,-18.664001,-3.448,-17.344002,eccentric,4,3.0,17578.0,135744.0,222972.0,274918.0,259425.0
2026-04-08 21:42:25.214664,157686,1609503717445896,1317412906,0.970144,-0.07808,0.027328,30.89625,20.29125,66.36,-18.928001,-2.672,-15.944001,eccentric,4,3.0,17578.0,135744.0,222972.0,274918.0,259425.0
2026-04-08 21:42:25.218508,157687,1609503717454801,1317421588,0.91744,-0.037088,-0.070272,28.30625,20.7375,63.63,-19.376001,-1.936,-16.888,eccentric,4,3.0,17578.0,135744.0,222972.0,274918.0,259425.0
2026-04-08 21:42:25.259423,157698,1609503717463788,1317430342,0.91744,-0.037088,-0.070272,26.7225,23.415,63.603752,-19.376001,-1.936,-16.888,eccentric,4,3.0,17691.0,135935.0,223015.0,274842.0,259294.0
2026-04-08 21:42:25.261929,157699,1609503717478368,1317445255,0.84912,-0.03904,-0.162016,27.16,26.83625,65.1,-19.856,-1.456,-15.424001,eccentric,4,3.0,17691.0,135935.0,223015.0,274842.0,259294.0
2026-04-08 21:42:25.264465,157700,1609503717487379,1317453975,0.84912,-0.03904,-0.162016,27.2825,29.60125,67.9175,-19.856,-1.456,-15.424001,eccentric,4,3.0,17691.0,135935.0,223015.0,274842.0,259294.0
2026-04-08 21:42:25.266929,157701,1609503717501884,1317468868,0.931104,-0.163968,0.02928,30.0475,30.905,71.98625,-20.216002,-0.896,-15.440001,eccentric,4,3.0,17691.0,135935.0,223015.0,274842.0,259294.0
2026-04-08 21:42:25.269453,157702,1609503717510812,1317477520,0.931104,-0.163968,0.02928,27.973751,30.40625,76.85125,-20.216002,-0.896,-15.440001,eccentric,4,3.0,17691.0,135935.0,223015.0,274842.0,259294.0
2026-04-08 21:42:25.299713,157703,1609503717525346,1317492383,1.011136,-0.193248,-0.181536,17.0275,29.25125,76.8075,-20.352001,-0.744,-14.752001,eccentric,4,3.0,17691.0,135935.0,223015.0,274842.0,259294.0
2026-04-08 21:42:25.303251,157704,1609503717534263,1317501071,1.001376,-0.103456,0.144448,8.1725,30.54625,69.3,-20.352001,-0.256,-14.928,eccentric,4,3.0,17691.0,135935.0,223015.0,274842.0,259294.0
2026-04-08 21:42:25.305733,157705,1609503717543164,1317509749,1.001376,-0.103456,0.144448,10.96375,32.38375,63.51625,-20.576,-0.256,-14.928,eccentric,4,3.0,17691.0,135935.0,223015.0,274842.0,259294.0
2026-04-08 21:42:25.310933,157706,1609503717557627,1317524615,0.860832,-0.101504,0.163968,21.805,33.39,65.68625,-21.024,0.352,-15.072001,eccentric,4,3.0,17691.0,135935.0,223015.0,274842.0,259294.0
2026-04-08 21:42:25.338199,157717,1609503717566685,1317533355,0.860832,-0.101504,0.163968,31.78,32.85625,71.51375,-21.024,0.352,-15.072001,eccentric,4,3.0,17521.0,135497.0,222653.0,274670.0,259265.0
2026-04-08 21:42:25.340638,157718,1609503717581250,1317548252,0.989664,-0.197152,-0.007808,35.2975,32.795002,76.405,-21.272001,1.024,-15.704,eccentric,4,3.0,17521.0,135497.0,222653.0,274670.0,259265.0
2026-04-08 21:42:25.343220,157719,1609503717590164,1317556901,0.989664,-0.197152,-0.007808,26.022501,30.65125,78.05,-21.272001,1.024,-15.704,eccentric,4,3.0,17521.0,135497.0,222653.0,274670.0,259265.0
2026-04-08 21:42:25.395917,157720,1609503717604636,1317571780,1.05408,-0.20496,0.050752,13.7025,29.89875,72.52875,-21.720001,1.392,-14.464001,eccentric,4,3.0,17521.0,135497.0,222653.0,274670.0,259265.0
2026-04-08 21:42:25.399503,157721,1609503717613560,1317580445,1.05408,-0.20496,0.050752,11.85625,32.515,64.54875,-21.720001,1.392,-14.464001,eccentric,4,3.0,17521.0,135497.0,222653.0,274670.0,259265.0
2026-04-08 21:42:25.401929,157722,1609503717622494,1317589109,0.997472,-0.20496,0.091744,17.08875,34.30875,65.33625,-21.944,2.176,-14.296001,eccentric,4,3.0,17521.0,135497.0,222653.0,274670.0,259265.0
2026-04-08 21:42:25.404423,157723,1609503717636984,1317603952,0.874496,-0.244,-0.050752,22.0325,35.02625,72.24875,-22.424002,2.84,-13.912001,eccentric,4,3.0,17521.0,135497.0,222653.0,274670.0,259265.0
2026-04-08 21:42:25.406970,157724,1609503717645989,1317612623,0.874496,-0.244,-0.050752,22.8025,34.58875,75.76625,-22.424002,2.84,-13.912001,eccentric,4,3.0,17521.0,135497.0,222653.0,274670.0,259265.0
2026-04-08 21:42:25.414532,157725,1609503717660481,1317627471,1.163392,-0.318176,-0.05856,17.17625,33.83625,75.22375,-22.36,3.208,-12.496,eccentric,4,3.0,17521.0,135497.0,222653.0,274670.0,259265.0
2026-04-08 21:42:25.449533,157736,1609503717669496,1317636264,1.163392,-0.318176,-0.05856,7.86625,33.29375,72.03875,-22.36,3.208,-12.496,eccentric,4,3.0,17687.0,135670.0,222519.0,274272.0,258801.0
2026-04-08 21:42:25.451910,157737,1609503717678477,1317644967,1.157536,-0.27328,0.138592,4.34875,35.55125,64.6975,-22.368002,3.824,-11.848001,eccentric,4,3.0,17687.0,135670.0,222519.0,274272.0,258801.0
2026-04-08 21:42:25.454368,157738,1609503717692968,1317659844,1.157536,-0.27328,0.138592,4.48875,38.54375,60.62,-22.368002,3.824,-11.848001,eccentric,4,3.0,17687.0,135670.0,222519.0,274272.0,258801.0
2026-04-08 21:42:25.464772,157739,1609503717701877,1317668546,0.923296,-0.236192,-0.031232,8.2075,39.64625,60.83,-23.160002,4.344,-11.016001,eccentric,4,3.0,17687.0,135670.0,222519.0,274272.0,258801.0
2026-04-08 21:42:25.487169,157740,1609503717716421,1317683437,0.90768,-0.316224,-0.046848,12.5825,38.815,64.26875,-23.448002,4.768,-12.456,eccentric,4,3.0,17687.0,135670.0,222519.0,274272.0,258801.0
2026-04-08 21:42:25.490683,157741,1609503717725358,1317692122,0.90768,-0.316224,-0.046848,12.08375,36.47,68.04,-23.448002,4.768,-12.456,eccentric,4,3.0,17687.0,135670.0,222519.0,274272.0,258801.0
2026-04-08 21:42:25.497468,157742,1609503717739828,1317704969,1.030656,-0.359168,-0.080032,7.7875,33.34625,70.7175,-23.504002,5.528,-11.576,eccentric,4,3.0,17687.0,135670.0,222519.0,274272.0,258801.0
2026-04-08 21:42:25.502013,157743,1609503717748952,1317715691,1.030656,-0.359168,-0.080032,3.08,31.99,66.902504,-23.504002,5.528,-11.576,eccentric,4,3.0,17687.0,135670.0,222519.0,274272.0,258801.0
2026-04-08 21:42:25.532192,157744,1609503717757913,1317724329,1.10288,-0.335744,0.031232,5.04875,33.55625,59.36,-23.192001,5.64,-10.352,eccentric,4,3.0,17687.0,135670.0,222519.0,274272.0,258801.0
2026-04-08 21:42:25.594483,157755,1609503717772721,1317739535,1.10288,-0.335744,0.031232,7.44625,35.175,58.28375,-23.192001,5.64,-10.352,eccentric,4,3.0,17479.0,135169.0,222153.0,274257.0,258952.0
2026-04-08 21:42:25.599431,157756,1609503717781625,1317748176,1.020896,-0.30256,0.1952,6.88625,34.8775,59.6575,-24.080002,6.048,-10.416,eccentric,4,3.0,17479.0,135169.0,222153.0,274257.0,258952.0
2026-04-08 21:42:25.601908,157757,1609503717796126,1317763031,0.89792,-0.339648,0.05856,6.51875,33.355,59.10625,-24.080002,6.68,-11.048,eccentric,4,3.0,17479.0,135169.0,222153.0,274257.0,258952.0
2026-04-08 21:42:25.604399,157758,1609503717805043,1317771706,0.89792,-0.339648,0.05856,5.32,31.10625,60.62875,-23.880001,6.68,-11.048,eccentric,4,3.0,17479.0,135169.0,222153.0,274257.0,258952.0
2026-04-08 21:42:25.606962,157759,1609503717819548,1317786582,1.022848,-0.40992,0.189344,5.55625,29.1375,62.06375,-24.024002,7.048,-10.248,eccentric,4,3.0,17479.0,135169.0,222153.0,274257.0,258952.0
2026-04-08 21:42:25.609399,157760,1609503717828499,1317795259,1.022848,-0.40992,0.189344,5.46,27.85125,58.52875,-24.024002,7.048,-10.248,eccentric,4,3.0,17479.0,135169.0,222153.0,274257.0,258952.0
2026-04-08 21:42:25.611942,157761,1609503717837571,1317803990,0.935008,-0.357216,-0.052704,3.50875,27.72875,54.53875,-24.592001,7.408001,-9.384001,eccentric,4,3.0,17479.0,135169.0,222153.0,274257.0,258952.0
2026-04-08 21:42:25.614415,157762,1609503717852089,1317818894,0.935008,-0.357216,-0.052704,1.67125,28.192501,51.695,-24.592001,7.408001,-9.384001,eccentric,4,3.0,17479.0,135169.0,222153.0,274257.0,258952.0
2026-04-08 21:42:25.616932,157763,1609503717861026,1317827619,1.001376,-0.38064,0.076128,-0.48125,29.12875,47.22375,-24.432001,7.512001,-8.312,eccentric,4,3.0,17479.0,135169.0,222153.0,274257.0,258952.0
2026-04-08 21:42:25.644376,157774,1609503717875572,1317842669,1.001376,-0.38064,0.076128,-2.87,28.51625,44.5375,-24.432001,7.512001,-8.312,eccentric,4,3.0,17381.0,134869.0,222011.0,274230.0,259071.0
2026-04-08 21:42:25.646875,157775,1609503717884519,1317851409,1.016992,-0.396256,0.193248,-7.14,26.78375,42.23625,-24.616001,8.016001,-7.776001,eccentric,4,3.0,17381.0,134869.0,222011.0,274230.0,259071.0
2026-04-08 21:42:25.650699,157776,1609503717899011,1317864276,1.016992,-0.40992,0.22448,-8.015,23.87,40.74875,-24.68,8.104,-7.416,eccentric,4,3.0,17381.0,134869.0,222011.0,274230.0,259071.0
2026-04-08 21:42:25.695999,157777,1609503717908356,1317875043,1.016992,-0.40992,0.22448,-1.4875,21.428751,38.395,-24.68,8.104,-7.416,eccentric,4,3.0,17381.0,134869.0,222011.0,274230.0,259071.0
2026-04-08 21:42:25.699378,157778,1609503717917311,1317883743,0.977952,-0.337696,-0.02928,4.62875,20.195,35.665,-24.776001,8.616,-6.168,eccentric,4,3.0,17381.0,134869.0,222011.0,274230.0,259071.0
2026-04-08 21:42:25.701935,157779,1609503717931783,1317898599,0.977952,-0.337696,-0.02928,6.13375,18.96125,32.78625,-24.776001,8.616,-6.168,eccentric,4,3.0,17381.0,134869.0,222011.0,274230.0,259071.0
2026-04-08 21:42:25.704435,157780,1609503717940689,1317907259,0.989664,-0.308416,-0.0488,8.4,19.460001,31.92,-24.840002,9.024,-7.816001,eccentric,4,3.0,17381.0,134869.0,222011.0,274230.0,259071.0
2026-04-08 21:42:25.712137,157781,1609503717955169,1317922113,0.989664,-0.308416,-0.0488,9.485,19.03125,34.72,-24.840002,9.024,-7.816001,eccentric,4,3.0,17381.0,134869.0,222011.0,274230.0,259071.0
2026-04-08 21:42:25.745691,157792,1609503717964098,1317930783,0.979904,-0.372832,0.03904,3.78,17.0975,35.77,-25.016,9.320001,-6.224001,eccentric,4,3.0,17379.0,134852.0,222124.0,274393.0,259155.0
2026-04-08 21:42:25.748070,157793,1609503717973485,1317939484,0.979904,-0.372832,0.03904,-1.14625,14.3675,32.48,-25.016,9.320001,-6.224001,eccentric,4,3.0,17379.0,134852.0,222124.0,274393.0,259155.0
2026-04-08 21:42:25.750634,157794,1609503717988131,1317954368,1.038464,-0.386496,-0.015616,-0.7175,12.55625,30.09125,-24.968,9.424001,-7.624001,eccentric,4,3.0,17379.0,134852.0,222124.0,274393.0,259155.0
2026-04-08 21:42:25.753170,157795,1609503717997094,1317963040,1.007232,-0.290848,0.003904,5.10125,13.195,28.7,-24.968,9.424001,-7.488,eccentric,4,3.0,17379.0,134852.0,222124.0,274393.0,259155.0
2026-04-08 21:42:25.783380,157796,1609503718011596,1317977885,1.00528,-0.290848,0.003904,11.01625,13.51,28.93625,-25.088001,9.544001,-7.488,eccentric,4,3.0,17379.0,134852.0,222124.0,274393.0,259155.0
2026-04-08 21:42:25.790018,157797,1609503718020509,1317986596,0.925248,-0.240096,0.150304,11.55875,13.125,28.91875,-25.456001,10.232,-7.232,eccentric,4,3.0,17379.0,134852.0,222124.0,274393.0,259155.0
2026-04-08 21:42:25.792933,157798,1609503718029374,1317995291,0.925248,-0.240096,0.150304,7.77,10.815,29.42625,-25.456001,10.232,-7.232,eccentric,4,3.0,17379.0,134852.0,222124.0,274393.0,259155.0
2026-04-08 21:42:25.796962,157799,1609503718043921,1318010184,1.009184,-0.325984,0.279136,2.35375,7.8225,28.79625,-25.032001,10.384001,-7.04,eccentric,4,3.0,17379.0,134852.0,222124.0,274393.0,259155.0
2026-04-08 21:42:25.827133,157800,1609503718052826,1318018849,1.009184,-0.325984,0.279136,0.30625,5.67875,25.8125,-25.032001,10.384001,-7.04,eccentric,4,3.0,17379.0,134852.0,222124.0,274393.0,259155.0
2026-04-08 21:42:25.855765,157811,1609503718067633,1318033815,0.892064,-0.314272,0.10736,2.1,3.92,22.93375,-24.992,10.240001,-5.616,eccentric,4,3.0,17308.0,134727.0,222138.0,274518.0,259323.0
2026-04-08 21:42:25.858249,157812,1609503718076673,1318042545,0.892064,-0.314272,0.10736,5.1275,3.255,21.65625,-24.992,10.240001,-5.616,eccentric,4,3.0,17308.0,134727.0,222138.0,274518.0,259323.0
2026-04-08 21:42:25.861047,157813,1609503718091180,1318057454,0.874496,-0.259616,0.158112,5.6525,2.19625,20.1075,-25.272001,10.608001,-4.968,eccentric,4,3.0,17308.0,134727.0,222138.0,274518.0,259323.0
2026-04-08 21:42:25.865743,157814,1609503718100063,1318066126,0.88816,-0.277184,0.255712,3.8325,2.0475,17.7975,-25.064001,10.672001,-5.856,eccentric,4,3.0,17308.0,134727.0,222138.0,274518.0,259323.0
2026-04-08 21:42:25.870629,157815,1609503718109047,1318074867,0.88816,-0.277184,0.255712,-0.37625,0.3675,15.81125,-25.064001,10.672001,-5.856,eccentric,4,3.0,17308.0,134727.0,222138.0,274518.0,259323.0
2026-04-08 21:42:25.898360,157816,1609503718123561,1318089757,0.925248,-0.339648,0.119072,-6.34375,-1.295,13.16875,-25.056002,10.992001,-5.496,eccentric,4,3.0,17308.0,134727.0,222138.0,274518.0,259323.0
2026-04-08 21:42:25.901876,157817,1609503718132458,1318098382,0.925248,-0.339648,0.119072,-10.57875,-2.70375,12.92375,-25.056002,10.992001,-5.496,eccentric,4,3.0,17308.0,134727.0,222138.0,274518.0,259323.0
2026-04-08 21:42:25.904400,157818,1609503718146906,1318113225,0.80032,-0.324032,0.021472,-10.3075,-3.49125,11.34875,-24.76,10.872001,-6.688,eccentric,4,3.0,17308.0,134727.0,222138.0,274518.0,259323.0
2026-04-08 21:42:25.906839,157819,1609503718155841,1318121924,0.80032,-0.324032,0.021472,-9.38875,-3.78875,6.3,-24.76,10.872001,-6.688,eccentric,4,3.0,17308.0,134727.0,222138.0,274518.0,259323.0
2026-04-08 21:42:25.963177,157830,1609503718170527,1318136840,0.895968,-0.339648,0.189344,-8.575,-4.80375,3.91125,-25.000002,10.808001,-7.648,eccentric,4,3.0,17203.0,134486.0,221970.0,274510.0,259375.0
2026-04-08 21:42:26.003211,157831,1609503718179492,1318145565,0.808128,-0.339648,0.003904,-8.14625,-6.16,2.19625,-24.816002,10.752001,-7.584001,eccentric,4,3.0,17203.0,134486.0,221970.0,274510.0,259375.0
2026-04-08 21:42:26.008384,157832,1609503718188441,1318154212,0.808128,-0.339648,0.003904,-8.70625,-7.5425,-1.6975,-24.816002,10.752001,-7.584001,eccentric,4,3.0,17203.0,134486.0,221970.0,274510.0,259375.0
2026-04-08 21:42:26.010622,157833,1609503718202953,1318169096,0.892064,-0.355264,0.12688,-7.385,-8.47,-5.71375,-25.152,11.048,-5.8,eccentric,4,3.0,17203.0,134486.0,221970.0,274510.0,259375.0
2026-04-08 21:42:26.013736,157834,1609503718211896,1318177808,0.892064,-0.355264,0.12688,-6.1075,-9.1,-8.085,-25.152,11.048,-5.8,eccentric,4,3.0,17203.0,134486.0,221970.0,274510.0,259375.0
2026-04-08 21:42:26.016040,157835,1609503718226379,1318192687,0.823744,-0.296704,0.093696,-4.85625,-9.52875,-10.395,-25.2,10.512,-6.256001,eccentric,4,3.0,17203.0,134486.0,221970.0,274510.0,259375.0
2026-04-08 21:42:26.018112,157836,1609503718235337,1318201360,0.823744,-0.296704,0.093696,-5.34625,-10.4825,-12.64375,-25.2,10.512,-6.256001,eccentric,4,3.0,17203.0,134486.0,221970.0,274510.0,259375.0
2026-04-08 21:42:26.020622,157837,1609503718249800,1318216225,0.895968,-0.308416,0.197152,-6.895,-11.3225,-14.27125,-25.184002,10.064,-7.2,eccentric,4,3.0,17203.0,134486.0,221970.0,274510.0,259375.0
2026-04-08 21:42:26.023083,157838,1609503718258727,1318224936,0.802272,-0.304512,0.197152,-8.84625,-11.80375,-16.00375,-25.184002,10.064,-8.576,eccentric,4,3.0,17203.0,134486.0,221970.0,274510.0,259375.0
2026-04-08 21:42:26.050633,157849,1609503718267763,1318233963,0.81008,-0.304512,0.197152,-10.2725,-13.0375,-18.515,-25.456001,10.56,-8.576,eccentric,4,3.0,17172.0,134384.0,221863.0,274431.0,259321.0
2026-04-08 21:42:26.053637,157850,1609503718282323,1318248959,0.8296,-0.357216,-0.025376,-9.292501,-14.42,-21.315,-25.128,10.296001,-7.6,eccentric,4,3.0,17172.0,134384.0,221863.0,274431.0,259321.0
2026-04-08 21:42:26.055915,157851,1609503718291277,1318257644,0.8296,-0.357216,-0.025376,-6.4575,-15.8025,-23.38875,-25.128,10.296001,-7.6,concentric,4,3.0,17172.0,134384.0,221863.0,274431.0,259321.0
2026-04-08 21:42:26.058128,157852,1609503718305793,1318272598,0.862784,-0.333792,-0.015616,-3.59625,-17.03625,-25.2,-25.368002,9.976001,-8.056001,concentric,4,3.0,17172.0,134384.0,221863.0,274431.0,259321.0
2026-04-08 21:42:26.088366,157853,1609503718314693,1318281299,0.862784,-0.333792,-0.015616,-2.45875,-18.06875,-27.69375,-25.368002,9.976001,-8.056001,concentric,4,3.0,17172.0,134384.0,221863.0,274431.0,259321.0
2026-04-08 21:42:26.091900,157854,1609503718329233,1318296187,0.851072,-0.296704,0.025376,-3.42125,-18.26125,-30.77375,-24.960001,9.656,-7.336,concentric,4,3.0,17172.0,134384.0,221863.0,274431.0,259321.0
2026-04-08 21:42:26.094360,157855,1609503718338169,1318304806,0.851072,-0.296704,0.025376,-4.9525,-18.12125,-31.745,-24.960001,9.656,-7.336,concentric,4,3.0,17172.0,134384.0,221863.0,274431.0,259321.0
2026-04-08 21:42:26.099372,157856,1609503718347117,1318313517,0.8784,-0.2928,0.183488,-6.2475,-18.55,-33.11,-25.312,9.0,-6.896,concentric,4,3.0,17172.0,134384.0,221863.0,274431.0,259321.0
2026-04-08 21:42:26.129672,157857,1609503718361609,1318328429,0.96624,-0.335744,0.222528,-5.48625,-20.0375,-34.51,-25.112001,8.992001,-8.976001,concentric,4,3.0,17172.0,134384.0,221863.0,274431.0,259321.0
2026-04-08 21:42:26.158182,157868,1609503718370744,1318337113,0.96624,-0.335744,0.222528,-4.43625,-21.84875,-35.035,-25.112001,8.992001,-8.976001,concentric,4,3.0,17213.0,134428.0,221780.0,274214.0,259090.0
2026-04-08 21:42:26.160620,157869,1609503718385250,1318352040,0.991616,-0.359168,0.007808,-3.395,-22.855,-37.3275,-24.984001,8.792001,-9.280001,concentric,4,3.0,17213.0,134428.0,221780.0,274214.0,259090.0
2026-04-08 21:42:26.163182,157870,1609503718394250,1318360761,0.991616,-0.359168,0.007808,-3.15,-23.275,-39.73375,-24.984001,8.792001,-9.280001,concentric,4,3.0,17213.0,134428.0,221780.0,274214.0,259090.0
2026-04-08 21:42:26.165631,157871,1609503718403154,1318369441,0.976,-0.286944,0.181536,-6.36125,-24.115,-42.70875,-24.888,8.432,-9.456,concentric,4,3.0,17213.0,134428.0,221780.0,274214.0,259090.0
2026-04-08 21:42:26.170626,157872,1609503718417655,1318384361,0.976,-0.286944,0.181536,-9.9925,-25.96125,-46.43625,-24.888,8.432,-9.456,concentric,4,3.0,17213.0,134428.0,221780.0,274214.0,259090.0
2026-04-08 21:42:26.200972,157873,1609503718426600,1318393040,1.0248,-0.32208,0.26352,-8.925,-28.2625,-48.79,-24.792002,8.200001,-8.808001,concentric,4,3.0,17213.0,134428.0,221780.0,274214.0,259090.0
2026-04-08 21:42:26.204396,157874,1609503718441157,1318407869,1.065792,-0.353312,0.072224,-2.07375,-29.9075,-48.46625,-24.792002,7.656,-11.848001,concentric,4,3.0,17213.0,134428.0,221780.0,274214.0,259090.0
2026-04-08 21:42:26.207017,157875,1609503718450106,1318416523,1.065792,-0.353312,0.072224,4.9875,-31.5175,-46.7775,-24.792002,7.656,-11.848001,concentric,4,3.0,17213.0,134428.0,221780.0,274214.0,259090.0
2026-04-08 21:42:26.237144,157876,1609503718464600,1318431433,0.979904,-0.275232,-0.121024,6.58875,-32.0775,-47.888752,-24.864,7.568,-10.688001,concentric,4,3.0,17213.0,134428.0,221780.0,274214.0,259090.0
2026-04-08 21:42:26.304346,157887,1609503718473621,1318440156,0.979904,-0.275232,-0.121024,3.17625,-31.87625,-51.40625,-24.864,7.568,-10.688001,concentric,4,3.0,17220.0,134360.0,221513.0,273831.0,258765.0
2026-04-08 21:42:26.306914,157888,1609503718482541,1318448876,0.98576,-0.261568,-0.056608,-0.9625,-31.70125,-53.27875,-24.728,7.144001,-11.032001,concentric,4,3.0,17220.0,134360.0,221513.0,273831.0,258765.0
2026-04-08 21:42:26.309377,157889,1609503718497024,1318463731,0.98576,-0.261568,-0.056608,-6.30875,-32.5675,-53.235,-24.728,7.144001,-11.032001,concentric,4,3.0,17220.0,134360.0,221513.0,273831.0,258765.0
2026-04-08 21:42:26.311898,157890,1609503718506051,1318472466,0.977952,-0.284992,0.203008,-11.261251,-33.888752,-53.96125,-24.664001,6.712,-10.544001,concentric,4,3.0,17220.0,134360.0,221513.0,273831.0,258765.0
2026-04-08 21:42:26.314476,157891,1609503718520559,1318487365,0.94672,-0.33184,-0.021472,-10.5,-35.42875,-56.97125,-24.664001,4.664,-13.6,concentric,4,3.0,17220.0,134360.0,221513.0,273831.0,258765.0
2026-04-08 21:42:26.316880,157892,1609503718529474,1318496027,0.94672,-0.33184,-0.021472,-4.2,-36.37375,-58.4325,-24.04,6.048,-13.6,concentric,4,3.0,17220.0,134360.0,221513.0,273831.0,258765.0
2026-04-08 21:42:26.319372,157893,1609503718543992,1318510870,1.003328,-0.277184,-0.074176,1.02375,-37.0475,-58.23125,-24.024002,5.6,-12.256001,concentric,4,3.0,17220.0,134360.0,221513.0,273831.0,258765.0
2026-04-08 21:42:26.321804,157894,1609503718552937,1318519551,1.003328,-0.277184,-0.074176,0.32375,-36.9775,-60.48,-24.024002,5.6,-12.256001,concentric,4,3.0,17220.0,134360.0,221513.0,273831.0,258765.0
2026-04-08 21:42:26.328122,157895,1609503718561870,1318528238,1.085312,-0.27328,0.085888,-4.64625,-35.51625,-62.475,-23.800001,5.152,-12.536,concentric,4,3.0,17220.0,134360.0,221513.0,273831.0,258765.0
2026-04-08 21:42:26.361854,157906,1609503718576918,1318543174,1.085312,-0.27328,0.085888,-12.9325,-34.5275,-62.65875,-23.800001,5.152,-12.536,concentric,4,3.0,17204.0,134248.0,221306.0,273606.0,258580.0
2026-04-08 21:42:26.364364,157907,1609503718585900,1318551874,1.028704,-0.318176,0.03904,-19.06625,-34.09875,-63.7525,-23.824001,4.976,-12.312,concentric,4,3.0,17204.0,134248.0,221306.0,273606.0,258580.0
2026-04-08 21:42:26.366903,157908,1609503718600393,1318566771,1.028704,-0.318176,0.03904,-21.11375,-34.93875,-65.93125,-23.824001,4.976,-12.312,concentric,4,3.0,17204.0,134248.0,221306.0,273606.0,258580.0
2026-04-08 21:42:26.369379,157909,1609503718609414,1318575552,0.993568,-0.284992,-0.03904,-19.39875,-35.4725,-68.94125,-23.560001,4.272,-13.472001,concentric,4,3.0,17204.0,134248.0,221306.0,273606.0,258580.0
2026-04-08 21:42:26.371887,157910,1609503718618445,1318584271,0.993568,-0.284992,-0.03904,-15.846251,-34.55375,-71.1725,-23.560001,4.272,-13.472001,concentric,4,3.0,17204.0,134248.0,221306.0,273606.0,258580.0
2026-04-08 21:42:26.402278,157911,1609503718632945,1318599145,1.05408,-0.218624,0.044896,-13.3175,-34.1425,-71.88125,-23.024,3.712,-13.000001,concentric,4,3.0,17204.0,134248.0,221306.0,273606.0,258580.0
2026-04-08 21:42:26.405742,157912,1609503718641837,1318607787,1.13216,-0.240096,0.054656,-13.011251,-33.85375,-71.365,-23.224,3.08,-11.296001,concentric,4,3.0,17204.0,134248.0,221306.0,273606.0,258580.0
2026-04-08 21:42:26.408211,157913,1609503718656341,1318622718,1.13216,-0.240096,0.054656,-14.91875,-33.6525,-71.53125,-23.224,3.08,-11.296001,concentric,4,3.0,17204.0,134248.0,221306.0,273606.0,258580.0
2026-04-08 21:42:26.438392,157914,1609503718665270,1318631398,1.077504,-0.284992,0.037088,-16.24875,-34.755,-73.57875,-22.832,2.816,-14.616001,concentric,4,3.0,17204.0,134248.0,221306.0,273606.0,258580.0
2026-04-08 21:42:26.469408,157925,1609503718679933,1318646550,1.077504,-0.284992,0.037088,-16.24,-36.1375,-74.935,-22.832,2.816,-14.616001,concentric,4,3.0,17143.0,134033.0,220934.0,273237.0,258291.0
2026-04-08 21:42:26.471975,157926,1609503718688924,1318655219,1.087264,-0.249856,-0.052704,-17.0625,-37.826252,-75.0575,-22.216002,2.128,-16.712,concentric,4,3.0,17143.0,134033.0,220934.0,273237.0,258291.0
2026-04-08 21:42:26.474423,157927,1609503718697899,1318663964,1.087264,-0.249856,-0.052704,-16.5725,-37.52875,-76.16,-22.216002,2.128,-16.712,concentric,4,3.0,17143.0,134033.0,220934.0,273237.0,258291.0
2026-04-08 21:42:26.476878,157928,1609503718712357,1318678906,1.110688,-0.216672,0.05856,-15.25125,-35.3675,-77.56875,-22.144001,1.472,-13.728001,concentric,4,3.0,17143.0,134033.0,220934.0,273237.0,258291.0
2026-04-08 21:42:26.479542,157929,1609503718721295,1318687602,1.110688,-0.216672,-0.003904,-14.9975,-34.37875,-76.86,-22.144001,1.472,-13.728001,concentric,4,3.0,17143.0,134033.0,220934.0,273237.0,258291.0
2026-04-08 21:42:26.511967,157930,1609503718735784,1318702474,1.089216,-0.220576,-0.001952,-18.68125,-32.62875,-74.83875,-21.384,0.928,-13.168,concentric,4,3.0,17143.0,134033.0,220934.0,273237.0,258291.0
2026-04-08 21:42:26.513628,157931,1609503718744688,1318711145,1.003328,-0.177632,-0.05856,-23.14375,-31.56125,-74.31375,-21.336,0.352,-16.232,concentric,4,3.0,17143.0,134033.0,220934.0,273237.0,258291.0
2026-04-08 21:42:26.515989,157932,1609503718759181,1318726036,1.003328,-0.177632,-0.05856,-27.1775,-30.93125,-73.465004,-21.336,0.352,-16.232,concentric,4,3.0,17143.0,134033.0,220934.0,273237.0,258291.0
2026-04-08 21:42:26.554470,157943,1609503718768096,1318734680,1.057984,-0.206912,-0.220576,-29.3825,-29.1025,-72.51125,-20.984001,-0.392,-16.496,concentric,4,3.0,17216.0,134150.0,220895.0,273097.0,258118.0
2026-04-08 21:42:26.556949,157944,1609503718777109,1318743404,1.057984,-0.206912,-0.220576,-30.56375,-26.74875,-70.945,-20.984001,-0.392,-16.496,concentric,4,3.0,17216.0,134150.0,220895.0,273097.0,258118.0
2026-04-08 21:42:26.559457,157945,1609503718791633,1318758281,0.981856,-0.163968,-0.099552,-31.73625,-23.616251,-70.3325,-20.592001,-0.328,-16.504002,concentric,4,3.0,17216.0,134150.0,220895.0,273097.0,258118.0
2026-04-08 21:42:26.561903,157946,1609503718800646,1318766950,0.981856,-0.163968,-0.099552,-33.06625,-21.79625,-70.32375,-20.592001,-0.328,-16.504002,concentric,4,3.0,17216.0,134150.0,220895.0,273097.0,258118.0
2026-04-08 21:42:26.595899,157947,1609503718815177,1318781825,0.96624,-0.181536,-0.16592,-31.64,-22.995,-70.07875,-20.304,-1.168,-16.864,concentric,4,3.0,17216.0,134150.0,220895.0,273097.0,258118.0
2026-04-08 21:42:26.599473,157948,1609503718824096,1318790515,0.962336,-0.130784,-0.13664,-26.25875,-24.68375,-68.6875,-19.968,-1.624,-15.136001,concentric,4,3.0,17216.0,134150.0,220895.0,273097.0,258118.0
2026-04-08 21:42:26.601904,157949,1609503718838554,1318805378,0.962336,-0.130784,-0.13664,-24.15,-24.84125,-67.7425,-19.968,-1.624,-15.136001,concentric,4,3.0,17216.0,134150.0,220895.0,273097.0,258118.0
2026-04-08 21:42:26.604312,157950,1609503718847484,1318814029,1.001376,-0.113216,-0.040992,-22.37375,-23.54625,-68.0225,-19.76,-2.064,-17.112001,concentric,4,3.0,17216.0,134150.0,220895.0,273097.0,258118.0
2026-04-08 21:42:26.609441,157951,1609503718856418,1318822689,1.001376,-0.113216,-0.040992,-22.47875,-21.7875,-66.87625,-19.76,-2.064,-17.112001,concentric,4,3.0,17216.0,134150.0,220895.0,273097.0,258118.0
2026-04-08 21:42:26.666320,157962,1609503718871055,1318837631,0.997472,-0.105408,-0.007808,-26.67,-21.647501,-65.16125,-19.088001,-2.344,-17.320002,concentric,4,3.0,17099.0,133930.0,220709.0,273020.0,258161.0
2026-04-08 21:42:26.668174,157963,1609503718880107,1318846399,0.997472,-0.105408,-0.007808,-31.64875,-21.93625,-64.12,-19.088001,-2.344,-17.320002,concentric,4,3.0,17099.0,133930.0,220709.0,273020.0,258161.0
2026-04-08 21:42:26.671278,157964,1609503718894592,1318861258,1.009184,-0.081984,0.101504,-33.915,-21.18375,-64.995,-19.008001,-2.952,-17.568,concentric,4,3.0,17099.0,133930.0,220709.0,273020.0,258161.0
2026-04-08 21:42:26.674583,157965,1609503718903551,1318869988,0.905728,-0.052704,-0.122976,-31.75375,-21.42,-65.8875,-18.816,-3.456,-16.256,concentric,4,3.0,17099.0,133930.0,220709.0,273020.0,258161.0
2026-04-08 21:42:26.676082,157966,1609503718912491,1318878708,0.905728,-0.052704,-0.122976,-23.49375,-21.21875,-63.98875,-18.816,-3.456,-16.256,concentric,4,3.0,17099.0,133930.0,220709.0,273020.0,258161.0
2026-04-08 21:42:26.679473,157967,1609503718926988,1318893597,0.862784,-0.044896,-0.269376,-11.27875,-21.39375,-60.760002,-18.288,-3.6,-16.088001,concentric,4,3.0,17099.0,133930.0,220709.0,273020.0,258161.0
2026-04-08 21:42:26.709705,157968,1609503718935931,1318902338,0.862784,-0.044896,-0.269376,-9.52875,-21.8225,-60.0775,-18.288,-3.6,-16.088001,concentric,4,3.0,17099.0,133930.0,220709.0,273020.0,258161.0
2026-04-08 21:42:26.713282,157969,1609503718950412,1318917207,0.950624,-0.013664,-0.099552,-13.34375,-20.4225,-61.46,-17.984001,-4.28,-18.728,concentric,4,3.0,17099.0,133930.0,220709.0,273020.0,258161.0
2026-04-08 21:42:26.715766,157970,1609503718959394,1318925863,0.950624,-0.013664,-0.099552,-18.76875,-19.6,-61.97625,-17.984001,-4.28,-18.728,concentric,4,3.0,17099.0,133930.0,220709.0,273020.0,258161.0
2026-04-08 21:42:26.750693,157981,1609503718974105,1318940809,0.954528,0.013664,-0.031232,-23.94875,-18.3575,-61.08375,-17.792002,-4.6,-18.336,concentric,4,3.0,17106.0,133930.0,220703.0,272992.0,258126.0
2026-04-08 21:42:26.753315,157982,1609503718983097,1318949518,0.954528,0.013664,-0.244,-23.9575,-17.325,-60.865,-17.792002,-4.6,-18.336,concentric,4,3.0,17106.0,133930.0,220703.0,272992.0,258126.0
2026-04-08 21:42:26.754588,157983,1609503718992041,1318958199,0.86864,0.021472,-0.244,-22.28625,-15.855001,-60.19125,-17.128,-4.768,-18.136002,concentric,4,3.0,17106.0,133930.0,220703.0,272992.0,258126.0
2026-04-08 21:42:26.759490,157984,1609503719006575,1318973131,0.882304,0.070272,-0.054656,-16.66,-15.56625,-57.75,-16.976002,-4.8,-17.424002,concentric,4,3.0,17106.0,133930.0,220703.0,272992.0,258126.0
2026-04-08 21:42:26.790137,157985,1609503719015492,1318981797,0.882304,0.070272,-0.054656,-14.49,-14.56875,-56.42875,-16.976002,-4.8,-17.424002,concentric,4,3.0,17106.0,133930.0,220703.0,272992.0,258126.0
2026-04-08 21:42:26.793290,157986,1609503719029961,1318996657,0.735904,0.101504,-0.275232,-11.515,-13.2125,-56.95375,-16.648,-5.496,-18.728,concentric,4,3.0,17106.0,133930.0,220703.0,272992.0,258126.0
2026-04-08 21:42:26.795706,157987,1609503719038862,1319005328,0.735904,0.101504,-0.275232,-14.245,-11.6375,-54.18,-16.648,-5.496,-18.728,concentric,4,3.0,17106.0,133930.0,220703.0,272992.0,258126.0
2026-04-08 21:42:26.840931,157988,1609503719053401,1319020270,0.837408,0.0976,-0.027328,-22.75,-11.795,-50.9425,-16.296001,-5.656,-18.504002,concentric,4,3.0,17106.0,133930.0,220703.0,272992.0,258126.0
2026-04-08 21:42:26.843175,157989,1609503719062318,1319028925,0.837408,0.0976,-0.027328,-29.3475,-12.5125,-52.08875,-16.296001,-5.656,-18.504002,concentric,4,3.0,17106.0,133930.0,220703.0,272992.0,258126.0
2026-04-08 21:42:26.903132,158000,1609503719071288,1319037596,0.808128,0.091744,-0.160064,-28.90125,-11.515,-53.585,-15.936001,-6.168,-18.776001,concentric,4,3.0,17264.0,134535.0,221393.0,273573.0,258518.0
2026-04-08 21:42:26.905638,158001,1609503719085802,1319052485,0.706624,0.13664,-0.140544,-21.90125,-9.3975,-51.44125,-15.672001,-6.072001,-16.304,concentric,4,3.0,17264.0,134535.0,221393.0,273573.0,258518.0
2026-04-08 21:42:26.908277,158002,1609503719094735,1319061165,0.706624,0.13664,-0.140544,-16.51125,-7.86625,-49.2275,-15.672001,-6.072001,-16.304,concentric,4,3.0,17264.0,134535.0,221393.0,273573.0,258518.0
2026-04-08 21:42:26.910591,158003,1609503719109229,1319076108,0.739808,0.1464,-0.089792,-15.5225,-8.3825,-48.7725,-15.528001,-6.264,-18.856,concentric,4,3.0,17264.0,134535.0,221393.0,273573.0,258518.0
2026-04-08 21:42:26.913120,158004,1609503719118226,1319084785,0.739808,0.1464,-0.089792,-17.80625,-9.40625,-48.326252,-15.528001,-6.264,-18.856,concentric,4,3.0,17264.0,134535.0,221393.0,273573.0,258518.0
2026-04-08 21:42:26.915651,158005,1609503719132696,1319099676,0.763232,0.15616,-0.218624,-19.0575,-8.7325,-46.82125,-15.608001,-7.232,-18.864,concentric,4,3.0,17264.0,134535.0,221393.0,273573.0,258518.0
2026-04-08 21:42:26.920646,158006,1609503719141612,1319108354,0.763232,0.15616,-0.218624,-22.0325,-7.06125,-44.91375,-15.608001,-7.232,-18.864,concentric,4,3.0,17264.0,134535.0,221393.0,273573.0,258518.0
2026-04-08 21:42:26.923130,158007,1609503719150520,1319117004,0.718336,0.216672,-0.167872,-25.12125,-3.52625,-44.8,-15.512001,-7.056,-18.648,concentric,4,3.0,17264.0,134535.0,221393.0,273573.0,258518.0
2026-04-08 21:42:26.925667,158008,1609503719165026,1319131883,0.669536,0.201056,-0.080032,-24.50875,-1.04125,-45.045002,-15.512001,-7.112001,-18.344002,concentric,4,3.0,17264.0,134535.0,221393.0,273573.0,258518.0
2026-04-08 21:42:26.953184,158019,1609503719174554,1319140811,0.669536,0.201056,-0.080032,-21.09625,-0.11375,-41.92125,-15.200001,-7.112001,-18.344002,concentric,4,3.0,17228.0,134549.0,221528.0,273842.0,258808.0
2026-04-08 21:42:26.955676,158020,1609503719189111,1319155745,0.720288,0.158112,0.074176,-17.98125,-2.6775,-38.535,-14.992001,-7.392,-18.408,concentric,4,3.0,17228.0,134549.0,221528.0,273842.0,258808.0
2026-04-08 21:42:26.958235,158021,1609503719198063,1319164438,0.720288,0.158112,0.074176,-22.1025,-5.81,-36.58375,-14.992001,-7.392,-18.408,concentric,4,3.0,17228.0,134549.0,221528.0,273842.0,258808.0
2026-04-08 21:42:26.964580,158022,1609503719207004,1319173132,0.675392,0.218624,0.046848,-27.195,-8.715,-39.64625,-14.840001,-7.744,-18.640001,concentric,4,3.0,17228.0,134549.0,221528.0,273842.0,258808.0
2026-04-08 21:42:26.995235,158023,1609503719221486,1319188042,0.675392,0.218624,0.046848,-25.515,-10.29875,-42.315,-14.840001,-7.744,-18.640001,concentric,4,3.0,17228.0,134549.0,221528.0,273842.0,258808.0
2026-04-08 21:42:26.998676,158024,1609503719230454,1319196725,0.65392,0.220576,-0.044896,-15.9425,-10.64,-36.076252,-14.320001,-7.8,-19.056002,concentric,4,3.0,17228.0,134549.0,221528.0,273842.0,258808.0
2026-04-08 21:42:27.000696,158025,1609503719244920,1319211598,0.65392,0.220576,-0.325984,-4.7775,-9.86125,-26.215,-14.320001,-7.8,-19.056002,concentric,4,3.0,17228.0,134549.0,221528.0,273842.0,258808.0
2026-04-08 21:42:27.006992,158026,1609503719253828,1319220276,0.687104,0.232288,-0.325984,-1.295,-7.6825,-19.76625,-14.6,-8.280001,-20.080002,concentric,4,3.0,17228.0,134549.0,221528.0,273842.0,258808.0
2026-04-08 21:42:27.037273,158027,1609503719268298,1319235136,0.812032,0.279136,-0.111264,-10.955,-3.28125,-22.61875,-14.232,-8.480001,-18.672,concentric,4,3.0,17228.0,134549.0,221528.0,273842.0,258808.0
2026-04-08 21:42:27.065719,158038,1609503719277290,1319243857,0.812032,0.279136,-0.111264,-20.65,1.645,-25.64625,-14.232,-8.480001,-18.672,concentric,4,3.0,17518.0,135301.0,222252.0,274298.0,258948.0
2026-04-08 21:42:27.069315,158039,1609503719286221,1319252513,0.827648,0.308416,0.085888,-27.7375,5.8625,-23.42375,-14.432001,-8.272,-17.792002,concentric,4,3.0,17518.0,135301.0,222252.0,274298.0,258948.0
2026-04-08 21:42:27.071657,158040,1609503719300773,1319267427,0.827648,0.308416,0.085888,-27.1075,9.65125,-17.61375,-14.432001,-8.272,-17.792002,concentric,4,3.0,17518.0,135301.0,222252.0,274298.0,258948.0
2026-04-08 21:42:27.073333,158041,1609503719309705,1319276114,0.743712,0.23424,-0.081984,-17.465,11.917501,-9.54625,-14.608001,-8.216001,-17.088001,concentric,4,3.0,17518.0,135301.0,222252.0,274298.0,258948.0
2026-04-08 21:42:27.075603,158042,1609503719324280,1319291046,0.743712,0.23424,-0.081984,-9.3625,13.37,-4.85625,-14.608001,-8.216001,-17.088001,concentric,4,3.0,17518.0,135301.0,222252.0,274298.0,258948.0
2026-04-08 21:42:27.108560,158043,1609503719333186,1319299713,0.706624,0.30256,-0.245952,-7.6825,17.89375,-5.67875,-14.768001,-8.160001,-17.776001,concentric,4,3.0,17518.0,135301.0,222252.0,274298.0,258948.0
2026-04-08 21:42:27.112016,158044,1609503719347656,1319314572,0.880352,0.316224,0.177632,-6.86,20.06375,-4.87375,-14.784,-8.72,-18.480001,concentric,4,3.0,17518.0,135301.0,222252.0,274298.0,258948.0
2026-04-08 21:42:27.114487,158045,1609503719356578,1319323185,0.880352,0.316224,0.177632,-14.41125,17.82375,-1.05,-14.784,-8.72,-18.480001,concentric,4,3.0,17518.0,135301.0,222252.0,274298.0,258948.0
2026-04-08 21:42:27.119515,158046,1609503719365535,1319331829,0.880352,0.316224,-0.150304,-25.3225,13.615,-0.1925,-14.784,-8.72,-18.480001,concentric,4,3.0,17518.0,135301.0,222252.0,274298.0,258948.0
2026-04-08 21:42:27.151537,158057,1609503719380067,1319346859,0.753472,0.310368,-0.152256,-22.77625,11.55875,-1.37375,-14.64,-8.648001,-17.240002,concentric,4,3.0,17479.0,135264.0,222273.0,274287.0,258910.0
2026-04-08 21:42:27.152975,158058,1609503719388982,1319355562,0.704672,0.300608,-0.25376,-6.9475,14.25375,1.37375,-14.656001,-8.480001,-17.352001,concentric,4,3.0,17479.0,135264.0,222273.0,274287.0,258910.0
2026-04-08 21:42:27.156954,158059,1609503719403475,1319370458,0.704672,0.300608,-0.25376,3.45625,16.75625,8.6275,-14.656001,-8.480001,-17.352001,concentric,4,3.0,17479.0,135264.0,222273.0,274287.0,258910.0
2026-04-08 21:42:27.195912,158060,1609503719412432,1319379132,0.8784,0.35136,-0.064416,-4.095,15.7675,9.89625,-15.064001,-8.576,-17.344002,concentric,4,3.0,17479.0,135264.0,222273.0,274287.0,258910.0
2026-04-08 21:42:27.199479,158061,1609503719426919,1319394072,0.81008,0.314272,-0.085888,-15.12,14.07,3.31625,-15.040001,-8.344001,-18.08,concentric,4,3.0,17479.0,135264.0,222273.0,274287.0,258910.0
2026-04-08 21:42:27.202125,158062,1609503719435819,1319402732,0.81008,0.314272,-0.085888,-9.14375,15.9075,2.66,-15.040001,-8.344001,-18.08,concentric,4,3.0,17479.0,135264.0,222273.0,274287.0,258910.0
2026-04-08 21:42:27.204448,158063,1609503719444727,1319411380,0.81008,0.314272,-0.085888,5.8625,17.272501,12.0925,-15.040001,-8.344001,-18.08,concentric,4,3.0,17479.0,135264.0,222273.0,274287.0,258910.0
2026-04-08 21:42:27.234983,158064,1609503719459243,1319426252,0.739808,0.304512,-0.197152,8.68875,16.52,18.87375,-15.072001,-8.496,-19.112001,concentric,4,3.0,17479.0,135264.0,222273.0,274287.0,258910.0
2026-04-08 21:42:27.238276,158065,1609503719468179,1319434972,0.83936,0.298656,-0.103456,0.32375,14.49,13.93,-15.296001,-8.592,-18.784,concentric,4,3.0,17479.0,135264.0,222273.0,274287.0,258910.0
2026-04-08 21:42:27.274721,158076,1609503719482762,1319449862,0.83936,0.298656,-0.103456,-5.4075,12.005,6.51,-15.296001,-8.592,-18.784,concentric,4,3.0,17467.0,135361.0,222531.0,274525.0,259102.0
2026-04-08 21:42:27.280656,158077,1609503719491712,1319458583,0.854976,0.347456,0.076128,-1.05875,11.31375,6.13375,-15.336,-8.264,-17.848001,concentric,4,3.0,17467.0,135361.0,222531.0,274525.0,259102.0
2026-04-08 21:42:27.283207,158078,1609503719506218,1319471412,0.854976,0.347456,0.076128,9.77375,11.08625,12.78375,-15.336,-8.264,-17.848001,concentric,4,3.0,17467.0,135361.0,222531.0,274525.0,259102.0
2026-04-08 21:42:27.285752,158079,1609503719515417,1319482168,0.763232,0.318176,-0.177632,19.705,11.4625,17.675,-15.488001,-7.952,-19.112001,concentric,4,3.0,17467.0,135361.0,222531.0,274525.0,259102.0
2026-04-08 21:42:27.288209,158080,1609503719524356,1319490869,0.763232,0.318176,-0.177632,22.715,11.40125,16.82625,-15.488001,-7.952,-19.112001,concentric,4,3.0,17467.0,135361.0,222531.0,274525.0,259102.0
