pc_time,serial_num,sensor_ts,host_ts,ax,ay,az,gx,gy,gz,mx,my,mz,phase,rpe,weight_kg,ppg_a,ppg_b,ppg_c,ppg_d,ppg_e
2026-04-08 21:42:34.904210,159513,1609503727124004,1327090683,0.763232,0.329888,0.035136,9.3625,5.17125,7.51625,-17.08,-7.816001,-17.264,eccentric,4,3.0,17774.0,136394.0,223459.0,275250.0,259603.0
2026-04-08 21:42:34.905715,159514,1609503727133057,1327099370,0.763232,0.329888,0.035136,8.225,5.1975,8.79375,-17.08,-7.816001,-17.264,eccentric,4,3.0,17774.0,136394.0,223459.0,275250.0,259603.0
2026-04-08 21:42:34.910028,159515,1609503727147617,1327114303,0.726144,0.310368,-0.111264,9.96625,6.125,9.8875,-17.320002,-7.728,-16.720001,eccentric,4,3.0,17774.0,136394.0,223459.0,275250.0,259603.0
2026-04-08 21:42:34.911533,159516,1609503727156541,1327122986,0.726144,0.310368,0.037088,9.135,6.72,11.06875,-17.320002,-7.728,-16.720001,eccentric,4,3.0,17774.0,136394.0,223459.0,275250.0,259603.0
2026-04-08 21:42:34.941854,159517,1609503727165497,1327131649,0.76128,0.290848,0.037088,5.11,5.355,11.38375,-17.248001,-7.992001,-16.056002,eccentric,4,3.0,17774.0,136394.0,223459.0,275250.0,259603.0
2026-04-08 21:42:34.946147,159518,1609503727180050,1327146569,0.782752,0.304512,-0.011712,-1.65375,2.68625,7.37625,-17.272001,-7.56,-16.392,eccentric,4,3.0,17774.0,136394.0,223459.0,275250.0,259603.0
2026-04-08 21:42:34.948617,159519,1609503727188954,1327155215,0.782752,0.304512,-0.011712,-2.21375,1.93375,6.3525,-17.272001,-7.56,-16.392,eccentric,4,3.0,17774.0,136394.0,223459.0,275250.0,259603.0
2026-04-08 21:42:34.980614,159520,1609503727203468,1327170161,0.700768,0.318176,-0.064416,6.3,2.58125,11.10375,-17.336,-7.32,-16.136002,eccentric,4,3.0,17774.0,136394.0,223459.0,275250.0,259603.0
2026-04-08 21:42:34.985046,159521,1609503727212385,1327178867,0.700768,0.318176,-0.064416,11.06,1.9775,15.61875,-17.336,-7.32,-16.136002,eccentric,4,3.0,17774.0,136394.0,223459.0,275250.0,259603.0
2026-04-08 21:42:35.010722,159532,1609503727226901,1327193736,0.72224,0.26352,0.003904,9.1525,-0.035,13.8075,-17.512001,-7.008,-16.408,eccentric,4,3.0,17775.0,136525.0,223711.0,275524.0,259849.0
2026-04-08 21:42:35.045587,159533,1609503727235814,1327202490,0.72224,0.26352,0.003904,3.395,-2.79125,13.0025,-17.512001,-7.008,-16.408,eccentric,4,3.0,17775.0,136525.0,223711.0,275524.0,259849.0
2026-04-08 21:42:35.050018,159534,1609503727244839,1327211173,0.776896,0.232288,0.011712,-3.5175,-5.48625,14.1925,-17.472,-7.000001,-14.464001,eccentric,4,3.0,17775.0,136525.0,223711.0,275524.0,259849.0
2026-04-08 21:42:35.051643,159535,1609503727259352,1327226072,0.698816,0.240096,-0.10736,-4.69,-5.53875,12.90625,-17.44,-6.808,-13.592001,eccentric,4,3.0,17775.0,136525.0,223711.0,275524.0,259849.0
2026-04-08 21:42:35.053220,159536,1609503727268288,1327234752,0.698816,0.240096,-0.10736,-1.155,-4.8475,15.11125,-17.44,-6.808,-13.592001,eccentric,4,3.0,17775.0,136525.0,223711.0,275524.0,259849.0
2026-04-08 21:42:35.057514,159537,1609503727282750,1327249625,0.710528,0.232288,-0.021472,4.2175,-4.3225,17.52625,-17.768002,-6.832,-16.632,eccentric,4,3.0,17775.0,136525.0,223711.0,275524.0,259849.0
2026-04-08 21:42:35.059156,159538,1609503727291671,1327258286,0.710528,0.232288,-0.021472,4.8825,-4.73375,19.285,-17.768002,-6.832,-16.632,eccentric,4,3.0,17775.0,136525.0,223711.0,275524.0,259849.0
2026-04-08 21:42:35.060747,159539,1609503727306262,1327273126,0.75152,0.20496,-0.080032,6.34375,-5.01375,17.19375,-18.024,-6.784,-16.68,eccentric,4,3.0,17775.0,136525.0,223711.0,275524.0,259849.0
2026-04-08 21:42:35.100293,159550,1609503727315353,1327282485,0.75152,0.20496,-0.080032,4.725,-5.6875,18.06875,-18.024,-6.784,-16.68,eccentric,4,3.0,17787.0,136626.0,223846.0,275634.0,259936.0
2026-04-08 21:42:35.101780,159551,1609503727324372,1327291435,0.788608,0.206912,0.128832,8.8375,-5.85375,20.055,-17.968,-6.952,-16.6,eccentric,4,3.0,17787.0,136626.0,223846.0,275634.0,259936.0
2026-04-08 21:42:35.106328,159552,1609503727338874,1327304291,0.782752,0.20496,0.115168,7.90125,-8.47875,25.13,-17.712,-6.344,-14.568001,eccentric,4,3.0,17787.0,136626.0,223846.0,275634.0,259936.0
2026-04-08 21:42:35.112225,159553,1609503727348027,1327315015,0.782752,0.20496,0.115168,7.53375,-10.2025,27.6325,-17.712,-6.344,-14.568001,eccentric,4,3.0,17787.0,136626.0,223846.0,275634.0,259936.0
2026-04-08 21:42:35.116070,159554,1609503727362515,1327327832,0.792512,0.138592,-0.091744,11.55,-10.71,28.105,-17.728,-6.12,-16.352001,eccentric,4,3.0,17787.0,136626.0,223846.0,275634.0,259936.0
2026-04-08 21:42:35.144798,159555,1609503727371849,1327338567,0.792512,0.138592,-0.091744,14.5075,-10.66625,33.27625,-17.728,-6.12,-16.352001,eccentric,4,3.0,17787.0,136626.0,223846.0,275634.0,259936.0
2026-04-08 21:42:35.149754,159556,1609503727380773,1327347245,0.77104,0.152256,-0.003904,14.455,-11.24375,33.90625,-17.496,-5.960001,-17.048,eccentric,4,3.0,17787.0,136626.0,223846.0,275634.0,259936.0
2026-04-08 21:42:35.151076,159557,1609503727395245,1327362100,0.77104,0.152256,-0.003904,16.38,-11.94375,31.12375,-17.496,-5.960001,-17.048,eccentric,4,3.0,17787.0,136626.0,223846.0,275634.0,259936.0
2026-04-08 21:42:35.158542,159558,1609503727404282,1327370787,0.7808,0.222528,-0.007808,14.90125,-13.685,34.58875,-17.592001,-5.6,-16.848001,eccentric,4,3.0,17787.0,136626.0,223846.0,275634.0,259936.0
2026-04-08 21:42:35.215703,159569,1609503727419345,1327385848,0.870592,0.162016,0.081984,18.7775,-12.73125,39.31375,-17.92,-5.432,-16.232,eccentric,4,3.0,17729.0,136505.0,223820.0,275687.0,260075.0
2026-04-08 21:42:35.220107,159570,1609503727428347,1327394529,0.870592,0.162016,0.081984,21.428751,-10.98125,38.64875,-17.92,-5.432,-16.232,eccentric,4,3.0,17729.0,136505.0,223820.0,275687.0,260075.0
2026-04-08 21:42:35.221665,159571,1609503727437258,1327403205,0.870592,0.162016,0.081984,16.8525,-8.88125,37.0825,-17.92,-5.432,-16.232,eccentric,4,3.0,17729.0,136505.0,223820.0,275687.0,260075.0
2026-04-08 21:42:35.223132,159572,1609503727451726,1327418122,0.892064,0.115168,-0.037088,15.26875,-6.3875,37.73,-18.208,-4.984,-18.560001,eccentric,4,3.0,17729.0,136505.0,223820.0,275687.0,260075.0
2026-04-08 21:42:35.227906,159573,1609503727460744,1327426786,0.892064,0.13664,0.130784,14.1925,-6.1425,37.14375,-18.144001,-4.896,-16.584002,eccentric,4,3.0,17729.0,136505.0,223820.0,275687.0,260075.0
2026-04-08 21:42:35.229844,159574,1609503727475246,1327441747,0.892064,0.13664,0.130784,15.16375,-7.09625,37.2575,-18.144001,-4.896,-16.584002,eccentric,4,3.0,17729.0,136505.0,223820.0,275687.0,260075.0
2026-04-08 21:42:35.258296,159575,1609503727484218,1327450418,0.8296,0.101504,-0.121024,20.02875,-8.30375,39.725,-18.240002,-4.608,-17.08,eccentric,4,3.0,17729.0,136505.0,223820.0,275687.0,260075.0
2026-04-08 21:42:35.262912,159576,1609503727498714,1327465344,0.8296,0.101504,0.072224,27.1775,-9.47625,45.12375,-18.240002,-4.608,-17.08,eccentric,4,3.0,17729.0,136505.0,223820.0,275687.0,260075.0
2026-04-08 21:42:35.264452,159577,1609503727507646,1327474014,0.860832,0.142496,0.072224,24.5175,-9.38875,47.1975,-18.400002,-4.104,-16.112001,eccentric,4,3.0,17729.0,136505.0,223820.0,275687.0,260075.0
2026-04-08 21:42:35.293010,159588,1609503727517185,1327482749,0.860832,0.142496,0.072224,18.66375,-8.77625,44.0475,-18.400002,-4.104,-16.112001,eccentric,4,3.0,17675.0,136327.0,223619.0,275482.0,259892.0
2026-04-08 21:42:35.294477,159589,1609503727532130,1327497708,0.815936,0.083936,-0.163968,18.27,-6.72875,39.27,-18.496,-3.96,-16.144001,eccentric,4,3.0,17675.0,136327.0,223619.0,275482.0,259892.0
2026-04-08 21:42:35.298522,159590,1609503727541533,1327508486,0.876448,0.062464,0.08784,20.15125,-5.3725,40.075,-18.416,-3.336,-16.184,eccentric,4,3.0,17675.0,136327.0,223619.0,275482.0,259892.0
2026-04-08 21:42:35.343082,159591,1609503727550441,1327517136,0.876448,0.062464,0.08784,20.32625,-4.7075,43.12875,-18.416,-3.336,-16.184,eccentric,4,3.0,17675.0,136327.0,223619.0,275482.0,259892.0
2026-04-08 21:42:35.347473,159592,1609503727564905,1327532026,0.874496,0.066368,0.023424,18.52375,-4.45375,42.0,-18.528002,-2.952,-16.856,eccentric,4,3.0,17675.0,136327.0,223619.0,275482.0,259892.0
2026-04-08 21:42:35.349312,159593,1609503727573841,1327540722,0.874496,0.066368,0.023424,15.91625,-3.08,41.0025,-18.528002,-2.952,-16.856,eccentric,4,3.0,17675.0,136327.0,223619.0,275482.0,259892.0
2026-04-08 21:42:35.350778,159594,1609503727588313,1327553524,0.96624,0.040992,-0.154208,12.10125,0.5775,38.465,-18.92,-3.088,-16.800001,eccentric,4,3.0,17675.0,136327.0,223619.0,275482.0,259892.0
2026-04-08 21:42:35.357324,159595,1609503727597504,1327564253,0.96624,0.040992,-0.154208,10.675,5.81,35.035,-18.92,-3.088,-16.800001,eccentric,4,3.0,17675.0,136327.0,223619.0,275482.0,259892.0
2026-04-08 21:42:35.388746,159596,1609503727611975,1327579120,0.847168,0.085888,-0.011712,13.475,10.2025,33.53875,-19.152,-2.464,-16.08,eccentric,4,3.0,17675.0,136327.0,223619.0,275482.0,259892.0
2026-04-08 21:42:35.419259,159608,1609503727621054,1327587882,0.919392,-0.099552,0.093696,17.535,11.7075,39.0075,-19.224,-2.32,-18.688002,eccentric,4,3.0,17754.0,136436.0,223619.0,275400.0,259771.0
2026-04-08 21:42:35.420659,159609,1609503727629990,1327596570,0.919392,-0.099552,0.093696,26.8275,13.4925,35.09625,-19.224,-2.32,-18.688002,eccentric,4,3.0,17754.0,136436.0,223619.0,275400.0,259771.0
2026-04-08 21:42:35.425016,159610,1609503727644480,1327611421,0.976,0.01952,-0.177632,21.175,13.09,49.7,-19.536001,-1.944,-16.488,eccentric,4,3.0,17754.0,136436.0,223619.0,275400.0,259771.0
2026-04-08 21:42:35.426832,159611,1609503727653534,1327620215,0.976,0.01952,-0.177632,19.48625,13.43125,58.31,-19.536001,-1.944,-16.488,eccentric,4,3.0,17754.0,136436.0,223619.0,275400.0,259771.0
2026-04-08 21:42:35.428252,159612,1609503727668073,1327635132,0.85888,0.040992,-0.0976,12.60875,16.00375,40.1275,-19.960001,-1.672,-14.368001,eccentric,4,3.0,17754.0,136436.0,223619.0,275400.0,259771.0
2026-04-08 21:42:35.432341,159613,1609503727676988,1327643800,0.85888,0.040992,-0.0976,12.25875,17.745,34.99125,-19.960001,-1.672,-14.368001,eccentric,4,3.0,17754.0,136436.0,223619.0,275400.0,259771.0
2026-04-08 21:42:35.460891,159614,1609503727685970,1327652481,0.915488,-0.015616,0.06832,19.38125,17.8675,48.13375,-20.424002,-0.832,-14.72,eccentric,4,3.0,17754.0,136436.0,223619.0,275400.0,259771.0
2026-04-08 21:42:35.465415,159615,1609503727700440,1327667319,0.915488,-0.07808,-0.074176,15.58375,14.1575,52.045002,-20.424002,-0.832,-12.672001,eccentric,4,3.0,17754.0,136436.0,223619.0,275400.0,259771.0
2026-04-08 21:42:35.468053,159616,1609503727709365,1327676031,0.905728,-0.07808,-0.074176,12.005,12.495,48.44875,-20.304,-0.832,-13.104001,eccentric,4,3.0,17754.0,136436.0,223619.0,275400.0,259771.0
2026-04-08 21:42:35.494418,159627,1609503727723948,1327691056,0.905728,-0.044896,-0.033184,10.33375,12.87125,44.3275,-20.152,-0.696,-15.960001,eccentric,4,3.0,17672.0,136146.0,223251.0,275090.0,259545.0
2026-04-08 21:42:35.498661,159628,1609503727732892,1327699803,0.905728,-0.044896,-0.033184,12.5825,14.62125,40.7925,-20.152,-0.696,-15.960001,eccentric,4,3.0,17672.0,136146.0,223251.0,275090.0,259545.0
2026-04-08 21:42:35.501103,159629,1609503727747439,1327712633,0.8296,-0.02928,-0.12688,22.855,17.465,39.82125,-20.664001,-0.448,-13.056001,eccentric,4,3.0,17672.0,136146.0,223251.0,275090.0,259545.0
2026-04-08 21:42:35.529693,159630,1609503727756706,1327723396,0.8296,-0.02928,-0.12688,31.5875,18.9525,43.37375,-20.664001,-0.448,-13.056001,eccentric,4,3.0,17672.0,136146.0,223251.0,275090.0,259545.0
2026-04-08 21:42:35.534132,159631,1609503727765642,1327732047,0.909632,-0.081984,0.060512,31.19375,19.13625,46.357502,-21.264002,0.056,-15.072001,eccentric,4,3.0,17672.0,136146.0,223251.0,275090.0,259545.0
2026-04-08 21:42:35.535676,159632,1609503727780137,1327746918,0.909632,-0.081984,0.060512,24.45625,18.31375,46.29625,-21.264002,0.056,-15.072001,eccentric,4,3.0,17672.0,136146.0,223251.0,275090.0,259545.0
2026-04-08 21:42:35.544864,159633,1609503727789083,1327755574,0.940864,-0.13664,0.021472,17.63125,17.56125,45.75375,-21.432001,0.376,-14.968,eccentric,4,3.0,17672.0,136146.0,223251.0,275090.0,259545.0
2026-04-08 21:42:35.573326,159634,1609503727803586,1327770427,0.974048,-0.121024,0.122976,11.43625,19.01375,46.576252,-21.448002,0.528,-15.016001,eccentric,4,3.0,17672.0,136146.0,223251.0,275090.0,259545.0
2026-04-08 21:42:35.577966,159635,1609503727812496,1327779098,0.974048,-0.121024,0.122976,4.85625,20.34375,45.5525,-21.448002,0.528,-15.016001,eccentric,4,3.0,17672.0,136146.0,223251.0,275090.0,259545.0
2026-04-08 21:42:35.606162,159646,1609503727827175,1327793999,0.812032,-0.113216,0.01952,5.0575,23.07375,41.67625,-21.480001,0.632,-14.56,eccentric,4,3.0,17481.0,135641.0,222965.0,275119.0,259734.0
2026-04-08 21:42:35.607882,159647,1609503727836310,1327802735,0.812032,-0.113216,0.01952,11.50625,25.095,41.93875,-21.480001,0.632,-14.56,eccentric,4,3.0,17481.0,135641.0,222965.0,275119.0,259734.0
2026-04-08 21:42:35.609406,159648,1609503727845307,1327811428,0.948672,-0.183488,0.158112,13.877501,24.928751,44.7825,-21.704,1.472,-13.056001,eccentric,4,3.0,17481.0,135641.0,222965.0,275119.0,259734.0
2026-04-08 21:42:35.645525,159649,1609503727859785,1327826338,0.948672,-0.183488,0.158112,10.8325,23.66875,44.91375,-21.704,1.472,-13.056001,eccentric,4,3.0,17481.0,135641.0,222965.0,275119.0,259734.0
2026-04-08 21:42:35.647807,159650,1609503727868693,1327835001,1.040416,-0.179584,0.119072,7.27125,22.53125,41.6325,-22.376001,1.672,-12.8,eccentric,4,3.0,17481.0,135641.0,222965.0,275119.0,259734.0
2026-04-08 21:42:35.652411,159651,1609503727883118,1327849845,0.98576,-0.138592,0.160064,5.81,23.6425,38.955,-22.36,1.712,-13.488001,eccentric,4,3.0,17481.0,135641.0,222965.0,275119.0,259734.0
2026-04-08 21:42:35.654135,159652,1609503727892083,1327858514,0.98576,-0.138592,0.160064,7.1575,24.815,37.91375,-22.36,1.712,-13.488001,eccentric,4,3.0,17481.0,135641.0,222965.0,275119.0,259734.0
2026-04-08 21:42:35.655678,159653,1609503727900987,1327867213,0.98576,-0.138592,0.160064,11.66375,24.84125,39.7775,-22.36,1.712,-13.488001,eccentric,4,3.0,17481.0,135641.0,222965.0,275119.0,259734.0
2026-04-08 21:42:35.686773,159654,1609503727915463,1327882080,0.9272,-0.177632,0.046848,12.67875,25.13875,43.4525,-22.480001,1.928,-13.392,eccentric,4,3.0,17481.0,135641.0,222965.0,275119.0,259734.0
2026-04-08 21:42:35.719202,159665,1609503727924533,1327890801,0.884256,-0.206912,0.050752,10.61375,24.9725,44.7825,-22.856,2.192,-12.904,eccentric,4,3.0,17385.0,135278.0,222576.0,274860.0,259626.0
2026-04-08 21:42:35.720721,159666,1609503727939049,1327905645,0.884256,-0.206912,0.050752,8.16375,24.31625,44.89625,-22.856,2.192,-12.904,eccentric,4,3.0,17385.0,135278.0,222576.0,274860.0,259626.0
2026-04-08 21:42:35.727447,159667,1609503727947965,1327914333,0.977952,-0.238144,0.042944,2.835,21.25375,43.88125,-23.152,2.6,-11.544001,eccentric,4,3.0,17385.0,135278.0,222576.0,274860.0,259626.0
2026-04-08 21:42:35.729111,159668,1609503727962599,1327929290,0.915488,-0.242048,-0.02928,0.00875,20.5275,40.4775,-23.648,3.04,-10.744,eccentric,4,3.0,17385.0,135278.0,222576.0,274860.0,259626.0
2026-04-08 21:42:35.730628,159669,1609503727971519,1327937963,0.915488,-0.242048,-0.02928,3.61375,20.83375,38.43875,-23.648,3.04,-10.744,eccentric,4,3.0,17385.0,135278.0,222576.0,274860.0,259626.0
2026-04-08 21:42:35.734706,159670,1609503727980488,1327946615,0.915488,-0.242048,-0.02928,6.37875,21.16625,37.695,-23.648,3.04,-10.744,eccentric,4,3.0,17385.0,135278.0,222576.0,274860.0,259626.0
2026-04-08 21:42:35.763423,159671,1609503727994989,1327961558,0.976,-0.25376,0.12688,9.40625,21.74375,36.79375,-23.896002,2.912,-11.784,eccentric,4,3.0,17385.0,135278.0,222576.0,274860.0,259626.0
2026-04-08 21:42:35.767978,159672,1609503728003886,1327970263,0.972096,-0.28304,-0.00976,10.71,21.428751,39.375,-24.064001,3.16,-14.032001,eccentric,4,3.0,17385.0,135278.0,222576.0,274860.0,259626.0
2026-04-08 21:42:35.838758,159683,1609503728018367,1327985163,0.972096,-0.28304,-0.00976,7.23625,19.73125,40.04875,-24.064001,3.16,-14.032001,eccentric,4,3.0,17462.0,135382.0,222658.0,274824.0,259483.0
2026-04-08 21:42:35.840431,159684,1609503728027688,1327993984,0.991616,-0.265472,0.121024,3.9025,19.38125,34.7375,-24.28,3.36,-11.552001,eccentric,4,3.0,17462.0,135382.0,222658.0,274824.0,259483.0
2026-04-08 21:42:35.841991,159685,1609503728042154,1328008850,0.991616,-0.265472,0.121024,5.53875,21.4025,33.3725,-24.28,3.36,-11.552001,eccentric,4,3.0,17462.0,135382.0,222658.0,274824.0,259483.0
2026-04-08 21:42:35.846320,159686,1609503728051049,1328017522,0.968192,-0.238144,0.013664,7.84875,23.1525,35.8925,-24.68,3.584,-11.064,eccentric,4,3.0,17462.0,135382.0,222658.0,274824.0,259483.0
2026-04-08 21:42:35.848458,159687,1609503728059945,1328026175,0.968192,-0.238144,0.013664,7.74375,23.8525,37.03875,-24.68,3.584,-11.064,eccentric,4,3.0,17462.0,135382.0,222658.0,274824.0,259483.0
2026-04-08 21:42:35.850627,159688,1609503728074419,1328041033,0.972096,-0.30256,-0.054656,4.40125,22.75875,37.72125,-24.632002,3.752,-10.816001,eccentric,4,3.0,17462.0,135382.0,222658.0,274824.0,259483.0
2026-04-08 21:42:35.851981,159689,1609503728083361,1328049721,1.065792,-0.288896,-0.044896,-1.16375,21.62125,37.555,-24.632002,4.168,-8.648001,eccentric,4,3.0,17462.0,135382.0,222658.0,274824.0,259483.0
2026-04-08 21:42:35.856041,159690,1609503728097907,1328064606,1.065792,-0.288896,-0.044896,-4.025,22.5925,33.9675,-24.800001,4.168,-8.648001,eccentric,4,3.0,17462.0,135382.0,222658.0,274824.0,259483.0
2026-04-08 21:42:35.861121,159691,1609503728106974,1328073281,1.13216,-0.267424,0.01952,-0.35,25.87375,31.75375,-24.912,4.232,-10.728001,eccentric,4,3.0,17462.0,135382.0,222658.0,274824.0,259483.0
2026-04-08 21:42:35.959167,159702,1609503728121665,1328088234,1.13216,-0.267424,0.01952,2.695,27.6675,34.34375,-24.912,4.232,-10.728001,eccentric,4,3.0,17437.0,135362.0,222722.0,274966.0,259593.0
2026-04-08 21:42:35.961603,159703,1609503728130711,1328096925,1.061888,-0.249856,0.080032,2.485,28.665,35.91875,-25.616001,4.36,-8.792001,eccentric,4,3.0,17437.0,135362.0,222722.0,274966.0,259593.0
2026-04-08 21:42:35.963146,159704,1609503728139641,1328105580,1.061888,-0.249856,0.080032,0.875,27.5625,36.785,-25.616001,4.36,-8.792001,eccentric,4,3.0,17437.0,135362.0,222722.0,274966.0,259593.0
2026-04-08 21:42:35.967424,159705,1609503728154187,1328120487,1.08336,-0.298656,0.050752,-0.3675,26.145,39.6375,-25.856,4.96,-9.312,eccentric,4,3.0,17437.0,135362.0,222722.0,274966.0,259593.0
2026-04-08 21:42:35.969914,159706,1609503728163159,1328129180,1.08336,-0.298656,0.095648,-2.485,25.19125,42.63,-25.856,4.96,-9.312,eccentric,4,3.0,17437.0,135362.0,222722.0,274966.0,259593.0
2026-04-08 21:42:35.971622,159707,1609503728177638,1328144036,1.067744,-0.28304,0.095648,-4.29625,24.57875,43.40875,-25.816002,5.656,-9.304001,eccentric,4,3.0,17437.0,135362.0,222722.0,274966.0,259593.0
2026-04-08 21:42:35.973345,159708,1609503728186573,1328152759,1.03456,-0.284992,0.173728,-4.59375,24.0975,42.805,-25.768002,5.84,-9.072001,eccentric,4,3.0,17437.0,135362.0,222722.0,274966.0,259593.0
2026-04-08 21:42:35.977440,159709,1609503728195522,1328161419,1.03456,-0.284992,0.173728,-5.15375,21.8575,42.525,-25.768002,5.84,-9.072001,eccentric,4,3.0,17437.0,135362.0,222722.0,274966.0,259593.0
2026-04-08 21:42:35.979394,159710,1609503728210006,1328176292,0.98576,-0.296704,0.091744,-8.72375,19.425,42.32375,-25.800001,6.296001,-8.832001,eccentric,4,3.0,17437.0,135362.0,222722.0,274966.0,259593.0
2026-04-08 21:42:36.005869,159721,1609503728218924,1328185283,0.98576,-0.296704,0.091744,-11.4625,17.710001,42.857502,-25.800001,6.296001,-8.832001,eccentric,4,3.0,17452.0,135314.0,222629.0,274859.0,259551.0
2026-04-08 21:42:36.010207,159722,1609503728233520,1328200326,0.987712,-0.290848,0.011712,-11.52375,17.1325,41.06375,-25.760002,6.4,-8.568001,eccentric,4,3.0,17452.0,135314.0,222629.0,274859.0,259551.0
2026-04-08 21:42:36.011855,159723,1609503728242427,1328209036,0.987712,-0.290848,0.011712,-12.80125,17.78875,38.91125,-25.760002,6.4,-8.568001,eccentric,4,3.0,17452.0,135314.0,222629.0,274859.0,259551.0
2026-04-08 21:42:36.013282,159724,1609503728256952,1328223911,0.96624,-0.294752,0.0,-9.625,19.3725,38.42125,-26.096,6.168,-5.960001,eccentric,4,3.0,17452.0,135314.0,222629.0,274859.0,259551.0
2026-04-08 21:42:36.019030,159725,1609503728265957,1328232626,0.993568,-0.25376,0.206912,-10.6575,20.3,39.40125,-26.160002,6.728,-6.384,eccentric,4,3.0,17452.0,135314.0,222629.0,274859.0,259551.0
2026-04-08 21:42:36.049309,159726,1609503728274883,1328241292,0.993568,-0.25376,0.206912,-16.6775,20.195,39.9525,-26.160002,6.728,-6.384,eccentric,4,3.0,17452.0,135314.0,222629.0,274859.0,259551.0
2026-04-08 21:42:36.053710,159727,1609503728289385,1328256148,1.04432,-0.306464,0.236192,-22.3125,19.62625,39.27,-26.008001,7.096,-7.880001,eccentric,4,3.0,17452.0,135314.0,222629.0,274859.0,259551.0
2026-04-08 21:42:36.056103,159728,1609503728298307,1328264799,1.04432,-0.306464,0.236192,-24.4475,19.06625,38.36,-26.008001,7.096,-7.880001,eccentric,4,3.0,17452.0,135314.0,222629.0,274859.0,259551.0
2026-04-08 21:42:36.084747,159729,1609503728312791,1328279710,0.93696,-0.32208,0.093696,-23.9225,17.77125,38.115,-26.2,7.424,-6.72,eccentric,4,3.0,17452.0,135314.0,222629.0,274859.0,259551.0
2026-04-08 21:42:36.115707,159740,1609503728321741,1328288395,0.93696,-0.32208,0.093696,-21.25375,15.505,37.68625,-26.2,7.424,-6.72,eccentric,4,3.0,17413.0,135128.0,222406.0,274702.0,259446.0
2026-04-08 21:42:36.120041,159741,1609503728336249,1328303312,0.925248,-0.300608,0.11712,-18.69,13.22125,37.135,-26.272001,7.456,-7.424,eccentric,4,3.0,17413.0,135128.0,222406.0,274702.0,259446.0
2026-04-08 21:42:36.121634,159742,1609503728345220,1328312018,0.954528,-0.31232,0.1464,-16.63375,10.535,35.9975,-26.024002,7.808001,-7.008,eccentric,4,3.0,17413.0,135128.0,222406.0,274702.0,259446.0
2026-04-08 21:42:36.123165,159743,1609503728354224,1328320738,0.954528,-0.31232,0.1464,-14.175,8.39125,33.705,-26.024002,7.808001,-7.008,eccentric,4,3.0,17413.0,135128.0,222406.0,274702.0,259446.0
2026-04-08 21:42:36.127301,159744,1609503728368816,1328335608,0.890112,-0.30256,0.105408,-12.04,6.44875,31.52625,-26.344002,8.176001,-6.472,eccentric,4,3.0,17413.0,135128.0,222406.0,274702.0,259446.0
2026-04-08 21:42:36.133582,159745,1609503728377771,1328344313,0.890112,-0.30256,0.105408,-9.6775,5.1275,30.44125,-26.344002,8.176001,-6.472,eccentric,4,3.0,17413.0,135128.0,222406.0,274702.0,259446.0
2026-04-08 21:42:36.162201,159746,1609503728392251,1328359237,0.940864,-0.306464,0.105408,-8.40875,4.0775,29.33,-26.112001,8.328,-5.264,eccentric,4,3.0,17413.0,135128.0,222406.0,274702.0,259446.0
2026-04-08 21:42:36.166605,159747,1609503728401144,1328367892,0.940864,-0.306464,0.105408,-7.60375,2.66,27.02875,-26.112001,8.328,-5.264,eccentric,4,3.0,17413.0,135128.0,222406.0,274702.0,259446.0
2026-04-08 21:42:36.170251,159748,1609503728415614,1328382750,0.960384,-0.298656,0.220576,-6.48375,0.98875,24.78,-26.576002,8.280001,-7.248,eccentric,4,3.0,17413.0,135128.0,222406.0,274702.0,259446.0
2026-04-08 21:42:36.201648,159759,1609503728424818,1328391487,0.960384,-0.298656,0.080032,-6.78125,-0.34125,22.3475,-26.576002,8.280001,-7.248,eccentric,4,3.0,17305.0,134778.0,222020.0,274472.0,259379.0
2026-04-08 21:42:36.203191,159760,1609503728433806,1328400368,0.911584,-0.304512,0.080032,-7.5075,-0.88375,19.55625,-26.240002,8.776,-5.736,eccentric,4,3.0,17305.0,134778.0,222020.0,274472.0,259379.0
2026-04-08 21:42:36.207259,159761,1609503728448351,1328415251,0.892064,-0.281088,0.093696,-7.53375,-1.225,16.178751,-25.648,8.76,-7.408001,eccentric,4,3.0,17305.0,134778.0,222020.0,274472.0,259379.0
2026-04-08 21:42:36.212824,159762,1609503728457386,1328423938,0.892064,-0.281088,0.093696,-8.225,-1.1375,13.97375,-25.648,8.76,-7.408001,eccentric,4,3.0,17305.0,134778.0,222020.0,274472.0,259379.0
2026-04-08 21:42:36.248106,159763,1609503728471871,1328438798,0.89792,-0.275232,0.101504,-9.1,-0.77875,11.165,-26.28,8.736,-6.296001,eccentric,4,3.0,17305.0,134778.0,222020.0,274472.0,259379.0
2026-04-08 21:42:36.250352,159764,1609503728480808,1328447465,0.89792,-0.275232,0.101504,-9.89625,-1.12,8.225,-26.28,8.736,-6.296001,eccentric,4,3.0,17305.0,134778.0,222020.0,274472.0,259379.0
2026-04-08 21:42:36.254873,159765,1609503728489714,1328456129,0.856928,-0.281088,0.011712,-10.92,-2.17,6.2475,-26.312002,8.888001,-7.352,eccentric,4,3.0,17305.0,134778.0,222020.0,274472.0,259379.0
2026-04-08 21:42:36.258949,159766,1609503728504215,1328471017,0.856928,-0.281088,0.011712,-12.285,-2.975,4.48875,-26.312002,8.888001,-7.352,eccentric,4,3.0,17305.0,134778.0,222020.0,274472.0,259379.0
2026-04-08 21:42:36.289304,159767,1609503728513157,1328479674,0.901824,-0.30256,0.0976,-11.8825,-3.815,2.10875,-26.096,8.848001,-6.28,eccentric,4,3.0,17305.0,134778.0,222020.0,274472.0,259379.0
2026-04-08 21:42:36.318037,159778,1609503728527784,1328494624,0.851072,-0.290848,0.001952,-10.75375,-4.19125,-0.00875,-25.920002,9.008,-8.024,eccentric,4,3.0,17278.0,134702.0,221889.0,274338.0,259304.0
2026-04-08 21:42:36.319514,159779,1609503728536735,1328503302,0.851072,-0.290848,0.001952,-10.01,-4.75125,-2.59,-25.920002,9.008,-8.024,eccentric,4,3.0,17278.0,134702.0,221889.0,274338.0,259304.0
2026-04-08 21:42:36.323751,159780,1609503728551257,1328518203,0.899872,-0.290848,0.113216,-8.785,-5.03125,-4.235,-26.400002,8.848001,-6.728,eccentric,4,3.0,17278.0,134702.0,221889.0,274338.0,259304.0
2026-04-08 21:42:36.325355,159781,1609503728560180,1328526905,0.899872,-0.290848,0.113216,-7.84,-5.80125,-5.92375,-26.400002,8.848001,-6.728,eccentric,4,3.0,17278.0,134702.0,221889.0,274338.0,259304.0
2026-04-08 21:42:36.330350,159782,1609503728569102,1328535569,0.90768,-0.306464,0.122976,-7.9275,-6.99125,-9.8875,-26.016,8.672001,-6.920001,eccentric,4,3.0,17278.0,134702.0,221889.0,274338.0,259304.0
2026-04-08 21:42:36.360547,159783,1609503728583596,1328550506,0.90768,-0.306464,0.122976,-8.155,-7.4025,-13.125,-26.016,8.672001,-6.920001,eccentric,4,3.0,17278.0,134702.0,221889.0,274338.0,259304.0
2026-04-08 21:42:36.364956,159784,1609503728592510,1328559159,0.853024,-0.288896,-0.021472,-8.56625,-7.595,-15.505,-26.104002,8.712001,-6.992,eccentric,4,3.0,17278.0,134702.0,221889.0,274338.0,259304.0
2026-04-08 21:42:36.367325,159785,1609503728606983,1328574006,0.91744,-0.279136,0.115168,-8.93375,-7.2975,-17.64875,-26.184002,8.512,-6.648,eccentric,4,3.0,17278.0,134702.0,221889.0,274338.0,259304.0
2026-04-08 21:42:36.370992,159786,1609503728615909,1328582660,0.91744,-0.279136,0.115168,-11.06,-6.64125,-20.76375,-26.184002,8.512,-6.648,eccentric,4,3.0,17278.0,134702.0,221889.0,274338.0,259304.0
2026-04-08 21:42:36.399181,159797,1609503728630802,1328597861,0.942816,-0.31232,0.113216,-12.78375,-6.97375,-23.4675,-26.112001,8.592,-8.352,concentric,4,3.0,17296.0,134709.0,221814.0,274205.0,259158.0
2026-04-08 21:42:36.400822,159798,1609503728639766,1328606585,0.942816,-0.31232,0.113216,-13.825,-7.56875,-25.54125,-26.112001,8.592,-8.352,concentric,4,3.0,17296.0,134709.0,221814.0,274205.0,259158.0
2026-04-08 21:42:36.404747,159799,1609503728648730,1328615284,0.95648,-0.333792,0.060512,-13.67625,-8.86375,-27.5625,-26.12,7.976,-10.200001,concentric,4,3.0,17296.0,134709.0,221814.0,274205.0,259158.0
2026-04-08 21:42:36.433336,159800,1609503728663221,1328630200,0.95648,-0.333792,0.060512,-14.0525,-9.33625,-30.66875,-26.12,7.976,-10.200001,concentric,4,3.0,17296.0,134709.0,221814.0,274205.0,259158.0
2026-04-08 21:42:36.437846,159801,1609503728672128,1328638847,0.997472,-0.31232,0.037088,-15.26,-8.8025,-33.451252,-26.208002,7.248,-8.856,concentric,4,3.0,17296.0,134709.0,221814.0,274205.0,259158.0
2026-04-08 21:42:36.440202,159802,1609503728686647,1328653788,0.997472,-0.31232,-0.017568,-14.735,-8.33,-35.3675,-26.208002,7.248,-8.856,concentric,4,3.0,17296.0,134709.0,221814.0,274205.0,259158.0
2026-04-08 21:42:36.474444,159803,1609503728695591,1328662455,0.915488,-0.275232,-0.017568,-13.02875,-7.805,-35.875,-26.088001,7.136,-6.936,concentric,4,3.0,17296.0,134709.0,221814.0,274205.0,259158.0
2026-04-08 21:42:36.478773,159804,1609503728710079,1328675267,0.94672,-0.286944,0.08784,-14.56875,-8.05,-36.575,-26.28,7.072001,-9.152,concentric,4,3.0,17296.0,134709.0,221814.0,274205.0,259158.0
2026-04-08 21:42:36.481374,159805,1609503728719270,1328685993,0.94672,-0.286944,0.08784,-15.1375,-9.52,-38.045002,-26.28,7.072001,-9.152,concentric,4,3.0,17296.0,134709.0,221814.0,274205.0,259158.0
2026-04-08 21:42:36.510894,159816,1609503728728297,1328694779,1.026752,-0.30256,0.152256,-15.09375,-10.19375,-38.263752,-26.080002,6.824,-10.56,concentric,4,3.0,17279.0,134560.0,221564.0,273934.0,258945.0
2026-04-08 21:42:36.545735,159817,1609503728742787,1328709711,1.026752,-0.30256,0.152256,-14.8225,-11.24375,-39.4275,-26.080002,6.824,-10.56,concentric,4,3.0,17279.0,134560.0,221564.0,273934.0,258945.0
2026-04-08 21:42:36.550018,159818,1609503728751764,1328718406,0.942816,-0.267424,0.013664,-15.2775,-12.1275,-40.67875,-26.04,6.176,-9.120001,concentric,4,3.0,17279.0,134560.0,221564.0,273934.0,258945.0
2026-04-08 21:42:36.551692,159819,1609503728766265,1328733286,0.942816,-0.267424,0.013664,-16.65125,-12.81,-41.7375,-26.04,6.176,-9.120001,concentric,4,3.0,17279.0,134560.0,221564.0,273934.0,258945.0
2026-04-08 21:42:36.553238,159820,1609503728775200,1328741940,1.042368,-0.300608,0.132736,-19.0575,-13.3525,-43.0325,-26.216002,5.832,-9.128,concentric,4,3.0,17279.0,134560.0,221564.0,273934.0,258945.0
2026-04-08 21:42:36.557572,159821,1609503728784092,1328750590,1.042368,-0.300608,0.132736,-22.505,-13.41375,-44.975,-26.216002,5.832,-9.128,concentric,4,3.0,17279.0,134560.0,221564.0,273934.0,258945.0
2026-04-08 21:42:36.559216,159822,1609503728798572,1328765478,1.022848,-0.327936,0.044896,-23.14375,-14.14875,-46.7775,-25.952002,4.896,-10.344001,concentric,4,3.0,17279.0,134560.0,221564.0,273934.0,258945.0
2026-04-08 21:42:36.561679,159823,1609503728807545,1328774215,1.022848,-0.31232,-0.040992,-21.83125,-15.2075,-48.195,-25.952002,4.896,-10.344001,concentric,4,3.0,17279.0,134560.0,221564.0,273934.0,258945.0
2026-04-08 21:42:36.617017,159834,1609503728822019,1328789130,1.0248,-0.304512,-0.040992,-21.72625,-16.24875,-49.175,-25.856,4.712,-8.384001,concentric,4,3.0,17327.0,134669.0,221505.0,273758.0,258744.0
2026-04-08 21:42:36.621414,159835,1609503728831261,1328797994,0.987712,-0.251808,-0.037088,-23.94875,-16.6075,-50.67125,-25.584002,4.624,-10.816001,concentric,4,3.0,17327.0,134669.0,221505.0,273758.0,258744.0
2026-04-08 21:42:36.623043,159836,1609503728846028,1328812969,0.987712,-0.251808,-0.037088,-27.13375,-16.73875,-51.205,-25.584002,4.624,-10.816001,concentric,4,3.0,17327.0,134669.0,221505.0,273758.0,258744.0
2026-04-08 21:42:36.625386,159837,1609503728854991,1328821684,0.96624,-0.267424,0.076128,-29.575,-16.8525,-51.37125,-25.576002,4.384,-13.448001,concentric,4,3.0,17327.0,134669.0,221505.0,273758.0,258744.0
2026-04-08 21:42:36.627790,159838,1609503728863918,1328830385,0.96624,-0.267424,0.076128,-28.5075,-16.93125,-51.8175,-25.576002,4.384,-13.448001,concentric,4,3.0,17327.0,134669.0,221505.0,273758.0,258744.0
2026-04-08 21:42:36.631607,159839,1609503728878441,1328845406,1.085312,-0.359168,0.140544,-25.2175,-18.1125,-52.77125,-25.424002,3.616,-11.344001,concentric,4,3.0,17327.0,134669.0,221505.0,273758.0,258744.0
2026-04-08 21:42:36.663896,159840,1609503728887467,1328854096,1.085312,-0.359168,0.140544,-21.63875,-19.59125,-53.445,-25.424002,3.616,-11.344001,concentric,4,3.0,17327.0,134669.0,221505.0,273758.0,258744.0
2026-04-08 21:42:36.665890,159841,1609503728901943,1328869026,1.071648,-0.267424,-0.083936,-19.53,-21.76125,-54.66125,-24.968,3.136,-10.792001,concentric,4,3.0,17327.0,134669.0,221505.0,273758.0,258744.0
2026-04-08 21:42:36.667333,159842,1609503728910864,1328877668,1.09312,-0.238144,-0.099552,-19.74875,-20.9125,-55.57125,-25.04,2.552,-12.256001,concentric,4,3.0,17327.0,134669.0,221505.0,273758.0,258744.0
2026-04-08 21:42:36.723417,159853,1609503728925795,1328891089,1.09312,-0.238144,-0.099552,-17.56125,-18.85625,-54.9325,-25.04,2.552,-12.256001,concentric,4,3.0,17422.0,134618.0,220989.0,273053.0,258105.0
2026-04-08 21:42:36.727543,159854,1609503728935213,1328901893,1.091168,-0.284992,-0.031232,-17.2375,-17.053751,-50.575,-24.464,2.112,-12.6,concentric,4,3.0,17422.0,134618.0,220989.0,273053.0,258105.0
2026-04-08 21:42:36.729227,159855,1609503728944592,1328910788,1.091168,-0.284992,-0.031232,-20.3175,-16.02125,-47.53,-24.464,2.112,-12.6,concentric,4,3.0,17422.0,134618.0,220989.0,273053.0,258105.0
2026-04-08 21:42:36.730800,159856,1609503728959227,1328925749,1.048224,-0.318176,0.212768,-21.09625,-15.39125,-48.16,-24.224,1.84,-12.72,concentric,4,3.0,17422.0,134618.0,220989.0,273053.0,258105.0
2026-04-08 21:42:36.734216,159857,1609503728968272,1328934469,1.048224,-0.318176,0.212768,-19.74875,-17.01875,-49.84875,-24.224,1.84,-12.72,concentric,4,3.0,17422.0,134618.0,220989.0,273053.0,258105.0
2026-04-08 21:42:36.736027,159858,1609503728977250,1328943130,1.018944,-0.337696,0.072224,-16.415,-20.0025,-52.43875,-24.064001,1.512,-13.288001,concentric,4,3.0,17422.0,134618.0,220989.0,273053.0,258105.0
2026-04-08 21:42:36.769380,159859,1609503728991826,1328958078,1.085312,-0.26352,0.197152,-13.2125,-22.39125,-56.3675,-23.648,1.088,-13.512001,concentric,4,3.0,17422.0,134618.0,220989.0,273053.0,258105.0
2026-04-08 21:42:36.773968,159860,1609503729000715,1328966736,1.085312,-0.26352,0.197152,-11.38375,-25.8475,-62.18625,-23.648,1.088,-13.512001,concentric,4,3.0,17422.0,134618.0,220989.0,273053.0,258105.0
2026-04-08 21:42:36.775559,159861,1609503729015245,1328981590,0.997472,-0.261568,-0.044896,-4.73375,-27.71125,-68.24125,-23.288002,0.688,-14.000001,concentric,4,3.0,17422.0,134618.0,220989.0,273053.0,258105.0
2026-04-08 21:42:36.805804,159872,1609503729024361,1328990358,0.997472,-0.261568,-0.044896,5.11,-28.3675,-67.725,-23.288002,0.688,-14.000001,concentric,4,3.0,17338.0,134200.0,220296.0,272389.0,257627.0
2026-04-08 21:42:36.810044,159873,1609503729033371,1328999081,1.009184,-0.25376,-0.124928,5.76625,-27.5625,-63.21875,-23.664001,0.2,-12.952001,concentric,4,3.0,17338.0,134200.0,220296.0,272389.0,257627.0
2026-04-08 21:42:36.812830,159874,1609503729047943,1329014029,1.009184,-0.25376,-0.124928,0.28,-28.0875,-62.58875,-23.664001,0.2,-12.952001,concentric,4,3.0,17338.0,134200.0,220296.0,272389.0,257627.0
2026-04-08 21:42:36.853073,159875,1609503729056865,1329022693,1.050176,-0.333792,-0.072224,-4.0775,-28.315,-64.18125,-22.920002,-0.04,-14.232,concentric,4,3.0,17338.0,134200.0,220296.0,272389.0,257627.0
2026-04-08 21:42:36.853430,159876,1609503729071366,1329037541,1.016992,-0.277184,0.003904,-7.98875,-28.7,-64.855,-22.352001,-0.816,-14.592001,concentric,4,3.0,17338.0,134200.0,220296.0,272389.0,257627.0
2026-04-08 21:42:36.855065,159877,1609503729080288,1329046278,1.016992,-0.277184,0.003904,-10.05375,-28.07875,-67.89125,-22.352001,-0.816,-14.592001,concentric,4,3.0,17338.0,134200.0,220296.0,272389.0,257627.0
2026-04-08 21:42:36.857173,159878,1609503729094756,1329061132,1.085312,-0.23424,-0.003904,-6.23,-25.69875,-72.26625,-22.240002,-1.136,-15.000001,concentric,4,3.0,17338.0,134200.0,220296.0,272389.0,257627.0
2026-04-08 21:42:36.859774,159879,1609503729103672,1329069790,1.085312,-0.23424,-0.003904,-0.11375,-24.57,-73.01,-22.240002,-1.136,-15.000001,concentric,4,3.0,17338.0,134200.0,220296.0,272389.0,257627.0
2026-04-08 21:42:36.867197,159880,1609503729112629,1329078477,1.104832,-0.183488,0.08784,2.87,-23.82625,-69.2475,-22.024,-1.368,-15.200001,concentric,4,3.0,17338.0,134200.0,220296.0,272389.0,257627.0
2026-04-08 21:42:36.921961,159891,1609503729127567,1329093446,1.104832,-0.183488,0.08784,0.525,-22.4875,-67.15625,-22.024,-1.368,-15.200001,concentric,4,3.0,17279.0,134124.0,220191.0,272351.0,257665.0
2026-04-08 21:42:36.924422,159892,1609503729136500,1329102123,1.003328,-0.1952,-0.046848,-4.57625,-21.97125,-69.09875,-21.592001,-1.896,-16.888,concentric,4,3.0,17279.0,134124.0,220191.0,272351.0,257665.0
2026-04-08 21:42:36.926951,159893,1609503729150955,1329116976,0.989664,-0.16592,0.007808,-5.34625,-20.7375,-71.19,-20.944,-2.112,-15.936001,concentric,4,3.0,17279.0,134124.0,220191.0,272351.0,257665.0
2026-04-08 21:42:36.929457,159894,1609503729159870,1329125737,0.989664,-0.16592,0.007808,-5.13625,-19.7225,-71.3125,-20.944,-2.112,-15.936001,concentric,4,3.0,17279.0,134124.0,220191.0,272351.0,257665.0
2026-04-08 21:42:36.931975,159895,1609503729174422,1329140675,0.942816,-0.121024,-0.171776,-6.01125,-18.62,-72.09125,-21.04,-2.552,-16.096,concentric,4,3.0,17279.0,134124.0,220191.0,272351.0,257665.0
2026-04-08 21:42:36.935739,159896,1609503729183359,1329149395,0.942816,-0.121024,-0.171776,-3.01875,-17.255,-75.74,-21.04,-2.552,-16.096,concentric,4,3.0,17279.0,134124.0,220191.0,272351.0,257665.0
2026-04-08 21:42:36.965847,159897,1609503729192283,1329158059,0.952576,-0.035136,0.005856,-1.72375,-17.03625,-75.2325,-20.696001,-2.848,-14.312,concentric,4,3.0,17279.0,134124.0,220191.0,272351.0,257665.0
2026-04-08 21:42:36.969396,159898,1609503729206743,1329172969,0.952576,-0.035136,0.005856,-5.3375,-17.17625,-73.3075,-20.696001,-2.848,-14.312,concentric,4,3.0,17279.0,134124.0,220191.0,272351.0,257665.0
2026-04-08 21:42:36.971932,159899,1609503729215645,1329181618,0.95648,-0.11712,0.119072,-10.4125,-17.54375,-75.25875,-20.2,-3.8,-16.216002,concentric,4,3.0,17279.0,134124.0,220191.0,272351.0,257665.0
2026-04-08 21:42:37.001975,159910,1609503729230368,1329196813,0.95648,-0.11712,-0.081984,-13.8425,-18.9525,-78.89,-20.2,-3.8,-16.216002,concentric,4,3.0,17110.0,133785.0,219934.0,272322.0,257787.0
2026-04-08 21:42:37.004411,159911,1609503729239451,1329205626,0.919392,-0.121024,-0.081984,-13.46625,-21.27125,-79.5025,-19.568,-3.968,-17.36,concentric,4,3.0,17110.0,133785.0,219934.0,272322.0,257787.0
2026-04-08 21:42:37.006888,159912,1609503729248483,1329214344,0.919392,-0.121024,-0.081984,-5.69625,-20.58,-80.01,-19.568,-3.968,-17.36,concentric,4,3.0,17110.0,133785.0,219934.0,272322.0,257787.0
2026-04-08 21:42:37.037189,159913,1609503729262988,1329229223,0.911584,-0.015616,-0.025376,3.5,-16.42375,-80.66625,-19.552,-4.312,-16.44,concentric,4,3.0,17110.0,133785.0,219934.0,272322.0,257787.0
2026-04-08 21:42:37.040810,159914,1609503729271906,1329237874,0.892064,0.035136,0.015616,4.235,-12.50375,-80.36875,-19.256,-4.728,-16.008001,concentric,4,3.0,17110.0,133785.0,219934.0,272322.0,257787.0
2026-04-08 21:42:37.043350,159915,1609503729286408,1329252822,0.892064,0.035136,0.015616,-3.3425,-10.78875,-80.78,-19.256,-4.728,-16.008001,concentric,4,3.0,17110.0,133785.0,219934.0,272322.0,257787.0
2026-04-08 21:42:37.049437,159916,1609503729295312,1329261478,0.870592,-0.003904,0.27328,-10.71875,-10.36875,-79.275,-18.792002,-5.032,-17.144001,concentric,4,3.0,17110.0,133785.0,219934.0,272322.0,257787.0
2026-04-08 21:42:37.075743,159917,1609503729309766,1329276359,0.870592,-0.003904,0.27328,-13.685,-10.91125,-77.55125,-18.792002,-5.032,-17.144001,concentric,4,3.0,17110.0,133785.0,219934.0,272322.0,257787.0
2026-04-08 21:42:37.078271,159918,1609503729318696,1329285023,0.872544,-0.007808,-0.042944,-8.645,-8.40875,-77.8225,-18.408,-5.352,-16.752,concentric,4,3.0,17110.0,133785.0,219934.0,272322.0,257787.0
2026-04-08 21:42:37.105646,159929,1609503729327934,1329293768,0.872544,-0.007808,-0.042944,0.0525,-4.96125,-76.9825,-18.408,-5.352,-16.752,concentric,4,3.0,17375.0,134635.0,220855.0,272941.0,258078.0
2026-04-08 21:42:37.108199,159930,1609503729342526,1329308664,0.81008,0.105408,-0.325984,1.26,-2.5375,-75.85375,-18.480001,-5.992,-16.968,concentric,4,3.0,17375.0,134635.0,220855.0,272941.0,258078.0
2026-04-08 21:42:37.110690,159931,1609503729351453,1329317362,0.821792,0.15616,-0.03904,-8.085,1.28625,-75.46875,-18.480001,-5.992,-18.36,concentric,4,3.0,17375.0,134635.0,220855.0,272941.0,258078.0
2026-04-08 21:42:37.144574,159932,1609503729365902,1329332264,0.821792,0.15616,-0.03904,-14.56,5.76625,-78.16375,-17.944,-6.352,-18.36,concentric,4,3.0,17375.0,134635.0,220855.0,272941.0,258078.0
2026-04-08 21:42:37.148412,159933,1609503729374793,1329340912,0.8296,0.083936,0.148352,-16.45,5.74875,-78.37375,-17.672,-6.928001,-17.184,concentric,4,3.0,17375.0,134635.0,220855.0,272941.0,258078.0
2026-04-08 21:42:37.150684,159934,1609503729389261,1329355815,0.8296,0.083936,0.148352,-22.88125,2.09125,-72.86125,-17.672,-6.928001,-17.184,concentric,4,3.0,17375.0,134635.0,220855.0,272941.0,258078.0
2026-04-08 21:42:37.153171,159935,1609503729398183,1329364477,0.823744,0.08784,-0.056608,-20.06375,-3.01875,-68.7925,-17.160002,-7.328001,-17.184,concentric,4,3.0,17375.0,134635.0,220855.0,272941.0,258078.0
2026-04-08 21:42:37.159420,159936,1609503729407175,1329373169,0.823744,0.08784,-0.056608,-11.5675,-4.2175,-67.8825,-17.160002,-7.328001,-17.184,concentric,4,3.0,17375.0,134635.0,220855.0,272941.0,258078.0
2026-04-08 21:42:37.189575,159937,1609503729421655,1329388039,0.804224,0.208864,-0.189344,-11.9525,-5.4075,-69.51,-17.344002,-7.304,-17.152,concentric,4,3.0,17375.0,134635.0,220855.0,272941.0,258078.0
2026-04-08 21:42:37.220620,159948,1609503729430741,1329396765,0.804224,0.208864,-0.189344,-15.4875,-2.63375,-70.34125,-17.344002,-7.304,-17.152,concentric,4,3.0,17364.0,134721.0,221072.0,273280.0,258411.0
2026-04-08 21:42:37.223199,159949,1609503729445251,1329411705,0.812032,0.228384,0.011712,-12.53,-1.4875,-67.2525,-17.072,-8.240001,-17.712,concentric,4,3.0,17364.0,134721.0,221072.0,273280.0,258411.0
2026-04-08 21:42:37.225626,159950,1609503729454191,1329420429,0.833504,0.148352,0.003904,-13.48375,-2.93125,-62.0025,-16.552,-8.04,-16.648,concentric,4,3.0,17364.0,134721.0,221072.0,273280.0,258411.0
2026-04-08 21:42:37.228337,159951,1609503729468731,1329435314,0.833504,0.148352,0.003904,-11.96125,-6.685,-59.45625,-16.552,-8.04,-16.648,concentric,4,3.0,17364.0,134721.0,221072.0,273280.0,258411.0
2026-04-08 21:42:37.230616,159952,1609503729477664,1329443980,0.833504,0.191296,-0.060512,-2.2225,-9.511251,-58.58125,-16.288,-8.440001,-16.544,concentric,4,3.0,17364.0,134721.0,221072.0,273280.0,258411.0
2026-04-08 21:42:37.260891,159953,1609503729486638,1329452680,0.833504,0.191296,-0.060512,4.305,-10.43875,-56.02625,-16.288,-8.440001,-16.544,concentric,4,3.0,17364.0,134721.0,221072.0,273280.0,258411.0
2026-04-08 21:42:37.264374,159954,1609503729501104,1329467540,0.813984,0.25376,-0.15616,2.6075,-7.7875,-52.6575,-16.12,-8.312,-17.576,concentric,4,3.0,17364.0,134721.0,221072.0,273280.0,258411.0
2026-04-08 21:42:37.266989,159955,1609503729510030,1329476206,0.813984,0.25376,-0.15616,0.88375,-5.22375,-47.55625,-16.12,-8.312,-17.576,concentric,4,3.0,17364.0,134721.0,221072.0,273280.0,258411.0
2026-04-08 21:42:37.297081,159956,1609503729524532,1329491071,0.733952,0.249856,-0.070272,-6.34375,-4.445,-43.89875,-15.792001,-8.552,-17.664001,concentric,4,3.0,17364.0,134721.0,221072.0,273280.0,258411.0
2026-04-08 21:42:37.333108,159967,1609503729533469,1329499789,0.691008,0.226432,0.140544,-16.42375,-4.725,-43.435,-15.896001,-8.592,-18.272001,concentric,4,3.0,17275.0,134535.0,221015.0,273403.0,258653.0
2026-04-08 21:42:37.335650,159968,1609503729547956,1329514670,0.691008,0.226432,0.140544,-11.57625,-4.83875,-44.38,-15.896001,-8.592,-18.272001,concentric,4,3.0,17275.0,134535.0,221015.0,273403.0,258653.0
2026-04-08 21:42:37.338139,159969,1609503729556913,1329523358,0.607072,0.242048,-0.177632,3.3075,-5.0225,-38.66625,-15.392001,-8.744,-16.104,concentric,4,3.0,17275.0,134535.0,221015.0,273403.0,258653.0
2026-04-08 21:42:37.340644,159970,1609503729566031,1329532039,0.607072,0.242048,-0.177632,9.485,-5.08375,-30.0125,-15.392001,-8.744,-16.104,concentric,4,3.0,17275.0,134535.0,221015.0,273403.0,258653.0
2026-04-08 21:42:37.343162,159971,1609503729580539,1329546898,0.665632,0.275232,-0.189344,3.5,-3.9025,-28.28,-15.120001,-9.304001,-17.92,concentric,4,3.0,17275.0,134535.0,221015.0,273403.0,258653.0
2026-04-08 21:42:37.345669,159972,1609503729589490,1329555699,0.665632,0.275232,-0.189344,-9.485,-2.44125,-31.4475,-15.120001,-9.304001,-17.92,concentric,4,3.0,17275.0,134535.0,221015.0,273403.0,258653.0
2026-04-08 21:42:37.376052,159973,1609503729603993,1329570589,0.671488,0.33184,-0.070272,-19.005,-0.7175,-30.397501,-15.52,-9.704,-16.864,concentric,4,3.0,17275.0,134535.0,221015.0,273403.0,258653.0
2026-04-08 21:42:37.379583,159974,1609503729612897,1329579246,0.671488,0.300608,0.11712,-13.0725,0.455,-23.35375,-15.52,-9.704,-16.864,concentric,4,3.0,17275.0,134535.0,221015.0,273403.0,258653.0
2026-04-08 21:42:37.382062,159975,1609503729621803,1329587911,0.6344,0.298656,0.11712,-4.27875,-2.205,-14.6825,-15.456,-9.168,-17.352001,concentric,4,3.0,17275.0,134535.0,221015.0,273403.0,258653.0
2026-04-08 21:42:37.443614,159986,1609503729636497,1329602869,0.562176,0.230336,-0.109312,-2.33625,-5.95,-11.05125,-14.992001,-9.152,-17.136002,concentric,4,3.0,17316.0,134934.0,221766.0,274157.0,259186.0
2026-04-08 21:42:37.446988,159987,1609503729645449,1329611556,0.562176,0.230336,-0.109312,0.0875,-7.84875,-11.2175,-14.992001,-9.152,-17.136002,concentric,4,3.0,17316.0,134934.0,221766.0,274157.0,259186.0
2026-04-08 21:42:37.449525,159988,1609503729659880,1329626510,0.759328,0.2928,-0.242048,-0.65625,-7.56,-12.71375,-15.280001,-9.424001,-16.992,concentric,4,3.0,17316.0,134934.0,221766.0,274157.0,259186.0
2026-04-08 21:42:37.451979,159989,1609503729668842,1329635203,0.759328,0.2928,-0.242048,-5.45125,-6.13375,-12.2325,-15.280001,-9.424001,-16.992,concentric,4,3.0,17316.0,134934.0,221766.0,274157.0,259186.0
2026-04-08 21:42:37.454490,159990,1609503729683335,1329650135,0.69296,0.37088,0.03904,-5.1975,-5.29375,-9.8175,-14.6,-9.64,-17.960001,concentric,4,3.0,17316.0,134934.0,221766.0,274157.0,259186.0
2026-04-08 21:42:37.456958,159991,1609503729692247,1329658794,0.69296,0.37088,0.03904,3.24625,-4.31375,-3.47375,-14.6,-9.64,-17.960001,concentric,4,3.0,17316.0,134934.0,221766.0,274157.0,259186.0
2026-04-08 21:42:37.459459,159992,1609503729701173,1329667448,0.667584,0.23424,0.076128,8.225,-5.7225,3.2025,-14.784,-8.824,-17.84,concentric,4,3.0,17316.0,134934.0,221766.0,274157.0,259186.0
2026-04-08 21:42:37.489674,159993,1609503729715677,1329682344,0.718336,0.304512,-0.27328,7.79625,-3.22875,3.35125,-15.184001,-9.296001,-18.704,concentric,4,3.0,17316.0,134934.0,221766.0,274157.0,259186.0
2026-04-08 21:42:37.493157,159994,1609503729724608,1329691027,0.718336,0.304512,-0.27328,9.63375,4.6725,0.74375,-15.184001,-9.296001,-18.704,concentric,4,3.0,17316.0,134934.0,221766.0,274157.0,259186.0
2026-04-08 21:42:37.520753,160005,1609503729739152,1329705929,0.655872,0.470432,-0.132736,7.53375,10.15,1.39125,-15.352001,-9.0,-18.04,concentric,4,3.0,17942.0,136558.0,223080.0,274707.0,259179.0
2026-04-08 21:42:37.527066,160006,1609503729748087,1329714637,0.655872,0.470432,-0.132736,2.0825,11.80375,7.7875,-15.352001,-9.0,-18.04,concentric,4,3.0,17942.0,136558.0,223080.0,274707.0,259179.0
2026-04-08 21:42:37.529600,160007,1609503729762564,1329729543,0.6832,0.298656,0.2928,3.61375,11.08625,13.16,-14.976001,-8.76,-17.912,concentric,4,3.0,17942.0,136558.0,223080.0,274707.0,259179.0
2026-04-08 21:42:37.531974,160008,1609503729771500,1329738264,0.6832,0.298656,0.2928,-1.68875,8.1025,16.8,-14.976001,-8.76,-17.912,concentric,4,3.0,17942.0,136558.0,223080.0,274707.0,259179.0
2026-04-08 21:42:37.534514,160009,1609503729780425,1329746951,0.558272,0.23424,-0.027328,-8.60125,4.55875,15.61875,-15.320001,-9.024,-17.904001,concentric,4,3.0,17942.0,136558.0,223080.0,274707.0,259179.0
2026-04-08 21:42:37.564675,160010,1609503729794938,1329761824,0.612928,0.327936,-0.103456,-0.945,3.5525,13.15125,-15.320001,-8.416,-18.536001,concentric,4,3.0,17942.0,136558.0,223080.0,274707.0,259179.0
2026-04-08 21:42:37.568243,160011,1609503729803844,1329770486,0.612928,0.327936,-0.103456,11.08625,4.9525,17.0275,-15.320001,-8.416,-18.536001,concentric,4,3.0,17942.0,136558.0,223080.0,274707.0,259179.0
2026-04-08 21:42:37.573240,160012,1609503729818318,1329785338,0.714432,0.353312,0.044896,16.23125,6.1425,22.77625,-15.672001,-8.624001,-17.608002,concentric,4,3.0,17942.0,136558.0,223080.0,274707.0,259179.0
2026-04-08 21:42:37.610728,160023,1609503729827250,1329794003,0.714432,0.353312,0.044896,11.34,7.48125,23.42375,-15.672001,-8.624001,-17.608002,concentric,4,3.0,17735.0,136400.0,223381.0,275230.0,259711.0
2026-04-08 21:42:37.613246,160024,1609503729841820,1329808919,0.659776,0.26352,0.080032,1.72375,7.76125,21.5075,-15.288001,-8.304001,-16.832,concentric,4,3.0,17735.0,136400.0,223381.0,275230.0,259711.0
2026-04-08 21:42:37.615672,160025,1609503729850790,1329817619,0.659776,0.26352,0.080032,-4.6725,7.49,21.62125,-15.288001,-8.304001,-16.832,concentric,4,3.0,17735.0,136400.0,223381.0,275230.0,259711.0
2026-04-08 21:42:37.618211,160026,1609503729859730,1329826283,0.648064,0.279136,0.081984,-6.02,7.06125,23.66,-15.984001,-8.144,-16.696001,concentric,4,3.0,17735.0,136400.0,223381.0,275230.0,259711.0
2026-04-08 21:42:37.648486,160027,1609503729874302,1329841153,0.648064,0.279136,0.081984,1.5225,6.3175,24.08,-15.984001,-8.144,-16.696001,concentric,4,3.0,17735.0,136400.0,223381.0,275230.0,259711.0
2026-04-08 21:42:37.651906,160028,1609503729883198,1329849799,0.6832,0.2928,0.062464,8.995,6.57125,26.0925,-16.04,-8.160001,-17.36,concentric,4,3.0,17735.0,136400.0,223381.0,275230.0,259711.0
2026-04-08 21:42:37.654412,160029,1609503729897767,1329864742,0.759328,0.240096,0.025376,12.0225,6.01125,29.8375,-16.432001,-7.84,-17.576,concentric,4,3.0,17735.0,136400.0,223381.0,275230.0,259711.0
2026-04-08 21:42:37.659393,160030,1609503729906702,1329873432,0.759328,0.240096,0.025376,9.93125,6.475,30.1875,-16.432001,-7.84,-17.576,concentric,4,3.0,17735.0,136400.0,223381.0,275230.0,259711.0
