pc_time,serial_num,sensor_ts,host_ts,ax,ay,az,gx,gy,gz,mx,my,mz,phase,rpe,weight_kg,ppg_a,ppg_b,ppg_c,ppg_d,ppg_e
2026-04-07 17:53:57.540830,277546,1507909528,1507911294,-1.331264,0.150304,0.00976,3.99875,3.94625,-6.125,44.232002,0.384,57.552002,eccentric,3,3.0,21428.0,310553.0,280145.0,327974.0,288333.0
2026-04-07 17:53:57.542134,277547,1507918498,1507920038,-1.331264,0.150304,0.00976,4.73375,3.45625,-6.44875,44.232002,0.384,57.552002,eccentric,3,3.0,21428.0,310553.0,280145.0,327974.0,288333.0
2026-04-07 17:53:57.550511,277548,1507932990,1507935022,-1.315648,0.152256,0.01952,5.67,3.85,-6.895,45.032,0.688,55.664,eccentric,3,3.0,21428.0,310553.0,280145.0,327974.0,288333.0
2026-04-07 17:53:57.554642,277549,1507941962,1507943754,-1.315648,0.152256,0.01952,5.15375,3.7625,-6.615,45.032,0.688,55.664,eccentric,3,3.0,21428.0,310553.0,280145.0,327974.0,288333.0
2026-04-07 17:53:57.586015,277550,1507950954,1507952459,-1.28832,0.140544,0.050752,5.5825,3.7275,-5.9675,44.800003,-0.072,56.968002,eccentric,3,3.0,21428.0,310553.0,280145.0,327974.0,288333.0
2026-04-07 17:53:57.589591,277551,1507965422,1507967333,-1.25904,0.128832,0.02928,5.635,4.06875,-5.64375,45.376003,0.352,55.328003,eccentric,3,3.0,21428.0,310553.0,280145.0,327974.0,288333.0
2026-04-07 17:53:57.620874,277562,1507974909,1507976100,-1.25904,0.128832,0.02928,4.52375,4.40125,-5.0575,45.376003,0.352,55.328003,eccentric,3,3.0,21793.0,313442.0,282374.0,330243.0,290317.0
2026-04-07 17:53:57.623333,277563,1507983802,1507984834,-1.25904,0.154208,0.031232,4.2175,4.62,-5.0225,45.376003,0.352,55.328003,eccentric,3,3.0,21793.0,313442.0,282374.0,330243.0,290317.0
2026-04-07 17:53:57.625817,277564,1507992824,1507993553,-1.237568,0.154208,0.031232,4.725,4.62,-5.17125,45.024002,0.536,56.256004,eccentric,3,3.0,21793.0,313442.0,282374.0,330243.0,290317.0
2026-04-07 17:53:57.628338,277565,1508007708,1508008524,-1.202432,0.163968,0.021472,5.46,4.305,-5.0925,44.24,0.184,57.280003,eccentric,3,3.0,21793.0,313442.0,282374.0,330243.0,290317.0
2026-04-07 17:53:57.630802,277566,1508016633,1508017276,-1.202432,0.163968,0.021472,5.78375,4.1825,-4.71625,44.24,0.184,57.280003,eccentric,3,3.0,21793.0,313442.0,282374.0,330243.0,290317.0
2026-04-07 17:53:57.637352,277567,1508025903,1508028104,-1.179008,0.142496,0.003904,4.75125,3.6925,-4.75125,44.224003,0.536,56.360004,eccentric,3,3.0,21793.0,313442.0,282374.0,330243.0,290317.0
2026-04-07 17:53:57.686011,277568,1508034883,1508036824,-1.179008,0.142496,0.003904,4.61125,2.94875,-5.17125,44.224003,0.536,56.360004,eccentric,3,3.0,21793.0,313442.0,282374.0,330243.0,290317.0
2026-04-07 17:53:57.689540,277569,1508049366,1508049682,-1.118496,0.105408,-0.00976,7.0175,2.5025,-4.6375,45.168003,0.744,55.408,eccentric,3,3.0,21793.0,313442.0,282374.0,330243.0,290317.0
2026-04-07 17:53:57.692079,277570,1508058536,1508060429,-1.118496,0.105408,-0.00976,10.36,2.0475,-4.795,45.168003,0.744,55.408,eccentric,3,3.0,21793.0,313442.0,282374.0,330243.0,290317.0
2026-04-07 17:53:57.694556,277571,1508067451,1508069141,-1.0736,0.130784,0.00976,11.64625,2.84375,-5.39,45.168003,0.592,55.144,eccentric,3,3.0,21793.0,313442.0,282374.0,330243.0,290317.0
2026-04-07 17:53:57.723272,277581,1508082012,1508084065,-1.0736,0.130784,0.00976,10.59625,2.80875,-5.075,45.168003,0.592,55.144,eccentric,3,3.0,22045.0,315445.0,283916.0,331800.0,291689.0
2026-04-07 17:53:57.725886,277582,1508091002,1508092775,-1.095072,0.101504,0.001952,4.0775,3.4475,-4.4275,44.824,0.976,55.448,eccentric,3,3.0,22045.0,315445.0,283916.0,331800.0,291689.0
2026-04-07 17:53:57.728309,277583,1508099943,1508101624,-1.095072,0.101504,0.001952,-0.4025,3.85875,-3.43875,44.824,0.976,55.448,eccentric,3,3.0,22045.0,315445.0,283916.0,331800.0,291689.0
2026-04-07 17:53:57.730811,277584,1508114519,1508116561,-1.03456,0.0976,-0.003904,-0.1925,2.63375,-2.24875,44.120003,0.552,56.232002,eccentric,3,3.0,22045.0,315445.0,283916.0,331800.0,291689.0
2026-04-07 17:53:57.735813,277585,1508123501,1508125260,-1.03456,0.0976,-0.003904,4.5675,1.645,-0.8575,44.120003,0.552,56.232002,eccentric,3,3.0,22045.0,315445.0,283916.0,331800.0,291689.0
2026-04-07 17:53:57.748292,277586,1508132454,1508133965,-1.036512,0.111264,-0.01952,7.3325,2.17,-2.0475,44.616,0.832,55.864002,eccentric,3,3.0,22045.0,315445.0,283916.0,331800.0,291689.0
2026-04-07 17:53:57.753410,277587,1508141459,1508142680,-1.036512,0.111264,-0.01952,8.225,1.77625,-1.16375,44.616,0.832,55.864002,eccentric,3,3.0,22045.0,315445.0,283916.0,331800.0,291689.0
2026-04-07 17:53:57.783754,277588,1508155966,1508157700,-1.057984,0.12688,-0.015616,10.0625,0.91,0.0,44.488003,1.048,54.912003,eccentric,3,3.0,22045.0,315445.0,283916.0,331800.0,291689.0
2026-04-07 17:53:57.787157,277589,1508164875,1508166534,-1.05408,0.154208,0.0,12.74,0.84875,0.0525,44.488003,1.048,56.056004,eccentric,3,3.0,22045.0,315445.0,283916.0,331800.0,291689.0
2026-04-07 17:53:57.824713,277599,1508174442,1508175306,-1.05408,0.154208,0.0,16.56375,0.525,-0.53375,44.784,0.904,56.056004,eccentric,3,3.0,22258.0,317057.0,285192.0,333193.0,292892.0
2026-04-07 17:53:57.830775,277600,1508189025,1508190238,-1.118496,0.179584,0.017568,17.15,1.575,-3.535,44.256,0.384,56.08,eccentric,3,3.0,22258.0,317057.0,285192.0,333193.0,292892.0
2026-04-07 17:53:57.833289,277601,1508197969,1508198953,-1.118496,0.179584,0.017568,16.05625,2.5375,-6.60625,44.256,0.384,56.08,eccentric,3,3.0,22258.0,317057.0,285192.0,333193.0,292892.0
2026-04-07 17:53:57.835812,277602,1508206885,1508207685,-1.110688,0.16592,0.001952,12.32875,2.47625,-7.93625,44.528004,0.672,55.480003,eccentric,3,3.0,22258.0,317057.0,285192.0,333193.0,292892.0
2026-04-07 17:53:57.838308,277603,1508216398,1508218450,-1.110688,0.16592,0.001952,10.99,2.89625,-9.511251,44.528004,0.672,55.480003,eccentric,3,3.0,22258.0,317057.0,285192.0,333193.0,292892.0
2026-04-07 17:53:57.843305,277604,1508231020,1508233336,-1.147776,0.150304,0.003904,9.9575,4.97875,-10.61375,43.816,0.328,55.04,eccentric,3,3.0,22258.0,317057.0,285192.0,333193.0,292892.0
2026-04-07 17:53:57.877818,277605,1508239967,1508242083,-1.147776,0.150304,0.003904,6.58,6.1425,-12.04,43.816,0.328,55.04,eccentric,3,3.0,22258.0,317057.0,285192.0,333193.0,292892.0
2026-04-07 17:53:57.880865,277606,1508248888,1508250779,-1.16144,0.083936,-0.035136,3.36875,5.99375,-11.96125,44.04,1.112,55.496002,eccentric,3,3.0,22258.0,317057.0,285192.0,333193.0,292892.0
2026-04-07 17:53:57.883330,277607,1508263390,1508265673,-1.16144,0.083936,-0.035136,1.8725,5.74875,-9.35375,44.04,1.112,55.496002,eccentric,3,3.0,22258.0,317057.0,285192.0,333193.0,292892.0
2026-04-07 17:53:57.914562,277618,1508272336,1508274305,-1.08336,0.060512,-0.03904,6.0725,4.5675,-6.9825,44.344,0.792,54.56,eccentric,3,3.0,22280.0,317107.0,285114.0,332988.0,292681.0
2026-04-07 17:53:57.917047,277619,1508282096,1508283085,-1.08336,0.060512,-0.03904,8.645,3.70125,-4.865,44.344,0.792,54.56,eccentric,3,3.0,22280.0,317107.0,285114.0,332988.0,292681.0
2026-04-07 17:53:57.923303,277620,1508291092,1508291795,-1.106784,0.050752,-0.040992,8.19,3.75375,-2.3625,44.032,0.704,54.288002,eccentric,3,3.0,22280.0,317107.0,285114.0,332988.0,292681.0
2026-04-07 17:53:57.928312,277621,1508305973,1508306717,-1.067744,0.11712,-0.007808,9.1875,3.5875,0.7175,43.384003,0.664,53.968002,eccentric,3,3.0,22280.0,317107.0,285114.0,332988.0,292681.0
2026-04-07 17:53:57.930790,277622,1508315386,1508317513,-1.067744,0.11712,-0.007808,13.3875,2.6775,3.4475,43.384003,0.664,53.968002,eccentric,3,3.0,22280.0,317107.0,285114.0,332988.0,292681.0
2026-04-07 17:53:57.935832,277623,1508324326,1508326273,-1.067744,0.11712,-0.007808,15.49625,2.765,3.80625,43.384003,0.664,53.968002,eccentric,3,3.0,22280.0,317107.0,285114.0,332988.0,292681.0
2026-04-07 17:53:57.966017,277624,1508333238,1508334973,-1.106784,0.169824,0.013664,14.245,3.47375,4.4975,44.08,0.768,55.032,eccentric,3,3.0,22280.0,317107.0,285114.0,332988.0,292681.0
2026-04-07 17:53:57.969616,277625,1508349489,1508349957,-1.079456,0.160064,0.025376,11.165,2.75625,4.76,43.976,0.832,54.488003,eccentric,3,3.0,22280.0,317107.0,285114.0,332988.0,292681.0
2026-04-07 17:53:57.972126,277626,1508358874,1508360780,-1.079456,0.160064,0.025376,9.19625,3.54375,4.7075,43.976,0.832,54.488003,eccentric,3,3.0,22280.0,317107.0,285114.0,332988.0,292681.0
2026-04-07 17:53:58.002203,277627,1508367829,1508369482,-1.0736,0.16592,0.023424,8.6275,3.52625,3.75375,44.08,0.792,55.04,eccentric,3,3.0,22280.0,317107.0,285114.0,332988.0,292681.0
2026-04-07 17:53:58.028308,277637,1508377012,1508378258,-1.0736,0.16592,0.023424,9.7125,3.33375,2.02125,44.08,0.792,55.04,eccentric,3,3.0,22320.0,317235.0,285066.0,332785.0,292497.0
2026-04-07 17:53:58.030832,277638,1508391536,1508393243,-1.042368,0.140544,-0.025376,12.25,2.10875,0.28875,43.52,0.584,53.992004,eccentric,3,3.0,22320.0,317235.0,285066.0,332785.0,292497.0
2026-04-07 17:53:58.033306,277639,1508400461,1508401947,-1.042368,0.140544,-0.025376,12.10125,3.22,-0.98875,43.52,0.584,53.992004,eccentric,3,3.0,22320.0,317235.0,285066.0,332785.0,292497.0
2026-04-07 17:53:58.035858,277640,1508409540,1508410674,-1.050176,0.103456,-0.040992,10.00125,3.85875,-1.5925,43.808002,0.656,55.064003,eccentric,3,3.0,22320.0,317235.0,285066.0,332785.0,292497.0
2026-04-07 17:53:58.038839,277641,1508418495,1508419469,-1.050176,0.103456,-0.040992,9.7475,3.465,-1.155,43.808002,0.656,55.064003,eccentric,3,3.0,22320.0,317235.0,285066.0,332785.0,292497.0
2026-04-07 17:53:58.044983,277642,1508433020,1508434375,-1.020896,0.105408,-0.021472,12.7575,2.19625,-0.3325,43.2,-0.08,54.600002,eccentric,3,3.0,22320.0,317235.0,285066.0,332785.0,292497.0
2026-04-07 17:53:58.074942,277643,1508442088,1508443070,-1.020896,0.105408,-0.021472,15.6625,1.6975,0.25375,43.2,-0.08,54.600002,eccentric,3,3.0,22320.0,317235.0,285066.0,332785.0,292497.0
2026-04-07 17:53:58.078414,277644,1508451019,1508451805,-1.057984,0.109312,-0.005856,16.2225,1.1025,2.17,43.52,-0.176,53.920002,eccentric,3,3.0,22320.0,317235.0,285066.0,332785.0,292497.0
2026-04-07 17:53:58.080844,277645,1508466035,1508466739,-1.057984,0.119072,0.0,15.0675,-0.8575,4.08625,43.52,-0.176,53.920002,eccentric,3,3.0,22320.0,317235.0,285066.0,332785.0,292497.0
2026-04-07 17:53:58.109647,277655,1508475895,1508477584,-1.003328,0.119072,0.0,13.30875,-2.31875,6.2125,43.72,0.056,54.024002,eccentric,3,3.0,22152.0,315825.0,283897.0,331495.0,291264.0
2026-04-07 17:53:58.112053,277656,1508484988,1508486357,-1.003328,0.119072,0.0,14.88375,-2.91375,6.93875,43.72,0.056,54.024002,eccentric,3,3.0,22152.0,315825.0,283897.0,331495.0,291264.0
2026-04-07 17:53:58.114517,277657,1508493935,1508495115,-1.018944,0.124928,-0.023424,15.408751,-3.07125,5.8625,43.232002,-0.52,53.520004,eccentric,3,3.0,22152.0,315825.0,283897.0,331495.0,291264.0
2026-04-07 17:53:58.119584,277658,1508508543,1508510059,-0.964288,0.115168,-0.025376,15.5925,-2.975,6.08125,44.072002,-0.28,53.544003,eccentric,3,3.0,22152.0,315825.0,283897.0,331495.0,291264.0
2026-04-07 17:53:58.128361,277659,1508517489,1508518779,-0.964288,0.115168,-0.025376,16.17,-4.1825,6.29125,44.072002,-0.28,53.544003,eccentric,3,3.0,22152.0,315825.0,283897.0,331495.0,291264.0
2026-04-07 17:53:58.158503,277660,1508526428,1508527492,-0.921344,0.111264,-0.025376,17.7275,-5.1275,6.25625,44.072002,-0.28,54.392002,eccentric,3,3.0,22152.0,315825.0,283897.0,331495.0,291264.0
2026-04-07 17:53:58.162067,277661,1508540918,1508542403,-0.921344,0.111264,-0.025376,19.20625,-5.95875,6.04625,43.776,-0.256,54.392002,eccentric,3,3.0,22152.0,315825.0,283897.0,331495.0,291264.0
2026-04-07 17:53:58.164552,277662,1508549840,1508551106,-0.944768,0.124928,-0.001952,18.655,-5.53875,5.775,43.4,-0.52,53.904003,eccentric,3,3.0,22152.0,315825.0,283897.0,331495.0,291264.0
2026-04-07 17:53:58.169542,277663,1508558763,1508559875,-0.944768,0.124928,-0.001952,19.4775,-6.71125,6.44875,43.4,-0.52,53.904003,eccentric,3,3.0,22152.0,315825.0,283897.0,331495.0,291264.0
2026-04-07 17:53:58.199796,277664,1508567695,1508568603,-0.923296,0.12688,0.001952,21.7875,-8.07625,6.85125,43.4,-0.848,54.112003,eccentric,3,3.0,22152.0,315825.0,283897.0,331495.0,291264.0
2026-04-07 17:53:58.228370,277675,1508582263,1508583571,-0.923296,0.12688,0.001952,21.21875,-8.49625,5.635,43.4,-0.848,54.112003,eccentric,3,3.0,21778.0,312875.0,281593.0,328981.0,288937.0
2026-04-07 17:53:58.232638,277676,1508591204,1508592321,-0.95648,0.13664,0.00976,21.20125,-8.5925,5.52125,42.976,-0.936,54.160004,eccentric,3,3.0,21778.0,312875.0,281593.0,328981.0,288937.0
2026-04-07 17:53:58.234288,277677,1508600227,1508601049,-0.95648,0.13664,0.00976,21.35,-9.5025,4.865,42.976,-0.936,54.160004,eccentric,3,3.0,21778.0,312875.0,281593.0,328981.0,288937.0
2026-04-07 17:53:58.235813,277678,1508614779,1508615983,-0.915488,0.142496,0.001952,21.60375,-9.75625,4.445,41.904003,-1.144,55.448,eccentric,3,3.0,21778.0,312875.0,281593.0,328981.0,288937.0
2026-04-07 17:53:58.239943,277679,1508623686,1508624758,-0.915488,0.142496,0.001952,22.07625,-10.28125,3.96375,41.904003,-1.144,55.448,eccentric,3,3.0,21778.0,312875.0,281593.0,328981.0,288937.0
2026-04-07 17:53:58.244962,277680,1508632639,1508633555,-0.933056,0.11712,-0.015616,20.545,-9.77375,2.1,42.808002,-2.232,55.064003,eccentric,3,3.0,21778.0,312875.0,281593.0,328981.0,288937.0
2026-04-07 17:53:58.273611,277681,1508647124,1508648487,-0.911584,0.13664,-0.072224,18.4275,-9.275,1.6625,42.808002,-1.488,54.800003,eccentric,3,3.0,21778.0,312875.0,281593.0,328981.0,288937.0
2026-04-07 17:53:58.278069,277682,1508656035,1508657183,-0.911584,0.13664,-0.072224,17.4475,-8.6275,1.505,42.552002,-1.488,54.800003,eccentric,3,3.0,21778.0,312875.0,281593.0,328981.0,288937.0
2026-04-07 17:53:58.279710,277683,1508664916,1508665958,-0.911584,0.13664,-0.072224,14.2275,-7.16625,-0.11375,42.552002,-1.488,54.800003,eccentric,3,3.0,21778.0,312875.0,281593.0,328981.0,288937.0
2026-04-07 17:53:58.332034,277693,1508679599,1508681027,-0.99552,0.150304,-0.003904,12.635,-6.37875,-1.26875,42.864002,-1.136,54.336002,eccentric,3,3.0,21662.0,311943.0,280822.0,328168.0,288151.0
2026-04-07 17:53:58.332340,277694,1508688639,1508689724,-0.964288,0.144448,0.044896,13.230001,-6.72875,-0.32375,41.992,-1.664,55.680004,eccentric,3,3.0,21662.0,311943.0,280822.0,328168.0,288151.0
2026-04-07 17:53:58.332430,277695,1508697567,1508698407,-0.964288,0.144448,0.044896,12.87125,-7.1575,-0.315,41.992,-1.664,55.680004,eccentric,3,3.0,21662.0,311943.0,280822.0,328168.0,288151.0
2026-04-07 17:53:58.332545,277696,1508706468,1508707124,-0.964288,0.144448,0.044896,13.877501,-6.92125,-0.84,41.992,-1.664,55.680004,eccentric,3,3.0,21662.0,311943.0,280822.0,328168.0,288151.0
2026-04-07 17:53:58.337606,277697,1508721292,1508722103,-0.983808,0.173728,0.074176,13.09875,-6.6675,-2.07375,42.368004,-1.888,53.736004,eccentric,3,3.0,21662.0,311943.0,280822.0,328168.0,288151.0
2026-04-07 17:53:58.341120,277698,1508730200,1508730847,-1.022848,0.160064,0.037088,11.375,-6.78125,-2.82625,41.928,-2.064,55.632004,eccentric,3,3.0,21662.0,311943.0,280822.0,328168.0,288151.0
2026-04-07 17:53:58.371103,277699,1508739478,1508741600,-1.022848,0.160064,0.037088,8.23375,-7.385,-2.3975,41.928,-2.064,55.632004,eccentric,3,3.0,21662.0,311943.0,280822.0,328168.0,288151.0
2026-04-07 17:53:58.374691,277700,1508754002,1508754446,-0.972096,0.11712,-0.007808,7.21,-7.35875,-1.225,42.136,-2.064,55.648003,eccentric,3,3.0,21662.0,311943.0,280822.0,328168.0,288151.0
2026-04-07 17:53:58.380900,277701,1508763311,1508765284,-0.972096,0.11712,-0.007808,8.95125,-6.9125,-2.21375,42.136,-2.064,55.648003,eccentric,3,3.0,21662.0,311943.0,280822.0,328168.0,288151.0
2026-04-07 17:53:58.383351,277702,1508772342,1508773983,-0.989664,0.111264,0.013664,10.49125,-6.02,-3.29875,41.272003,-2.144,55.784004,eccentric,3,3.0,21662.0,311943.0,280822.0,328168.0,288151.0
2026-04-07 17:53:58.408305,277712,1508781358,1508782739,-0.989664,0.111264,0.013664,12.62625,-5.67875,-3.6575,41.272003,-2.144,55.784004,eccentric,3,3.0,21654.0,311986.0,280938.0,328385.0,288488.0
2026-04-07 17:53:58.410849,277713,1508795797,1508797683,-0.977952,0.132736,0.060512,14.3675,-5.775,-2.05625,41.856003,-1.952,54.496002,eccentric,3,3.0,21654.0,311986.0,280938.0,328385.0,288488.0
2026-04-07 17:53:58.415976,277714,1508804748,1508806397,-0.977952,0.132736,0.060512,15.23375,-5.74,-0.18375,41.856003,-1.952,54.496002,eccentric,3,3.0,21654.0,311986.0,280938.0,328385.0,288488.0
2026-04-07 17:53:58.449902,277715,1508813692,1508815093,-0.942816,0.15616,0.13664,13.9475,-5.59125,1.1725,41.992,-2.016,54.288002,eccentric,3,3.0,21654.0,311986.0,280938.0,328385.0,288488.0
2026-04-07 17:53:58.453447,277716,1508828155,1508829978,-0.964288,0.201056,0.140544,11.9875,-6.11625,1.19875,41.960003,-2.264,55.264004,eccentric,3,3.0,21654.0,311986.0,280938.0,328385.0,288488.0
2026-04-07 17:53:58.455995,277717,1508837070,1508838686,-0.964288,0.201056,0.140544,8.89875,-5.635,-0.23625,41.960003,-2.264,55.264004,eccentric,3,3.0,21654.0,311986.0,280938.0,328385.0,288488.0
2026-04-07 17:53:58.458431,277718,1508845968,1508847378,-0.964288,0.201056,0.140544,5.18875,-6.1075,-1.645,41.960003,-2.264,55.264004,eccentric,3,3.0,21654.0,311986.0,280938.0,328385.0,288488.0
2026-04-07 17:53:58.488516,277719,1508860448,1508862309,-0.933056,0.210816,0.12688,-0.21875,-7.035,-3.42125,41.608,-2.256,56.992004,eccentric,3,3.0,21654.0,311986.0,280938.0,328385.0,288488.0
2026-04-07 17:53:58.492163,277720,1508869356,1508870991,-0.94672,0.169824,0.140544,-6.3525,-8.14625,-4.7075,41.472,-1.76,54.936,eccentric,3,3.0,21654.0,311986.0,280938.0,328385.0,288488.0
2026-04-07 17:53:58.526898,277731,1508878374,1508879755,-0.94672,0.169824,0.140544,-11.7425,-8.33875,-6.04625,41.472,-1.76,54.936,eccentric,3,3.0,21505.0,310998.0,280329.0,327914.0,288149.0
2026-04-07 17:53:58.528401,277732,1508887406,1508888484,-0.94672,0.169824,0.140544,-15.82875,-9.23125,-7.16625,41.472,-1.76,54.936,eccentric,3,3.0,21505.0,310998.0,280329.0,327914.0,288149.0
2026-04-07 17:53:58.530887,277733,1508901929,1508903438,-0.94672,0.134688,0.154208,-17.955,-10.54375,-7.665,40.992,-2.016,55.440002,eccentric,3,3.0,21505.0,310998.0,280329.0,327914.0,288149.0
2026-04-07 17:53:58.535341,277734,1508910861,1508912130,-1.0248,0.150304,0.1464,-17.053751,-11.64625,-7.91875,41.112003,-1.64,55.008003,eccentric,3,3.0,21505.0,310998.0,280329.0,327914.0,288149.0
2026-04-07 17:53:58.536794,277735,1508919808,1508920876,-1.0248,0.150304,0.1464,-19.85375,-11.80375,-9.3275,41.112003,-1.64,55.008003,eccentric,3,3.0,21505.0,310998.0,280329.0,327914.0,288149.0
2026-04-07 17:53:58.566976,277736,1508934372,1508935847,-0.972096,0.160064,0.124928,-24.29,-13.2125,-9.10875,40.968002,-0.96,54.632004,eccentric,3,3.0,21505.0,310998.0,280329.0,327914.0,288149.0
2026-04-07 17:53:58.568428,277737,1508943289,1508944533,-0.972096,0.160064,0.124928,-27.20375,-14.5075,-9.1525,40.968002,-0.96,54.632004,eccentric,3,3.0,21505.0,310998.0,280329.0,327914.0,288149.0
2026-04-07 17:53:58.572104,277738,1508952250,1508953253,-0.989664,0.142496,0.062464,-32.17375,-14.41125,-9.37125,40.744003,-0.328,55.336002,eccentric,3,3.0,21505.0,310998.0,280329.0,327914.0,288149.0
2026-04-07 17:53:58.602313,277739,1508966732,1508968137,-0.989664,0.142496,0.062464,-34.30875,-14.0525,-10.08,40.744003,-0.328,55.336002,eccentric,3,3.0,21505.0,310998.0,280329.0,327914.0,288149.0
2026-04-07 17:53:58.628324,277749,1508975637,1508977141,-0.991616,0.160064,0.062464,-32.50625,-13.16,-11.445,40.152,-0.624,56.032,eccentric,3,3.0,21460.0,310143.0,279324.0,326496.0,286767.0
2026-04-07 17:53:58.630954,277750,1508984701,1508985814,-0.991616,0.160064,0.062464,-25.445,-13.39625,-11.698751,40.152,-0.624,56.032,eccentric,3,3.0,21460.0,310143.0,279324.0,326496.0,286767.0
2026-04-07 17:53:58.633418,277751,1508993723,1508994584,-1.028704,0.201056,0.089792,-20.92125,-12.85375,-12.27625,39.856003,0.184,54.952003,eccentric,3,3.0,21460.0,310143.0,279324.0,326496.0,286767.0
2026-04-07 17:53:58.644738,277752,1509008266,1509009624,-1.028704,0.154208,0.091744,-22.61,-12.04,-12.8975,39.856003,0.184,54.952003,eccentric,3,3.0,21460.0,310143.0,279324.0,326496.0,286767.0
2026-04-07 17:53:58.647101,277753,1509017214,1509018344,-0.977952,0.150304,0.091744,-25.095,-12.01375,-12.99375,39.824,-0.376,54.184002,eccentric,3,3.0,21460.0,310143.0,279324.0,326496.0,286767.0
2026-04-07 17:53:58.649648,277754,1509026153,1509027086,-0.977952,0.150304,0.091744,-28.65625,-11.6375,-13.9825,39.824,-0.376,54.184002,eccentric,3,3.0,21460.0,310143.0,279324.0,326496.0,286767.0
2026-04-07 17:53:58.655881,277755,1509040661,1509041989,-0.968192,0.162016,0.070272,-29.82,-11.41,-14.35875,39.408,0.52,56.2,eccentric,3,3.0,21460.0,310143.0,279324.0,326496.0,286767.0
2026-04-07 17:53:58.661009,277756,1509049612,1509050765,-0.999424,0.148352,0.054656,-23.66875,-11.99625,-14.14,39.704002,0.984,54.832,eccentric,3,3.0,21460.0,310143.0,279324.0,326496.0,286767.0
2026-04-07 17:53:58.696136,277757,1509058534,1509059462,-0.999424,0.148352,0.054656,-22.05875,-11.41,-15.68,39.704002,0.984,54.832,eccentric,3,3.0,21460.0,310143.0,279324.0,326496.0,286767.0
2026-04-07 17:53:58.699636,277758,1509073053,1509074347,-0.98576,0.122976,0.072224,-22.365,-9.87,-15.2075,39.2,1.136,54.816,eccentric,3,3.0,21460.0,310143.0,279324.0,326496.0,286767.0
2026-04-07 17:53:58.724558,277768,1509082111,1509083102,-0.98576,0.122976,0.072224,-18.27,-9.45875,-14.2975,39.2,1.136,54.816,eccentric,3,3.0,21406.0,309511.0,278647.0,325591.0,285714.0
2026-04-07 17:53:58.727059,277769,1509091052,1509091831,-0.993568,0.150304,0.103456,-11.52375,-8.12875,-15.0325,39.496002,1.624,55.160004,eccentric,3,3.0,21406.0,309511.0,278647.0,325591.0,285714.0
2026-04-07 17:53:58.729530,277770,1509100468,1509102664,-0.993568,0.150304,0.103456,-6.81625,-7.105,-15.30375,39.496002,1.624,55.160004,eccentric,3,3.0,21406.0,309511.0,278647.0,325591.0,285714.0
2026-04-07 17:53:58.732057,277771,1509114995,1509115583,-0.962336,0.18544,0.113216,-5.39,-5.88875,-15.3825,39.416,1.936,55.24,eccentric,3,3.0,21406.0,309511.0,278647.0,325591.0,285714.0
2026-04-07 17:53:58.737142,277772,1509124213,1509126371,-0.962336,0.18544,0.113216,-4.9175,-4.515,-14.42,39.416,1.936,55.24,eccentric,3,3.0,21406.0,309511.0,278647.0,325591.0,285714.0
2026-04-07 17:53:58.768455,277773,1509133169,1509135084,-0.987712,0.1952,0.11712,-4.73375,-3.325,-13.8425,38.696003,1.808,54.792004,eccentric,3,3.0,21406.0,309511.0,278647.0,325591.0,285714.0
2026-04-07 17:53:58.770914,277774,1509147739,1509149928,-0.987712,0.1952,0.11712,-9.415,-0.91,-14.1925,38.696003,1.808,54.792004,eccentric,3,3.0,21406.0,309511.0,278647.0,325591.0,285714.0
2026-04-07 17:53:58.777102,277775,1509156652,1509158673,-0.983808,0.142496,0.105408,-11.13875,1.16375,-14.70875,38.944,1.928,52.912003,eccentric,3,3.0,21406.0,309511.0,278647.0,325591.0,285714.0
2026-04-07 17:53:58.779580,277776,1509165656,1509167378,-0.983808,0.142496,0.105408,-10.17625,2.5025,-14.8925,38.944,1.928,52.912003,eccentric,3,3.0,21406.0,309511.0,278647.0,325591.0,285714.0
2026-04-07 17:53:58.809811,277777,1509174716,1509176120,-1.009184,0.160064,0.083936,-4.4275,4.24375,-15.636251,38.712,1.64,54.792004,eccentric,3,3.0,21406.0,309511.0,278647.0,325591.0,285714.0
2026-04-07 17:53:58.839842,277788,1509189301,1509191099,-1.009184,0.21472,0.072224,-2.205,6.22125,-15.65375,38.712,1.64,54.792004,eccentric,3,3.0,21197.0,307742.0,277183.0,323879.0,284036.0
2026-04-07 17:53:58.840816,277789,1509198285,1509199804,-1.01504,0.21472,0.072224,0.32375,7.5075,-15.846251,38.752003,1.696,54.656002,eccentric,3,3.0,21197.0,307742.0,277183.0,323879.0,284036.0
2026-04-07 17:53:58.843365,277790,1509207268,1509208529,-1.01504,0.21472,0.072224,0.62125,8.33875,-14.39375,38.752003,1.696,54.656002,eccentric,3,3.0,21197.0,307742.0,277183.0,323879.0,284036.0
2026-04-07 17:53:58.845846,277791,1509221869,1509223544,-1.048224,0.128832,0.056608,-4.06,10.08,-14.00875,38.600002,1.888,56.2,eccentric,3,3.0,21197.0,307742.0,277183.0,323879.0,284036.0
2026-04-07 17:53:58.848270,277792,1509231051,1509232249,-1.013088,0.091744,0.066368,-4.515,10.8325,-13.0025,38.440002,1.792,55.928,eccentric,3,3.0,21197.0,307742.0,277183.0,323879.0,284036.0
2026-04-07 17:53:58.850814,277793,1509239982,1509240995,-1.013088,0.091744,0.066368,0.245,11.24375,-12.06625,38.440002,1.792,55.928,eccentric,3,3.0,21197.0,307742.0,277183.0,323879.0,284036.0
2026-04-07 17:53:58.881154,277794,1509254512,1509255921,-1.007232,0.12688,0.074176,5.3375,10.91125,-11.9875,39.592003,1.896,55.752003,eccentric,3,3.0,21197.0,307742.0,277183.0,323879.0,284036.0
2026-04-07 17:53:58.884589,277795,1509263427,1509264610,-1.007232,0.12688,0.074176,10.54375,11.445,-11.41875,39.592003,1.896,55.752003,eccentric,3,3.0,21197.0,307742.0,277183.0,323879.0,284036.0
2026-04-07 17:53:58.887084,277796,1509272351,1509273288,-1.018944,0.144448,0.074176,12.10125,11.68125,-10.5175,39.0,2.368,54.208004,eccentric,3,3.0,21197.0,307742.0,277183.0,323879.0,284036.0
2026-04-07 17:53:58.912107,277806,1509281809,1509282197,-1.018944,0.144448,0.074176,13.09,12.46875,-8.91625,39.0,2.368,54.208004,eccentric,3,3.0,20935.0,305691.0,275595.0,322264.0,282718.0
2026-04-07 17:53:58.914593,277807,1509296825,1509297188,-1.01504,0.148352,0.080032,13.57125,12.845,-7.665,38.992,1.536,55.72,eccentric,3,3.0,20935.0,305691.0,275595.0,322264.0,282718.0
2026-04-07 17:53:58.918558,277808,1509306120,1509307962,-1.01504,0.148352,0.080032,15.408751,13.02875,-8.1375,38.992,1.536,55.72,eccentric,3,3.0,20935.0,305691.0,275595.0,322264.0,282718.0
2026-04-07 17:53:58.966195,277809,1509315146,1509316697,-0.99552,0.16592,0.095648,20.39625,12.81875,-7.98,39.272003,1.48,55.864002,eccentric,3,3.0,20935.0,305691.0,275595.0,322264.0,282718.0
2026-04-07 17:53:58.969774,277810,1509324085,1509325384,-0.99552,0.16592,0.095648,24.1325,11.96125,-8.19,39.272003,1.48,55.864002,eccentric,3,3.0,20935.0,305691.0,275595.0,322264.0,282718.0
2026-04-07 17:53:58.975885,277811,1509338578,1509340305,-1.042368,0.140544,0.144448,25.20875,12.6,-7.90125,38.960003,1.576,54.224003,eccentric,3,3.0,20935.0,305691.0,275595.0,322264.0,282718.0
2026-04-07 17:53:58.978559,277812,1509347515,1509349005,-1.042368,0.140544,0.144448,29.79375,11.585,-6.93,38.960003,1.576,54.224003,eccentric,3,3.0,20935.0,305691.0,275595.0,322264.0,282718.0
2026-04-07 17:53:58.980952,277813,1509356446,1509357736,-0.983808,0.12688,0.15616,37.24875,10.1325,-6.37,39.608,1.64,54.912003,eccentric,3,3.0,20935.0,305691.0,275595.0,322264.0,282718.0
2026-04-07 17:53:58.983537,277814,1509370979,1509372653,-1.003328,0.138592,0.12688,40.25875,9.10875,-7.21875,39.08,0.664,55.384003,eccentric,3,3.0,20935.0,305691.0,275595.0,322264.0,282718.0
2026-04-07 17:53:59.012077,277824,1509380380,1509381704,-1.003328,0.138592,0.12688,43.3125,9.4675,-6.9825,39.08,0.664,55.384003,eccentric,3,3.0,21154.0,307442.0,276988.0,323753.0,284039.0
2026-04-07 17:53:59.014654,277825,1509389429,1509390499,-1.003328,0.138592,0.12688,44.26625,9.52,-7.0,39.08,0.664,55.384003,eccentric,3,3.0,21154.0,307442.0,276988.0,323753.0,284039.0
2026-04-07 17:53:59.017053,277826,1509398363,1509399261,-1.056032,0.12688,0.099552,42.857502,10.14125,-7.34125,38.752003,-0.016,59.320004,eccentric,3,3.0,21154.0,307442.0,276988.0,323753.0,284039.0
2026-04-07 17:53:59.047884,277827,1509412901,1509414190,-0.964288,0.160064,0.060512,43.54875,9.26625,-6.16875,39.232002,-0.48,57.208004,eccentric,3,3.0,21154.0,307442.0,276988.0,323753.0,284039.0
2026-04-07 17:53:59.051490,277828,1509421840,1509422901,-0.964288,0.160064,0.060512,47.6875,8.715,-5.53875,39.232002,-0.48,57.208004,eccentric,3,3.0,21154.0,307442.0,276988.0,323753.0,284039.0
2026-04-07 17:53:59.053398,277829,1509430809,1509431635,-1.08336,0.163968,0.072224,51.17875,8.715,-4.8125,39.832,-1.008,56.016003,eccentric,3,3.0,21154.0,307442.0,276988.0,323753.0,284039.0
2026-04-07 17:53:59.055851,277830,1509445269,1509446557,-1.08336,0.163968,0.072224,46.13,10.386251,-7.20125,39.832,-1.008,56.016003,eccentric,3,3.0,21154.0,307442.0,276988.0,323753.0,284039.0
2026-04-07 17:53:59.086047,277831,1509454228,1509455330,-1.077504,0.138592,0.070272,42.02625,10.885,-6.58875,39.512,-1.136,55.376003,eccentric,3,3.0,21154.0,307442.0,276988.0,323753.0,284039.0
2026-04-07 17:53:59.089631,277832,1509463144,1509464015,-1.077504,0.138592,0.070272,43.19875,9.5375,-5.60875,39.512,-1.136,55.376003,eccentric,3,3.0,21154.0,307442.0,276988.0,323753.0,284039.0
2026-04-07 17:53:59.092104,277833,1509477610,1509478854,-0.999424,0.181536,0.0488,45.42125,8.44375,-6.86,40.016003,-1.576,55.696003,eccentric,3,3.0,21154.0,307442.0,276988.0,323753.0,284039.0
2026-04-07 17:53:59.119618,277844,1509486648,1509487634,-0.999424,0.181536,0.0488,48.8775,8.72375,-7.00875,40.016003,-1.576,55.696003,eccentric,3,3.0,21106.0,307252.0,276903.0,323759.0,284108.0
2026-04-07 17:53:59.122091,277845,1509495690,1509496374,-1.147776,0.148352,0.056608,43.96875,10.535,-8.74125,39.2,-2.368,56.272003,eccentric,3,3.0,21106.0,307252.0,276903.0,323759.0,284108.0
2026-04-07 17:53:59.124665,277846,1509505028,1509507157,-1.147776,0.148352,0.056608,38.22,11.31375,-7.91,39.2,-2.368,56.272003,eccentric,3,3.0,21106.0,307252.0,276903.0,323759.0,284108.0
2026-04-07 17:53:59.129983,277847,1509519607,1509520096,-1.022848,0.11712,0.066368,37.38,9.975,-6.09875,39.688004,-2.6,56.464005,eccentric,3,3.0,21106.0,307252.0,276903.0,323759.0,284108.0
2026-04-07 17:53:59.159913,277848,1509528975,1509530876,-1.022848,0.11712,0.066368,40.69625,10.2725,-6.48375,39.688004,-2.6,56.464005,eccentric,3,3.0,21106.0,307252.0,276903.0,323759.0,284108.0
2026-04-07 17:53:59.163405,277849,1509537880,1509539552,-1.106784,0.158112,0.060512,36.8375,10.92,-8.09375,40.216003,-2.32,56.440002,eccentric,3,3.0,21106.0,307252.0,276903.0,323759.0,284108.0
2026-04-07 17:53:59.165808,277850,1509552368,1509554446,-1.050176,0.158112,0.095648,32.45375,11.3925,-7.1575,40.472,-2.44,55.216003,eccentric,3,3.0,21106.0,307252.0,276903.0,323759.0,284108.0
2026-04-07 17:53:59.196060,277851,1509561321,1509563189,-1.050176,0.158112,0.095648,26.9325,11.24375,-5.4425,40.472,-2.44,55.216003,eccentric,3,3.0,21106.0,307252.0,276903.0,323759.0,284108.0
2026-04-07 17:53:59.199986,277852,1509570226,1509571877,-1.050176,0.158112,0.095648,19.43375,11.34,-5.52125,40.472,-2.44,55.216003,eccentric,3,3.0,21106.0,307252.0,276903.0,323759.0,284108.0
2026-04-07 17:53:59.228322,277862,1509584915,1509586937,-1.06384,0.121024,0.111264,14.18375,11.83875,-6.5275,40.36,-2.464,56.072002,eccentric,3,3.0,21066.0,306969.0,276749.0,323732.0,284258.0
2026-04-07 17:53:59.230803,277863,1509593833,1509595613,-1.03456,0.130784,0.121024,10.54375,11.585,-7.245,40.544003,-2.616,55.512,eccentric,3,3.0,21066.0,306969.0,276749.0,323732.0,284258.0
2026-04-07 17:53:59.233704,277864,1509602831,1509604348,-1.03456,0.130784,0.121024,6.51875,11.935,-8.6625,40.544003,-2.616,55.512,eccentric,3,3.0,21066.0,306969.0,276749.0,323732.0,284258.0
2026-04-07 17:53:59.235983,277865,1509611807,1509613076,-1.03456,0.128832,0.093696,1.14625,12.2675,-8.77625,40.488003,-2.392,56.424004,eccentric,3,3.0,21066.0,306969.0,276749.0,323732.0,284258.0
2026-04-07 17:53:59.238317,277866,1509626279,1509628030,-1.03456,0.128832,0.093696,-4.94375,13.13375,-9.3625,40.488003,-2.392,56.424004,eccentric,3,3.0,21066.0,306969.0,276749.0,323732.0,284258.0
2026-04-07 17:53:59.269462,277867,1509635192,1509636719,-1.065792,0.160064,0.089792,-9.37125,14.1575,-9.68625,40.008003,-2.664,56.584003,eccentric,3,3.0,21066.0,306969.0,276749.0,323732.0,284258.0
2026-04-07 17:53:59.271812,277868,1509644109,1509645405,-1.065792,0.160064,0.089792,-12.8275,14.56875,-9.42375,40.008003,-2.664,56.584003,eccentric,3,3.0,21066.0,306969.0,276749.0,323732.0,284258.0
2026-04-07 17:53:59.276399,277869,1509658575,1509660310,-1.04432,0.181536,0.074176,-12.6525,14.2275,-8.67125,40.776,-2.264,55.08,eccentric,3,3.0,21066.0,306969.0,276749.0,323732.0,284258.0
2026-04-07 17:53:59.280476,277870,1509667493,1509669006,-1.04432,0.181536,0.074176,-14.2275,14.63875,-9.975,40.776,-2.264,55.08,eccentric,3,3.0,21066.0,306969.0,276749.0,323732.0,284258.0
2026-04-07 17:53:59.310764,277871,1509676491,1509677708,-1.08336,0.15616,0.060512,-14.90125,14.69125,-9.6775,40.864002,-2.208,54.760002,eccentric,3,3.0,21066.0,306969.0,276749.0,323732.0,284258.0
2026-04-07 17:53:59.335759,277881,1509691069,1509692615,-1.08336,0.15616,0.091744,-13.90375,14.0525,-10.15,40.864002,-2.208,54.760002,eccentric,3,3.0,20856.0,305229.0,275358.0,322267.0,283000.0
2026-04-07 17:53:59.338456,277882,1509699994,1509701347,-1.052128,0.144448,0.081984,-10.01875,14.21,-9.30125,41.152,-1.712,52.664,eccentric,3,3.0,20856.0,305229.0,275358.0,322267.0,283000.0
2026-04-07 17:53:59.340826,277883,1509708953,1509710072,-1.052128,0.144448,0.081984,-8.39125,13.0375,-9.9925,41.152,-1.712,52.664,eccentric,3,3.0,20856.0,305229.0,275358.0,322267.0,283000.0
2026-04-07 17:53:59.343361,277884,1509723475,1509724986,-1.081408,0.144448,0.064416,-6.13375,12.075,-9.89625,40.176003,-1.832,55.496002,eccentric,3,3.0,20856.0,305229.0,275358.0,322267.0,283000.0
2026-04-07 17:53:59.345881,277885,1509732425,1509733718,-1.050176,0.140544,0.056608,-4.06875,10.73625,-9.44125,40.576,-2.352,56.464005,eccentric,3,3.0,20856.0,305229.0,275358.0,322267.0,283000.0
2026-04-07 17:53:59.352061,277886,1509741347,1509742467,-1.050176,0.140544,0.056608,-2.1875,10.47375,-8.19,40.576,-2.352,56.464005,eccentric,3,3.0,20856.0,305229.0,275358.0,322267.0,283000.0
2026-04-07 17:53:59.382406,277887,1509750277,1509751179,-1.050176,0.140544,0.056608,-2.35375,10.6225,-8.26875,40.576,-2.352,56.464005,eccentric,3,3.0,20856.0,305229.0,275358.0,322267.0,283000.0
2026-04-07 17:53:59.385958,277888,1509764810,1509766074,-1.085312,0.144448,0.050752,-1.56625,10.535,-7.51625,41.168003,-2.048,55.112003,eccentric,3,3.0,20856.0,305229.0,275358.0,322267.0,283000.0
2026-04-07 17:53:59.388272,277889,1509773704,1509774798,-1.050176,0.1464,0.040992,1.19,8.96,-7.37625,41.064003,-1.496,54.520004,eccentric,3,3.0,20856.0,305229.0,275358.0,322267.0,283000.0
2026-04-07 17:53:59.415744,277900,1509783310,1509783947,-1.050176,0.1464,0.040992,2.09125,8.2775,-7.14875,41.064003,-1.496,54.520004,eccentric,3,3.0,20829.0,305012.0,275238.0,322179.0,283009.0
2026-04-07 17:53:59.418284,277901,1509792688,1509794806,-1.06384,0.15616,0.037088,3.045,8.60125,-7.0,41.328003,-2.408,54.224003,eccentric,3,3.0,20829.0,305012.0,275238.0,322179.0,283009.0
2026-04-07 17:53:59.420799,277902,1509807177,1509807684,-1.06384,0.15616,0.037088,3.00125,8.86375,-6.6675,41.328003,-2.408,54.224003,eccentric,3,3.0,20829.0,305012.0,275238.0,322179.0,283009.0
2026-04-07 17:53:59.450978,277903,1509816634,1509818445,-1.069696,0.140544,0.033184,3.63125,8.54875,-6.34375,40.960003,-1.384,55.136,eccentric,3,3.0,20829.0,305012.0,275238.0,322179.0,283009.0
2026-04-07 17:53:59.454561,277904,1509825564,1509827155,-1.069696,0.140544,0.033184,4.26125,8.575,-5.67875,40.960003,-1.384,55.136,eccentric,3,3.0,20829.0,305012.0,275238.0,322179.0,283009.0
2026-04-07 17:53:59.457026,277905,1509840070,1509842048,-1.056032,0.144448,0.040992,5.03125,8.5575,-5.80125,41.920002,-1.792,54.480003,eccentric,3,3.0,20829.0,305012.0,275238.0,322179.0,283009.0
2026-04-07 17:53:59.461005,277906,1509848980,1509850765,-1.056032,0.144448,0.040992,6.25625,8.925,-6.69375,41.920002,-1.792,54.480003,eccentric,3,3.0,20829.0,305012.0,275238.0,322179.0,283009.0
2026-04-07 17:53:59.491037,277907,1509857895,1509859491,-1.05408,0.12688,0.037088,5.8625,9.03875,-6.88625,40.968002,-2.144,55.312004,eccentric,3,3.0,20829.0,305012.0,275238.0,322179.0,283009.0
2026-04-07 17:53:59.494603,277908,1509872374,1509874379,-1.036512,0.124928,0.042944,5.20625,9.14375,-7.0,40.968002,-2.144,54.192,eccentric,3,3.0,20829.0,305012.0,275238.0,322179.0,283009.0
2026-04-07 17:53:59.519636,277918,1509881310,1509883119,-1.036512,0.124928,0.042944,5.31125,9.59,-6.58875,41.792004,-2.048,54.192,eccentric,3,3.0,20920.0,305765.0,275915.0,322982.0,283796.0
2026-04-07 17:53:59.522153,277919,1509890706,1509891905,-1.036512,0.124928,0.042944,6.15125,9.555,-6.86,41.792004,-2.048,54.192,eccentric,3,3.0,20920.0,305765.0,275915.0,322982.0,283796.0
2026-04-07 17:53:59.524533,277920,1509899691,1509900643,-1.038464,0.132736,0.035136,6.18625,9.948751,-7.3325,41.072002,-1.888,55.640003,eccentric,3,3.0,20920.0,305765.0,275915.0,322982.0,283796.0
2026-04-07 17:53:59.527134,277921,1509914208,1509915565,-1.030656,0.1464,0.040992,5.9325,10.0625,-7.07,41.272003,-2.048,55.816,eccentric,3,3.0,20920.0,305765.0,275915.0,322982.0,283796.0
2026-04-07 17:53:59.534630,277922,1509923164,1509924276,-1.030656,0.1464,0.040992,5.06625,9.80875,-6.71125,41.272003,-2.048,55.816,eccentric,3,3.0,20920.0,305765.0,275915.0,322982.0,283796.0
2026-04-07 17:53:59.564882,277923,1509932094,1509932978,-1.030656,0.1464,0.056608,4.305,9.79125,-7.0,41.272003,-2.048,55.816,eccentric,3,3.0,20920.0,305765.0,275915.0,322982.0,283796.0
2026-04-07 17:53:59.568359,277924,1509946584,1509947837,-1.0248,0.138592,0.052704,3.6575,9.72125,-7.315,41.448,-2.104,55.888004,eccentric,3,3.0,20920.0,305765.0,275915.0,322982.0,283796.0
2026-04-07 17:53:59.570724,277925,1509955492,1509956522,-1.022848,0.128832,0.056608,2.9925,9.9225,-7.5075,41.376003,-2.376,54.048004,eccentric,3,3.0,20920.0,305765.0,275915.0,322982.0,283796.0
2026-04-07 17:53:59.575944,277926,1509964417,1509965218,-1.022848,0.128832,0.056608,3.22875,9.66,-8.54,41.376003,-2.376,54.048004,eccentric,3,3.0,20920.0,305765.0,275915.0,322982.0,283796.0
2026-04-07 17:53:59.605974,277927,1509978941,1509980146,-1.026752,0.12688,0.072224,3.7625,9.91375,-8.96,41.808002,-1.832,54.088,eccentric,3,3.0,20920.0,305765.0,275915.0,322982.0,283796.0
2026-04-07 17:53:59.634566,277937,1509987991,1509989298,-1.026752,0.12688,0.072224,3.05375,9.905,-9.17875,41.808002,-1.832,54.088,eccentric,3,3.0,21054.0,307094.0,276995.0,324238.0,284937.0
2026-04-07 17:53:59.637587,277938,1509996931,1509997980,-1.036512,0.132736,0.05856,2.3275,9.975,-9.58125,43.296,-1.064,53.808002,eccentric,3,3.0,21054.0,307094.0,276995.0,324238.0,284937.0
2026-04-07 17:53:59.639552,277939,1510005912,1510006734,-1.036512,0.132736,0.05856,0.69125,9.6425,-9.42375,43.296,-1.064,53.808002,eccentric,3,3.0,21054.0,307094.0,276995.0,324238.0,284937.0
2026-04-07 17:53:59.642089,277940,1510020407,1510021657,-1.032608,0.124928,0.025376,-1.2775,9.91375,-9.7825,41.68,-2.0,54.784004,eccentric,3,3.0,21054.0,307094.0,276995.0,324238.0,284937.0
2026-04-07 17:53:59.644606,277941,1510029314,1510030415,-1.032608,0.124928,0.025376,-2.8875,10.05375,-9.9225,41.68,-2.0,54.784004,eccentric,3,3.0,21054.0,307094.0,276995.0,324238.0,284937.0
2026-04-07 17:53:59.649663,277942,1510038275,1510039155,-1.028704,0.119072,0.01952,-3.85,10.465,-10.29,41.608,-1.728,55.232002,eccentric,3,3.0,21054.0,307094.0,276995.0,324238.0,284937.0
2026-04-07 17:53:59.684617,277943,1510052783,1510054042,-1.028704,0.119072,0.033184,-4.76,10.42125,-10.00125,41.608,-1.728,55.232002,eccentric,3,3.0,21054.0,307094.0,276995.0,324238.0,284937.0
2026-04-07 17:53:59.687100,277944,1510061712,1510062781,-1.04432,0.132736,0.033184,-4.75125,10.465,-9.87875,41.592003,-1.36,54.376003,eccentric,3,3.0,21054.0,307094.0,276995.0,324238.0,284937.0
2026-04-07 17:53:59.689548,277945,1510070647,1510071480,-1.04432,0.132736,0.033184,-5.1975,10.35125,-9.6775,41.592003,-1.36,54.376003,eccentric,3,3.0,21054.0,307094.0,276995.0,324238.0,284937.0
2026-04-07 17:53:59.715819,277955,1510085375,1510086458,-1.056032,0.140544,0.031232,-6.39625,10.40375,-9.485,42.304,-1.68,53.08,concentric,3,3.0,21026.0,306896.0,276875.0,324086.0,284765.0
2026-04-07 17:53:59.718381,277956,1510094396,1510095209,-1.056032,0.140544,0.017568,-6.85125,10.185,-9.205,41.736004,-1.472,57.432003,concentric,3,3.0,21026.0,306896.0,276875.0,324086.0,284765.0
2026-04-07 17:53:59.720848,277957,1510103867,1510106036,-1.056032,0.140544,0.017568,-7.60375,10.08875,-9.1875,41.736004,-1.472,57.432003,concentric,3,3.0,21026.0,306896.0,276875.0,324086.0,284765.0
2026-04-07 17:53:59.724629,277958,1510112907,1510114729,-1.056032,0.140544,0.001952,-8.88125,10.395,-9.54625,41.736004,-1.472,57.432003,concentric,3,3.0,21026.0,306896.0,276875.0,324086.0,284765.0
2026-04-07 17:53:59.754794,277959,1510127428,1510129647,-1.050176,0.121024,0.007808,-10.61375,10.73625,-9.84375,41.712,-1.088,54.88,concentric,3,3.0,21026.0,306896.0,276875.0,324086.0,284765.0
2026-04-07 17:53:59.758395,277960,1510136414,1510138329,-1.042368,0.105408,-0.003904,-10.98125,11.01625,-9.8175,42.576,-0.744,53.456,concentric,3,3.0,21026.0,306896.0,276875.0,324086.0,284765.0
2026-04-07 17:53:59.760789,277961,1510145441,1510147048,-1.042368,0.105408,-0.003904,-10.185,10.99,-9.59875,42.576,-0.744,53.456,concentric,3,3.0,21026.0,306896.0,276875.0,324086.0,284765.0
2026-04-07 17:53:59.792212,277962,1510159972,1510161986,-1.042368,0.124928,0.003904,-9.275,10.9725,-9.7825,42.384003,-1.088,54.664,concentric,3,3.0,21026.0,306896.0,276875.0,324086.0,284765.0
2026-04-07 17:53:59.794963,277963,1510168897,1510170679,-1.042368,0.124928,0.003904,-9.3275,10.99,-9.37125,42.384003,-1.088,54.664,concentric,3,3.0,21026.0,306896.0,276875.0,324086.0,284765.0
2026-04-07 17:53:59.797322,277964,1510177840,1510179374,-1.040416,0.128832,0.005856,-10.815,11.795,-8.75875,42.832,-0.824,53.24,concentric,3,3.0,21026.0,306896.0,276875.0,324086.0,284765.0
2026-04-07 17:53:59.831983,277975,1510187266,1510188258,-1.040416,0.128832,0.005856,-13.93875,11.3225,-8.18125,42.832,-0.824,53.24,concentric,3,3.0,21194.0,308148.0,277873.0,325158.0,285798.0
2026-04-07 17:53:59.834546,277976,1510201857,1510203201,-1.042368,0.119072,0.0,-16.65125,11.29625,-8.19,42.448,-0.624,53.56,concentric,3,3.0,21194.0,308148.0,277873.0,325158.0,285798.0
2026-04-07 17:53:59.837156,277977,1510210893,1510211935,-1.042368,0.119072,0.0,-17.710001,11.480001,-8.12,42.448,-0.624,53.56,concentric,3,3.0,21194.0,308148.0,277873.0,325158.0,285798.0
2026-04-07 17:53:59.839551,277978,1510219824,1510220632,-1.038464,0.105408,-0.003904,-18.08625,11.06875,-8.14625,42.688004,-0.376,53.344,concentric,3,3.0,21194.0,308148.0,277873.0,325158.0,285798.0
2026-04-07 17:53:59.845821,277979,1510234823,1510235538,-1.050176,0.115168,-0.005856,-18.1825,10.815,-8.04125,42.784,-0.336,54.352,concentric,3,3.0,21194.0,308148.0,277873.0,325158.0,285798.0
2026-04-07 17:53:59.876429,277980,1510244270,1510246303,-1.050176,0.115168,-0.005856,-18.92625,10.815,-8.365,42.784,-0.336,54.352,concentric,3,3.0,21194.0,308148.0,277873.0,325158.0,285798.0
2026-04-07 17:53:59.879610,277981,1510253290,1510254996,-1.050176,0.115168,-0.005856,-19.8275,10.4475,-7.525,42.784,-0.336,54.352,concentric,3,3.0,21194.0,308148.0,277873.0,325158.0,285798.0
2026-04-07 17:53:59.882030,277982,1510262206,1510263682,-1.040416,0.113216,-0.001952,-21.04375,10.01875,-6.9825,43.072002,0.096,53.648003,concentric,3,3.0,21194.0,308148.0,277873.0,325158.0,285798.0
2026-04-07 17:53:59.912191,277983,1510276724,1510278636,-1.036512,0.095648,-0.013664,-20.88625,9.485,-7.55125,43.272003,0.512,52.688004,concentric,3,3.0,21194.0,308148.0,277873.0,325158.0,285798.0
2026-04-07 17:53:59.940949,277993,1510286154,1510287339,-1.036512,0.095648,-0.013664,-19.8625,9.205,-7.35875,43.272003,0.512,52.688004,concentric,3,3.0,21188.0,308157.0,277881.0,325135.0,285741.0
2026-04-07 17:53:59.945149,277994,1510295129,1510296128,-1.046272,0.111264,-0.003904,-19.32875,8.60125,-7.51625,43.168003,0.752,52.112003,concentric,3,3.0,21188.0,308157.0,277881.0,325135.0,285741.0
2026-04-07 17:53:59.946845,277995,1510304037,1510304813,-1.046272,0.111264,-0.003904,-17.70125,7.79625,-7.56,43.168003,0.752,52.112003,concentric,3,3.0,21188.0,308157.0,277881.0,325135.0,285741.0
2026-04-07 17:53:59.948356,277996,1510318550,1510319744,-1.046272,0.115168,0.0,-17.2025,6.83375,-6.76375,42.616,0.296,54.04,concentric,3,3.0,21188.0,308157.0,277881.0,325135.0,285741.0
2026-04-07 17:53:59.952613,277997,1510327482,1510328473,-1.046272,0.115168,0.0,-17.3425,6.615,-6.23875,42.616,0.296,54.04,concentric,3,3.0,21188.0,308157.0,277881.0,325135.0,285741.0
2026-04-07 17:53:59.955054,277998,1510336420,1510337171,-1.05408,0.128832,0.003904,-16.765,6.4225,-5.71375,42.480003,0.016,54.08,concentric,3,3.0,21188.0,308157.0,277881.0,325135.0,285741.0
2026-04-07 17:53:59.983479,277999,1510351311,1510352128,-1.05408,0.128832,0.003904,-16.93125,5.8275,-5.0225,42.480003,0.016,54.08,concentric,3,3.0,21188.0,308157.0,277881.0,325135.0,285741.0
2026-04-07 17:53:59.987160,278000,1510360264,1510360849,-1.026752,0.128832,0.001952,-16.73,5.53,-4.68125,42.832,0.344,53.488003,concentric,3,3.0,21188.0,308157.0,277881.0,325135.0,285741.0
2026-04-07 17:53:59.989580,278001,1510369435,1510371595,-1.026752,0.128832,0.001952,-15.25125,5.3025,-4.50625,42.832,0.344,53.488003,concentric,3,3.0,21188.0,308157.0,277881.0,325135.0,285741.0
2026-04-07 17:53:59.995845,278002,1510383950,1510384535,-1.057984,0.13664,0.007808,-15.61875,5.04,-4.68125,43.504,0.816,52.376003,concentric,3,3.0,21188.0,308157.0,277881.0,325135.0,285741.0
2026-04-07 17:54:00.024585,278012,1510393811,1510395393,-1.057984,0.13664,0.007808,-15.54,4.12125,-4.48,43.504,0.816,52.376003,concentric,3,3.0,21049.0,306963.0,276910.0,324109.0,284796.0
2026-04-07 17:54:00.027059,278013,1510402746,1510404145,-1.03456,0.109312,-0.011712,-15.12,3.52625,-4.41875,42.472,0.8,53.488003,concentric,3,3.0,21049.0,306963.0,276910.0,324109.0,284796.0
2026-04-07 17:54:00.029582,278014,1510411728,1510412900,-1.03456,0.109312,-0.011712,-14.65625,3.5,-4.48875,42.472,0.8,53.488003,concentric,3,3.0,21049.0,306963.0,276910.0,324109.0,284796.0
2026-04-07 17:54:00.038040,278015,1510426217,1510427908,-1.048224,0.103456,-0.021472,-11.99625,3.815,-4.165,43.176003,0.896,53.168003,concentric,3,3.0,21049.0,306963.0,276910.0,324109.0,284796.0
2026-04-07 17:54:00.067203,278016,1510435268,1510436616,-1.050176,0.128832,0.005856,-9.33625,3.56125,-4.10375,43.728,1.296,51.776,concentric,3,3.0,21049.0,306963.0,276910.0,324109.0,284796.0
2026-04-07 17:54:00.070839,278017,1510444205,1510445281,-1.050176,0.128832,0.005856,-6.51875,2.68625,-3.77125,43.728,1.296,51.776,concentric,3,3.0,21049.0,306963.0,276910.0,324109.0,284796.0
2026-04-07 17:54:00.073279,278018,1510453111,1510453962,-1.050176,0.128832,0.005856,-4.59375,2.2225,-2.91375,43.728,1.296,51.776,concentric,3,3.0,21049.0,306963.0,276910.0,324109.0,284796.0
2026-04-07 17:54:00.078344,278019,1510467600,1510468903,-1.05408,0.121024,0.025376,-4.3225,2.07375,-2.70375,43.376003,1.072,51.832,concentric,3,3.0,21049.0,306963.0,276910.0,324109.0,284796.0
2026-04-07 17:54:00.108534,278020,1510476537,1510477629,-1.057984,0.111264,0.015616,-3.22,2.2575,-2.24875,43.392002,0.896,52.504,concentric,3,3.0,21049.0,306963.0,276910.0,324109.0,284796.0
2026-04-07 17:54:00.137063,278031,1510485757,1510486258,-1.057984,0.111264,0.015616,-1.995,2.37125,-2.6775,43.392002,0.896,52.504,concentric,3,3.0,21147.0,307931.0,277737.0,324988.0,285548.0
2026-04-07 17:54:00.139560,278032,1510500268,1510501270,-1.042368,0.121024,0.001952,0.04375,1.8725,-2.89625,43.592003,1.224,52.512,concentric,3,3.0,21147.0,307931.0,277737.0,324988.0,285548.0
2026-04-07 17:54:00.142041,278033,1510509193,1510510052,-1.042368,0.121024,0.001952,1.35625,1.58375,-3.40375,43.592003,1.224,52.512,concentric,3,3.0,21147.0,307931.0,277737.0,324988.0,285548.0
2026-04-07 17:54:00.144534,278034,1510518145,1510518775,-1.050176,0.122976,-0.005856,1.70625,2.03875,-3.29875,42.632004,0.584,54.504,concentric,3,3.0,21147.0,307931.0,277737.0,324988.0,285548.0
2026-04-07 17:54:00.147034,278035,1510533007,1510533691,-1.050176,0.122976,-0.005856,1.5575,2.28375,-3.63125,42.632004,0.584,54.504,concentric,3,3.0,21147.0,307931.0,277737.0,324988.0,285548.0
2026-04-07 17:54:00.178663,278036,1510542309,1510544499,-1.06384,0.130784,0.005856,1.05875,2.93125,-3.4125,43.160004,1.08,53.296,concentric,3,3.0,21147.0,307931.0,277737.0,324988.0,285548.0
2026-04-07 17:54:00.180843,278037,1510551240,1510553177,-1.06384,0.130784,0.005856,2.21375,3.07125,-4.165,43.160004,1.08,53.296,concentric,3,3.0,21147.0,307931.0,277737.0,324988.0,285548.0
2026-04-07 17:54:00.183317,278038,1510560179,1510561858,-1.061888,0.122976,0.005856,3.7975,2.485,-4.38375,44.008003,1.696,52.456,concentric,3,3.0,21147.0,307931.0,277737.0,324988.0,285548.0
2026-04-07 17:54:00.188343,278039,1510574653,1510576777,-1.061888,0.122976,0.005856,4.43625,2.26625,-3.80625,44.008003,1.696,52.456,concentric,3,3.0,21147.0,307931.0,277737.0,324988.0,285548.0
2026-04-07 17:54:00.218466,278040,1510583566,1510585499,-1.057984,0.119072,0.017568,4.78625,1.77625,-4.0425,43.408,1.448,54.256004,concentric,3,3.0,21147.0,307931.0,277737.0,324988.0,285548.0
2026-04-07 17:54:00.279297,278050,1510592606,1510594248,-1.057984,0.119072,0.017568,5.06625,1.58375,-3.56125,43.408,1.448,54.256004,concentric,3,3.0,21305.0,309192.0,278735.0,326037.0,286458.0
2026-04-07 17:54:00.280964,278051,1510607074,1510609192,-1.057984,0.11712,0.007808,4.12125,1.435,-3.64875,43.464,1.288,53.008003,concentric,3,3.0,21305.0,309192.0,278735.0,326037.0,286458.0
2026-04-07 17:54:00.283340,278052,1510615974,1510617893,-1.05408,0.119072,-0.001952,1.715,1.19875,-3.49125,43.464,1.368,54.232002,concentric,3,3.0,21305.0,309192.0,278735.0,326037.0,286458.0
2026-04-07 17:54:00.286803,278053,1510624897,1510626613,-1.05408,0.119072,-0.001952,0.04375,1.0675,-3.465,43.480003,1.368,54.232002,concentric,3,3.0,21305.0,309192.0,278735.0,326037.0,286458.0
2026-04-07 17:54:00.289215,278054,1510639359,1510641511,-1.050176,0.115168,0.005856,-2.17,1.0675,-3.01875,43.776,1.024,52.656002,concentric,3,3.0,21305.0,309192.0,278735.0,326037.0,286458.0
2026-04-07 17:54:00.291730,278055,1510648244,1510650225,-1.050176,0.115168,0.005856,-4.5675,0.49,-2.87875,43.776,1.024,52.656002,concentric,3,3.0,21305.0,309192.0,278735.0,326037.0,286458.0
2026-04-07 17:54:00.293422,278056,1510657158,1510658959,-1.056032,0.122976,0.011712,-5.4775,-0.09625,-2.86125,42.864002,1.184,52.032,concentric,3,3.0,21305.0,309192.0,278735.0,326037.0,286458.0
2026-04-07 17:54:00.297641,278057,1510671679,1510673909,-1.056032,0.122976,0.011712,-6.36125,-0.84,-2.35375,42.864002,1.184,52.032,concentric,3,3.0,21305.0,309192.0,278735.0,326037.0,286458.0
2026-04-07 17:54:00.299316,278058,1510680604,1510682624,-1.048224,0.12688,0.00976,-7.46375,-0.63,-2.3625,43.056004,1.136,54.008003,concentric,3,3.0,21305.0,309192.0,278735.0,326037.0,286458.0
2026-04-07 17:54:00.327068,278068,1510690220,1510691569,-1.048224,0.12688,0.00976,-8.37375,-1.16375,-1.89,43.056004,1.136,54.008003,concentric,3,3.0,21455.0,310488.0,279802.0,327181.0,287415.0
2026-04-07 17:54:00.329535,278069,1510699436,1510700328,-1.050176,0.132736,0.005856,-10.0625,-1.19,-1.46125,43.160004,0.6,54.160004,concentric,3,3.0,21455.0,310488.0,279802.0,327181.0,287415.0
2026-04-07 17:54:00.332066,278070,1510713953,1510715305,-1.050176,0.132736,0.005856,-10.92875,-1.33,-1.47,43.160004,0.6,54.160004,concentric,3,3.0,21455.0,310488.0,279802.0,327181.0,287415.0
2026-04-07 17:54:00.334557,278071,1510722902,1510724059,-1.056032,0.138592,0.00976,-11.34,-1.42625,-1.11125,43.704002,1.52,53.088,concentric,3,3.0,21455.0,310488.0,279802.0,327181.0,287415.0
2026-04-07 17:54:00.364862,278072,1510731862,1510732788,-1.056032,0.138592,0.00976,-11.94375,-1.26,-1.1025,43.704002,1.52,53.088,concentric,3,3.0,21455.0,310488.0,279802.0,327181.0,287415.0
2026-04-07 17:54:00.368445,278073,1510740805,1510741505,-1.056032,0.134688,-0.007808,-12.48625,-1.12875,-1.12875,43.856003,1.68,52.872,concentric,3,3.0,21455.0,310488.0,279802.0,327181.0,287415.0
2026-04-07 17:54:00.374683,278074,1510755667,1510756396,-1.056032,0.134688,-0.007808,-11.47125,-0.2975,-1.365,43.856003,1.68,52.872,concentric,3,3.0,21455.0,310488.0,279802.0,327181.0,287415.0
2026-04-07 17:54:00.378349,278075,1510765068,1510767137,-1.075552,0.16592,0.007808,-9.9925,-0.525,-1.54875,43.504,1.304,53.000004,concentric,3,3.0,21455.0,310488.0,279802.0,327181.0,287415.0
2026-04-07 17:54:00.385826,278076,1510774050,1510775871,-1.075552,0.16592,0.007808,-7.37625,-0.595,-2.51125,43.504,1.304,53.000004,concentric,3,3.0,21455.0,310488.0,279802.0,327181.0,287415.0
2026-04-07 17:54:00.442095,278087,1510788698,1510790855,-1.067744,0.181536,0.021472,-5.4075,-0.76125,-3.3775,43.728,0.816,54.504,concentric,3,3.0,21596.0,311846.0,280970.0,328573.0,288665.0
2026-04-07 17:54:00.444610,278088,1510797724,1510799582,-1.10288,0.158112,0.021472,-5.53,-0.16625,-3.45625,43.616,1.176,52.664,concentric,3,3.0,21596.0,311846.0,280970.0,328573.0,288665.0
2026-04-07 17:54:00.447138,278089,1510806635,1510808390,-1.10288,0.158112,0.021472,-5.81,0.41125,-4.1125,43.616,1.176,52.664,concentric,3,3.0,21596.0,311846.0,280970.0,328573.0,288665.0
2026-04-07 17:54:00.449608,278090,1510815677,1510817128,-1.10288,0.158112,0.021472,-4.03375,0.7175,-4.34,43.616,1.176,52.664,concentric,3,3.0,21596.0,311846.0,280970.0,328573.0,288665.0
2026-04-07 17:54:00.452058,278091,1510830238,1510832061,-1.095072,0.1464,0.021472,-1.65375,1.33,-4.92625,43.704002,1.664,53.440002,concentric,3,3.0,21596.0,311846.0,280970.0,328573.0,288665.0
2026-04-07 17:54:00.454497,278092,1510839206,1510840812,-1.089216,0.124928,0.017568,1.1025,1.0325,-5.705,43.976,1.584,53.192,concentric,3,3.0,21596.0,311846.0,280970.0,328573.0,288665.0
2026-04-07 17:54:00.460866,278093,1510848159,1510849508,-1.089216,0.124928,0.017568,2.23125,0.23625,-5.075,43.976,1.584,53.192,concentric,3,3.0,21596.0,311846.0,280970.0,328573.0,288665.0
2026-04-07 17:54:00.490952,278094,1510862692,1510864482,-1.08336,0.12688,0.007808,3.50875,-0.07,-4.08625,43.416,1.472,54.136,concentric,3,3.0,21596.0,311846.0,280970.0,328573.0,288665.0
2026-04-07 17:54:00.494508,278095,1510871698,1510873174,-1.08336,0.12688,0.007808,4.1475,-0.6125,-2.94,43.416,1.472,54.136,concentric,3,3.0,21596.0,311846.0,280970.0,328573.0,288665.0
2026-04-07 17:54:00.496997,278096,1510880642,1510881872,-1.098976,0.132736,-0.011712,4.55,-0.98875,-2.63375,43.656002,0.848,53.424004,concentric,3,3.0,21596.0,311846.0,280970.0,328573.0,288665.0
2026-04-07 17:54:00.531769,278106,1510895236,1510896907,-1.098976,0.132736,-0.011712,3.73625,-0.875,-1.89875,43.656002,0.848,53.424004,concentric,3,3.0,21601.0,311899.0,280973.0,328527.0,288594.0
2026-04-07 17:54:00.533326,278107,1510904311,1510905665,-1.069696,0.1464,0.007808,3.2375,-0.9975,-0.90125,43.136,1.44,53.344,concentric,3,3.0,21601.0,311899.0,280973.0,328527.0,288594.0
2026-04-07 17:54:00.537676,278108,1510913257,1510914397,-1.069696,0.1464,0.007808,3.57,-0.91,-0.18375,43.136,1.44,53.344,concentric,3,3.0,21601.0,311899.0,280973.0,328527.0,288594.0
2026-04-07 17:54:00.539179,278109,1510922203,1510923101,-1.081408,0.144448,0.031232,2.485,-0.83125,0.11375,42.752003,0.816,54.552002,concentric,3,3.0,21601.0,311899.0,280973.0,328527.0,288594.0
2026-04-07 17:54:00.570960,278110,1510936749,1510938028,-1.081408,0.144448,0.027328,2.14375,-1.33875,0.4025,42.752003,0.816,54.552002,concentric,3,3.0,21601.0,311899.0,280973.0,328527.0,288594.0
2026-04-07 17:54:00.574637,278111,1510945668,1510946741,-1.069696,0.134688,0.027328,4.3225,-2.135,0.4025,42.808002,0.864,53.848003,concentric,3,3.0,21601.0,311899.0,280973.0,328527.0,288594.0
2026-04-07 17:54:00.580981,278112,1510954592,1510955409,-1.069696,0.134688,0.027328,4.69,-1.75,-0.62125,42.808002,0.864,53.848003,concentric,3,3.0,21601.0,311899.0,280973.0,328527.0,288594.0
2026-04-07 17:54:00.583474,278113,1510969088,1510970372,-1.085312,0.150304,0.03904,4.50625,-1.32125,-1.86375,43.728,0.712,53.568,concentric,3,3.0,21601.0,311899.0,280973.0,328527.0,288594.0
2026-04-07 17:54:00.589679,278114,1510978028,1510979126,-1.0736,0.12688,0.011712,4.03375,-1.68,-2.555,43.440002,0.744,53.984,concentric,3,3.0,21601.0,311899.0,280973.0,328527.0,288594.0
2026-04-07 17:54:00.619760,278115,1510987004,1510987814,-1.0736,0.12688,0.011712,2.87875,-1.9075,-3.00125,43.440002,0.744,53.984,concentric,3,3.0,21601.0,311899.0,280973.0,328527.0,288594.0
2026-04-07 17:54:00.645836,278125,1511001538,1511002749,-1.079456,0.105408,-0.001952,0.77875,-1.8025,-2.56375,43.656002,1.08,53.976,concentric,3,3.0,21527.0,311121.0,280287.0,327710.0,287757.0
2026-04-07 17:54:00.648315,278126,1511010438,1511011442,-1.079456,0.105408,-0.001952,0.90125,-1.5225,-3.47375,43.656002,1.08,53.976,concentric,3,3.0,21527.0,311121.0,280287.0,327710.0,287757.0
2026-04-07 17:54:00.650889,278127,1511019467,1511020188,-1.079456,0.12688,0.013664,1.46125,-2.345,-3.70125,44.408,1.008,53.656002,concentric,3,3.0,21527.0,311121.0,280287.0,327710.0,287757.0
2026-04-07 17:54:00.657007,278128,1511028870,1511030955,-1.079456,0.12688,0.013664,1.3125,-2.73875,-3.3425,44.408,1.008,53.656002,concentric,3,3.0,21527.0,311121.0,280287.0,327710.0,287757.0
2026-04-07 17:54:00.659773,278129,1511043494,1511043831,-1.075552,0.134688,0.017568,0.7875,-2.9925,-2.59,43.08,0.624,54.008003,concentric,3,3.0,21527.0,311121.0,280287.0,327710.0,287757.0
2026-04-07 17:54:00.665907,278130,1511052742,1511054632,-1.075552,0.134688,0.017568,-0.60375,-2.6425,-1.49625,43.08,0.624,54.008003,concentric,3,3.0,21527.0,311121.0,280287.0,327710.0,287757.0
2026-04-07 17:54:00.674666,278131,1511061759,1511063320,-1.09312,0.144448,0.033184,-2.28375,-2.0125,-0.385,43.088,0.336,55.288002,concentric,3,3.0,21527.0,311121.0,280287.0,327710.0,287757.0
2026-04-07 17:54:00.716457,278132,1511076297,1511078274,-1.09312,0.144448,0.033184,-3.255,-1.925,-1.575,43.088,0.336,55.288002,concentric,3,3.0,21527.0,311121.0,280287.0,327710.0,287757.0
2026-04-07 17:54:00.719608,278133,1511085239,1511086972,-1.09312,0.142496,0.023424,-3.56125,-1.995,-2.73875,43.304,0.6,53.776,concentric,3,3.0,21527.0,311121.0,280287.0,327710.0,287757.0
2026-04-07 17:54:00.747088,278144,1511094307,1511095845,-1.09312,0.142496,0.023424,-4.6025,-1.98625,-2.98375,43.304,0.6,53.776,concentric,3,3.0,21336.0,309524.0,279021.0,326346.0,286485.0
2026-04-07 17:54:00.749553,278145,1511103221,1511104552,-1.061888,0.13664,0.005856,-5.0225,-1.435,-3.64875,42.712,1.064,54.384003,concentric,3,3.0,21336.0,309524.0,279021.0,326346.0,286485.0
2026-04-07 17:54:00.752016,278146,1511117906,1511119503,-1.061888,0.11712,0.007808,-4.7425,-1.085,-4.26125,42.712,1.064,54.384003,concentric,3,3.0,21336.0,309524.0,279021.0,326346.0,286485.0
2026-04-07 17:54:00.754588,278147,1511126859,1511128292,-1.10288,0.11712,0.007808,-4.43625,0.27125,-4.76,42.584003,0.976,54.576004,concentric,3,3.0,21336.0,309524.0,279021.0,326346.0,286485.0
2026-04-07 17:54:00.757209,278148,1511135855,1511137002,-1.10288,0.11712,0.007808,-3.43875,0.245,-4.76875,42.584003,0.976,54.576004,concentric,3,3.0,21336.0,309524.0,279021.0,326346.0,286485.0
2026-04-07 17:54:00.762044,278149,1511150447,1511151950,-1.069696,0.111264,0.011712,-2.1,0.18375,-4.01625,42.456,0.224,55.360004,concentric,3,3.0,21336.0,309524.0,279021.0,326346.0,286485.0
2026-04-07 17:54:00.792291,278150,1511159421,1511160690,-1.069696,0.122976,0.017568,-0.7525,1.11125,-4.445,42.952003,0.992,54.032,concentric,3,3.0,21336.0,309524.0,279021.0,326346.0,286485.0
2026-04-07 17:54:00.795830,278151,1511168333,1511169403,-1.069696,0.122976,0.017568,-0.02625,0.62125,-4.34875,42.952003,0.992,54.032,concentric,3,3.0,21336.0,309524.0,279021.0,326346.0,286485.0
2026-04-07 17:54:00.798255,278152,1511182811,1511184308,-1.065792,0.138592,0.017568,-1.28625,1.02375,-4.36625,43.152,0.872,54.320004,concentric,3,3.0,21336.0,309524.0,279021.0,326346.0,286485.0
2026-04-07 17:54:00.823402,278162,1511191904,1511193044,-1.065792,0.138592,0.017568,-2.7825,1.44375,-4.47125,43.152,0.872,54.320004,concentric,3,3.0,21142.0,308036.0,277870.0,325144.0,285489.0
2026-04-07 17:54:00.825863,278163,1511200947,1511201745,-1.061888,0.124928,0.031232,-3.36875,1.19,-4.38375,42.160004,1.024,55.760002,concentric,3,3.0,21142.0,308036.0,277870.0,325144.0,285489.0
2026-04-07 17:54:00.828323,278164,1511210396,1511212531,-1.061888,0.124928,0.031232,-3.77125,1.61875,-4.38375,42.160004,1.024,55.760002,concentric,3,3.0,21142.0,308036.0,277870.0,325144.0,285489.0
2026-04-07 17:54:00.858517,278165,1511224913,1511225402,-1.046272,0.132736,0.052704,-3.57875,2.0475,-4.83,42.52,0.856,55.608,concentric,3,3.0,21142.0,308036.0,277870.0,325144.0,285489.0
2026-04-07 17:54:00.862027,278166,1511234333,1511236158,-1.046272,0.132736,0.052704,-2.68625,2.4675,-5.95,42.52,0.856,55.608,concentric,3,3.0,21142.0,308036.0,277870.0,325144.0,285489.0
2026-04-07 17:54:00.879634,278167,1511243257,1511244829,-1.038464,0.128832,0.033184,-2.79125,2.8175,-6.43125,42.704002,0.688,54.384003,concentric,3,3.0,21142.0,308036.0,277870.0,325144.0,285489.0
2026-04-07 17:54:00.882055,278168,1511252180,1511253513,-1.038464,0.128832,0.033184,-4.97,3.14125,-7.30625,42.704002,0.688,54.384003,concentric,3,3.0,21142.0,308036.0,277870.0,325144.0,285489.0
2026-04-07 17:54:00.884550,278169,1511266675,1511268425,-1.032608,0.109312,0.0,-6.265,3.28125,-7.2275,43.408,1.184,54.224003,concentric,3,3.0,21142.0,308036.0,277870.0,325144.0,285489.0
2026-04-07 17:54:00.887056,278170,1511275592,1511277162,-1.032608,0.109312,0.0,-6.3175,3.54375,-7.77,43.408,1.184,54.224003,concentric,3,3.0,21142.0,308036.0,277870.0,325144.0,285489.0
2026-04-07 17:54:00.917779,278171,1511284517,1511285870,-1.040416,0.10736,0.003904,-5.3725,3.815,-7.98875,42.864002,1.688,54.136,concentric,3,3.0,21142.0,308036.0,277870.0,325144.0,285489.0
2026-04-07 17:54:00.947177,278181,1511299587,1511301158,-1.032608,0.13664,0.02928,-2.84375,3.77125,-7.98,43.536003,1.08,54.128002,concentric,3,3.0,20955.0,306594.0,276790.0,324055.0,284539.0
2026-04-07 17:54:00.952075,278182,1511308526,1511309906,-1.032608,0.13664,0.02928,-0.6475,3.78,-8.18125,43.536003,1.08,54.128002,concentric,3,3.0,20955.0,306594.0,276790.0,324055.0,284539.0
2026-04-07 17:54:00.954591,278183,1511317486,1511318707,-1.032608,0.13664,0.02928,-0.21875,3.00125,-7.79625,43.536003,1.08,54.128002,concentric,3,3.0,20955.0,306594.0,276790.0,324055.0,284539.0
2026-04-07 17:54:00.956947,278184,1511331946,1511333668,-1.057984,0.148352,0.044896,-0.98875,3.36875,-7.30625,42.992,1.208,56.728004,concentric,3,3.0,20955.0,306594.0,276790.0,324055.0,284539.0
2026-04-07 17:54:00.959586,278185,1511340871,1511342383,-1.08336,0.148352,0.040992,-1.84625,4.0075,-7.27125,43.480003,1.12,54.688004,concentric,3,3.0,20955.0,306594.0,276790.0,324055.0,284539.0
2026-04-07 17:54:00.962085,278186,1511349822,1511351102,-1.08336,0.148352,0.040992,-2.73,3.7275,-8.88125,43.480003,1.12,54.688004,concentric,3,3.0,20955.0,306594.0,276790.0,324055.0,284539.0
2026-04-07 17:54:00.992289,278187,1511358790,1511359825,-1.08336,0.134688,0.031232,-2.70375,4.1125,-9.835,43.480003,1.12,54.688004,concentric,3,3.0,20955.0,306594.0,276790.0,324055.0,284539.0
2026-04-07 17:54:00.995865,278188,1511373262,1511374716,-1.100928,0.134688,0.031232,-3.3075,3.85,-10.3775,43.320004,1.64,52.968002,concentric,3,3.0,20955.0,306594.0,276790.0,324055.0,284539.0
2026-04-07 17:54:00.998517,278189,1511382181,1511383401,-1.095072,0.121024,0.031232,-3.2375,4.10375,-10.63125,43.192,1.352,54.232002,concentric,3,3.0,20955.0,306594.0,276790.0,324055.0,284539.0
2026-04-07 17:54:01.025798,278200,1511391098,1511392142,-1.095072,0.121024,0.031232,-3.33375,4.025,-10.89375,43.192,1.352,54.232002,concentric,3,3.0,20953.0,306558.0,276767.0,323994.0,284498.0
2026-04-07 17:54:01.028270,278201,1511405737,1511407166,-1.104832,0.113216,0.033184,-3.59625,4.2525,-10.15,42.632004,1.232,55.312004,concentric,3,3.0,20953.0,306558.0,276767.0,323994.0,284498.0
2026-04-07 17:54:01.030812,278202,1511414698,1511415909,-1.104832,0.113216,0.033184,-3.50875,3.99,-9.765,42.632004,1.232,55.312004,concentric,3,3.0,20953.0,306558.0,276767.0,323994.0,284498.0
2026-04-07 17:54:01.034510,278203,1511423580,1511424659,-1.09312,0.111264,0.02928,-3.07125,4.1125,-9.52,42.912003,1.896,55.680004,concentric,3,3.0,20953.0,306558.0,276767.0,323994.0,284498.0
2026-04-07 17:54:01.064793,278204,1511438080,1511439541,-1.09312,0.111264,0.02928,-2.625,3.6575,-8.70625,42.912003,1.896,55.680004,concentric,3,3.0,20953.0,306558.0,276767.0,323994.0,284498.0
2026-04-07 17:54:01.068565,278205,1511447026,1511448260,-1.100928,0.119072,0.035136,-2.3625,3.43,-8.715,43.136,1.912,54.288002,concentric,3,3.0,20953.0,306558.0,276767.0,323994.0,284498.0
2026-04-07 17:54:01.070824,278206,1511455904,1511456995,-1.100928,0.119072,0.035136,-1.21625,3.5525,-8.28625,43.136,1.912,54.288002,concentric,3,3.0,20953.0,306558.0,276767.0,323994.0,284498.0
2026-04-07 17:54:01.103452,278207,1511470442,1511471935,-1.079456,0.134688,0.03904,-0.46375,3.36,-8.26,42.888,1.592,54.608,concentric,3,3.0,20953.0,306558.0,276767.0,323994.0,284498.0
2026-04-07 17:54:01.105812,278208,1511479378,1511480637,-1.06384,0.128832,0.050752,-0.28,3.38625,-8.19,42.888,1.592,54.608,concentric,3,3.0,20953.0,306558.0,276767.0,323994.0,284498.0
2026-04-07 17:54:01.108286,278209,1511488245,1511489332,-1.067744,0.128832,0.050752,-1.5575,3.70125,-7.7,43.416,1.464,54.640003,concentric,3,3.0,20953.0,306558.0,276767.0,323994.0,284498.0
2026-04-07 17:54:01.144209,278219,1511497176,1511498098,-1.067744,0.128832,0.050752,-3.1675,3.255,-8.02375,43.416,1.464,54.640003,concentric,3,3.0,21051.0,307231.0,277240.0,324442.0,284828.0
2026-04-07 17:54:01.146136,278220,1511511775,1511513088,-1.065792,0.128832,0.05856,-4.3225,2.1175,-8.925,42.904003,1.472,55.168003,concentric,3,3.0,21051.0,307231.0,277240.0,324442.0,284828.0
2026-04-07 17:54:01.147128,278221,1511520694,1511521781,-1.05408,0.128832,0.037088,-6.16,2.3975,-9.33625,43.168003,1.736,54.648003,concentric,3,3.0,21051.0,307231.0,277240.0,324442.0,284828.0
2026-04-07 17:54:01.149633,278222,1511529721,1511530493,-1.05408,0.128832,0.037088,-6.5975,2.45875,-9.30125,43.168003,1.736,54.648003,concentric,3,3.0,21051.0,307231.0,277240.0,324442.0,284828.0
2026-04-07 17:54:01.154535,278223,1511544654,1511545386,-1.048224,0.115168,0.02928,-7.3675,2.415,-9.835,42.872,1.848,55.904003,concentric,3,3.0,21051.0,307231.0,277240.0,324442.0,284828.0
2026-04-07 17:54:01.188147,278224,1511553998,1511556149,-1.048224,0.115168,0.02928,-8.05875,2.30125,-10.0975,42.872,1.848,55.904003,concentric,3,3.0,21051.0,307231.0,277240.0,324442.0,284828.0
2026-04-07 17:54:01.189570,278225,1511563069,1511564836,-1.052128,0.124928,0.046848,-7.44625,2.03875,-10.49125,42.816,1.712,54.4,concentric,3,3.0,21051.0,307231.0,277240.0,324442.0,284828.0
2026-04-07 17:54:01.193690,278226,1511572024,1511573524,-1.052128,0.124928,0.046848,-6.57125,1.88125,-9.68625,42.816,1.712,54.4,concentric,3,3.0,21051.0,307231.0,277240.0,324442.0,284828.0
2026-04-07 17:54:01.199944,278227,1511586536,1511588511,-1.050176,0.128832,0.046848,-6.5275,1.72375,-8.58375,43.288002,2.48,54.216003,concentric,3,3.0,21051.0,307231.0,277240.0,324442.0,284828.0
2026-04-07 17:54:01.228372,278237,1511595776,1511597242,-1.050176,0.128832,0.046848,-8.04125,1.8025,-8.88125,43.288002,2.48,54.216003,concentric,3,3.0,21074.0,307499.0,277433.0,324610.0,284956.0
2026-04-07 17:54:01.232549,278238,1511604702,1511605994,-1.06384,0.122976,0.046848,-10.0975,2.8175,-8.855001,43.312,2.624,56.424004,concentric,3,3.0,21074.0,307499.0,277433.0,324610.0,284956.0
2026-04-07 17:54:01.234197,278239,1511619337,1511620972,-1.06384,0.122976,0.046848,-11.20875,3.38625,-9.4325,43.312,2.624,56.424004,concentric,3,3.0,21074.0,307499.0,277433.0,324610.0,284956.0
2026-04-07 17:54:01.241253,278240,1511628261,1511629706,-1.057984,0.134688,0.054656,-12.17125,3.08875,-9.12625,43.168003,2.416,56.168003,concentric,3,3.0,21074.0,307499.0,277433.0,324610.0,284956.0
2026-04-07 17:54:01.269803,278241,1511637267,1511638411,-1.057984,0.134688,0.054656,-14.0525,3.535,-8.6625,43.168003,2.416,56.168003,concentric,3,3.0,21074.0,307499.0,277433.0,324610.0,284956.0
2026-04-07 17:54:01.274319,278242,1511651765,1511653293,-1.0736,0.113216,0.011712,-15.61875,4.095,-8.3475,43.608,2.128,54.632004,concentric,3,3.0,21074.0,307499.0,277433.0,324610.0,284956.0
2026-04-07 17:54:01.275811,278243,1511660694,1511661998,-1.081408,0.103456,0.00976,-15.785,4.865,-8.225,43.136,2.792,53.584003,concentric,3,3.0,21074.0,307499.0,277433.0,324610.0,284956.0
2026-04-07 17:54:01.282421,278244,1511669635,1511670709,-1.081408,0.103456,0.00976,-14.98875,5.27625,-8.505,43.136,2.792,53.584003,concentric,3,3.0,21074.0,307499.0,277433.0,324610.0,284956.0
2026-04-07 17:54:01.311058,278245,1511678597,1511679436,-1.081408,0.103456,0.00976,-12.06625,5.31125,-8.53125,43.136,2.792,53.584003,concentric,3,3.0,21074.0,307499.0,277433.0,324610.0,284956.0
2026-04-07 17:54:01.345886,278256,1511693564,1511694354,-1.0736,0.122976,0.03904,-8.70625,5.41625,-8.23375,43.464,2.896,56.648003,concentric,3,3.0,20979.0,306854.0,276952.0,324167.0,284546.0
2026-04-07 17:54:01.348288,278257,1511702981,1511705168,-1.085312,0.124928,0.054656,-7.35875,5.0925,-7.2275,43.000004,2.832,54.216003,concentric,3,3.0,20979.0,306854.0,276952.0,324167.0,284546.0
2026-04-07 17:54:01.350810,278258,1511711947,1511713879,-1.085312,0.124928,0.054656,-6.44,5.18875,-6.195,43.000004,2.832,54.216003,concentric,3,3.0,20979.0,306854.0,276952.0,324167.0,284546.0
2026-04-07 17:54:01.353293,278259,1511720924,1511722592,-1.085312,0.115168,0.046848,-6.125,5.46875,-6.44,42.888,2.864,55.432003,concentric,3,3.0,20979.0,306854.0,276952.0,324167.0,284546.0
2026-04-07 17:54:01.355941,278260,1511735676,1511737506,-1.085312,0.115168,0.046848,-6.18625,5.915,-5.94125,42.888,2.864,55.432003,concentric,3,3.0,20979.0,306854.0,276952.0,324167.0,284546.0
2026-04-07 17:54:01.358512,278261,1511744627,1511746260,-1.085312,0.10736,0.037088,-6.615,6.13375,-6.0725,43.800003,3.456,54.480003,concentric,3,3.0,20979.0,306854.0,276952.0,324167.0,284546.0
2026-04-07 17:54:01.364603,278262,1511753709,1511755006,-1.085312,0.10736,0.037088,-6.7375,5.7225,-5.92375,43.800003,3.456,54.480003,concentric,3,3.0,20979.0,306854.0,276952.0,324167.0,284546.0
2026-04-07 17:54:01.394668,278263,1511768220,1511769934,-1.081408,0.121024,0.037088,-6.01125,5.32,-5.495,43.144,3.32,55.144,concentric,3,3.0,20979.0,306854.0,276952.0,324167.0,284546.0
2026-04-07 17:54:01.398025,278264,1511777156,1511778684,-1.081408,0.121024,0.037088,-4.7775,5.27625,-5.17125,43.144,3.32,55.144,concentric,3,3.0,20979.0,306854.0,276952.0,324167.0,284546.0
2026-04-07 17:54:01.399995,278265,1511786082,1511787373,-1.079456,0.10736,0.03904,-4.585,5.10125,-4.99625,43.272003,3.728,54.264004,concentric,3,3.0,20979.0,306854.0,276952.0,324167.0,284546.0
2026-04-07 17:54:01.429535,278275,1511800662,1511802434,-1.079456,0.105408,0.042944,-4.725,4.7775,-4.375,43.272003,3.728,54.264004,concentric,3,3.0,20720.0,304725.0,275310.0,322497.0,283173.0
2026-04-07 17:54:01.432002,278276,1511809636,1511811232,-1.075552,0.105408,0.042944,-4.40125,4.17375,-3.96375,43.296,3.512,54.232002,concentric,3,3.0,20720.0,304725.0,275310.0,322497.0,283173.0
2026-04-07 17:54:01.434494,278277,1511818624,1511819942,-1.075552,0.105408,0.042944,-2.59,4.2175,-4.31375,43.296,3.512,54.232002,concentric,3,3.0,20720.0,304725.0,275310.0,322497.0,283173.0
2026-04-07 17:54:01.439523,278278,1511827618,1511828696,-1.0736,0.119072,0.037088,-0.35875,3.36,-4.52375,43.424004,3.032,54.536003,concentric,3,3.0,20720.0,304725.0,275310.0,322497.0,283173.0
2026-04-07 17:54:01.469740,278279,1511842142,1511843601,-1.069696,0.109312,0.046848,1.82,3.01875,-4.38375,43.856003,2.96,53.600002,concentric,3,3.0,20720.0,304725.0,275310.0,322497.0,283173.0
2026-04-07 17:54:01.473565,278280,1511851069,1511852321,-1.069696,0.109312,0.046848,2.07375,2.47625,-3.7625,43.856003,2.96,53.600002,concentric,3,3.0,20720.0,304725.0,275310.0,322497.0,283173.0
2026-04-07 17:54:01.475769,278281,1511860019,1511861056,-1.069696,0.109312,0.046848,1.6275,2.10875,-3.15,43.856003,2.96,53.600002,concentric,3,3.0,20720.0,304725.0,275310.0,322497.0,283173.0
2026-04-07 17:54:01.526379,278282,1511874552,1511875958,-1.061888,0.105408,0.037088,1.8025,2.1175,-3.21125,43.504,3.824,52.120003,concentric,3,3.0,20720.0,304725.0,275310.0,322497.0,283173.0
2026-04-07 17:54:01.529478,278283,1511883659,1511884684,-1.065792,0.111264,0.027328,2.6425,2.17875,-3.85875,43.288002,3.296,54.168003,concentric,3,3.0,20720.0,304725.0,275310.0,322497.0,283173.0
2026-04-07 17:54:01.533907,278284,1511892641,1511893348,-1.065792,0.111264,0.027328,4.13875,2.26625,-4.445,43.288002,3.296,54.168003,concentric,3,3.0,20720.0,304725.0,275310.0,322497.0,283173.0
2026-04-07 17:54:01.558127,278294,1511902476,1511904150,-1.065792,0.113216,0.046848,4.34,2.49375,-4.36625,43.824,3.392,53.784004,concentric,3,3.0,20738.0,304823.0,275385.0,322548.0,283187.0
2026-04-07 17:54:01.560560,278295,1511916988,1511919039,-1.065792,0.113216,0.046848,5.08375,2.4675,-3.92875,43.824,3.392,53.784004,concentric,3,3.0,20738.0,304823.0,275385.0,322548.0,283187.0
2026-04-07 17:54:01.562112,278296,1511925973,1511927796,-1.065792,0.101504,0.056608,4.97,3.01875,-3.68375,43.36,2.792,54.368004,concentric,3,3.0,20738.0,304823.0,275385.0,322548.0,283187.0
2026-04-07 17:54:01.566296,278297,1511935074,1511936546,-1.065792,0.101504,0.056608,5.3025,2.89625,-3.54375,43.36,2.792,54.368004,concentric,3,3.0,20738.0,304823.0,275385.0,322548.0,283187.0
2026-04-07 17:54:01.568133,278298,1511949621,1511951504,-1.059936,0.103456,0.044896,5.9325,2.8875,-3.63125,43.632004,2.6,54.112003,concentric,3,3.0,20738.0,304823.0,275385.0,322548.0,283187.0
2026-04-07 17:54:01.569627,278299,1511958585,1511960254,-1.059936,0.103456,0.044896,6.5625,2.98375,-3.4475,43.632004,2.6,54.112003,concentric,3,3.0,20738.0,304823.0,275385.0,322548.0,283187.0
2026-04-07 17:54:01.603492,278300,1511967538,1511968981,-1.061888,0.113216,0.050752,6.335,3.22875,-3.64875,43.816,2.736,54.032,concentric,3,3.0,20738.0,304823.0,275385.0,322548.0,283187.0
2026-04-07 17:54:01.606984,278301,1511982054,1511983880,-1.06384,0.10736,0.060512,6.3175,3.4825,-3.56125,43.976,2.528,54.128002,concentric,3,3.0,20738.0,304823.0,275385.0,322548.0,283187.0
2026-04-07 17:54:01.609527,278302,1511990995,1511992560,-1.06384,0.10736,0.060512,5.0925,3.33375,-3.08875,43.976,2.528,54.128002,concentric,3,3.0,20738.0,304823.0,275385.0,322548.0,283187.0
2026-04-07 17:54:01.638143,278313,1511999977,1512001312,-1.06384,0.10736,0.060512,3.50875,2.9575,-3.2725,43.976,2.528,54.128002,concentric,3,3.0,20685.0,304432.0,275069.0,322231.0,282869.0
2026-04-07 17:54:01.639510,278314,1512009037,1512010139,-1.057984,0.113216,0.080032,2.45875,3.5175,-3.54375,43.904003,2.696,54.424004,concentric,3,3.0,20685.0,304432.0,275069.0,322231.0,282869.0
2026-04-07 17:54:01.642041,278315,1512023806,1512025105,-1.065792,0.113216,0.06832,1.0675,3.395,-4.05125,43.688004,3.264,54.736004,concentric,3,3.0,20685.0,304432.0,275069.0,322231.0,282869.0
2026-04-07 17:54:01.644591,278316,1512032825,1512033822,-1.065792,0.113216,0.06832,-2.00375,4.36625,-4.34,43.688004,3.264,54.736004,concentric,3,3.0,20685.0,304432.0,275069.0,322231.0,282869.0
2026-04-07 17:54:01.653352,278317,1512041783,1512042562,-1.065792,0.111264,0.054656,-4.59375,4.5325,-4.41,43.688004,3.264,54.736004,concentric,3,3.0,20685.0,304432.0,275069.0,322231.0,282869.0
2026-04-07 17:54:01.684558,278318,1512051189,1512053330,-1.059936,0.111264,0.054656,-5.99375,4.13,-4.83875,43.784,2.616,54.984,concentric,3,3.0,20685.0,304432.0,275069.0,322231.0,282869.0
2026-04-07 17:54:01.687031,278319,1512065686,1512066190,-1.056032,0.11712,0.027328,-7.25375,4.12125,-4.80375,44.216003,3.008,54.520004,concentric,3,3.0,20685.0,304432.0,275069.0,322231.0,282869.0
2026-04-07 17:54:01.689497,278320,1512075129,1512076979,-1.056032,0.11712,0.027328,-7.72625,4.03375,-5.04,44.216003,3.008,54.520004,concentric,3,3.0,20685.0,304432.0,275069.0,322231.0,282869.0
2026-04-07 17:54:01.695782,278321,1512084054,1512085706,-1.067744,0.109312,0.011712,-8.75,4.43625,-4.89125,43.712,2.928,54.680004,concentric,3,3.0,20685.0,304432.0,275069.0,322231.0,282869.0
2026-04-07 17:54:01.749475,278331,1512098804,1512100696,-1.067744,0.109312,0.011712,-8.995,4.445,-5.06625,43.712,2.928,54.680004,concentric,3,3.0,20511.0,302921.0,273855.0,320976.0,281785.0
2026-04-07 17:54:01.752054,278332,1512107850,1512109455,-1.056032,0.113216,0.042944,-7.7525,4.08625,-4.80375,43.936,2.824,54.016003,concentric,3,3.0,20511.0,302921.0,273855.0,320976.0,281785.0
2026-04-07 17:54:01.754573,278333,1512116758,1512118158,-1.056032,0.113216,0.042944,-6.46625,4.165,-4.78625,43.936,2.824,54.016003,concentric,3,3.0,20511.0,302921.0,273855.0,320976.0,281785.0
2026-04-07 17:54:01.757040,278334,1512125676,1512126836,-1.061888,0.111264,0.054656,-5.7925,3.78,-5.27625,43.016003,2.76,55.528004,concentric,3,3.0,20511.0,302921.0,273855.0,320976.0,281785.0
2026-04-07 17:54:01.759521,278335,1512140271,1512141740,-1.061888,0.111264,0.054656,-4.9175,3.05375,-4.9175,43.016003,2.76,55.528004,concentric,3,3.0,20511.0,302921.0,273855.0,320976.0,281785.0
2026-04-07 17:54:01.764497,278336,1512149195,1512150445,-1.056032,0.113216,0.046848,-3.9025,2.79125,-4.78625,43.36,2.68,55.480003,concentric,3,3.0,20511.0,302921.0,273855.0,320976.0,281785.0
2026-04-07 17:54:01.769484,278337,1512158198,1512159141,-1.056032,0.113216,0.046848,-3.75375,3.15,-4.7425,43.36,2.68,55.480003,concentric,3,3.0,20511.0,302921.0,273855.0,320976.0,281785.0
2026-04-07 17:54:01.799715,278338,1512172682,1512174023,-1.061888,0.119072,0.03904,-3.15875,3.4825,-5.075,44.168003,3.024,54.04,concentric,3,3.0,20511.0,302921.0,273855.0,320976.0,281785.0
2026-04-07 17:54:01.803292,278339,1512181593,1512182750,-1.061888,0.119072,0.03904,-3.7275,3.45625,-5.5125,44.168003,3.024,54.04,concentric,3,3.0,20511.0,302921.0,273855.0,320976.0,281785.0
2026-04-07 17:54:01.805772,278340,1512190523,1512191471,-1.0736,0.122976,0.023424,-3.745,4.20875,-5.15375,44.368004,3.008,53.544003,concentric,3,3.0,20511.0,302921.0,273855.0,320976.0,281785.0
2026-04-07 17:54:01.830770,278350,1512205195,1512206500,-1.06384,0.122976,0.054656,-3.31625,4.305,-5.38125,43.648003,3.2,54.296,concentric,3,3.0,20684.0,304349.0,274969.0,322100.0,282803.0
2026-04-07 17:54:01.833247,278351,1512214148,1512215270,-1.06384,0.122976,0.054656,-1.98625,4.13,-5.39,43.648003,3.2,54.296,concentric,3,3.0,20684.0,304349.0,274969.0,322100.0,282803.0
2026-04-07 17:54:01.835776,278352,1512223154,1512223965,-1.069696,0.109312,0.040992,-0.8575,3.77125,-5.08375,44.024002,3.168,54.144,concentric,3,3.0,20684.0,304349.0,274969.0,322100.0,282803.0
2026-04-07 17:54:01.867102,278353,1512237734,1512238977,-1.069696,0.109312,0.040992,-0.4025,3.4825,-5.31125,44.024002,3.168,54.144,concentric,3,3.0,20684.0,304349.0,274969.0,322100.0,282803.0
2026-04-07 17:54:01.869583,278354,1512246621,1512247708,-1.077504,0.11712,0.03904,-0.44625,3.57,-5.10125,44.24,3.368,54.256004,concentric,3,3.0,20684.0,304349.0,274969.0,322100.0,282803.0
2026-04-07 17:54:01.871974,278355,1512255540,1512256380,-1.077504,0.11712,0.03904,0.65625,3.5525,-4.97875,44.24,3.368,54.256004,concentric,3,3.0,20684.0,304349.0,274969.0,322100.0,282803.0
2026-04-07 17:54:01.876057,278356,1512264457,1512265081,-1.077504,0.134688,0.042944,2.38875,3.0975,-5.32,43.72,2.704,55.576004,concentric,3,3.0,20684.0,304349.0,274969.0,322100.0,282803.0
2026-04-07 17:54:01.905919,278357,1512279233,1512280040,-1.077504,0.134688,0.042944,3.4475,2.6075,-4.94375,43.72,2.704,55.576004,concentric,3,3.0,20684.0,304349.0,274969.0,322100.0,282803.0
2026-04-07 17:54:01.909449,278358,1512288672,1512290825,-1.071648,0.12688,0.042944,3.885,2.3975,-4.73375,44.328003,2.68,54.344,concentric,3,3.0,20684.0,304349.0,274969.0,322100.0,282803.0
2026-04-07 17:54:01.940805,278369,1512298073,1512299524,-1.071648,0.12688,0.042944,4.55875,1.91625,-5.32,44.328003,2.68,54.344,concentric,3,3.0,20864.0,305854.0,276160.0,323297.0,283701.0
2026-04-07 17:54:01.943336,278370,1512307289,1512308276,-1.081408,0.11712,0.02928,4.8475,2.65125,-5.0225,43.72,2.576,55.480003,concentric,3,3.0,20864.0,305854.0,276160.0,323297.0,283701.0
2026-04-07 17:54:01.948320,278371,1512321785,1512323234,-1.081408,0.11712,0.02928,5.27625,2.61625,-5.5125,43.72,2.576,55.480003,concentric,3,3.0,20864.0,305854.0,276160.0,323297.0,283701.0
2026-04-07 17:54:01.950863,278372,1512330708,1512331945,-1.075552,0.124928,0.027328,6.86,2.84375,-5.60875,44.192,3.16,56.04,concentric,3,3.0,20864.0,305854.0,276160.0,323297.0,283701.0
2026-04-07 17:54:01.957868,278373,1512339612,1512340675,-1.075552,0.124928,0.027328,8.0675,2.23125,-5.52125,44.192,3.16,56.04,concentric,3,3.0,20864.0,305854.0,276160.0,323297.0,283701.0
2026-04-07 17:54:01.987220,278374,1512354099,1512355606,-1.077504,0.128832,0.046848,9.7475,1.82,-5.46,43.864002,2.168,55.480003,concentric,3,3.0,20864.0,305854.0,276160.0,323297.0,283701.0
2026-04-07 17:54:01.990740,278375,1512363077,1512364320,-1.077504,0.113216,0.03904,9.37125,1.3125,-4.235,43.864002,2.168,55.480003,concentric,3,3.0,20864.0,305854.0,276160.0,323297.0,283701.0
2026-04-07 17:54:01.993375,278376,1512371998,1512373040,-1.09312,0.11712,0.03904,8.86375,1.4525,-4.19125,43.328003,2.656,53.928,concentric,3,3.0,20864.0,305854.0,276160.0,323297.0,283701.0
2026-04-07 17:54:01.998255,278377,1512386455,1512387934,-1.079456,0.122976,0.033184,9.45,1.6625,-4.47125,43.496002,2.256,55.320004,concentric,3,3.0,20864.0,305854.0,276160.0,323297.0,283701.0
2026-04-07 17:54:02.051950,278387,1512395444,1512396832,-1.079456,0.122976,0.033184,10.56125,1.7325,-4.45375,43.496002,2.256,55.320004,concentric,3,3.0,20915.0,306336.0,276526.0,323612.0,283912.0
2026-04-07 17:54:02.054525,278388,1512404458,1512405579,-1.067744,0.128832,0.040992,10.71,1.53125,-4.48,43.832,2.256,55.224003,concentric,3,3.0,20915.0,306336.0,276526.0,323612.0,283912.0
2026-04-07 17:54:02.057017,278389,1512413374,1512414335,-1.067744,0.128832,0.040992,9.3625,1.645,-4.4975,43.832,2.256,55.224003,concentric,3,3.0,20915.0,306336.0,276526.0,323612.0,283912.0
2026-04-07 17:54:02.059574,278390,1512427875,1512429243,-1.06384,0.103456,0.0488,7.5425,2.3975,-4.89125,44.416,2.352,54.936,concentric,3,3.0,20915.0,306336.0,276526.0,323612.0,283912.0
2026-04-07 17:54:02.062020,278391,1512436826,1512438030,-1.06384,0.103456,0.0488,7.06125,2.63375,-5.08375,44.416,2.352,54.936,concentric,3,3.0,20915.0,306336.0,276526.0,323612.0,283912.0
2026-04-07 17:54:02.064606,278392,1512445742,1512446764,-1.061888,0.113216,0.044896,6.335,3.255,-4.31375,44.288002,2.024,54.768,concentric,3,3.0,20915.0,306336.0,276526.0,323612.0,283912.0
2026-04-07 17:54:02.094713,278393,1512460291,1512461687,-1.061888,0.113216,0.044896,7.3325,3.2725,-4.59375,44.288002,2.024,54.768,concentric,3,3.0,20915.0,306336.0,276526.0,323612.0,283912.0
2026-04-07 17:54:02.098273,278394,1512469289,1512470398,-1.069696,0.130784,0.037088,7.16625,3.08875,-5.11,44.944,2.216,55.848003,concentric,3,3.0,20915.0,306336.0,276526.0,323612.0,283912.0
2026-04-07 17:54:02.100945,278395,1512478186,1512479077,-1.069696,0.130784,0.037088,7.06125,3.255,-4.8825,44.944,2.216,55.848003,concentric,3,3.0,20915.0,306336.0,276526.0,323612.0,283912.0
2026-04-07 17:54:02.103357,278396,1512492714,1512493995,-1.071648,0.128832,0.044896,7.7175,3.10625,-4.83,45.112003,2.408,54.864002,concentric,3,3.0,20915.0,306336.0,276526.0,323612.0,283912.0
2026-04-07 17:54:02.130758,278406,1512501842,1512502834,-1.071648,0.128832,0.044896,7.51625,2.765,-5.04,45.112003,2.408,54.864002,concentric,3,3.0,20809.0,305399.0,275739.0,322818.0,283185.0
2026-04-07 17:54:02.133233,278407,1512510852,1512511587,-1.071648,0.128832,0.0488,8.11125,3.61375,-5.39,43.632004,1.832,57.248,concentric,3,3.0,20809.0,305399.0,275739.0,322818.0,283185.0
2026-04-07 17:54:02.135755,278408,1512520249,1512522378,-1.071648,0.128832,0.0488,9.05625,3.5,-6.18625,43.632004,1.832,57.248,concentric,3,3.0,20809.0,305399.0,275739.0,322818.0,283185.0
2026-04-07 17:54:02.167027,278409,1512534810,1512535269,-1.0736,0.130784,0.060512,8.11125,3.96375,-6.43125,43.088,1.888,56.384003,concentric,3,3.0,20809.0,305399.0,275739.0,322818.0,283185.0
2026-04-07 17:54:02.169555,278410,1512544153,1512546038,-1.08336,0.11712,0.056608,7.16625,4.4975,-6.48375,43.088,1.888,54.2,concentric,3,3.0,20809.0,305399.0,275739.0,322818.0,283185.0
2026-04-07 17:54:02.172077,278411,1512553161,1512554739,-1.08336,0.11712,0.056608,6.16,4.96125,-6.895,44.280003,1.872,54.2,concentric,3,3.0,20809.0,305399.0,275739.0,322818.0,283185.0
2026-04-07 17:54:02.202260,278412,1512567675,1512569629,-1.089216,0.113216,0.052704,5.6875,4.76,-6.37875,44.08,1.616,54.704002,concentric,3,3.0,20809.0,305399.0,275739.0,322818.0,283185.0
2026-04-07 17:54:02.205749,278413,1512576660,1512578314,-1.089216,0.113216,0.052704,4.68125,5.32,-6.15125,44.08,1.616,54.704002,concentric,3,3.0,20809.0,305399.0,275739.0,322818.0,283185.0
2026-04-07 17:54:02.208335,278414,1512585587,1512587028,-1.079456,0.12688,0.035136,3.71875,5.62625,-6.0375,44.504,1.472,54.664,concentric,3,3.0,20809.0,305399.0,275739.0,322818.0,283185.0
2026-04-07 17:54:02.210801,278415,1512594507,1512595736,-1.079456,0.12688,0.035136,4.2,5.74875,-5.94125,44.504,1.472,54.664,concentric,3,3.0,20809.0,305399.0,275739.0,322818.0,283185.0
2026-04-07 17:54:02.241978,278426,1512609086,1512610685,-1.079456,0.13664,0.03904,5.11875,5.27625,-5.8975,43.632004,2.192,55.728004,concentric,3,3.0,20747.0,304953.0,275416.0,322520.0,282989.0
2026-04-07 17:54:02.244514,278427,1512618023,1512619425,-1.079456,0.13664,0.03904,3.94625,5.3025,-6.44875,43.632004,2.192,55.728004,concentric,3,3.0,20747.0,304953.0,275416.0,322520.0,282989.0
2026-04-07 17:54:02.247009,278428,1512627070,1512628101,-1.08336,0.0976,0.046848,1.75,6.18625,-6.8075,44.264004,1.84,55.656002,concentric,3,3.0,20747.0,304953.0,275416.0,322520.0,282989.0
2026-04-07 17:54:02.253361,278429,1512641695,1512643023,-1.08336,0.0976,0.046848,3.5,5.705,-6.475,44.264004,1.84,55.656002,concentric,3,3.0,20747.0,304953.0,275416.0,322520.0,282989.0
2026-04-07 17:54:02.283468,278430,1512650702,1512651708,-1.081408,0.115168,0.050752,5.25875,5.5125,-7.04375,44.104004,1.288,56.4,concentric,3,3.0,20747.0,304953.0,275416.0,322520.0,282989.0
2026-04-07 17:54:02.287070,278431,1512659682,1512660413,-1.081408,0.115168,0.050752,5.92375,5.69625,-7.3325,44.104004,1.288,56.4,concentric,3,3.0,20747.0,304953.0,275416.0,322520.0,282989.0
2026-04-07 17:54:02.289512,278432,1512669027,1512671171,-1.050176,0.130784,0.05856,6.4225,6.34375,-7.14,44.384003,2.112,54.832,concentric,3,3.0,20747.0,304953.0,275416.0,322520.0,282989.0
2026-04-07 17:54:02.293274,278433,1512683553,1512684030,-1.050176,0.130784,0.05856,5.39,5.64375,-7.11375,44.384003,2.112,54.832,concentric,3,3.0,20747.0,304953.0,275416.0,322520.0,282989.0
2026-04-07 17:54:02.323428,278434,1512692916,1512694803,-1.077504,0.111264,0.0488,3.05375,6.23875,-7.14,43.736004,1.152,56.72,concentric,3,3.0,20747.0,304953.0,275416.0,322520.0,282989.0
2026-04-07 17:54:02.353358,278444,1512702008,1512703581,-1.077504,0.111264,0.0488,2.6075,6.6675,-7.385,43.736004,1.152,56.72,concentric,3,3.0,20593.0,303918.0,274689.0,321825.0,282389.0
2026-04-07 17:54:02.356295,278445,1512716527,1512718483,-1.059936,0.11712,0.0488,2.8525,6.20375,-7.62125,44.576,1.272,54.664,concentric,3,3.0,20593.0,303918.0,274689.0,321825.0,282389.0
2026-04-07 17:54:02.358900,278446,1512725691,1512727242,-1.059936,0.119072,0.0488,1.96,6.4575,-8.23375,44.328003,1.48,55.464005,concentric,3,3.0,20593.0,303918.0,274689.0,321825.0,282389.0
2026-04-07 17:54:02.360788,278447,1512734735,1512735967,-1.059936,0.119072,0.0488,2.6075,6.43125,-8.05,44.328003,1.48,55.464005,concentric,3,3.0,20593.0,303918.0,274689.0,321825.0,282389.0
2026-04-07 17:54:02.363358,278448,1512743628,1512744705,-1.059936,0.119072,0.0488,3.0625,6.825,-8.21625,44.328003,1.48,55.464005,concentric,3,3.0,20593.0,303918.0,274689.0,321825.0,282389.0
2026-04-07 17:54:02.369595,278449,1512758148,1512759547,-1.050176,0.113216,0.046848,3.57,6.88625,-8.54875,44.896004,1.488,54.872,concentric,3,3.0,20593.0,303918.0,274689.0,321825.0,282389.0
2026-04-07 17:54:02.399734,278450,1512767090,1512768283,-1.06384,0.121024,0.056608,4.2175,6.825,-8.74125,44.808002,1.264,56.984,concentric,3,3.0,20593.0,303918.0,274689.0,321825.0,282389.0
2026-04-07 17:54:02.403243,278451,1512776003,1512776960,-1.06384,0.121024,0.056608,4.725,7.0525,-8.82,44.808002,1.264,56.984,concentric,3,3.0,20593.0,303918.0,274689.0,321825.0,282389.0
2026-04-07 17:54:02.405776,278452,1512790511,1512791846,-1.071648,0.121024,0.05856,4.305,7.8925,-8.51375,44.696003,1.64,55.184002,concentric,3,3.0,20593.0,303918.0,274689.0,321825.0,282389.0
2026-04-07 17:54:02.430713,278462,1512799841,1512801200,-1.071648,0.121024,0.05856,4.64625,7.77,-8.3125,44.696003,1.64,55.184002,concentric,3,3.0,20495.0,302983.0,273930.0,321069.0,281732.0
2026-04-07 17:54:02.433267,278463,1512808900,1512809945,-1.071648,0.115168,0.05856,4.33125,7.9275,-8.00625,44.536003,1.592,54.816,concentric,3,3.0,20495.0,302983.0,273930.0,321069.0,281732.0
2026-04-07 17:54:02.435782,278464,1512823439,1512824943,-1.071648,0.115168,0.05856,3.12375,7.91875,-7.8575,44.536003,1.592,54.816,concentric,3,3.0,20495.0,302983.0,273930.0,321069.0,281732.0
2026-04-07 17:54:02.465909,278465,1512832399,1512833602,-1.06384,0.111264,0.042944,1.12875,7.98,-7.735,44.824,1.464,54.976,concentric,3,3.0,20495.0,302983.0,273930.0,321069.0,281732.0
2026-04-07 17:54:02.469594,278466,1512841356,1512842288,-1.06384,0.111264,0.042944,0.21875,8.00625,-7.1225,44.824,1.464,54.976,concentric,3,3.0,20495.0,302983.0,273930.0,321069.0,281732.0
2026-04-07 17:54:02.472036,278467,1512850289,1512850988,-1.067744,0.101504,0.025376,0.84875,7.595,-6.71125,44.688004,1.536,54.464,concentric,3,3.0,20495.0,302983.0,273930.0,321069.0,281732.0
2026-04-07 17:54:02.479570,278468,1512865140,1512865887,-1.067744,0.11712,0.040992,0.945,7.55125,-6.7375,44.688004,1.536,54.464,concentric,3,3.0,20495.0,302983.0,273930.0,321069.0,281732.0
2026-04-07 17:54:02.485798,278469,1512874478,1512876662,-1.056032,0.115168,0.040992,1.51375,7.30625,-6.6675,44.424004,1.344,56.600002,concentric,3,3.0,20495.0,302983.0,273930.0,321069.0,281732.0
2026-04-07 17:54:02.517544,278470,1512883408,1512885364,-1.056032,0.115168,0.040992,3.115,7.0525,-7.0,44.424004,1.344,56.600002,concentric,3,3.0,20495.0,302983.0,273930.0,321069.0,281732.0
2026-04-07 17:54:02.520895,278471,1512897933,1512898248,-1.0736,0.128832,0.0488,3.9725,6.195,-6.405,45.224003,1.624,55.432003,concentric,3,3.0,20495.0,302983.0,273930.0,321069.0,281732.0
2026-04-07 17:54:02.548322,278482,1512907200,1512909092,-1.075552,0.134688,0.054656,4.655,6.01125,-6.4225,45.216003,2.096,51.968002,concentric,3,3.0,20532.0,303156.0,274029.0,321098.0,281737.0
2026-04-07 17:54:02.550671,278483,1512916125,1512917778,-1.075552,0.134688,0.054656,4.6025,5.4075,-6.6325,45.216003,2.096,51.968002,concentric,3,3.0,20532.0,303156.0,274029.0,321098.0,281737.0
2026-04-07 17:54:02.553369,278484,1512925066,1512926549,-1.075552,0.134688,0.054656,4.78625,5.24125,-6.81625,45.216003,2.096,51.968002,concentric,3,3.0,20532.0,303156.0,274029.0,321098.0,281737.0
2026-04-07 17:54:02.555726,278485,1512939565,1512941515,-1.087264,0.12688,0.050752,4.40125,5.11,-7.67375,44.976,1.608,53.024002,concentric,3,3.0,20532.0,303156.0,274029.0,321098.0,281737.0
2026-04-07 17:54:02.560780,278486,1512948523,1512950244,-1.077504,0.113216,0.040992,4.48875,4.6025,-7.91,44.472004,1.608,55.928,concentric,3,3.0,20532.0,303156.0,274029.0,321098.0,281737.0
2026-04-07 17:54:02.592167,278487,1512957440,1512958930,-1.077504,0.113216,0.040992,3.63125,5.10125,-7.665,44.472004,1.608,55.928,concentric,3,3.0,20532.0,303156.0,274029.0,321098.0,281737.0
2026-04-07 17:54:02.594477,278488,1512971926,1512973842,-1.089216,0.113216,0.033184,3.68375,5.46,-7.6125,44.864002,1.344,54.776,concentric,3,3.0,20532.0,303156.0,274029.0,321098.0,281737.0
2026-04-07 17:54:02.597595,278489,1512980854,1512982542,-1.089216,0.113216,0.033184,3.66625,5.18875,-7.16625,44.864002,1.344,54.776,concentric,3,3.0,20532.0,303156.0,274029.0,321098.0,281737.0
2026-04-07 17:54:02.602072,278490,1512989768,1512991236,-1.075552,0.148352,0.037088,4.48,4.24375,-6.86,45.176003,1.16,54.528004,concentric,3,3.0,20532.0,303156.0,274029.0,321098.0,281737.0
2026-04-07 17:54:02.655692,278500,1513004489,1513006325,-1.075552,0.148352,0.037088,5.48625,4.2175,-6.67625,45.176003,1.16,54.528004,concentric,3,3.0,20576.0,303552.0,274378.0,321437.0,282075.0
2026-04-07 17:54:02.658397,278501,1513013549,1513015062,-1.098976,0.115168,0.035136,2.8875,4.3225,-6.95625,45.408,1.392,54.472004,concentric,3,3.0,20576.0,303552.0,274378.0,321437.0,282075.0
2026-04-07 17:54:02.660825,278502,1513022490,1513023807,-1.098976,0.115168,0.035136,2.9575,3.675,-6.4575,45.408,1.392,54.472004,concentric,3,3.0,20576.0,303552.0,274378.0,321437.0,282075.0
2026-04-07 17:54:02.663361,278503,1513031414,1513032505,-1.08336,0.11712,0.03904,4.06875,3.91125,-6.6325,45.008003,1.688,54.864002,concentric,3,3.0,20576.0,303552.0,274378.0,321437.0,282075.0
2026-04-07 17:54:02.665775,278504,1513045945,1513047424,-1.08336,0.11712,0.040992,4.4975,3.98125,-6.95625,45.008003,1.688,54.864002,concentric,3,3.0,20576.0,303552.0,274378.0,321437.0,282075.0
2026-04-07 17:54:02.670800,278505,1513054872,1513056170,-1.087264,0.12688,0.040992,4.375,3.82375,-6.7725,44.920002,1.32,55.4,concentric,3,3.0,20576.0,303552.0,274378.0,321437.0,282075.0
2026-04-07 17:54:02.675866,278506,1513063793,1513064877,-1.087264,0.12688,0.040992,4.1475,3.66625,-7.14,44.920002,1.32,55.4,concentric,3,3.0,20576.0,303552.0,274378.0,321437.0,282075.0
2026-04-07 17:54:02.713359,278507,1513078300,1513079830,-1.0736,0.12688,0.052704,3.3425,3.78,-6.25625,44.68,1.296,56.984,concentric,3,3.0,20576.0,303552.0,274378.0,321437.0,282075.0
2026-04-07 17:54:02.715757,278508,1513087202,1513088578,-1.075552,0.103456,0.021472,1.365,4.1125,-5.705,44.768,1.608,55.000004,concentric,3,3.0,20576.0,303552.0,274378.0,321437.0,282075.0
2026-04-07 17:54:02.718254,278509,1513096098,1513097257,-1.075552,0.103456,0.021472,1.21625,4.41875,-5.92375,44.768,1.608,55.000004,concentric,3,3.0,20576.0,303552.0,274378.0,321437.0,282075.0
2026-04-07 17:54:02.743322,278519,1513110882,1513112178,-1.081408,0.113216,0.025376,1.3825,4.235,-6.2475,44.816,1.288,54.312004,concentric,3,3.0,20746.0,305069.0,275561.0,322738.0,283245.0
2026-04-07 17:54:02.745776,278520,1513119833,1513120959,-1.081408,0.113216,0.025376,2.56375,4.06875,-5.94125,44.816,1.288,54.312004,concentric,3,3.0,20746.0,305069.0,275561.0,322738.0,283245.0
2026-04-07 17:54:02.748249,278521,1513128787,1513129668,-1.069696,0.122976,0.027328,3.84125,3.255,-6.18625,45.04,0.688,55.992004,concentric,3,3.0,20746.0,305069.0,275561.0,322738.0,283245.0
2026-04-07 17:54:02.757207,278522,1513143314,1513144571,-1.069696,0.122976,0.027328,4.165,2.72125,-5.95875,45.04,0.688,55.992004,concentric,3,3.0,20746.0,305069.0,275561.0,322738.0,283245.0
2026-04-07 17:54:02.806026,278523,1513152257,1513153327,-1.06384,0.119072,0.040992,3.85875,3.07125,-5.87125,44.888,0.544,54.872,concentric,3,3.0,20746.0,305069.0,275561.0,322738.0,283245.0
2026-04-07 17:54:02.809499,278524,1513161169,1513162078,-1.06384,0.119072,0.040992,3.395,2.93125,-5.3725,44.888,0.544,54.872,concentric,3,3.0,20746.0,305069.0,275561.0,322738.0,283245.0
2026-04-07 17:54:02.812045,278525,1513170155,1513170788,-1.069696,0.12688,0.044896,3.2375,2.82625,-5.5125,44.768,1.416,54.856003,concentric,3,3.0,20746.0,305069.0,275561.0,322738.0,283245.0
2026-04-07 17:54:02.814512,278526,1513184955,1513185693,-1.069696,0.12688,0.044896,4.03375,2.72125,-6.02875,44.768,1.416,54.856003,concentric,3,3.0,20746.0,305069.0,275561.0,322738.0,283245.0
2026-04-07 17:54:02.816973,278527,1513194315,1513196497,-1.071648,0.132736,0.035136,4.31375,2.75625,-6.27375,44.904003,1.224,55.568,concentric,3,3.0,20746.0,305069.0,275561.0,322738.0,283245.0
2026-04-07 17:54:02.844510,278538,1513203707,1513205442,-1.071648,0.132736,0.035136,3.43875,3.19375,-6.76375,44.904003,1.224,55.568,concentric,3,3.0,20859.0,305859.0,276195.0,323384.0,283781.0
2026-04-07 17:54:02.847086,278539,1513212822,1513214155,-1.069696,0.115168,0.021472,2.75625,3.26375,-6.76375,44.840004,1.376,56.032,concentric,3,3.0,20859.0,305859.0,276195.0,323384.0,283781.0
2026-04-07 17:54:02.849496,278540,1513227300,1513229065,-1.057984,0.10736,0.033184,2.35375,3.19375,-6.93,44.840004,1.376,56.008003,concentric,3,3.0,20859.0,305859.0,276195.0,323384.0,283781.0
2026-04-07 17:54:02.852010,278541,1513236203,1513237772,-1.057984,0.10736,0.033184,3.0625,3.57,-6.965,44.24,1.376,56.008003,concentric,3,3.0,20859.0,305859.0,276195.0,323384.0,283781.0
2026-04-07 17:54:02.855792,278542,1513245276,1513246517,-1.057984,0.10736,0.033184,3.52625,3.2025,-6.755,44.24,1.376,56.008003,concentric,3,3.0,20859.0,305859.0,276195.0,323384.0,283781.0
2026-04-07 17:54:02.885915,278543,1513259698,1513261447,-1.069696,0.122976,0.023424,3.815,3.1325,-6.23875,44.688004,0.88,56.096004,concentric,3,3.0,20859.0,305859.0,276195.0,323384.0,283781.0
2026-04-07 17:54:02.889455,278544,1513268597,1513270167,-1.065792,0.124928,0.023424,4.26125,2.56375,-5.88,44.712,1.368,54.648003,concentric,3,3.0,20859.0,305859.0,276195.0,323384.0,283781.0
2026-04-07 17:54:02.892031,278545,1513277564,1513278845,-1.065792,0.124928,0.023424,4.33125,2.7475,-6.08125,44.712,1.368,54.648003,concentric,3,3.0,20859.0,305859.0,276195.0,323384.0,283781.0
2026-04-07 17:54:02.922247,278546,1513292027,1513293794,-1.067744,0.128832,0.033184,4.4975,2.94875,-5.87125,44.72,0.92,56.368004,concentric,3,3.0,20859.0,305859.0,276195.0,323384.0,283781.0
2026-04-07 17:54:02.948208,278556,1513300950,1513302453,-1.067744,0.128832,0.033184,4.0425,2.61625,-6.16,44.72,0.92,56.368004,concentric,3,3.0,20881.0,305964.0,276189.0,323364.0,283768.0
2026-04-07 17:54:02.950755,278557,1513310281,1513311203,-1.0736,0.119072,0.01952,4.5675,2.82625,-6.16875,44.896004,1.136,55.176003,concentric,3,3.0,20881.0,305964.0,276189.0,323364.0,283768.0
2026-04-07 17:54:02.953327,278558,1513319180,1513319937,-1.0736,0.119072,0.01952,4.41,2.8525,-5.99375,44.896004,1.136,55.176003,concentric,3,3.0,20881.0,305964.0,276189.0,323364.0,283768.0
2026-04-07 17:54:02.955767,278559,1513334268,1513334911,-1.06384,0.119072,0.021472,4.19125,3.05375,-6.18625,45.104004,0.792,54.928,concentric,3,3.0,20881.0,305964.0,276189.0,323364.0,283768.0
2026-04-07 17:54:02.958251,278560,1513343531,1513345651,-1.06384,0.119072,0.021472,5.03125,2.77375,-5.74875,45.104004,0.792,54.928,concentric,3,3.0,20881.0,305964.0,276189.0,323364.0,283768.0
2026-04-07 17:54:02.988511,278561,1513352473,1513354654,-1.075552,0.122976,0.015616,4.96125,3.14125,-5.43375,45.728,1.112,54.960003,concentric,3,3.0,20881.0,305964.0,276189.0,323364.0,283768.0
2026-04-07 17:54:02.995771,278562,1513366949,1513367507,-1.075552,0.122976,0.015616,4.6375,3.00125,-5.3025,45.728,1.112,54.960003,concentric,3,3.0,20881.0,305964.0,276189.0,323364.0,283768.0
2026-04-07 17:54:02.999118,278563,1513376087,1513378305,-1.057984,0.111264,0.011712,4.69,3.2025,-5.3025,44.976,0.776,55.536003,concentric,3,3.0,20881.0,305964.0,276189.0,323364.0,283768.0
2026-04-07 17:54:03.000783,278564,1513384998,1513386999,-1.057984,0.111264,0.011712,5.39,3.29875,-5.5825,44.976,0.776,55.536003,concentric,3,3.0,20881.0,305964.0,276189.0,323364.0,283768.0
2026-04-07 17:54:03.007035,278565,1513394052,1513395710,-1.056032,0.113216,0.033184,6.1775,3.7275,-5.7225,45.096,1.064,55.544003,concentric,3,3.0,20881.0,305964.0,276189.0,323364.0,283768.0
2026-04-07 17:54:03.041973,278575,1513408582,1513410732,-1.071648,0.132736,0.023424,8.11125,3.745,-6.16,44.632004,0.824,56.760002,concentric,3,3.0,20905.0,306102.0,276222.0,323344.0,283765.0
2026-04-07 17:54:03.050769,278576,1513417553,1513419467,-1.071648,0.132736,0.023424,8.05,4.17375,-5.90625,44.632004,0.824,56.760002,concentric,3,3.0,20905.0,306102.0,276222.0,323344.0,283765.0
2026-04-07 17:54:03.060908,278577,1513426594,1513428174,-1.071648,0.132736,0.023424,7.105,4.83875,-5.145,44.632004,0.824,56.760002,concentric,3,3.0,20905.0,306102.0,276222.0,323344.0,283765.0
2026-04-07 17:54:03.063365,278578,1513441115,1513443071,-1.069696,0.128832,0.00976,6.74625,5.2325,-5.18875,45.320004,1.016,55.232002,concentric,3,3.0,20905.0,306102.0,276222.0,323344.0,283765.0
2026-04-07 17:54:03.065778,278579,1513450102,1513451835,-1.071648,0.109312,0.011712,5.87125,4.5675,-5.3375,43.512,0.784,57.488003,concentric,3,3.0,20905.0,306102.0,276222.0,323344.0,283765.0
2026-04-07 17:54:03.070773,278580,1513459052,1513460562,-1.071648,0.109312,0.011712,5.8625,4.7075,-5.705,43.512,0.784,57.488003,concentric,3,3.0,20905.0,306102.0,276222.0,323344.0,283765.0
2026-04-07 17:54:03.100940,278581,1513473531,1513475453,-1.075552,0.119072,0.007808,6.64125,4.40125,-5.69625,44.68,0.832,56.760002,concentric,3,3.0,20905.0,306102.0,276222.0,323344.0,283765.0
2026-04-07 17:54:03.104484,278582,1513482503,1513484150,-1.075552,0.119072,0.007808,7.4725,4.3225,-5.45125,44.68,0.832,56.760002,concentric,3,3.0,20905.0,306102.0,276222.0,323344.0,283765.0
2026-04-07 17:54:03.106990,278583,1513491422,1513492851,-1.059936,0.121024,0.025376,8.225,3.78875,-5.34625,45.672,1.152,57.680004,concentric,3,3.0,20905.0,306102.0,276222.0,323344.0,283765.0
2026-04-07 17:54:03.112045,278584,1513500361,1513501581,-1.059936,0.121024,0.025376,8.30375,3.71,-5.62625,45.672,1.152,57.680004,concentric,3,3.0,20905.0,306102.0,276222.0,323344.0,283765.0
2026-04-07 17:54:03.143317,278595,1513514974,1513516577,-1.079456,0.132736,0.017568,8.435,4.12125,-5.45125,44.608,0.944,55.56,concentric,3,3.0,20939.0,306281.0,276336.0,323476.0,283892.0
2026-04-07 17:54:03.145745,278596,1513523930,1513525314,-1.079456,0.132736,0.017568,8.68,4.5675,-5.5825,44.608,0.944,55.56,concentric,3,3.0,20939.0,306281.0,276336.0,323476.0,283892.0
2026-04-07 17:54:03.148256,278597,1513532912,1513534011,-1.071648,0.132736,0.01952,8.88125,4.13,-5.18875,44.760002,0.472,56.520004,concentric,3,3.0,20939.0,306281.0,276336.0,323476.0,283892.0
2026-04-07 17:54:03.178473,278598,1513547509,1513548973,-1.071648,0.132736,0.01952,9.17875,4.6025,-5.83625,44.760002,0.472,56.520004,concentric,3,3.0,20939.0,306281.0,276336.0,323476.0,283892.0
2026-04-07 17:54:03.181970,278599,1513556410,1513557690,-1.071648,0.124928,0.007808,9.24,4.585,-6.37875,45.288002,0.952,55.576004,concentric,3,3.0,20939.0,306281.0,276336.0,323476.0,283892.0
2026-04-07 17:54:03.184529,278600,1513565335,1513566414,-1.071648,0.124928,0.007808,8.12,4.69875,-6.0725,45.288002,0.952,55.576004,concentric,3,3.0,20939.0,306281.0,276336.0,323476.0,283892.0
2026-04-07 17:54:03.214704,278601,1513579892,1513581311,-1.077504,0.122976,0.005856,8.56625,4.9175,-6.25625,45.272003,-0.104,55.416004,concentric,3,3.0,20939.0,306281.0,276336.0,323476.0,283892.0
2026-04-07 17:54:03.218423,278602,1513588805,1513590062,-1.071648,0.122976,0.013664,9.49375,4.59375,-5.6875,45.272003,-0.104,55.520004,concentric,3,3.0,20939.0,306281.0,276336.0,323476.0,283892.0
2026-04-07 17:54:03.220833,278603,1513597804,1513598804,-1.071648,0.122976,0.013664,10.52625,4.06,-5.495,45.352,0.232,55.520004,concentric,3,3.0,20939.0,306281.0,276336.0,323476.0,283892.0
2026-04-07 17:54:03.251987,278613,1513606972,1513607607,-1.071648,0.122976,0.013664,10.1325,4.15625,-5.1975,45.352,0.232,55.520004,concentric,3,3.0,20915.0,306075.0,276154.0,323258.0,283658.0
2026-04-07 17:54:03.254497,278614,1513621813,1513622536,-1.08336,0.128832,0.021472,9.511251,4.165,-5.1975,44.24,0.184,55.576004,concentric,3,3.0,20915.0,306075.0,276154.0,323258.0,283658.0
2026-04-07 17:54:03.256990,278615,1513631234,1513633366,-1.085312,0.124928,0.013664,8.82,4.24375,-4.865,44.320004,-0.264,56.952003,concentric,3,3.0,20915.0,306075.0,276154.0,323258.0,283658.0
2026-04-07 17:54:03.259532,278616,1513640221,1513642095,-1.085312,0.124928,0.013664,8.58375,3.9375,-4.7075,44.320004,-0.264,56.952003,concentric,3,3.0,20915.0,306075.0,276154.0,323258.0,283658.0
2026-04-07 17:54:03.262019,278617,1513649173,1513650782,-1.087264,0.134688,0.01952,8.61,4.52375,-4.33125,44.320004,1.784,56.08,concentric,3,3.0,20915.0,306075.0,276154.0,323258.0,283658.0
2026-04-07 17:54:03.292182,278618,1513663791,1513665668,-1.087264,0.134688,0.01952,8.33,4.69875,-4.235,45.296,0.632,56.08,concentric,3,3.0,20915.0,306075.0,276154.0,323258.0,283658.0
2026-04-07 17:54:03.295716,278619,1513672798,1513674403,-1.091168,0.134688,0.015616,7.91875,4.66375,-4.50625,45.048,-0.368,55.384003,concentric,3,3.0,20915.0,306075.0,276154.0,323258.0,283658.0
2026-04-07 17:54:03.298436,278620,1513681722,1513683099,-1.091168,0.134688,0.015616,7.07,4.935,-4.83,45.048,-0.368,55.384003,concentric,3,3.0,20915.0,306075.0,276154.0,323258.0,283658.0
2026-04-07 17:54:03.332233,278621,1513696253,1513697997,-1.104832,0.124928,0.00976,6.195,4.9525,-4.3575,45.056004,-0.096,56.08,concentric,3,3.0,20915.0,306075.0,276154.0,323258.0,283658.0
2026-04-07 17:54:03.358257,278631,1513705664,1513706739,-1.104832,0.124928,0.00976,7.105,5.425,-4.5675,45.056004,-0.096,56.08,concentric,3,3.0,20941.0,306432.0,276442.0,323567.0,283966.0
2026-04-07 17:54:03.360758,278632,1513714718,1513715483,-1.09312,0.11712,0.013664,7.35,5.3025,-4.80375,45.296,0.064,55.416004,concentric,3,3.0,20941.0,306432.0,276442.0,323567.0,283966.0
2026-04-07 17:54:03.363249,278633,1513724123,1513726224,-1.09312,0.11712,0.013664,6.7725,5.5125,-4.62,45.296,0.064,55.416004,concentric,3,3.0,20941.0,306432.0,276442.0,323567.0,283966.0
2026-04-07 17:54:03.365720,278634,1513738669,1513739099,-1.098976,0.11712,0.021472,6.48375,5.25,-4.19125,45.04,-0.544,58.496002,concentric,3,3.0,20941.0,306432.0,276442.0,323567.0,283966.0
2026-04-07 17:54:03.368245,278635,1513747977,1513749931,-1.098976,0.11712,0.021472,5.4425,4.8125,-3.57875,45.04,-0.544,58.496002,concentric,3,3.0,20941.0,306432.0,276442.0,323567.0,283966.0
2026-04-07 17:54:03.370759,278636,1513756981,1513758713,-1.081408,0.11712,0.00976,5.27625,4.095,-3.1675,44.216003,0.176,58.856003,concentric,3,3.0,20941.0,306432.0,276442.0,323567.0,283966.0
2026-04-07 17:54:03.400955,278637,1513771484,1513773621,-1.081408,0.132736,0.013664,5.705,4.0075,-3.08,44.928,-0.504,57.56,concentric,3,3.0,20941.0,306432.0,276442.0,323567.0,283966.0
2026-04-07 17:54:03.404500,278638,1513780455,1513782300,-1.081408,0.132736,0.013664,6.1425,4.585,-3.0275,44.928,-0.504,57.56,concentric,3,3.0,20941.0,306432.0,276442.0,323567.0,283966.0
2026-04-07 17:54:03.406996,278639,1513789405,1513791016,-1.081408,0.132736,0.01952,6.57125,4.36625,-3.36875,44.928,-0.504,57.56,concentric,3,3.0,20941.0,306432.0,276442.0,323567.0,283966.0
2026-04-07 17:54:03.409573,278640,1513798317,1513799763,-1.0736,0.132736,0.01952,7.25375,4.0425,-3.4825,44.336002,-0.88,58.152004,concentric,3,3.0,20941.0,306432.0,276442.0,323567.0,283966.0
2026-04-07 17:54:03.454563,278651,1513813308,1513814987,-1.089216,0.124928,0.035136,6.76375,4.1475,-3.92875,44.944,-0.944,56.552002,concentric,3,3.0,20959.0,306391.0,276449.0,323574.0,284022.0
2026-04-07 17:54:03.456983,278652,1513822256,1513823727,-1.089216,0.124928,0.035136,5.8625,4.7775,-3.955,44.944,-0.944,56.552002,concentric,3,3.0,20959.0,306391.0,276449.0,323574.0,284022.0
2026-04-07 17:54:03.459677,278653,1513831172,1513832421,-1.138016,0.13664,0.013664,6.265,5.45125,-3.85875,45.384003,0.16,55.416004,concentric,3,3.0,20959.0,306391.0,276449.0,323574.0,284022.0
2026-04-07 17:54:03.462066,278654,1513845745,1513847425,-1.138016,0.13664,0.013664,7.49,5.74875,-4.43625,45.384003,0.16,55.416004,concentric,3,3.0,20959.0,306391.0,276449.0,323574.0,284022.0
2026-04-07 17:54:03.465751,278655,1513854706,1513856132,-1.182912,0.160064,0.01952,9.1875,6.22125,-5.8275,44.960003,-0.368,57.920002,concentric,3,3.0,20959.0,306391.0,276449.0,323574.0,284022.0
2026-04-07 17:54:03.496002,278656,1513863618,1513864912,-1.182912,0.160064,0.01952,10.01,6.64125,-6.6325,44.960003,-0.368,57.920002,concentric,3,3.0,20959.0,306391.0,276449.0,323574.0,284022.0
2026-04-07 17:54:03.499521,278657,1513878114,1513879806,-1.235616,0.167872,0.021472,10.01875,7.07,-7.41125,45.176003,-0.704,59.328003,concentric,3,3.0,20959.0,306391.0,276449.0,323574.0,284022.0
2026-04-07 17:54:03.501992,278658,1513887046,1513888429,-1.235616,0.167872,0.021472,9.8525,8.67125,-8.88125,45.176003,-0.704,59.328003,concentric,3,3.0,20959.0,306391.0,276449.0,323574.0,284022.0
2026-04-07 17:54:03.507052,278659,1513895980,1513897166,-1.29808,0.121024,-0.005856,8.30375,10.71875,-9.03,45.008003,-1.064,59.056004,concentric,3,3.0,20959.0,306391.0,276449.0,323574.0,284022.0
2026-04-07 17:54:03.560822,278669,1513904928,1513905877,-1.29808,0.121024,-0.005856,6.8075,11.78625,-9.31875,45.008003,-1.064,59.056004,concentric,3,3.0,20858.0,305450.0,275631.0,322682.0,283347.0
2026-04-07 17:54:03.565113,278670,1513919452,1513920842,-1.378112,0.101504,0.033184,8.636251,11.9,-10.2025,44.416,-0.96,59.4,concentric,3,3.0,20858.0,305450.0,275631.0,322682.0,283347.0
2026-04-07 17:54:03.566760,278671,1513930372,1513931759,-1.393728,0.13664,0.06832,11.917501,10.4475,-10.167501,44.416,-0.96,55.088,concentric,3,3.0,20858.0,305450.0,275631.0,322682.0,283347.0
2026-04-07 17:54:03.569189,278672,1513939327,1513940501,-1.391776,0.13664,0.06832,12.9675,8.09375,-8.61875,45.864002,-0.136,55.088,concentric,3,3.0,20858.0,305450.0,275631.0,322682.0,283347.0
2026-04-07 17:54:03.570815,278673,1513948282,1513949208,-1.391776,0.13664,0.06832,9.8,6.90375,-6.44875,45.864002,-0.136,55.088,concentric,3,3.0,20858.0,305450.0,275631.0,322682.0,283347.0
2026-04-07 17:54:03.575844,278674,1513962789,1513964120,-1.409344,0.121024,0.06832,3.12375,5.95875,-4.99625,46.216003,-0.624,55.552002,concentric,3,3.0,20858.0,305450.0,275631.0,322682.0,283347.0
2026-04-07 17:54:03.581980,278675,1513971717,1513972886,-1.397632,0.128832,0.052704,-1.4175,5.13625,-3.6225,45.648003,-0.256,56.152004,concentric,3,3.0,20858.0,305450.0,275631.0,322682.0,283347.0
2026-04-07 17:54:03.615941,278676,1513980652,1513981581,-1.397632,0.128832,0.052704,-2.54625,4.03375,-2.87,45.648003,-0.256,56.152004,concentric,3,3.0,20858.0,305450.0,275631.0,322682.0,283347.0
2026-04-07 17:54:03.619797,278677,1513995150,1513996500,-1.393728,0.177632,0.066368,-2.21375,3.26375,-3.52625,45.584003,-0.208,55.344,concentric,3,3.0,20858.0,305450.0,275631.0,322682.0,283347.0
2026-04-07 17:54:03.644517,278687,1514004050,1514005572,-1.393728,0.177632,0.066368,-1.33875,2.555,-3.78875,45.584003,-0.208,55.344,concentric,3,3.0,21143.0,307666.0,277285.0,324310.0,284774.0
2026-04-07 17:54:03.647091,278688,1514013025,1514014281,-1.399584,0.191296,0.080032,-1.19875,1.82,-4.05125,45.304,-0.376,55.192,concentric,3,3.0,21143.0,307666.0,277285.0,324310.0,284774.0
2026-04-07 17:54:03.649486,278689,1514027548,1514029209,-1.399584,0.191296,0.080032,-2.1525,1.3825,-4.9875,45.304,-0.376,55.192,concentric,3,3.0,21143.0,307666.0,277285.0,324310.0,284774.0
2026-04-07 17:54:03.652003,278690,1514036490,1514037952,-1.382016,0.144448,0.083936,-3.94625,0.69125,-5.11,45.088,-0.512,55.24,concentric,3,3.0,21143.0,307666.0,277285.0,324310.0,284774.0
2026-04-07 17:54:03.657044,278691,1514045495,1514046755,-1.382016,0.144448,0.083936,-5.48625,0.41125,-6.25625,45.088,-0.512,55.24,concentric,3,3.0,21143.0,307666.0,277285.0,324310.0,284774.0
