pc_time,serial_num,sensor_ts,host_ts,ax,ay,az,gx,gy,gz,mx,my,mz,phase,rpe,weight_kg,ppg_a,ppg_b,ppg_c,ppg_d,ppg_e
2026-04-07 17:54:36.459560,284808,1546827370,1546829498,-1.27856,0.085888,0.062464,-4.83875,5.4075,-3.47375,44.08,7.384,52.536003,eccentric,3,3.0,20345.0,301515.0,272759.0,320352.0,281413.0
2026-04-07 17:54:36.463055,284809,1546836278,1546838180,-1.27856,0.085888,0.062464,-3.7975,4.9525,-2.91375,44.08,7.384,52.536003,eccentric,3,3.0,20345.0,301515.0,272759.0,320352.0,281413.0
2026-04-07 17:54:36.465518,284810,1546850774,1546851094,-1.282464,0.121024,0.046848,-4.76875,4.87375,-1.77625,44.544003,7.088,51.968002,eccentric,3,3.0,20345.0,301515.0,272759.0,320352.0,281413.0
2026-04-07 17:54:36.495764,284811,1546860033,1546861886,-1.270752,0.115168,0.040992,-6.6325,5.06625,-0.4375,44.104004,7.328001,53.744003,eccentric,3,3.0,20345.0,301515.0,272759.0,320352.0,281413.0
2026-04-07 17:54:36.499449,284812,1546868949,1546870583,-1.270752,0.115168,0.040992,-8.12,5.1975,-0.27125,44.104004,7.328001,53.744003,eccentric,3,3.0,20345.0,301515.0,272759.0,320352.0,281413.0
2026-04-07 17:54:36.501926,284813,1546877902,1546879254,-1.270752,0.109312,0.056608,-8.1025,5.355,-0.28,44.104004,7.328001,49.648003,eccentric,3,3.0,20345.0,301515.0,272759.0,320352.0,281413.0
2026-04-07 17:54:36.546758,284824,1546893013,1546894244,-1.25904,0.109312,0.056608,-6.9825,4.34,-0.37625,44.304,7.328001,49.912003,eccentric,3,3.0,20504.0,302937.0,273856.0,321465.0,282379.0
2026-04-07 17:54:36.549248,284825,1546902054,1546903000,-1.243424,0.091744,0.050752,-5.67,3.7975,-0.8925,44.168003,7.784,52.584003,eccentric,3,3.0,20504.0,302937.0,273856.0,321465.0,282379.0
2026-04-07 17:54:36.551878,284826,1546911013,1546911768,-1.243424,0.091744,0.050752,-4.0425,3.70125,-1.58375,44.168003,7.784,52.584003,eccentric,3,3.0,20504.0,302937.0,273856.0,321465.0,282379.0
2026-04-07 17:54:36.561769,284827,1546920378,1546922510,-1.22,0.109312,0.0488,-1.96875,4.2175,-1.58375,43.896004,7.296001,52.4,eccentric,3,3.0,20504.0,302937.0,273856.0,321465.0,282379.0
2026-04-07 17:54:36.564569,284828,1546935010,1546935406,-1.22,0.109312,0.0488,-0.525,4.2525,-1.3125,43.896004,7.296001,52.4,eccentric,3,3.0,20504.0,302937.0,273856.0,321465.0,282379.0
2026-04-07 17:54:36.566766,284829,1546944348,1546946195,-1.20048,0.115168,0.040992,-1.8375,4.08625,-1.12875,44.592003,7.496,52.800003,eccentric,3,3.0,20504.0,302937.0,273856.0,321465.0,282379.0
2026-04-07 17:54:36.569230,284830,1546953312,1546954909,-1.20048,0.115168,0.040992,-5.10125,3.92875,-0.8575,44.592003,7.496,52.800003,eccentric,3,3.0,20504.0,302937.0,273856.0,321465.0,282379.0
2026-04-07 17:54:36.599640,284831,1546967821,1546969831,-1.184864,0.095648,0.033184,-7.58625,3.7275,-1.5925,43.56,7.848001,52.384003,eccentric,3,3.0,20504.0,302937.0,273856.0,321465.0,282379.0
2026-04-07 17:54:36.603248,284832,1546976741,1546978559,-1.184864,0.095648,0.033184,-7.9625,3.07125,-1.8375,43.56,7.848001,52.384003,eccentric,3,3.0,20504.0,302937.0,273856.0,321465.0,282379.0
2026-04-07 17:54:36.605679,284833,1546985655,1546987258,-1.177056,0.083936,0.025376,-7.58625,2.975,-1.645,44.064003,7.928001,53.824,eccentric,3,3.0,20504.0,302937.0,273856.0,321465.0,282379.0
2026-04-07 17:54:36.634508,284843,1546994652,1546995965,-1.177056,0.083936,0.025376,-6.1425,2.56375,-1.88125,44.064003,7.928001,53.824,eccentric,3,3.0,20731.0,304836.0,275252.0,322909.0,283529.0
2026-04-07 17:54:36.637735,284844,1547009189,1547010932,-1.159488,0.10736,0.017568,-3.675,2.485,-2.03,43.704002,7.520001,51.768,eccentric,3,3.0,20731.0,304836.0,275252.0,322909.0,283529.0
2026-04-07 17:54:36.639317,284845,1547018196,1547019629,-1.159488,0.10736,0.03904,-2.84375,2.31,-2.28375,43.704002,7.520001,51.768,eccentric,3,3.0,20731.0,304836.0,275252.0,322909.0,283529.0
2026-04-07 17:54:36.643455,284846,1547027135,1547028366,-1.149728,0.10736,0.03904,-3.08875,1.6975,-2.1875,43.888,7.808001,52.928,eccentric,3,3.0,20731.0,304836.0,275252.0,322909.0,283529.0
2026-04-07 17:54:36.687808,284847,1547041589,1547043309,-1.136064,0.08784,0.0488,-3.08,1.44375,-2.065,44.432003,8.280001,52.016003,eccentric,3,3.0,20731.0,304836.0,275252.0,322909.0,283529.0
2026-04-07 17:54:36.692346,284848,1547050609,1547051989,-1.136064,0.08784,0.0488,-3.605,0.63875,-1.68875,44.432003,8.280001,52.016003,eccentric,3,3.0,20731.0,304836.0,275252.0,322909.0,283529.0
2026-04-07 17:54:36.694103,284849,1547059533,1547060696,-1.114592,0.080032,0.023424,-3.605,-0.175,-0.70875,43.608,8.056001,50.808002,eccentric,3,3.0,20731.0,304836.0,275252.0,322909.0,283529.0
2026-04-07 17:54:36.695757,284850,1547074055,1547075616,-1.114592,0.080032,0.023424,-3.115,-0.83125,-0.4375,43.608,8.056001,50.808002,eccentric,3,3.0,20731.0,304836.0,275252.0,322909.0,283529.0
2026-04-07 17:54:36.699696,284851,1547082988,1547084315,-1.110688,0.081984,0.013664,-4.0075,-1.53125,0.32375,43.72,8.048,51.224003,eccentric,3,3.0,20731.0,304836.0,275252.0,322909.0,283529.0
2026-04-07 17:54:36.747475,284861,1547091977,1547093212,-1.110688,0.081984,0.013664,-5.38125,-1.47,0.37625,43.72,8.048,51.224003,eccentric,3,3.0,20892.0,305919.0,276087.0,323703.0,284063.0
2026-04-07 17:54:36.749055,284862,1547101114,1547102071,-1.116544,0.081984,0.00976,-4.795,-1.72375,0.70875,43.256,8.272,53.136,eccentric,3,3.0,20892.0,305919.0,276087.0,323703.0,284063.0
2026-04-07 17:54:36.750625,284863,1547115623,1547117064,-1.116544,0.081984,0.00976,-3.0275,-1.505,1.02375,43.256,8.272,53.136,eccentric,3,3.0,20892.0,305919.0,276087.0,323703.0,284063.0
2026-04-07 17:54:36.754864,284864,1547124538,1547125797,-1.098976,0.093696,0.031232,-0.9625,-1.4,0.67375,43.320004,8.456,50.752003,eccentric,3,3.0,20892.0,305919.0,276087.0,323703.0,284063.0
2026-04-07 17:54:36.756527,284865,1547133457,1547134571,-1.098976,0.093696,0.031232,1.1025,-2.35375,0.7,43.320004,8.456,50.752003,eccentric,3,3.0,20892.0,305919.0,276087.0,323703.0,284063.0
2026-04-07 17:54:36.762190,284866,1547147983,1547149483,-1.09312,0.101504,0.03904,1.88125,-2.61625,0.53375,43.536003,8.104,50.984,eccentric,3,3.0,20892.0,305919.0,276087.0,323703.0,284063.0
2026-04-07 17:54:36.770959,284867,1547156924,1547158228,-1.09312,0.101504,0.03904,2.14375,-2.8175,0.63875,43.536003,8.104,50.984,eccentric,3,3.0,20892.0,305919.0,276087.0,323703.0,284063.0
2026-04-07 17:54:36.799456,284868,1547165856,1547166935,-1.104832,0.101504,0.033184,2.065,-2.7475,0.18375,42.328003,7.792,53.648003,eccentric,3,3.0,20892.0,305919.0,276087.0,323703.0,284063.0
2026-04-07 17:54:36.804009,284869,1547180468,1547181796,-1.079456,0.095648,0.015616,2.52875,-3.01875,-0.46375,42.248,7.896,52.424004,eccentric,3,3.0,20892.0,305919.0,276087.0,323703.0,284063.0
2026-04-07 17:54:36.806295,284870,1547189375,1547190499,-1.079456,0.095648,0.015616,5.32,-2.96625,-1.435,42.248,7.896,52.424004,eccentric,3,3.0,20892.0,305919.0,276087.0,323703.0,284063.0
2026-04-07 17:54:36.833663,284881,1547198376,1547199264,-1.079456,0.095648,0.015616,8.09375,-2.1525,-2.05625,42.248,7.896,52.424004,eccentric,3,3.0,21195.0,308379.0,277914.0,325534.0,285521.0
2026-04-07 17:54:36.839292,284882,1547213103,1547214219,-1.050176,0.111264,0.017568,8.9075,-1.44375,-3.22,42.656002,8.264,51.888004,eccentric,3,3.0,21195.0,308379.0,277914.0,325534.0,285521.0
2026-04-07 17:54:36.841832,284883,1547222037,1547222930,-1.061888,0.130784,0.025376,9.765,-0.48125,-4.10375,43.192,8.096001,51.664,eccentric,3,3.0,21195.0,308379.0,277914.0,325534.0,285521.0
2026-04-07 17:54:36.844330,284884,1547231010,1547231644,-1.061888,0.130784,0.025376,10.17625,0.34125,-4.5675,43.192,8.096001,51.664,eccentric,3,3.0,21195.0,308379.0,277914.0,325534.0,285521.0
2026-04-07 17:54:36.874498,284885,1547240303,1547242470,-1.057984,0.121024,0.025376,8.645,0.6125,-4.0775,42.776,7.592001,52.056004,eccentric,3,3.0,21195.0,308379.0,277914.0,325534.0,285521.0
2026-04-07 17:54:36.878029,284886,1547254810,1547255323,-1.057984,0.121024,0.025376,7.1925,0.97125,-3.24625,42.776,7.592001,52.056004,eccentric,3,3.0,21195.0,308379.0,277914.0,325534.0,285521.0
2026-04-07 17:54:36.880590,284887,1547264236,1547266087,-1.046272,0.095648,0.025376,6.88625,1.32125,-2.94,42.84,7.824,53.768,eccentric,3,3.0,21195.0,308379.0,277914.0,325534.0,285521.0
2026-04-07 17:54:36.886799,284888,1547273196,1547274824,-1.046272,0.095648,0.025376,8.16375,1.82,-3.325,42.84,7.824,53.768,eccentric,3,3.0,21195.0,308379.0,277914.0,325534.0,285521.0
2026-04-07 17:54:36.917580,284889,1547282140,1547283524,-1.007232,0.093696,0.042944,9.93125,1.23375,-3.4475,42.832,8.248,51.800003,eccentric,3,3.0,21195.0,308379.0,277914.0,325534.0,285521.0
2026-04-07 17:54:36.946819,284899,1547296782,1547298530,-1.007232,0.093696,0.042944,10.823751,1.14625,-3.78875,42.832,8.248,51.800003,eccentric,3,3.0,21415.0,310091.0,279170.0,326678.0,286229.0
2026-04-07 17:54:36.949367,284900,1547305726,1547307232,-0.979904,0.0976,0.040992,9.24875,1.04125,-3.35125,41.824,7.728,53.896004,eccentric,3,3.0,21415.0,310091.0,279170.0,326678.0,286229.0
2026-04-07 17:54:36.951790,284901,1547314734,1547315923,-0.979904,0.0976,0.040992,6.37,1.42625,-2.3975,41.824,7.728,53.896004,eccentric,3,3.0,21415.0,310091.0,279170.0,326678.0,286229.0
2026-04-07 17:54:36.954439,284902,1547329344,1547330825,-0.962336,0.074176,-0.007808,3.03625,0.23625,-0.74375,41.688004,7.616,52.624004,eccentric,3,3.0,21415.0,310091.0,279170.0,326678.0,286229.0
2026-04-07 17:54:36.989523,284903,1547338308,1547339536,-0.962336,0.074176,-0.007808,1.28625,0.28,-0.2625,41.688004,7.616,52.624004,eccentric,3,3.0,21415.0,310091.0,279170.0,326678.0,286229.0
2026-04-07 17:54:36.993092,284904,1547347218,1547348318,-0.950624,0.06832,-0.025376,2.49375,-0.6825,-0.035,41.832,8.160001,50.312004,eccentric,3,3.0,21415.0,310091.0,279170.0,326678.0,286229.0
2026-04-07 17:54:36.995826,284905,1547361754,1547363207,-0.919392,0.076128,-0.027328,6.1075,-2.00375,0.60375,42.216003,8.304001,54.064003,eccentric,3,3.0,21415.0,310091.0,279170.0,326678.0,286229.0
2026-04-07 17:54:36.998248,284906,1547370689,1547371961,-0.919392,0.076128,-0.027328,11.57625,-2.9225,0.315,42.216003,8.304001,54.064003,eccentric,3,3.0,21415.0,310091.0,279170.0,326678.0,286229.0
2026-04-07 17:54:37.000574,284907,1547379624,1547380680,-0.919392,0.076128,0.01952,15.28625,-3.00125,-0.72625,42.216003,8.304001,54.064003,eccentric,3,3.0,21415.0,310091.0,279170.0,326678.0,286229.0
2026-04-07 17:54:37.026884,284917,1547394616,1547395654,-0.890112,0.111264,0.027328,17.42125,-3.465,-1.3125,41.632004,7.848001,53.160004,eccentric,3,3.0,21466.0,310415.0,279365.0,326776.0,286207.0
2026-04-07 17:54:37.029318,284918,1547403840,1547404442,-0.894016,0.095648,0.015616,15.37375,-3.92875,-2.12625,43.064003,8.632,49.88,eccentric,3,3.0,21466.0,310415.0,279365.0,326776.0,286207.0
2026-04-07 17:54:37.031809,284919,1547413080,1547415287,-0.894016,0.095648,0.015616,12.45125,-4.9,-1.75875,43.064003,8.632,49.88,eccentric,3,3.0,21466.0,310415.0,279365.0,326776.0,286207.0
2026-04-07 17:54:37.034662,284920,1547422040,1547423995,-0.872544,0.064416,0.001952,12.25875,-5.80125,-1.33,42.184002,8.352,48.272003,eccentric,3,3.0,21466.0,310415.0,279365.0,326776.0,286207.0
2026-04-07 17:54:37.067029,284921,1547436541,1547436909,-0.872544,0.064416,0.001952,12.67875,-5.24125,-1.155,42.184002,8.352,48.272003,eccentric,3,3.0,21466.0,310415.0,279365.0,326776.0,286207.0
2026-04-07 17:54:37.070567,284922,1547445788,1547447665,-0.8784,0.070272,-0.005856,11.5325,-4.59375,-1.56625,42.776,8.104,50.2,eccentric,3,3.0,21466.0,310415.0,279365.0,326776.0,286207.0
2026-04-07 17:54:37.073064,284923,1547454733,1547456352,-0.8784,0.070272,-0.005856,12.53875,-5.38125,-1.855,42.776,8.104,50.2,eccentric,3,3.0,21466.0,310415.0,279365.0,326776.0,286207.0
2026-04-07 17:54:37.075794,284924,1547463640,1547465097,-0.862784,0.089792,-0.001952,13.50125,-5.6875,-1.58375,42.184002,7.12,50.048004,eccentric,3,3.0,21466.0,310415.0,279365.0,326776.0,286207.0
2026-04-07 17:54:37.105804,284925,1547478071,1547479987,-0.862784,0.089792,-0.001952,12.95875,-4.90875,-1.2075,42.184002,7.12,50.048004,eccentric,3,3.0,21466.0,310415.0,279365.0,326776.0,286207.0
2026-04-07 17:54:37.109367,284926,1547486969,1547488710,-0.841312,0.091744,0.056608,13.0375,-3.5875,-1.855,42.328003,7.376,49.800003,eccentric,3,3.0,21466.0,310415.0,279365.0,326776.0,286207.0
2026-04-07 17:54:37.140676,284937,1547496482,1547497528,-0.841312,0.091744,0.056608,13.13375,-2.66,-2.4325,42.328003,7.376,49.800003,eccentric,3,3.0,21572.0,311615.0,280471.0,328077.0,287186.0
2026-04-07 17:54:37.143252,284938,1547511094,1547512466,-0.798368,0.081984,0.064416,11.48875,-2.45875,-2.66875,42.176003,7.512001,51.248,eccentric,3,3.0,21572.0,311615.0,280471.0,328077.0,287186.0
2026-04-07 17:54:37.145607,284939,1547520082,1547521166,-0.798368,0.081984,0.064416,8.198751,-1.295,-3.08875,42.176003,7.512001,51.248,eccentric,3,3.0,21572.0,311615.0,280471.0,328077.0,287186.0
2026-04-07 17:54:37.148089,284940,1547529016,1547529875,-0.747616,0.046848,0.040992,7.0875,-0.18375,-2.695,41.712,7.344,51.856003,eccentric,3,3.0,21572.0,311615.0,280471.0,328077.0,287186.0
2026-04-07 17:54:37.150541,284941,1547537971,1547538646,-0.747616,0.046848,0.040992,7.175,0.46375,-2.65125,41.712,7.344,51.856003,eccentric,3,3.0,21572.0,311615.0,280471.0,328077.0,287186.0
2026-04-07 17:54:37.180816,284942,1547552771,1547553553,-0.745664,0.06832,0.037088,8.07625,1.33,-2.24,42.296,7.456,50.056004,eccentric,3,3.0,21572.0,311615.0,280471.0,328077.0,287186.0
2026-04-07 17:54:37.184333,284943,1547561704,1547562271,-0.757376,0.095648,-0.007808,7.53375,1.785,-2.275,42.024002,7.016,49.392002,eccentric,3,3.0,21572.0,311615.0,280471.0,328077.0,287186.0
2026-04-07 17:54:37.186858,284944,1547570942,1547573039,-0.757376,0.095648,-0.007808,4.0425,3.115,-1.46125,42.024002,7.016,49.392002,eccentric,3,3.0,21572.0,311615.0,280471.0,328077.0,287186.0
2026-04-07 17:54:37.217003,284945,1547585415,1547585910,-0.870592,0.12688,-0.0488,-0.90125,5.565,-1.19875,41.416,7.36,51.024002,eccentric,3,3.0,21572.0,311615.0,280471.0,328077.0,287186.0
2026-04-07 17:54:37.243097,284955,1547595350,1547596730,-0.870592,0.12688,-0.0488,-4.47125,8.225,-1.82,41.416,7.36,51.024002,eccentric,3,3.0,21127.0,308306.0,278027.0,325698.0,285043.0
2026-04-07 17:54:37.245614,284956,1547604363,1547605436,-1.032608,0.206912,-0.001952,-2.30125,10.45625,-4.025,42.776,7.632,49.608,eccentric,3,3.0,21127.0,308306.0,278027.0,325698.0,285043.0
2026-04-07 17:54:37.247995,284957,1547613271,1547614127,-1.032608,0.206912,-0.001952,2.24,10.745,-7.1925,42.776,7.632,49.608,eccentric,3,3.0,21127.0,308306.0,278027.0,325698.0,285043.0
2026-04-07 17:54:37.250593,284958,1547627810,1547629035,-1.110688,0.222528,0.070272,6.6675,10.63125,-10.85875,41.952003,7.328001,49.808002,eccentric,3,3.0,21127.0,308306.0,278027.0,325698.0,285043.0
2026-04-07 17:54:37.253100,284959,1547636695,1547637782,-1.110688,0.222528,0.070272,9.68625,10.03625,-14.84875,41.952003,7.328001,49.808002,eccentric,3,3.0,21127.0,308306.0,278027.0,325698.0,285043.0
2026-04-07 17:54:37.290447,284960,1547645625,1547646541,-1.15168,0.134688,0.076128,12.18875,9.24875,-18.87375,42.376003,7.512001,49.928,eccentric,3,3.0,21127.0,308306.0,278027.0,325698.0,285043.0
2026-04-07 17:54:37.294871,284961,1547660157,1547661458,-1.15168,0.134688,0.076128,16.28375,9.5725,-23.6775,42.376003,7.512001,49.928,eccentric,3,3.0,21127.0,308306.0,278027.0,325698.0,285043.0
2026-04-07 17:54:37.296559,284962,1547669043,1547670246,-1.139968,0.070272,0.070272,21.16625,10.78875,-28.0,42.752003,7.232,49.088,eccentric,3,3.0,21127.0,308306.0,278027.0,325698.0,285043.0
2026-04-07 17:54:37.298297,284963,1547677938,1547678927,-1.139968,0.070272,0.070272,24.8675,12.2325,-27.8775,42.752003,7.232,49.088,eccentric,3,3.0,21127.0,308306.0,278027.0,325698.0,285043.0
2026-04-07 17:54:37.385645,284973,1547692482,1547694367,-1.042368,0.046848,0.10736,25.20875,13.9475,-26.6,42.344,7.928001,49.784004,eccentric,3,3.0,21420.0,310861.0,280086.0,327939.0,287178.0
2026-04-07 17:54:37.388109,284974,1547701430,1547703118,-1.042368,0.007808,0.101504,21.14875,15.09375,-22.4525,42.344,7.928001,49.784004,eccentric,3,3.0,21420.0,310861.0,280086.0,327939.0,287178.0
2026-04-07 17:54:37.390623,284975,1547710353,1547711835,-0.993568,0.007808,0.101504,13.79875,15.9775,-17.01875,42.184002,8.280001,48.920002,eccentric,3,3.0,21420.0,310861.0,280086.0,327939.0,287178.0
2026-04-07 17:54:37.393203,284976,1547719292,1547720518,-0.993568,0.007808,0.101504,5.985,16.37125,-9.98375,42.184002,8.280001,48.920002,eccentric,3,3.0,21420.0,310861.0,280086.0,327939.0,287178.0
2026-04-07 17:54:37.399315,284977,1547733721,1547735464,-1.022848,0.050752,0.005856,1.75875,17.57,-4.13875,42.4,7.448,49.408,eccentric,3,3.0,21420.0,310861.0,280086.0,327939.0,287178.0
2026-04-07 17:54:37.401890,284978,1547742652,1547744111,-1.067744,0.150304,0.0,-0.76125,18.26125,-0.53375,41.968002,7.08,48.576004,eccentric,3,3.0,21420.0,310861.0,280086.0,327939.0,287178.0
2026-04-07 17:54:37.404321,284979,1547751585,1547752809,-1.067744,0.150304,0.0,-1.82875,17.52625,0.6825,41.968002,7.08,48.576004,eccentric,3,3.0,21420.0,310861.0,280086.0,327939.0,287178.0
2026-04-07 17:54:37.406816,284980,1547766001,1547767743,-1.08336,0.177632,0.017568,-2.77375,15.190001,0.9975,42.808002,6.904,49.488003,eccentric,3,3.0,21420.0,310861.0,280086.0,327939.0,287178.0
2026-04-07 17:54:37.409398,284981,1547774900,1547776434,-1.08336,0.177632,0.017568,-3.8325,13.615,0.95375,42.808002,6.904,49.488003,eccentric,3,3.0,21420.0,310861.0,280086.0,327939.0,287178.0
2026-04-07 17:54:37.411811,284982,1547783912,1547785083,-1.1224,0.132736,0.033184,-5.80125,12.215,-0.805,42.744003,7.128,50.248,eccentric,3,3.0,21420.0,310861.0,280086.0,327939.0,287178.0
2026-04-07 17:54:37.439351,284993,1547798609,1547800109,-1.1224,0.132736,0.033184,-4.69875,11.55875,-3.01875,42.744003,7.128,50.248,eccentric,3,3.0,21360.0,310247.0,279544.0,327303.0,286683.0
2026-04-07 17:54:37.441823,284994,1547807545,1547808868,-1.143872,0.103456,0.0488,-1.3475,10.21125,-6.15125,42.744003,7.176,50.56,eccentric,3,3.0,21360.0,310247.0,279544.0,327303.0,286683.0
2026-04-07 17:54:37.444320,284995,1547816602,1547817645,-1.143872,0.103456,0.0488,3.185,9.4675,-9.275,42.744003,7.176,50.56,eccentric,3,3.0,21360.0,310247.0,279544.0,327303.0,286683.0
2026-04-07 17:54:37.446823,284996,1547825548,1547826366,-1.120448,0.0976,0.046848,7.07875,8.86375,-11.725,43.048,7.776001,49.448,eccentric,3,3.0,21360.0,310247.0,279544.0,327303.0,286683.0
2026-04-07 17:54:37.453083,284997,1547840575,1547841290,-1.120448,0.0976,0.046848,9.8175,8.0675,-12.76625,43.048,7.776001,49.448,eccentric,3,3.0,21360.0,310247.0,279544.0,327303.0,286683.0
2026-04-07 17:54:37.483250,284998,1547849894,1547852038,-1.118496,0.115168,0.064416,9.61625,7.37625,-12.845,42.968002,7.568,49.712,eccentric,3,3.0,21360.0,310247.0,279544.0,327303.0,286683.0
2026-04-07 17:54:37.486831,284999,1547858856,1547860802,-1.118496,0.115168,0.064416,7.21,6.9825,-11.59375,42.968002,7.568,49.712,eccentric,3,3.0,21360.0,310247.0,279544.0,327303.0,286683.0
2026-04-07 17:54:37.493073,285000,1547873325,1547873642,-1.08336,0.093696,0.064416,4.4975,5.9675,-9.38,42.984,7.6,48.944004,eccentric,3,3.0,21360.0,310247.0,279544.0,327303.0,286683.0
2026-04-07 17:54:37.495648,285001,1547882522,1547884439,-1.050176,0.056608,0.052704,2.275,4.96125,-7.95375,42.984,7.352,48.36,eccentric,3,3.0,21360.0,310247.0,279544.0,327303.0,286683.0
2026-04-07 17:54:37.525733,285002,1547891529,1547893173,-1.050176,0.056608,0.052704,1.47,3.71,-6.39625,42.56,7.352,48.36,eccentric,3,3.0,21360.0,310247.0,279544.0,327303.0,286683.0
2026-04-07 17:54:37.553077,285012,1547900488,1547901873,-1.050176,0.056608,0.052704,2.26625,2.65125,-5.3375,42.56,7.352,48.36,eccentric,3,3.0,21271.0,309330.0,278746.0,326348.0,285790.0
2026-04-07 17:54:37.556141,285013,1547914973,1547916743,-1.040416,0.076128,0.027328,3.7975,2.47625,-3.92875,42.728,7.408001,46.728,eccentric,3,3.0,21271.0,309330.0,278746.0,326348.0,285790.0
2026-04-07 17:54:37.589501,285014,1547923948,1547925550,-1.032608,0.132736,0.035136,6.4925,3.1675,-3.70125,42.808002,7.992001,49.976,eccentric,3,3.0,21271.0,309330.0,278746.0,326348.0,285790.0
2026-04-07 17:54:37.593127,285015,1547933072,1547934296,-1.032608,0.132736,0.035136,8.98625,3.28125,-2.80875,42.808002,7.992001,49.976,eccentric,3,3.0,21271.0,309330.0,278746.0,326348.0,285790.0
2026-04-07 17:54:37.595582,285016,1547947563,1547949269,-1.032608,0.163968,0.056608,10.57,2.275,-2.07375,42.064003,6.744,51.016003,eccentric,3,3.0,21271.0,309330.0,278746.0,326348.0,285790.0
2026-04-07 17:54:37.598080,285017,1547956502,1547957945,-1.032608,0.163968,0.056608,10.0275,2.1875,-1.67125,42.064003,6.744,51.016003,eccentric,3,3.0,21271.0,309330.0,278746.0,326348.0,285790.0
2026-04-07 17:54:37.604261,285018,1547965420,1547966651,-1.046272,0.162016,0.076128,9.00375,2.24,-2.0125,42.424004,7.088,48.664,eccentric,3,3.0,21271.0,309330.0,278746.0,326348.0,285790.0
2026-04-07 17:54:37.606798,285019,1547979869,1547981587,-1.046272,0.162016,0.076128,7.7,2.66,-2.6775,42.424004,7.088,48.664,eccentric,3,3.0,21271.0,309330.0,278746.0,326348.0,285790.0
2026-04-07 17:54:37.609246,285020,1547988803,1547990297,-1.046272,0.163968,0.064416,7.5425,1.77625,-3.54375,42.960003,7.312,48.600002,eccentric,3,3.0,21271.0,309330.0,278746.0,326348.0,285790.0
2026-04-07 17:54:37.634387,285030,1547997811,1547999048,-1.046272,0.163968,0.064416,6.50125,1.9775,-5.39875,42.960003,7.312,48.600002,eccentric,3,3.0,21111.0,307921.0,277567.0,325010.0,284560.0
2026-04-07 17:54:37.636898,285031,1548006934,1548007977,-1.026752,0.12688,0.046848,5.32875,2.37125,-7.49875,42.808002,7.208,48.392002,eccentric,3,3.0,21111.0,307921.0,277567.0,325010.0,284560.0
2026-04-07 17:54:37.639283,285032,1548021467,1548022901,-1.026752,0.12688,0.046848,3.36,3.1675,-8.715,42.808002,7.208,48.392002,eccentric,3,3.0,21111.0,307921.0,277567.0,325010.0,284560.0
2026-04-07 17:54:37.643092,285033,1548030393,1548031620,-1.038464,0.105408,0.037088,2.59875,3.80625,-9.73875,42.816,7.368001,48.736004,eccentric,3,3.0,21111.0,307921.0,277567.0,325010.0,284560.0
2026-04-07 17:54:37.651949,285034,1548039330,1548040392,-1.038464,0.105408,0.037088,4.2525,3.38625,-10.22,42.816,7.368001,48.736004,eccentric,3,3.0,21111.0,307921.0,277567.0,325010.0,284560.0
2026-04-07 17:54:37.684904,285035,1548053907,1548055347,-0.993568,0.093696,0.0488,7.91,2.28375,-9.26625,42.808002,7.376,48.872,eccentric,3,3.0,21111.0,307921.0,277567.0,325010.0,284560.0
2026-04-07 17:54:37.686569,285036,1548062820,1548064043,-0.993568,0.07808,0.076128,13.60625,0.98,-7.77,42.808002,7.376,48.872,eccentric,3,3.0,21111.0,307921.0,277567.0,325010.0,284560.0
2026-04-07 17:54:37.688160,285037,1548071703,1548072778,-0.970144,0.081984,0.076128,20.81625,-0.21,-6.58,42.808002,6.944,48.872,eccentric,3,3.0,21111.0,307921.0,277567.0,325010.0,284560.0
2026-04-07 17:54:37.701193,285038,1548086305,1548087667,-0.952576,0.089792,0.124928,29.2425,-2.23125,-4.85625,42.712,6.608,50.144,eccentric,3,3.0,21111.0,307921.0,277567.0,325010.0,284560.0
2026-04-07 17:54:37.756553,285049,1548095254,1548096494,-0.952576,0.089792,0.124928,37.6775,-3.91125,-4.3225,42.712,6.608,50.144,eccentric,3,3.0,21390.0,310357.0,279553.0,327194.0,286529.0
2026-04-07 17:54:37.758123,285050,1548105069,1548107315,-0.987712,0.124928,0.11712,45.955,-5.425,-4.2,42.584003,6.472,50.176003,eccentric,3,3.0,21390.0,310357.0,279553.0,327194.0,286529.0
2026-04-07 17:54:37.761550,285051,1548113996,1548116050,-0.987712,0.124928,0.11712,53.13,-7.39375,-3.1675,42.584003,6.472,50.176003,eccentric,3,3.0,21390.0,310357.0,279553.0,327194.0,286529.0
2026-04-07 17:54:37.763106,285052,1548128537,1548128898,-1.009184,0.171776,0.115168,58.791252,-8.435,-2.35375,42.808002,5.792,49.736004,eccentric,3,3.0,21390.0,310357.0,279553.0,327194.0,286529.0
2026-04-07 17:54:37.767335,285053,1548137924,1548139700,-1.009184,0.171776,0.115168,63.665,-8.155,-2.59875,42.808002,5.792,49.736004,eccentric,3,3.0,21390.0,310357.0,279553.0,327194.0,286529.0
2026-04-07 17:54:37.769055,285054,1548146881,1548148410,-1.020896,0.199104,0.115168,66.63125,-7.53375,-4.20875,42.344,4.928001,49.960003,eccentric,3,3.0,21390.0,310357.0,279553.0,327194.0,286529.0
2026-04-07 17:54:37.770624,285055,1548155835,1548157164,-1.020896,0.199104,0.115168,66.465004,-6.50125,-7.0525,42.344,4.928001,49.960003,eccentric,3,3.0,21390.0,310357.0,279553.0,327194.0,286529.0
2026-04-07 17:54:37.801706,285056,1548170419,1548172065,-1.022848,0.134688,0.08784,63.2625,-5.005,-8.417501,41.936,4.824,50.800003,eccentric,3,3.0,21390.0,310357.0,279553.0,327194.0,286529.0
2026-04-07 17:54:37.806222,285057,1548179399,1548180765,-1.022848,0.134688,0.08784,61.6525,-3.70125,-6.825,41.936,4.824,50.800003,eccentric,3,3.0,21390.0,310357.0,279553.0,327194.0,286529.0
2026-04-07 17:54:37.807944,285058,1548188306,1548189467,-1.026752,0.080032,0.074176,62.16,-3.0275,-5.46875,42.016003,4.04,51.024002,eccentric,3,3.0,21390.0,310357.0,279553.0,327194.0,286529.0
2026-04-07 17:54:37.832743,285068,1548202994,1548204533,-1.026752,0.080032,0.074176,61.285,-2.275,-3.99,42.016003,4.04,51.024002,eccentric,3,3.0,21673.0,312831.0,281612.0,329494.0,288518.0
2026-04-07 17:54:37.834427,285069,1548212072,1548213305,-1.0248,0.093696,0.033184,60.83,-1.54,-3.465,41.928,3.736,53.776,eccentric,3,3.0,21673.0,312831.0,281612.0,329494.0,288518.0
2026-04-07 17:54:37.841037,285070,1548221017,1548222051,-1.0248,0.093696,0.033184,58.345,-1.42625,-2.38,41.928,3.736,53.776,eccentric,3,3.0,21673.0,312831.0,281612.0,329494.0,288518.0
2026-04-07 17:54:37.852339,285071,1548235521,1548236942,-1.011136,0.150304,0.005856,55.06375,-0.6825,-0.07,41.280003,3.328,54.000004,eccentric,3,3.0,21673.0,312831.0,281612.0,329494.0,288518.0
2026-04-07 17:54:37.889510,285072,1548244439,1548245657,-1.00528,0.15616,-0.003904,51.388752,1.02375,1.54,41.848003,2.68,51.504,eccentric,3,3.0,21673.0,312831.0,281612.0,329494.0,288518.0
2026-04-07 17:54:37.893058,285073,1548253413,1548254337,-1.00528,0.15616,-0.003904,45.7975,2.625,1.74125,41.848003,2.68,51.504,eccentric,3,3.0,21673.0,312831.0,281612.0,329494.0,288518.0
2026-04-07 17:54:37.895494,285074,1548262336,1548263052,-1.00528,0.15616,-0.003904,40.04875,4.08625,2.61625,41.848003,2.68,51.504,eccentric,3,3.0,21673.0,312831.0,281612.0,329494.0,288518.0
2026-04-07 17:54:37.898081,285075,1548277283,1548277941,-0.981856,0.121024,0.005856,34.51875,5.285,2.905,41.896004,3.08,52.000004,eccentric,3,3.0,21673.0,312831.0,281612.0,329494.0,288518.0
2026-04-07 17:54:37.900511,285076,1548286562,1548288740,-0.99552,0.052704,0.035136,28.83125,6.1075,1.56625,42.320004,1.928,51.584003,eccentric,3,3.0,21673.0,312831.0,281612.0,329494.0,288518.0
2026-04-07 17:54:37.958096,285086,1548295525,1548297593,-0.99552,0.052704,0.035136,24.255,6.8775,-0.5425,42.320004,1.928,51.584003,eccentric,3,3.0,21523.0,311733.0,280877.0,328805.0,287929.0
2026-04-07 17:54:37.960593,285087,1548310049,1548310425,-1.011136,0.044896,0.052704,21.9975,7.28875,-2.5025,42.448,2.48,51.888004,eccentric,3,3.0,21523.0,311733.0,280877.0,328805.0,287929.0
2026-04-07 17:54:37.963018,285088,1548319300,1548321183,-1.011136,0.044896,0.052704,21.51625,7.69125,-5.495,42.448,2.48,51.888004,eccentric,3,3.0,21523.0,311733.0,280877.0,328805.0,287929.0
2026-04-07 17:54:37.965566,285089,1548328219,1548329862,-1.009184,0.124928,0.080032,20.125,8.26,-7.93625,42.608,1.76,51.896004,eccentric,3,3.0,21523.0,311733.0,280877.0,328805.0,287929.0
2026-04-07 17:54:37.968016,285090,1548337164,1548338617,-1.009184,0.124928,0.080032,17.99,9.135,-9.21375,42.608,1.76,51.896004,eccentric,3,3.0,21523.0,311733.0,280877.0,328805.0,287929.0
2026-04-07 17:54:37.970634,285091,1548351698,1548353567,-1.009184,0.167872,0.070272,11.4975,10.823751,-11.29625,42.2,2.24,53.336002,eccentric,3,3.0,21523.0,311733.0,280877.0,328805.0,287929.0
2026-04-07 17:54:37.973041,285092,1548360629,1548362286,-1.009184,0.167872,0.070272,0.3675,13.15125,-11.87375,42.2,2.24,53.336002,eccentric,3,3.0,21523.0,311733.0,280877.0,328805.0,287929.0
2026-04-07 17:54:38.003177,285093,1548369576,1548371061,-1.030656,0.163968,0.052704,-11.01625,15.9775,-12.64375,42.128002,2.416,52.632004,eccentric,3,3.0,21523.0,311733.0,280877.0,328805.0,287929.0
2026-04-07 17:54:38.006790,285094,1548384082,1548385933,-1.030656,0.163968,0.021472,-19.45125,18.5325,-13.3875,42.128002,2.416,52.632004,eccentric,3,3.0,21523.0,311733.0,280877.0,328805.0,287929.0
2026-04-07 17:54:38.009248,285095,1548393025,1548394653,-1.040416,0.134688,0.017568,-24.87625,19.81875,-14.21,42.528004,2.52,51.72,eccentric,3,3.0,21523.0,311733.0,280877.0,328805.0,287929.0
2026-04-07 17:54:38.041717,285106,1548402132,1548403456,-1.040416,0.134688,0.017568,-26.76625,21.27125,-15.04125,42.528004,2.52,51.72,eccentric,3,3.0,21289.0,309564.0,278987.0,326630.0,286023.0
2026-04-07 17:54:38.041847,285107,1548416675,1548418398,-1.059936,0.128832,0.015616,-24.87625,22.303751,-14.4375,43.448,3.288,51.056004,eccentric,3,3.0,21289.0,309564.0,278987.0,326630.0,286023.0
2026-04-07 17:54:38.044566,285108,1548425622,1548427145,-1.077504,0.144448,0.056608,-22.28625,21.88375,-14.0525,43.104004,3.544,51.08,eccentric,3,3.0,21289.0,309564.0,278987.0,326630.0,286023.0
2026-04-07 17:54:38.047300,285109,1548434597,1548435926,-1.077504,0.144448,0.056608,-18.03375,20.86875,-12.67,43.104004,3.544,51.08,eccentric,3,3.0,21289.0,309564.0,278987.0,326630.0,286023.0
2026-04-07 17:54:38.077180,285110,1548443508,1548444636,-1.077504,0.144448,0.056608,-14.9275,19.43375,-11.165,43.104004,3.544,51.08,eccentric,3,3.0,21289.0,309564.0,278987.0,326630.0,286023.0
2026-04-07 17:54:38.080560,285111,1548457976,1548459528,-1.067744,0.130784,0.115168,-13.7375,17.255,-9.065,43.304,3.456,50.568,eccentric,3,3.0,21289.0,309564.0,278987.0,326630.0,286023.0
2026-04-07 17:54:38.083001,285112,1548466887,1548468226,-1.057984,0.089792,0.128832,-10.7975,14.7175,-7.25375,43.272003,3.504,52.424004,eccentric,3,3.0,21289.0,309564.0,278987.0,326630.0,286023.0
2026-04-07 17:54:38.087998,285113,1548475796,1548476944,-1.057984,0.089792,0.128832,-5.7225,12.04875,-5.27625,43.272003,3.504,52.424004,eccentric,3,3.0,21289.0,309564.0,278987.0,326630.0,286023.0
2026-04-07 17:54:38.118237,285114,1548490299,1548491903,-1.061888,0.12688,0.085888,-0.14875,9.9575,-4.57625,43.328003,2.672,51.568,eccentric,3,3.0,21289.0,309564.0,278987.0,326630.0,286023.0
2026-04-07 17:54:38.144245,285124,1548499478,1548500852,-1.061888,0.12688,0.085888,3.3425,8.02375,-3.0275,43.328003,2.672,51.568,eccentric,3,3.0,21309.0,309550.0,278983.0,326515.0,285890.0
2026-04-07 17:54:38.146900,285125,1548508457,1548509562,-1.061888,0.148352,0.017568,4.61125,7.49875,-3.57,43.368004,2.88,50.824,eccentric,3,3.0,21309.0,309550.0,278983.0,326515.0,285890.0
2026-04-07 17:54:38.149382,285126,1548523000,1548524540,-1.061888,0.148352,0.017568,3.4825,7.21,-3.5875,43.368004,2.88,50.824,eccentric,3,3.0,21309.0,309550.0,278983.0,326515.0,285890.0
2026-04-07 17:54:38.186768,285127,1548531997,1548533313,-1.042368,0.132736,-0.01952,2.44125,6.83375,-4.0425,42.976,2.744,50.600002,eccentric,3,3.0,21309.0,309550.0,278983.0,326515.0,285890.0
2026-04-07 17:54:38.193701,285128,1548540925,1548541993,-1.042368,0.132736,-0.01952,3.5525,5.78375,-4.865,42.976,2.744,50.600002,eccentric,3,3.0,21309.0,309550.0,278983.0,326515.0,285890.0
2026-04-07 17:54:38.195905,285129,1548549821,1548550758,-1.032608,0.099552,-0.011712,6.3175,5.46,-5.565,43.448,3.808,50.992,eccentric,3,3.0,21309.0,309550.0,278983.0,326515.0,285890.0
2026-04-07 17:54:38.197540,285130,1548564286,1548565669,-1.032608,0.099552,-0.011712,9.70375,4.8475,-6.5275,43.448,3.808,50.992,eccentric,3,3.0,21309.0,309550.0,278983.0,326515.0,285890.0
2026-04-07 17:54:38.201079,285131,1548573176,1548574349,-1.048224,0.076128,0.017568,11.52375,4.13,-6.95625,43.2,3.528,50.120003,eccentric,3,3.0,21309.0,309550.0,278983.0,326515.0,285890.0
2026-04-07 17:54:38.202768,285132,1548582149,1548583061,-1.048224,0.076128,0.017568,10.823751,4.54125,-8.18125,43.2,3.528,50.120003,eccentric,3,3.0,21309.0,309550.0,278983.0,326515.0,285890.0
2026-04-07 17:54:38.231931,285133,1548596607,1548597974,-1.08336,0.08784,0.031232,8.21625,5.3375,-9.0475,43.112003,3.36,50.840004,eccentric,3,3.0,21309.0,309550.0,278983.0,326515.0,285890.0
2026-04-07 17:54:38.258151,285143,1548605589,1548606715,-1.052128,0.08784,0.00976,2.79125,5.8625,-10.36875,43.112003,3.36,50.448,concentric,3,3.0,21183.0,308713.0,278367.0,325938.0,285428.0
2026-04-07 17:54:38.262049,285144,1548614504,1548615442,-1.05408,0.08784,0.00976,-3.1675,6.51,-11.69,43.216003,3.208,50.448,concentric,3,3.0,21183.0,308713.0,278367.0,325938.0,285428.0
2026-04-07 17:54:38.263927,285145,1548628969,1548630389,-1.0248,0.056608,-0.005856,-10.045,6.57125,-13.195,43.504,3.472,50.824,concentric,3,3.0,21183.0,308713.0,278367.0,325938.0,285428.0
2026-04-07 17:54:38.265632,285146,1548637915,1548639116,-1.0248,0.056608,-0.005856,-14.533751,6.6325,-13.667501,43.504,3.472,50.824,concentric,3,3.0,21183.0,308713.0,278367.0,325938.0,285428.0
2026-04-07 17:54:38.271891,285147,1548646840,1548647830,-1.036512,0.07808,-0.03904,-16.19625,6.4575,-13.335,43.448,3.576,51.144,concentric,3,3.0,21183.0,308713.0,278367.0,325938.0,285428.0
2026-04-07 17:54:38.274372,285148,1548661328,1548662749,-1.036512,0.07808,-0.03904,-16.17,6.65,-13.405,43.448,3.576,51.144,concentric,3,3.0,21183.0,308713.0,278367.0,325938.0,285428.0
2026-04-07 17:54:38.304587,285149,1548670289,1548671477,-1.028704,0.091744,-0.025376,-15.04125,6.53625,-11.52375,43.36,3.472,51.576004,concentric,3,3.0,21183.0,308713.0,278367.0,325938.0,285428.0
2026-04-07 17:54:38.308100,285150,1548679211,1548680195,-1.028704,0.091744,-0.025376,-13.27375,5.31125,-9.5375,43.36,3.472,51.576004,concentric,3,3.0,21183.0,308713.0,278367.0,325938.0,285428.0
2026-04-07 17:54:38.310557,285151,1548693671,1548695111,-1.020896,0.081984,0.02928,-12.136251,4.57625,-8.04125,42.856003,4.08,50.376003,concentric,3,3.0,21183.0,308713.0,278367.0,325938.0,285428.0
2026-04-07 17:54:38.338301,285162,1548702959,1548703987,-1.020896,0.081984,0.02928,-11.34,4.75125,-7.105,42.856003,4.08,50.376003,concentric,3,3.0,21177.0,308513.0,278224.0,325811.0,285337.0
2026-04-07 17:54:38.340632,285163,1548712010,1548712760,-1.030656,0.0976,0.074176,-9.8525,3.92,-6.58875,43.840004,3.904,50.168003,concentric,3,3.0,21177.0,308513.0,278224.0,325811.0,285337.0
2026-04-07 17:54:38.343087,285164,1548721481,1548723576,-1.030656,0.0976,0.074176,-9.485,2.24,-6.37,43.840004,3.904,50.168003,concentric,3,3.0,21177.0,308513.0,278224.0,325811.0,285337.0
2026-04-07 17:54:38.348112,285165,1548735979,1548736462,-1.048224,0.144448,0.052704,-10.78,1.1025,-5.32,43.232002,3.92,50.160004,concentric,3,3.0,21177.0,308513.0,278224.0,325811.0,285337.0
2026-04-07 17:54:38.378285,285166,1548745346,1548747201,-1.048224,0.144448,0.052704,-11.2,1.1025,-4.92625,43.232002,3.92,50.160004,concentric,3,3.0,21177.0,308513.0,278224.0,325811.0,285337.0
2026-04-07 17:54:38.381840,285167,1548754279,1548755918,-1.059936,0.187392,0.013664,-11.8825,0.805,-6.1775,43.296,3.824,50.640003,concentric,3,3.0,21177.0,308513.0,278224.0,325811.0,285337.0
2026-04-07 17:54:38.384361,285168,1548763264,1548764626,-1.059936,0.187392,0.013664,-13.37,1.12875,-6.90375,43.296,3.824,50.640003,concentric,3,3.0,21177.0,308513.0,278224.0,325811.0,285337.0
2026-04-07 17:54:38.390541,285169,1548777759,1548779520,-1.067744,0.171776,0.013664,-14.735,0.84875,-7.91,43.88,4.128,50.408,concentric,3,3.0,21177.0,308513.0,278224.0,325811.0,285337.0
2026-04-07 17:54:38.420952,285170,1548786775,1548788282,-1.040416,0.10736,0.00976,-14.48125,0.27125,-8.75875,43.248,4.672,49.896004,concentric,3,3.0,21177.0,308513.0,278224.0,325811.0,285337.0
2026-04-07 17:54:38.424409,285171,1548795704,1548797004,-1.040416,0.10736,0.00976,-13.8075,0.56,-9.42375,43.248,4.672,49.896004,concentric,3,3.0,21177.0,308513.0,278224.0,325811.0,285337.0
2026-04-07 17:54:38.453158,285181,1548810304,1548811938,-1.0736,0.076128,-0.013664,-13.11625,0.5775,-10.045,43.376003,4.848,50.184002,concentric,3,3.0,21264.0,309341.0,278878.0,326542.0,286034.0
2026-04-07 17:54:38.455651,285182,1548819370,1548820720,-1.0736,0.076128,-0.013664,-9.75625,-0.105,-10.78,43.376003,4.848,50.184002,concentric,3,3.0,21264.0,309341.0,278878.0,326542.0,286034.0
2026-04-07 17:54:38.490732,285183,1548828332,1548829469,-1.079456,0.10736,-0.02928,-5.0925,-0.98875,-9.8525,42.904003,5.072,50.824,concentric,3,3.0,21264.0,309341.0,278878.0,326542.0,286034.0
2026-04-07 17:54:38.494277,285184,1548842887,1548844512,-1.079456,0.10736,-0.02928,-0.20125,-1.89875,-8.9775,42.904003,5.072,50.824,concentric,3,3.0,21264.0,309341.0,278878.0,326542.0,286034.0
2026-04-07 17:54:38.496745,285185,1548851813,1548853279,-1.050176,0.130784,-0.023424,1.25125,-2.6075,-7.49,43.480003,4.384,49.992,concentric,3,3.0,21264.0,309341.0,278878.0,326542.0,286034.0
2026-04-07 17:54:38.499515,285186,1548860748,1548861983,-1.050176,0.130784,-0.023424,0.2625,-2.6425,-6.3525,43.480003,4.384,49.992,concentric,3,3.0,21264.0,309341.0,278878.0,326542.0,286034.0
2026-04-07 17:54:38.505632,285187,1548869646,1548870729,-1.05408,0.12688,0.001952,-1.47,-2.33625,-5.22375,43.68,5.016,50.632004,concentric,3,3.0,21264.0,309341.0,278878.0,326542.0,286034.0
2026-04-07 17:54:38.508080,285188,1548884148,1548885615,-1.05408,0.12688,0.001952,-3.535,-2.94,-4.2525,43.68,5.016,50.632004,concentric,3,3.0,21264.0,309341.0,278878.0,326542.0,286034.0
2026-04-07 17:54:38.510532,285189,1548893075,1548894322,-1.056032,0.10736,-0.001952,-3.815,-2.94875,-3.745,42.84,4.432,51.88,concentric,3,3.0,21264.0,309341.0,278878.0,326542.0,286034.0
2026-04-07 17:54:38.535588,285199,1548902384,1548903116,-1.056032,0.10736,-0.001952,-2.84375,-3.1675,-2.65125,42.84,4.432,51.88,concentric,3,3.0,21386.0,310303.0,279656.0,327369.0,286776.0
2026-04-07 17:54:38.538112,285200,1548917419,1548918120,-1.057984,0.111264,-0.003904,0.07875,-2.52,-3.08875,43.744003,4.648,51.888004,concentric,3,3.0,21386.0,310303.0,279656.0,327369.0,286776.0
2026-04-07 17:54:38.540527,285201,1548926739,1548928903,-1.057984,0.158112,-0.013664,3.2025,-3.15875,-3.52625,43.744003,4.648,51.888004,concentric,3,3.0,21386.0,310303.0,279656.0,327369.0,286776.0
2026-04-07 17:54:38.570700,285202,1548935817,1548937679,-1.081408,0.158112,-0.013664,3.87625,-2.6425,-3.4825,42.744003,4.376,53.984,concentric,3,3.0,21386.0,310303.0,279656.0,327369.0,286776.0
2026-04-07 17:54:38.574290,285203,1548944771,1548946380,-1.081408,0.158112,-0.013664,4.54125,-2.35375,-4.38375,42.744003,4.376,53.984,concentric,3,3.0,21386.0,310303.0,279656.0,327369.0,286776.0
2026-04-07 17:54:38.576775,285204,1548959265,1548961265,-1.075552,0.148352,-0.00976,4.64625,-2.00375,-4.85625,43.24,4.752,51.616,concentric,3,3.0,21386.0,310303.0,279656.0,327369.0,286776.0
2026-04-07 17:54:38.581882,285205,1548968199,1548969980,-1.079456,0.105408,0.003904,2.45875,-1.925,-4.2525,43.000004,4.672,52.152004,concentric,3,3.0,21386.0,310303.0,279656.0,327369.0,286776.0
2026-04-07 17:54:38.612030,285206,1548977206,1548978727,-1.079456,0.105408,0.003904,1.225,-1.6975,-4.64625,43.000004,4.672,52.152004,concentric,3,3.0,21386.0,310303.0,279656.0,327369.0,286776.0
2026-04-07 17:54:38.615556,285207,1548991720,1548993647,-1.085312,0.089792,-0.001952,1.1725,-1.4175,-4.40125,42.936,4.544,50.632004,concentric,3,3.0,21386.0,310303.0,279656.0,327369.0,286776.0
2026-04-07 17:54:38.677464,285218,1549001251,1549002394,-1.085312,0.089792,-0.001952,1.33,-1.47,-4.12125,42.936,4.544,50.632004,concentric,3,3.0,21376.0,310263.0,279581.0,327267.0,286655.0
2026-04-07 17:54:38.679312,285219,1549010300,1549011164,-1.089216,0.091744,-0.00976,2.17875,-1.3475,-3.745,42.664,4.24,52.232002,concentric,3,3.0,21376.0,310263.0,279581.0,327267.0,286655.0
2026-04-07 17:54:38.681803,285220,1549019254,1549019955,-1.089216,0.091744,-0.00976,3.07125,-0.7175,-3.2725,42.664,4.24,52.232002,concentric,3,3.0,21376.0,310263.0,279581.0,327267.0,286655.0
2026-04-07 17:54:38.685059,285221,1549034252,1549034952,-1.077504,0.103456,-0.003904,3.535,-0.35875,-2.8175,43.296,4.784,51.144,concentric,3,3.0,21376.0,310263.0,279581.0,327267.0,286655.0
2026-04-07 17:54:38.686932,285222,1549043537,1549045711,-1.077504,0.103456,-0.003904,2.68625,-0.21875,-2.065,43.296,4.784,51.144,concentric,3,3.0,21376.0,310263.0,279581.0,327267.0,286655.0
2026-04-07 17:54:38.689387,285223,1549052475,1549054444,-1.081408,0.109312,0.013664,1.56625,0.035,-1.995,43.160004,4.36,51.416004,concentric,3,3.0,21376.0,310263.0,279581.0,327267.0,286655.0
2026-04-07 17:54:38.691874,285224,1549061605,1549063164,-1.081408,0.109312,0.013664,0.1575,0.27125,-2.38,43.160004,4.36,51.416004,concentric,3,3.0,21376.0,310263.0,279581.0,327267.0,286655.0
2026-04-07 17:54:38.697958,285225,1549076223,1549078144,-1.06384,0.109312,0.005856,-1.16375,0.62125,-3.43,42.784,4.168,50.952003,concentric,3,3.0,21376.0,310263.0,279581.0,327267.0,286655.0
2026-04-07 17:54:38.700520,285226,1549085227,1549086878,-1.06384,0.109312,0.005856,-3.2025,1.02375,-3.64,42.784,4.168,50.952003,concentric,3,3.0,21376.0,310263.0,279581.0,327267.0,286655.0
2026-04-07 17:54:38.706750,285227,1549094186,1549095578,-1.057984,0.109312,0.007808,-3.96375,1.89875,-4.96125,42.824,4.76,51.488003,concentric,3,3.0,21376.0,310263.0,279581.0,327267.0,286655.0
2026-04-07 17:54:38.734257,285237,1549108728,1549110554,-1.056032,0.142496,0.017568,-4.025,2.82625,-5.95875,43.000004,4.552,50.688004,concentric,3,3.0,21180.0,308464.0,278100.0,325515.0,284971.0
2026-04-07 17:54:38.736758,285238,1549117699,1549119249,-1.056032,0.142496,0.017568,-5.50375,3.5,-6.0375,43.000004,4.552,50.688004,concentric,3,3.0,21180.0,308464.0,278100.0,325515.0,284971.0
2026-04-07 17:54:38.739465,285239,1549126773,1549127942,-1.056032,0.142496,0.017568,-8.505,4.585,-7.21875,43.000004,4.552,50.688004,concentric,3,3.0,21180.0,308464.0,278100.0,325515.0,284971.0
2026-04-07 17:54:38.790821,285240,1549141264,1549142833,-1.067744,0.124928,0.01952,-11.6025,5.29375,-6.60625,43.016003,4.792,50.864002,concentric,3,3.0,21180.0,308464.0,278100.0,325515.0,284971.0
2026-04-07 17:54:38.794336,285241,1549150198,1549151523,-1.057984,0.089792,0.023424,-12.41625,5.0225,-6.53625,43.24,5.12,50.904003,concentric,3,3.0,21180.0,308464.0,278100.0,325515.0,284971.0
2026-04-07 17:54:38.796856,285242,1549159198,1549160254,-1.057984,0.089792,0.023424,-12.53875,5.11875,-6.755,43.24,5.12,50.904003,concentric,3,3.0,21180.0,308464.0,278100.0,325515.0,284971.0
2026-04-07 17:54:38.799341,285243,1549168089,1549168938,-1.081408,0.091744,0.003904,-11.45375,4.69875,-6.22125,43.24,5.12,52.744003,concentric,3,3.0,21180.0,308464.0,278100.0,325515.0,284971.0
2026-04-07 17:54:38.801775,285244,1549182544,1549183819,-1.081408,0.091744,0.003904,-8.9425,4.13,-6.46625,43.056004,5.776001,52.744003,concentric,3,3.0,21180.0,308464.0,278100.0,325515.0,284971.0
2026-04-07 17:54:38.804287,285245,1549191514,1549192584,-1.075552,0.111264,0.013664,-6.195,3.6925,-5.9325,42.976,4.904,51.792004,concentric,3,3.0,21180.0,308464.0,278100.0,325515.0,284971.0
2026-04-07 17:54:38.835660,285246,1549200437,1549201315,-1.075552,0.111264,0.013664,-3.885,3.57875,-5.565,42.976,4.904,51.792004,concentric,3,3.0,21180.0,308464.0,278100.0,325515.0,284971.0
2026-04-07 17:54:38.864295,285256,1549214962,1549216237,-1.075552,0.10736,0.052704,-2.24,4.17375,-5.46,42.936,4.632,50.832,concentric,3,3.0,21036.0,307383.0,277237.0,324655.0,284254.0
2026-04-07 17:54:38.866825,285257,1549223883,1549224955,-1.075552,0.10736,0.052704,-0.63875,3.47375,-4.585,42.936,4.632,50.832,concentric,3,3.0,21036.0,307383.0,277237.0,324655.0,284254.0
2026-04-07 17:54:38.869325,285258,1549232809,1549233676,-1.08336,0.105408,0.050752,-0.1925,2.1175,-4.99625,42.592003,5.024,50.568,concentric,3,3.0,21036.0,307383.0,277237.0,324655.0,284254.0
2026-04-07 17:54:38.871774,285259,1549247334,1549248596,-1.08336,0.105408,0.050752,-0.65625,1.82,-4.48,42.592003,5.024,50.568,concentric,3,3.0,21036.0,307383.0,277237.0,324655.0,284254.0
2026-04-07 17:54:38.874267,285260,1549256327,1549257319,-1.085312,0.103456,0.03904,-0.93625,2.065,-4.12125,42.600002,4.888,50.320004,concentric,3,3.0,21036.0,307383.0,277237.0,324655.0,284254.0
2026-04-07 17:54:38.878042,285261,1549265296,1549266101,-1.085312,0.103456,0.03904,-1.3825,1.4,-3.7275,42.600002,4.888,50.320004,concentric,3,3.0,21036.0,307383.0,277237.0,324655.0,284254.0
2026-04-07 17:54:38.908261,285262,1549274812,1549276950,-1.071648,0.095648,0.035136,-1.2425,1.12875,-3.45625,42.88,5.128,52.440002,concentric,3,3.0,21036.0,307383.0,277237.0,324655.0,284254.0
2026-04-07 17:54:38.911793,285263,1549289322,1549289803,-1.061888,0.093696,0.046848,0.91875,-0.42875,-3.71875,43.592003,5.16,51.016003,concentric,3,3.0,21036.0,307383.0,277237.0,324655.0,284254.0
2026-04-07 17:54:38.914340,285264,1549298672,1549300610,-1.061888,0.093696,0.046848,3.80625,-1.88125,-3.38625,43.592003,5.16,51.016003,concentric,3,3.0,21036.0,307383.0,277237.0,324655.0,284254.0
2026-04-07 17:54:38.941801,285275,1549307804,1549309421,-1.061888,0.093696,0.046848,5.39875,-3.255,-2.7475,43.592003,5.16,51.016003,concentric,3,3.0,20982.0,306995.0,276950.0,324369.0,284027.0
2026-04-07 17:54:38.944284,285276,1549322324,1549324390,-1.052128,0.105408,0.066368,6.3,-3.47375,-2.68625,42.792004,5.296001,52.4,concentric,3,3.0,20982.0,306995.0,276950.0,324369.0,284027.0
2026-04-07 17:54:38.946800,285277,1549331353,1549333112,-1.036512,0.119072,0.070272,6.92125,-3.59625,-2.975,42.512,4.264,53.624004,concentric,3,3.0,20982.0,306995.0,276950.0,324369.0,284027.0
2026-04-07 17:54:38.979669,285278,1549340310,1549341878,-1.036512,0.119072,0.070272,7.1225,-4.50625,-2.73,42.512,4.264,53.624004,concentric,3,3.0,20982.0,306995.0,276950.0,324369.0,284027.0
2026-04-07 17:54:38.983158,285279,1549349216,1549350568,-1.032608,0.111264,0.060512,6.93,-4.3925,-3.07125,42.88,5.088,49.312004,concentric,3,3.0,20982.0,306995.0,276950.0,324369.0,284027.0
2026-04-07 17:54:38.985558,285280,1549363688,1549365457,-1.032608,0.111264,0.060512,6.22125,-4.59375,-3.33375,42.88,5.088,49.312004,concentric,3,3.0,20982.0,306995.0,276950.0,324369.0,284027.0
2026-04-07 17:54:38.988078,285281,1549372627,1549374156,-1.032608,0.091744,0.056608,4.6375,-4.87375,-4.0775,42.928,4.632,52.016003,concentric,3,3.0,20982.0,306995.0,276950.0,324369.0,284027.0
2026-04-07 17:54:38.994235,285282,1549381544,1549382876,-1.032608,0.091744,0.056608,4.27875,-4.94375,-4.85625,42.928,4.632,52.016003,concentric,3,3.0,20982.0,306995.0,276950.0,324369.0,284027.0
2026-04-07 17:54:39.025647,285283,1549396046,1549397873,-1.042368,0.095648,0.040992,4.22625,-4.9,-5.25875,42.272003,4.32,53.112003,concentric,3,3.0,20982.0,306995.0,276950.0,324369.0,284027.0
2026-04-07 17:54:39.050486,285293,1549405397,1549406605,-1.042368,0.095648,0.040992,4.97,-5.01375,-6.22125,42.272003,4.32,53.112003,concentric,3,3.0,21064.0,307644.0,277483.0,324876.0,284417.0
2026-04-07 17:54:39.053083,285294,1549414312,1549415393,-1.038464,0.111264,0.044896,5.5825,-4.92625,-6.1425,43.208,4.608,52.048004,concentric,3,3.0,21064.0,307644.0,277483.0,324876.0,284417.0
2026-04-07 17:54:39.055603,285295,1549428849,1549430307,-1.038464,0.111264,0.074176,6.9125,-4.64625,-5.88875,43.208,4.608,52.048004,concentric,3,3.0,21064.0,307644.0,277483.0,324876.0,284417.0
2026-04-07 17:54:39.092070,285296,1549437764,1549439046,-1.048224,0.130784,0.074176,8.47875,-5.0925,-5.3375,42.088,4.656,51.600002,concentric,3,3.0,21064.0,307644.0,277483.0,324876.0,284417.0
2026-04-07 17:54:39.095575,285297,1549446682,1549447758,-1.048224,0.130784,0.074176,8.2075,-5.845,-5.6175,42.088,4.656,51.600002,concentric,3,3.0,21064.0,307644.0,277483.0,324876.0,284417.0
2026-04-07 17:54:39.098104,285298,1549455605,1549456452,-1.04432,0.119072,0.072224,6.62375,-6.27375,-5.43375,42.544003,4.936,52.264004,concentric,3,3.0,21064.0,307644.0,277483.0,324876.0,284417.0
2026-04-07 17:54:39.100493,285299,1549470062,1549471443,-1.06384,0.121024,0.064416,4.87375,-5.67,-4.57625,41.976,4.472,52.744003,concentric,3,3.0,21064.0,307644.0,277483.0,324876.0,284417.0
2026-04-07 17:54:39.103130,285300,1549478970,1549480167,-1.06384,0.121024,0.064416,2.975,-5.635,-4.94375,41.976,4.472,52.744003,concentric,3,3.0,21064.0,307644.0,277483.0,324876.0,284417.0
2026-04-07 17:54:39.105520,285301,1549487938,1549488850,-1.06384,0.121024,0.064416,1.75,-5.43375,-4.29625,41.976,4.472,52.744003,concentric,3,3.0,21064.0,307644.0,277483.0,324876.0,284417.0
2026-04-07 17:54:39.168578,285311,1549502426,1549504179,-1.046272,0.115168,0.062464,1.855,-5.635,-3.70125,42.224003,4.304,53.744003,concentric,3,3.0,21221.0,308971.0,278535.0,326052.0,285411.0
2026-04-07 17:54:39.170272,285312,1549511364,1549512926,-1.065792,0.115168,0.05856,2.44125,-5.83625,-3.325,42.424004,4.64,52.032,concentric,3,3.0,21221.0,308971.0,278535.0,326052.0,285411.0
2026-04-07 17:54:39.171842,285313,1549520350,1549521601,-1.065792,0.115168,0.05856,1.72375,-5.71375,-3.71875,42.424004,4.64,52.032,concentric,3,3.0,21221.0,308971.0,278535.0,326052.0,285411.0
2026-04-07 17:54:39.176140,285314,1549534846,1549536588,-1.057984,0.122976,0.066368,2.38875,-5.76625,-4.34875,42.464,4.464,52.592003,concentric,3,3.0,21221.0,308971.0,278535.0,326052.0,285411.0
2026-04-07 17:54:39.177780,285315,1549543785,1549545294,-1.057984,0.122976,0.066368,4.40125,-6.29125,-4.375,42.464,4.464,52.592003,concentric,3,3.0,21221.0,308971.0,278535.0,326052.0,285411.0
2026-04-07 17:54:39.179417,285316,1549552722,1549553990,-1.06384,0.134688,0.070272,4.865,-5.41625,-4.97,42.432003,4.232,52.968002,concentric,3,3.0,21221.0,308971.0,278535.0,326052.0,285411.0
2026-04-07 17:54:39.183443,285317,1549567282,1549568900,-1.06384,0.134688,0.070272,4.1475,-5.3025,-5.10125,42.432003,4.232,52.968002,concentric,3,3.0,21221.0,308971.0,278535.0,326052.0,285411.0
2026-04-07 17:54:39.211952,285318,1549576232,1549577683,-1.056032,0.122976,0.060512,4.50625,-5.1275,-5.36375,42.224003,3.936,53.008003,concentric,3,3.0,21221.0,308971.0,278535.0,326052.0,285411.0
2026-04-07 17:54:39.216437,285319,1549585221,1549586425,-1.056032,0.122976,0.060512,3.4825,-5.0575,-5.25875,42.224003,3.936,53.008003,concentric,3,3.0,21221.0,308971.0,278535.0,326052.0,285411.0
2026-04-07 17:54:39.219054,285320,1549594091,1549595207,-1.056032,0.099552,0.056608,3.00125,-4.45375,-5.0925,42.096,4.384,52.832,concentric,3,3.0,21221.0,308971.0,278535.0,326052.0,285411.0
2026-04-07 17:54:39.247300,285331,1549608802,1549610257,-1.056032,0.099552,0.056608,2.93125,-3.56125,-5.53875,42.096,4.384,52.832,concentric,3,3.0,21466.0,310991.0,280170.0,327709.0,286810.0
2026-04-07 17:54:39.248986,285332,1549617777,1549619034,-1.042368,0.109312,0.072224,3.99875,-3.15875,-5.76625,42.016003,4.512,54.184002,concentric,3,3.0,21466.0,310991.0,280170.0,327709.0,286810.0
2026-04-07 17:54:39.251466,285333,1549626695,1549627767,-1.042368,0.109312,0.072224,3.7625,-2.40625,-5.67875,42.016003,4.512,54.184002,concentric,3,3.0,21466.0,310991.0,280170.0,327709.0,286810.0
2026-04-07 17:54:39.253212,285334,1549641264,1549642760,-1.036512,0.111264,0.066368,2.68625,-1.75,-5.355,41.160004,4.304,55.000004,concentric,3,3.0,21466.0,310991.0,280170.0,327709.0,286810.0
2026-04-07 17:54:39.286518,285335,1549650190,1549651491,-1.050176,0.109312,0.05856,0.95375,-0.945,-4.8825,41.160004,4.304,53.384003,concentric,3,3.0,21466.0,310991.0,280170.0,327709.0,286810.0
2026-04-07 17:54:39.290971,285336,1549659116,1549660218,-1.050176,0.109312,0.05856,-1.3475,0.3325,-5.04,41.736004,4.312,53.384003,concentric,3,3.0,21466.0,310991.0,280170.0,327709.0,286810.0
2026-04-07 17:54:39.307404,285337,1549673588,1549675101,-1.056032,0.11712,0.056608,-2.70375,0.37625,-4.585,41.824,4.32,52.920002,concentric,3,3.0,21466.0,310991.0,280170.0,327709.0,286810.0
2026-04-07 17:54:39.309024,285338,1549682535,1549683830,-1.056032,0.11712,0.056608,-3.395,0.48125,-4.26125,41.824,4.32,52.920002,concentric,3,3.0,21466.0,310991.0,280170.0,327709.0,286810.0
2026-04-07 17:54:39.310593,285339,1549691470,1549692595,-1.067744,0.111264,0.060512,-4.27,0.56875,-4.41875,41.568,4.096,53.584003,concentric,3,3.0,21466.0,310991.0,280170.0,327709.0,286810.0
2026-04-07 17:54:39.313034,285340,1549700441,1549701290,-1.067744,0.111264,0.060512,-4.4625,1.085,-4.48,41.568,4.096,53.584003,concentric,3,3.0,21466.0,310991.0,280170.0,327709.0,286810.0
2026-04-07 17:54:39.344246,285350,1549715000,1549716228,-1.075552,0.10736,0.076128,-3.9375,1.19875,-4.795,41.280003,3.968,54.192,concentric,3,3.0,21407.0,310700.0,279974.0,327652.0,286818.0
2026-04-07 17:54:39.346859,285351,1549723974,1549724927,-1.075552,0.10736,0.076128,-2.86125,1.53125,-5.18875,41.280003,3.968,54.192,concentric,3,3.0,21407.0,310700.0,279974.0,327652.0,286818.0
2026-04-07 17:54:39.349333,285352,1549733112,1549733694,-1.106784,0.091744,0.095648,-2.6775,1.7675,-5.7925,42.112003,5.24,52.992004,concentric,3,3.0,21407.0,310700.0,279974.0,327652.0,286818.0
2026-04-07 17:54:39.388281,285353,1549747875,1549748614,-1.106784,0.091744,0.095648,-1.61,1.56625,-5.845,42.112003,5.24,52.992004,concentric,3,3.0,21407.0,310700.0,279974.0,327652.0,286818.0
2026-04-07 17:54:39.391781,285354,1549757218,1549759372,-1.1224,0.122976,0.083936,2.3275,0.53375,-4.90875,42.024002,4.488,53.328003,concentric,3,3.0,21407.0,310700.0,279974.0,327652.0,286818.0
2026-04-07 17:54:39.394312,285355,1549766120,1549768053,-1.1224,0.122976,0.083936,4.7775,-0.77875,-3.99,42.024002,4.488,53.328003,concentric,3,3.0,21407.0,310700.0,279974.0,327652.0,286818.0
2026-04-07 17:54:39.397006,285356,1549775058,1549776692,-1.118496,0.142496,0.150304,4.55875,-1.435,-3.9025,41.864002,4.784,52.832,concentric,3,3.0,21407.0,310700.0,279974.0,327652.0,286818.0
2026-04-07 17:54:39.403136,285357,1549789571,1549791606,-1.118496,0.142496,0.150304,3.43875,-2.05625,-2.73875,41.864002,4.784,52.832,concentric,3,3.0,21407.0,310700.0,279974.0,327652.0,286818.0
2026-04-07 17:54:39.433179,285358,1549798498,1549800299,-1.1224,0.08784,0.15616,1.98625,-3.70125,-1.19875,41.464,4.496,53.176003,concentric,3,3.0,21407.0,310700.0,279974.0,327652.0,286818.0
2026-04-07 17:54:39.473314,285368,1549807727,1549809121,-1.1224,0.08784,0.15616,1.9075,-4.15625,-0.315,41.464,4.496,53.176003,concentric,3,3.0,21191.0,308905.0,278629.0,326275.0,285656.0
2026-04-07 17:54:39.476939,285369,1549822399,1549824037,-1.097024,0.132736,0.093696,2.5025,-3.92,0.11375,42.168003,4.632,53.640003,concentric,3,3.0,21191.0,308905.0,278629.0,326275.0,285656.0
2026-04-07 17:54:39.478017,285370,1549831314,1549832737,-0.987712,0.12688,0.060512,4.3575,-4.795,0.0,41.408,4.4,55.216003,concentric,3,3.0,21191.0,308905.0,278629.0,326275.0,285656.0
2026-04-07 17:54:39.480533,285371,1549840325,1549841447,-0.987712,0.12688,0.060512,6.01125,-4.13875,-0.46375,41.408,4.4,55.216003,concentric,3,3.0,21191.0,308905.0,278629.0,326275.0,285656.0
2026-04-07 17:54:39.482991,285372,1549854979,1549856372,-1.026752,0.13664,0.05856,4.13875,-3.4475,-0.86625,42.088,4.28,53.960003,concentric,3,3.0,21191.0,308905.0,278629.0,326275.0,285656.0
2026-04-07 17:54:39.485516,285373,1549863942,1549865100,-1.026752,0.13664,0.05856,0.4725,-2.625,-1.18125,42.088,4.28,53.960003,concentric,3,3.0,21191.0,308905.0,278629.0,326275.0,285656.0
2026-04-07 17:54:39.488022,285374,1549872981,1549873803,-1.059936,0.111264,0.066368,-1.26875,-1.35625,-1.1025,41.992,4.144,53.888004,concentric,3,3.0,21191.0,308905.0,278629.0,326275.0,285656.0
2026-04-07 17:54:39.494300,285375,1549881970,1549882542,-1.059936,0.111264,0.066368,-0.5075,-1.75875,-2.52,41.992,4.144,53.888004,concentric,3,3.0,21191.0,308905.0,278629.0,326275.0,285656.0
2026-04-07 17:54:39.524444,285376,1549896709,1549897461,-1.056032,0.128832,0.081984,0.7175,-1.89,-3.045,42.2,4.792,54.512,concentric,3,3.0,21191.0,308905.0,278629.0,326275.0,285656.0
2026-04-07 17:54:39.559220,285387,1549906270,1549908525,-1.056032,0.128832,0.081984,0.77,-0.79625,-3.6925,42.2,4.792,54.512,concentric,3,3.0,21093.0,308438.0,278416.0,326319.0,285900.0
2026-04-07 17:54:39.561818,285388,1549915314,1549917397,-1.057984,0.12688,0.064416,0.25375,0.105,-4.48875,41.872,4.008,54.232002,concentric,3,3.0,21093.0,308438.0,278416.0,326319.0,285900.0
2026-04-07 17:54:39.564376,285389,1549924276,1549926118,-1.057984,0.12688,0.064416,-0.70875,1.75,-4.7075,41.872,4.008,54.232002,concentric,3,3.0,21093.0,308438.0,278416.0,326319.0,285900.0
2026-04-07 17:54:39.566869,285390,1549939038,1549941045,-1.042368,0.105408,0.070272,-1.2775,3.325,-5.3725,41.544003,4.104,53.728004,concentric,3,3.0,21093.0,308438.0,278416.0,326319.0,285900.0
2026-04-07 17:54:39.569390,285391,1549947982,1549949767,-1.042368,0.105408,0.070272,-1.575,4.0775,-5.87125,41.544003,4.104,53.728004,concentric,3,3.0,21093.0,308438.0,278416.0,326319.0,285900.0
2026-04-07 17:54:39.571799,285392,1549957045,1549958535,-1.06384,0.113216,0.070272,-1.25125,4.68125,-5.4075,41.04,3.912,55.088,concentric,3,3.0,21093.0,308438.0,278416.0,326319.0,285900.0
2026-04-07 17:54:39.601947,285393,1549971571,1549973479,-1.06384,0.121024,0.056608,-2.695,4.34875,-5.90625,41.04,3.912,53.592003,concentric,3,3.0,21093.0,308438.0,278416.0,326319.0,285900.0
2026-04-07 17:54:39.605481,285394,1549980484,1549982168,-1.067744,0.121024,0.056608,-4.3925,3.71875,-6.0025,41.68,4.28,53.592003,concentric,3,3.0,21093.0,308438.0,278416.0,326319.0,285900.0
2026-04-07 17:54:39.608020,285395,1549989479,1549990875,-1.067744,0.121024,0.056608,-4.83875,3.57875,-5.3375,41.68,4.28,53.592003,concentric,3,3.0,21093.0,308438.0,278416.0,326319.0,285900.0
2026-04-07 17:54:39.616900,285396,1550004005,1550005764,-1.06384,0.060512,0.046848,-3.64,3.43,-6.02875,41.816,3.976,53.736004,concentric,3,3.0,21093.0,308438.0,278416.0,326319.0,285900.0
2026-04-07 17:54:39.645541,285406,1550013032,1550014559,-1.067744,0.099552,0.072224,-0.90125,3.2725,-6.8775,41.72,4.584,54.72,concentric,3,3.0,21298.0,310248.0,279955.0,328047.0,287403.0
2026-04-07 17:54:39.647973,285407,1550022185,1550023268,-1.067744,0.099552,0.072224,1.16375,3.6225,-7.65625,41.72,4.584,54.72,concentric,3,3.0,21298.0,310248.0,279955.0,328047.0,287403.0
2026-04-07 17:54:39.650492,285408,1550031172,1550031993,-1.067744,0.099552,0.072224,4.9525,3.99875,-8.84625,41.72,4.584,54.72,concentric,3,3.0,21298.0,310248.0,279955.0,328047.0,287403.0
2026-04-07 17:54:39.688210,285409,1550045773,1550046963,-1.067744,0.130784,0.072224,1.68875,4.3925,-9.98375,42.072002,4.36,53.064003,concentric,3,3.0,21298.0,310248.0,279955.0,328047.0,287403.0
2026-04-07 17:54:39.701268,285410,1550054799,1550055671,-1.067744,0.105408,0.072224,-1.5925,4.9,-10.03625,41.536003,4.008,54.128002,concentric,3,3.0,21298.0,310248.0,279955.0,328047.0,287403.0
2026-04-07 17:54:39.702905,285411,1550063718,1550064369,-1.067744,0.105408,0.072224,-3.66625,5.0575,-9.275,41.536003,4.008,54.128002,concentric,3,3.0,21298.0,310248.0,279955.0,328047.0,287403.0
2026-04-07 17:54:39.704441,285412,1550078573,1550079279,-1.0736,0.083936,0.080032,-4.05125,4.55,-9.28375,41.624,4.424,54.096,concentric,3,3.0,21298.0,310248.0,279955.0,328047.0,287403.0
2026-04-07 17:54:39.706854,285413,1550087904,1550090063,-1.0736,0.083936,0.080032,-4.48,4.47125,-9.84375,41.624,4.424,54.096,concentric,3,3.0,21298.0,310248.0,279955.0,328047.0,287403.0
2026-04-07 17:54:39.710116,285414,1550096837,1550098812,-1.05408,0.083936,0.095648,-4.76875,4.26125,-9.17875,42.008003,4.552,53.952003,concentric,3,3.0,21298.0,310248.0,279955.0,328047.0,287403.0
2026-04-07 17:54:39.764046,285424,1550105771,1550107643,-1.05408,0.083936,0.095648,-5.10125,4.29625,-7.88375,42.008003,4.552,53.952003,concentric,3,3.0,21107.0,308573.0,278619.0,326665.0,286276.0
2026-04-07 17:54:39.765560,285425,1550120298,1550122561,-1.065792,0.101504,0.07808,-4.34,4.06,-7.5075,41.848003,4.632,53.712,concentric,3,3.0,21107.0,308573.0,278619.0,326665.0,286276.0
2026-04-07 17:54:39.769874,285426,1550129201,1550131256,-1.065792,0.101504,0.07808,-3.73625,4.095,-6.965,41.848003,4.632,53.712,concentric,3,3.0,21107.0,308573.0,278619.0,326665.0,286276.0
2026-04-07 17:54:39.771546,285427,1550138146,1550140082,-1.061888,0.113216,0.080032,-5.3375,4.5325,-6.95625,41.704002,4.52,54.248,concentric,3,3.0,21107.0,308573.0,278619.0,326665.0,286276.0
2026-04-07 17:54:39.773972,285428,1550152638,1550152994,-1.061888,0.11712,0.076128,-6.95625,4.71625,-7.805,41.704002,4.832,54.920002,concentric,3,3.0,21107.0,308573.0,278619.0,326665.0,286276.0
2026-04-07 17:54:39.776371,285429,1550161969,1550163770,-1.061888,0.11712,0.076128,-9.45875,5.31125,-7.86625,41.704002,4.832,54.920002,concentric,3,3.0,21107.0,308573.0,278619.0,326665.0,286276.0
2026-04-07 17:54:39.806694,285430,1550170982,1550172508,-1.061888,0.11712,0.076128,-11.41,5.94125,-7.4725,41.704002,4.832,54.920002,concentric,3,3.0,21107.0,308573.0,278619.0,326665.0,286276.0
2026-04-07 17:54:39.808165,285431,1550179907,1550181194,-1.048224,0.10736,0.080032,-12.285,5.90625,-7.6825,42.216003,4.92,54.488003,concentric,3,3.0,21107.0,308573.0,278619.0,326665.0,286276.0
2026-04-07 17:54:39.812742,285432,1550194396,1550196114,-1.046272,0.08784,0.081984,-12.0925,5.25,-7.98875,42.608,5.744,53.888004,concentric,3,3.0,21107.0,308573.0,278619.0,326665.0,286276.0
2026-04-07 17:54:39.819905,285433,1550203312,1550204838,-1.046272,0.08784,0.081984,-11.96125,5.285,-7.81375,42.608,5.744,53.888004,concentric,3,3.0,21107.0,308573.0,278619.0,326665.0,286276.0
2026-04-07 17:54:39.844827,285443,1550212386,1550213546,-1.046272,0.072224,0.064416,-11.8825,4.99625,-7.76125,42.608,5.744,53.888004,concentric,3,3.0,21041.0,308130.0,278267.0,326296.0,285967.0
2026-04-07 17:54:39.847259,285444,1550226888,1550228501,-1.042368,0.072224,0.064416,-11.4625,5.1975,-8.07625,41.152,4.856,56.416004,concentric,3,3.0,21041.0,308130.0,278267.0,326296.0,285967.0
2026-04-07 17:54:39.850981,285445,1550235827,1550237269,-1.04432,0.081984,0.0488,-9.8,5.46875,-7.9275,41.320004,4.864,55.56,concentric,3,3.0,21041.0,308130.0,278267.0,326296.0,285967.0
2026-04-07 17:54:39.879493,285446,1550244711,1550245956,-1.04432,0.081984,0.0488,-7.97125,5.24125,-7.8925,41.320004,4.864,55.56,concentric,3,3.0,21041.0,308130.0,278267.0,326296.0,285967.0
2026-04-07 17:54:39.883933,285447,1550259210,1550260956,-1.040416,0.101504,0.05856,-6.615,5.46875,-7.67375,42.184002,5.56,53.664,concentric,3,3.0,21041.0,308130.0,278267.0,326296.0,285967.0
2026-04-07 17:54:39.892003,285448,1550268116,1550269656,-1.040416,0.101504,0.05856,-5.83625,5.6175,-7.6125,42.184002,5.56,53.664,concentric,3,3.0,21041.0,308130.0,278267.0,326296.0,285967.0
2026-04-07 17:54:39.892648,285449,1550277034,1550278348,-1.048224,0.119072,0.080032,-4.97875,4.97875,-7.14,42.256,5.408001,53.856003,concentric,3,3.0,21041.0,308130.0,278267.0,326296.0,285967.0
2026-04-07 17:54:39.927830,285450,1550291568,1550293294,-1.048224,0.119072,0.080032,-4.68125,4.795,-7.30625,42.256,5.408001,53.856003,concentric,3,3.0,21041.0,308130.0,278267.0,326296.0,285967.0
2026-04-07 17:54:39.932415,285451,1550300493,1550301984,-1.048224,0.113216,0.095648,-3.89375,4.27,-7.62125,42.320004,5.328,53.872,concentric,3,3.0,21041.0,308130.0,278267.0,326296.0,285967.0
2026-04-07 17:54:39.989432,285462,1550309476,1550310806,-1.048224,0.113216,0.095648,-3.29,4.36625,-8.015,42.320004,5.328,53.872,concentric,3,3.0,20855.0,306609.0,277107.0,325203.0,285005.0
2026-04-07 17:54:39.993033,285463,1550318546,1550319588,-1.059936,0.0976,0.093696,-3.2025,4.585,-8.417501,42.664,5.92,53.272003,concentric,3,3.0,20855.0,306609.0,277107.0,325203.0,285005.0
2026-04-07 17:54:39.995561,285464,1550333060,1550334577,-1.059936,0.095648,0.0976,-2.37125,5.1275,-9.10875,42.664,5.92,53.432003,concentric,3,3.0,20855.0,306609.0,277107.0,325203.0,285005.0
2026-04-07 17:54:39.998020,285465,1550342021,1550343289,-1.050176,0.095648,0.0976,-1.88125,4.655,-8.88125,42.088,5.856,53.432003,concentric,3,3.0,20855.0,306609.0,277107.0,325203.0,285005.0
2026-04-07 17:54:40.000550,285466,1550350983,1550352061,-1.050176,0.095648,0.0976,-2.33625,4.83875,-9.31875,42.088,5.856,53.432003,concentric,3,3.0,20855.0,306609.0,277107.0,325203.0,285005.0
2026-04-07 17:54:40.002922,285467,1550365451,1550367069,-1.059936,0.089792,0.054656,-3.465,5.0225,-9.21375,41.768,5.216,54.216003,concentric,3,3.0,20855.0,306609.0,277107.0,325203.0,285005.0
2026-04-07 17:54:40.005492,285468,1550374355,1550375756,-1.071648,0.101504,0.064416,-3.78,5.145,-9.415,42.152,6.176,53.368004,concentric,3,3.0,20855.0,306609.0,277107.0,325203.0,285005.0
2026-04-07 17:54:40.007988,285469,1550383275,1550384528,-1.071648,0.101504,0.064416,-3.14125,5.3725,-9.89625,42.152,6.176,53.368004,concentric,3,3.0,20855.0,306609.0,277107.0,325203.0,285005.0
2026-04-07 17:54:40.010569,285470,1550397726,1550399496,-1.061888,0.103456,0.083936,-0.665,5.64375,-9.42375,42.816,5.896,53.336002,concentric,3,3.0,20855.0,306609.0,277107.0,325203.0,285005.0
2026-04-07 17:54:40.040752,285471,1550406685,1550408223,-1.061888,0.103456,0.083936,1.7675,4.8125,-9.38,42.816,5.896,53.336002,concentric,3,3.0,20855.0,306609.0,277107.0,325203.0,285005.0
2026-04-07 17:54:40.066799,285481,1550415681,1550416969,-1.071648,0.0976,0.099552,3.4475,4.585,-8.42625,42.72,6.016,53.704002,concentric,3,3.0,20897.0,306971.0,277379.0,325431.0,285238.0
2026-04-07 17:54:40.069238,285482,1550430137,1550431916,-1.071648,0.0976,0.099552,4.1475,4.8475,-8.07625,42.72,6.016,53.704002,concentric,3,3.0,20897.0,306971.0,277379.0,325431.0,285238.0
2026-04-07 17:54:40.071832,285483,1550439095,1550440661,-1.091168,0.113216,0.11712,3.3425,5.34625,-8.04125,42.776,5.88,53.704002,concentric,3,3.0,20897.0,306971.0,277379.0,325431.0,285238.0
2026-04-07 17:54:40.074265,285484,1550448035,1550449396,-1.091168,0.113216,0.11712,2.33625,6.08125,-8.79375,42.776,5.88,53.704002,concentric,3,3.0,20897.0,306971.0,277379.0,325431.0,285238.0
2026-04-07 17:54:40.076831,285485,1550456955,1550458103,-1.089216,0.115168,0.109312,1.6625,6.37,-9.45875,42.632004,5.968,55.296,concentric,3,3.0,20897.0,306971.0,277379.0,325431.0,285238.0
2026-04-07 17:54:40.107039,285486,1550471485,1550473062,-1.089216,0.115168,0.109312,0.67375,6.78125,-9.37125,42.632004,5.968,55.296,concentric,3,3.0,20897.0,306971.0,277379.0,325431.0,285238.0
2026-04-07 17:54:40.110484,285487,1550480403,1550481825,-1.091168,0.113216,0.091744,-0.7875,7.34125,-9.58125,42.704002,5.728,54.544003,concentric,3,3.0,20897.0,306971.0,277379.0,325431.0,285238.0
2026-04-07 17:54:40.113019,285488,1550489306,1550490524,-1.091168,0.113216,0.091744,-0.5075,7.20125,-10.325,42.704002,5.728,54.544003,concentric,3,3.0,20897.0,306971.0,277379.0,325431.0,285238.0
2026-04-07 17:54:40.117133,285489,1550503736,1550505461,-1.081408,0.091744,0.070272,0.41125,6.51875,-10.3425,42.4,5.568,53.552002,concentric,3,3.0,20897.0,306971.0,277379.0,325431.0,285238.0
2026-04-07 17:54:40.143049,285499,1550513278,1550514319,-1.081408,0.091744,0.070272,1.86375,5.80125,-10.386251,42.4,5.568,53.552002,concentric,3,3.0,21000.0,307753.0,278021.0,326100.0,285812.0
2026-04-07 17:54:40.145542,285500,1550522264,1550523074,-1.065792,0.074176,0.062464,3.36875,5.80125,-10.4475,42.288002,5.328,53.368004,concentric,3,3.0,21000.0,307753.0,278021.0,326100.0,285812.0
2026-04-07 17:54:40.149286,285501,1550536771,1550537992,-1.081408,0.085888,0.074176,3.77125,6.44,-10.71,42.096,6.144,53.760002,concentric,3,3.0,21000.0,307753.0,278021.0,326100.0,285812.0
2026-04-07 17:54:40.179761,285502,1550545637,1550546716,-1.081408,0.085888,0.074176,4.71625,6.125,-10.2025,42.096,6.144,53.760002,concentric,3,3.0,21000.0,307753.0,278021.0,326100.0,285812.0
2026-04-07 17:54:40.181912,285503,1550554555,1550555407,-1.05408,0.095648,0.085888,6.0375,5.4075,-9.23125,42.432003,5.688,54.576004,concentric,3,3.0,21000.0,307753.0,278021.0,326100.0,285812.0
2026-04-07 17:54:40.185612,285504,1550563477,1550564148,-1.05408,0.095648,0.085888,7.5075,5.285,-8.8025,42.432003,5.688,54.576004,concentric,3,3.0,21000.0,307753.0,278021.0,326100.0,285812.0
2026-04-07 17:54:40.190516,285505,1550578324,1550579063,-1.048224,0.103456,0.10736,7.0525,5.4425,-8.26875,42.536003,5.56,54.096,concentric,3,3.0,21000.0,307753.0,278021.0,326100.0,285812.0
2026-04-07 17:54:40.220790,285506,1550587687,1550589861,-1.048224,0.103456,0.10736,6.6325,5.0225,-7.67375,42.536003,5.56,54.096,concentric,3,3.0,21000.0,307753.0,278021.0,326100.0,285812.0
2026-04-07 17:54:40.225382,285507,1550596706,1550598597,-1.042368,0.115168,0.109312,6.48375,5.06625,-7.385,42.584003,5.6,54.016003,concentric,3,3.0,21000.0,307753.0,278021.0,326100.0,285812.0
2026-04-07 17:54:40.253584,285518,1550611483,1550613504,-1.042368,0.115168,0.109312,6.0375,4.9525,-7.5425,42.584003,5.6,54.016003,concentric,3,3.0,21015.0,307958.0,278220.0,326354.0,286084.0
2026-04-07 17:54:40.256175,285519,1550620560,1550622271,-1.052128,0.115168,0.099552,4.97,4.66375,-7.6125,42.144,5.704001,53.576004,concentric,3,3.0,21015.0,307958.0,278220.0,326354.0,286084.0
2026-04-07 17:54:40.292947,285520,1550629495,1550631005,-1.052128,0.115168,0.099552,3.7275,4.83875,-7.20125,42.144,5.704001,53.576004,concentric,3,3.0,21015.0,307958.0,278220.0,326354.0,286084.0
2026-04-07 17:54:40.297332,285521,1550638457,1550639732,-1.056032,0.0976,0.083936,3.14125,4.66375,-7.14875,41.960003,5.536,54.856003,concentric,3,3.0,21015.0,307958.0,278220.0,326354.0,286084.0
2026-04-07 17:54:40.299088,285522,1550653011,1550654690,-1.056032,0.0976,0.083936,3.01875,4.69,-7.67375,41.960003,5.536,54.856003,concentric,3,3.0,21015.0,307958.0,278220.0,326354.0,286084.0
2026-04-07 17:54:40.300597,285523,1550661946,1550663382,-1.061888,0.089792,0.074176,3.1325,5.10125,-7.735,42.696003,5.544,56.704002,concentric,3,3.0,21015.0,307958.0,278220.0,326354.0,286084.0
2026-04-07 17:54:40.304803,285524,1550670914,1550672109,-1.061888,0.089792,0.074176,2.73,5.27625,-7.16625,42.696003,5.544,56.704002,concentric,3,3.0,21015.0,307958.0,278220.0,326354.0,286084.0
2026-04-07 17:54:40.306514,285525,1550685485,1550687028,-1.069696,0.081984,0.080032,2.485,5.0575,-7.0875,42.784,5.88,53.704002,concentric,3,3.0,21015.0,307958.0,278220.0,326354.0,286084.0
2026-04-07 17:54:40.308114,285526,1550694510,1550695749,-1.069696,0.066368,0.085888,4.06,4.94375,-6.39625,42.784,5.88,53.704002,concentric,3,3.0,21015.0,307958.0,278220.0,326354.0,286084.0
2026-04-07 17:54:40.341302,285527,1550703621,1550704458,-1.069696,0.076128,0.085888,4.13,4.7425,-5.6875,42.608,5.0,54.136,concentric,3,3.0,21015.0,307958.0,278220.0,326354.0,286084.0
2026-04-07 17:54:40.369133,285537,1550713102,1550713597,-1.069696,0.076128,0.085888,3.36,4.445,-4.8825,42.608,5.0,54.136,concentric,3,3.0,21082.0,308587.0,278774.0,327056.0,286759.0
2026-04-07 17:54:40.370564,285538,1550728079,1550728497,-1.069696,0.080032,0.089792,2.065,4.2525,-4.38375,42.864002,5.744,53.808002,concentric,3,3.0,21082.0,308587.0,278774.0,327056.0,286759.0
2026-04-07 17:54:40.374108,285539,1550737492,1550739270,-1.059936,0.08784,0.08784,2.10875,4.01625,-3.33375,43.032,5.296001,54.256004,concentric,3,3.0,21082.0,308587.0,278774.0,327056.0,286759.0
2026-04-07 17:54:40.375619,285540,1550746493,1550748059,-1.059936,0.08784,0.08784,1.995,3.7975,-2.35375,43.032,5.296001,54.256004,concentric,3,3.0,21082.0,308587.0,278774.0,327056.0,286759.0
2026-04-07 17:54:40.378024,285541,1550755465,1550756845,-1.065792,0.095648,0.081984,2.56375,3.3425,-2.38,43.584003,5.432,51.432003,concentric,3,3.0,21082.0,308587.0,278774.0,327056.0,286759.0
2026-04-07 17:54:40.382981,285542,1550770022,1550771811,-1.065792,0.095648,0.081984,4.24375,3.22875,-2.415,43.584003,5.432,51.432003,concentric,3,3.0,21082.0,308587.0,278774.0,327056.0,286759.0
2026-04-07 17:54:40.413228,285543,1550778994,1550780572,-1.065792,0.105408,0.081984,4.45375,3.26375,-2.28375,42.384003,5.448,55.072002,concentric,3,3.0,21082.0,308587.0,278774.0,327056.0,286759.0
2026-04-07 17:54:40.416719,285544,1550787913,1550789262,-1.065792,0.105408,0.081984,3.82375,3.73625,-2.8,42.384003,5.448,55.072002,concentric,3,3.0,21082.0,308587.0,278774.0,327056.0,286759.0
2026-04-07 17:54:40.419513,285545,1550802396,1550804099,-1.052128,0.093696,0.093696,3.3775,3.87625,-3.35125,42.744003,5.28,54.4,concentric,3,3.0,21082.0,308587.0,278774.0,327056.0,286759.0
2026-04-07 17:54:40.447957,285555,1550811738,1550812841,-1.052128,0.093696,0.093696,3.08875,3.255,-4.025,42.744003,5.28,54.4,concentric,3,3.0,21096.0,308807.0,278996.0,327288.0,286914.0
2026-04-07 17:54:40.450517,285556,1550820801,1550821669,-1.056032,0.085888,0.06832,3.10625,3.2375,-3.87625,43.160004,5.304,54.288002,concentric,3,3.0,21096.0,308807.0,278996.0,327288.0,286914.0
2026-04-07 17:54:40.453077,285557,1550829750,1550830442,-1.056032,0.085888,0.06832,3.10625,2.6075,-3.43,43.160004,5.304,54.288002,concentric,3,3.0,21096.0,308807.0,278996.0,327288.0,286914.0
2026-04-07 17:54:40.456716,285558,1550844710,1550845368,-1.061888,0.093696,0.06832,3.59625,2.80875,-3.10625,43.2,5.064,54.280003,concentric,3,3.0,21096.0,308807.0,278996.0,327288.0,286914.0
2026-04-07 17:54:40.486907,285559,1550854028,1550856132,-1.061888,0.093696,0.06832,4.24375,2.5375,-2.7125,43.2,5.064,54.280003,concentric,3,3.0,21096.0,308807.0,278996.0,327288.0,286914.0
2026-04-07 17:54:40.490501,285560,1550862997,1550864824,-1.0736,0.103456,0.07808,4.64625,2.31,-2.94875,43.280003,5.4,54.904003,concentric,3,3.0,21096.0,308807.0,278996.0,327288.0,286914.0
2026-04-07 17:54:40.493099,285561,1550877480,1550879705,-1.081408,0.119072,0.081984,4.3225,2.4675,-2.905,42.736004,4.968,53.800003,concentric,3,3.0,21096.0,308807.0,278996.0,327288.0,286914.0
2026-04-07 17:54:40.499475,285562,1550886410,1550888436,-1.081408,0.119072,0.081984,4.27,1.95125,-2.9575,42.736004,4.968,53.800003,concentric,3,3.0,21096.0,308807.0,278996.0,327288.0,286914.0
2026-04-07 17:54:40.529578,285563,1550895391,1550897149,-1.081408,0.099552,0.08784,3.5875,1.89875,-3.6225,42.736004,4.968,53.800003,concentric,3,3.0,21096.0,308807.0,278996.0,327288.0,286914.0
2026-04-07 17:54:40.532983,285564,1550904309,1550905828,-1.075552,0.099552,0.08784,2.555,1.00625,-3.70125,42.68,4.896,55.136,concentric,3,3.0,21096.0,308807.0,278996.0,327288.0,286914.0
2026-04-07 17:54:40.593094,285575,1550918963,1550920793,-1.091168,0.0976,0.076128,2.14375,0.56,-3.52625,42.808002,5.112001,54.136,concentric,3,3.0,21097.0,308858.0,279036.0,327365.0,286993.0
2026-04-07 17:54:40.595879,285576,1550928034,1550929586,-1.091168,0.0976,0.076128,3.29875,-0.20125,-3.71,42.808002,5.112001,54.136,concentric,3,3.0,21097.0,308858.0,279036.0,327365.0,286993.0
2026-04-07 17:54:40.598052,285577,1550937020,1550938291,-1.077504,0.101504,0.070272,3.9025,-0.805,-3.395,42.624,4.416,55.128002,concentric,3,3.0,21097.0,308858.0,279036.0,327365.0,286993.0
2026-04-07 17:54:40.600556,285578,1550951637,1550953217,-1.077504,0.101504,0.070272,4.8475,-1.49625,-3.59625,42.624,4.416,55.128002,concentric,3,3.0,21097.0,308858.0,279036.0,327365.0,286993.0
2026-04-07 17:54:40.603133,285579,1550960622,1550961946,-1.085312,0.0976,0.05856,4.83875,-1.8025,-3.49125,42.952003,4.928001,54.520004,concentric,3,3.0,21097.0,308858.0,279036.0,327365.0,286993.0
2026-04-07 17:54:40.605518,285580,1550969520,1550970632,-1.085312,0.0976,0.05856,4.24375,-1.505,-3.64,42.952003,4.928001,54.520004,concentric,3,3.0,21097.0,308858.0,279036.0,327365.0,286993.0
2026-04-07 17:54:40.608056,285581,1550984026,1550985505,-1.079456,0.085888,0.076128,4.22625,-1.51375,-3.78875,43.2,4.976,54.696003,concentric,3,3.0,21097.0,308858.0,279036.0,327365.0,286993.0
2026-04-07 17:54:40.610618,285582,1550992976,1550994200,-1.079456,0.085888,0.076128,4.6725,-0.91,-3.6925,43.2,4.976,54.696003,concentric,3,3.0,21097.0,308858.0,279036.0,327365.0,286993.0
2026-04-07 17:54:40.613024,285583,1551001924,1551002939,-1.067744,0.105408,0.095648,4.55875,-0.245,-3.2725,43.008003,4.608,54.696003,concentric,3,3.0,21097.0,308858.0,279036.0,327365.0,286993.0
2026-04-07 17:54:40.643185,285584,1551010871,1551011646,-1.067744,0.105408,0.095648,5.2675,-0.6475,-3.15,43.008003,4.608,54.696003,concentric,3,3.0,21097.0,308858.0,279036.0,327365.0,286993.0
2026-04-07 17:54:40.669327,285594,1551025391,1551026613,-1.061888,0.105408,0.115168,4.8825,-0.56875,-3.15,43.072002,4.768,54.808002,concentric,3,3.0,21163.0,309358.0,279424.0,327773.0,287386.0
2026-04-07 17:54:40.674287,285595,1551034256,1551035335,-1.061888,0.105408,0.115168,4.0425,-0.06125,-3.5875,43.072002,4.768,54.808002,concentric,3,3.0,21163.0,309358.0,279424.0,327773.0,287386.0
2026-04-07 17:54:40.676997,285596,1551043289,1551044067,-1.052128,0.099552,0.0976,2.3625,0.49875,-3.6225,43.056004,4.944,54.824,concentric,3,3.0,21163.0,309358.0,279424.0,327773.0,287386.0
2026-04-07 17:54:40.679304,285597,1551058241,1551059021,-1.056032,0.10736,0.081984,1.39125,1.16375,-4.165,42.304,4.536,55.648003,concentric,3,3.0,21163.0,309358.0,279424.0,327773.0,287386.0
2026-04-07 17:54:40.681721,285598,1551067733,1551069792,-1.056032,0.10736,0.081984,1.05,1.68875,-4.6375,42.304,4.536,55.648003,concentric,3,3.0,21163.0,309358.0,279424.0,327773.0,287386.0
2026-04-07 17:54:40.716631,285599,1551076686,1551078485,-1.038464,0.101504,0.072224,1.58375,2.24,-5.04,42.304,4.024,54.256004,concentric,3,3.0,21163.0,309358.0,279424.0,327773.0,287386.0
2026-04-07 17:54:40.718957,285600,1551085605,1551087191,-1.038464,0.101504,0.072224,0.945,2.87,-5.3725,42.344,4.024,54.256004,concentric,3,3.0,21163.0,309358.0,279424.0,327773.0,287386.0
2026-04-07 17:54:40.723556,285601,1551100087,1551102096,-1.057984,0.091744,0.081984,0.315,3.14125,-5.48625,43.016003,4.68,54.936,concentric,3,3.0,21163.0,309358.0,279424.0,327773.0,287386.0
2026-04-07 17:54:40.725289,285602,1551109003,1551110795,-1.057984,0.091744,0.081984,-0.09625,3.85875,-5.88875,43.016003,4.68,54.936,concentric,3,3.0,21163.0,309358.0,279424.0,327773.0,287386.0
2026-04-07 17:54:40.753195,285612,1551118148,1551119838,-1.042368,0.085888,0.091744,0.83125,2.9575,-6.22125,42.824,4.392,55.296,concentric,3,3.0,21235.0,309917.0,279843.0,328176.0,287680.0
2026-04-07 17:54:40.757596,285613,1551132740,1551134876,-1.042368,0.085888,0.091744,1.37375,2.58125,-6.4575,42.824,4.392,55.296,concentric,3,3.0,21235.0,309917.0,279843.0,328176.0,287680.0
2026-04-07 17:54:40.758860,285614,1551141683,1551143569,-1.067744,0.091744,0.08784,1.5925,2.8875,-6.8075,42.592003,4.36,55.856003,concentric,3,3.0,21235.0,309917.0,279843.0,328176.0,287680.0
2026-04-07 17:54:40.765922,285615,1551150694,1551152276,-1.067744,0.091744,0.08784,1.575,2.87,-6.72,42.592003,4.36,55.856003,concentric,3,3.0,21235.0,309917.0,279843.0,328176.0,287680.0
2026-04-07 17:54:40.797371,285616,1551165218,1551167234,-1.069696,0.105408,0.066368,1.8725,3.01,-6.20375,43.232002,4.696,55.056004,concentric,3,3.0,21235.0,309917.0,279843.0,328176.0,287680.0
2026-04-07 17:54:40.799029,285617,1551174137,1551175930,-1.069696,0.105408,0.066368,1.79375,3.605,-6.125,43.232002,4.696,55.056004,concentric,3,3.0,21235.0,309917.0,279843.0,328176.0,287680.0
2026-04-07 17:54:40.800579,285618,1551183053,1551184630,-1.067744,0.093696,0.070272,1.225,3.77125,-6.57125,43.144,4.6,54.672,concentric,3,3.0,21235.0,309917.0,279843.0,328176.0,287680.0
2026-04-07 17:54:40.807169,285619,1551192006,1551193334,-1.067744,0.093696,0.070272,1.23375,4.0775,-6.44,43.144,4.6,54.672,concentric,3,3.0,21235.0,309917.0,279843.0,328176.0,287680.0
2026-04-07 17:54:40.838184,285620,1551206453,1551208225,-1.077504,0.0976,0.0976,2.61625,4.13875,-6.64125,42.992,4.704,56.04,concentric,3,3.0,21235.0,309917.0,279843.0,328176.0,287680.0
2026-04-07 17:54:40.902989,285631,1551215799,1551216977,-1.077504,0.0976,0.0976,4.40125,3.3775,-6.67625,42.992,4.704,56.04,concentric,3,3.0,21334.0,310728.0,280439.0,328725.0,288116.0
2026-04-07 17:54:40.904428,285632,1551224786,1551225698,-1.089216,0.103456,0.089792,4.61125,3.3425,-6.99125,43.440002,4.976,53.640003,concentric,3,3.0,21334.0,310728.0,280439.0,328725.0,288116.0
2026-04-07 17:54:40.912362,285633,1551239314,1551240698,-1.091168,0.103456,0.083936,4.38375,3.56125,-6.3875,42.920002,4.56,55.192,concentric,3,3.0,21334.0,310728.0,280439.0,328725.0,288116.0
2026-04-07 17:54:40.914046,285634,1551248240,1551249398,-1.091168,0.103456,0.083936,1.95125,4.01625,-5.7925,42.920002,4.56,55.192,concentric,3,3.0,21334.0,310728.0,280439.0,328725.0,288116.0
2026-04-07 17:54:40.916223,285635,1551257148,1551258090,-1.091168,0.103456,0.08784,0.8925,4.61125,-5.7225,42.920002,4.56,54.096,concentric,3,3.0,21334.0,310728.0,280439.0,328725.0,288116.0
2026-04-07 17:54:40.919802,285636,1551271663,1551272963,-1.091168,0.103456,0.08784,0.315,4.7425,-5.04875,42.832,4.328,54.096,concentric,3,3.0,21334.0,310728.0,280439.0,328725.0,288116.0
2026-04-07 17:54:40.921591,285637,1551280652,1551281663,-1.089216,0.095648,0.095648,-0.28,5.97625,-5.90625,43.416,4.92,54.984,concentric,3,3.0,21334.0,310728.0,280439.0,328725.0,288116.0
2026-04-07 17:54:40.923110,285638,1551289553,1551290345,-1.089216,0.095648,0.095648,-1.085,7.035,-5.67875,43.416,4.92,54.984,concentric,3,3.0,21334.0,310728.0,280439.0,328725.0,288116.0
2026-04-07 17:54:40.927403,285639,1551298497,1551299073,-1.100928,0.095648,0.089792,-0.20125,7.245,-5.4775,42.784,4.192,56.864002,concentric,3,3.0,21334.0,310728.0,280439.0,328725.0,288116.0
2026-04-07 17:54:40.929136,285640,1551313237,1551313985,-1.100928,0.095648,0.089792,0.77875,6.57125,-4.97,42.784,4.192,56.864002,concentric,3,3.0,21334.0,310728.0,280439.0,328725.0,288116.0
2026-04-07 17:54:40.954833,285650,1551323112,1551324813,-1.114592,0.101504,0.080032,0.86625,5.9325,-4.9175,42.800003,4.224,56.984,concentric,3,3.0,21264.0,310170.0,280007.0,328246.0,287723.0
2026-04-07 17:54:40.956552,285651,1551332101,1551333578,-1.114592,0.101504,0.080032,-0.455,6.3875,-4.33125,42.800003,4.224,56.984,concentric,3,3.0,21264.0,310170.0,280007.0,328246.0,287723.0
2026-04-07 17:54:40.958128,285652,1551341058,1551342405,-1.108736,0.099552,0.07808,-1.19875,7.1925,-4.47125,42.768,4.264,56.704002,concentric,3,3.0,21264.0,310170.0,280007.0,328246.0,287723.0
2026-04-07 17:54:40.989208,285653,1551355581,1551357312,-1.108736,0.099552,0.07808,-2.03875,7.5425,-3.955,42.768,4.264,56.704002,concentric,3,3.0,21264.0,310170.0,280007.0,328246.0,287723.0
2026-04-07 17:54:40.991477,285654,1551364543,1551366006,-1.097024,0.066368,0.076128,-2.93125,7.4725,-4.24375,42.320004,4.16,55.176003,concentric,3,3.0,21264.0,310170.0,280007.0,328246.0,287723.0
2026-04-07 17:54:40.997057,285655,1551373472,1551374719,-1.097024,0.066368,0.076128,-2.12625,7.62125,-4.095,42.320004,4.16,55.176003,concentric,3,3.0,21264.0,310170.0,280007.0,328246.0,287723.0
2026-04-07 17:54:41.024518,285656,1551387954,1551389673,-1.0736,0.074176,0.099552,-0.35,7.42,-3.21125,42.904003,4.496,54.360004,concentric,3,3.0,21264.0,310170.0,280007.0,328246.0,287723.0
2026-04-07 17:54:41.029039,285657,1551396891,1551398381,-1.0736,0.074176,0.099552,1.46125,6.4225,-3.29,42.904003,4.496,54.360004,concentric,3,3.0,21264.0,310170.0,280007.0,328246.0,287723.0
2026-04-07 17:54:41.030597,285658,1551405817,1551407105,-1.065792,0.08784,0.093696,2.205,6.3,-2.765,42.944,3.984,54.344,concentric,3,3.0,21264.0,310170.0,280007.0,328246.0,287723.0
2026-04-07 17:54:41.059112,285668,1551420474,1551422089,-1.075552,0.103456,0.08784,1.19875,6.58,-2.80875,43.024002,4.136,54.680004,concentric,3,3.0,21305.0,310430.0,280221.0,328498.0,287951.0
2026-04-07 17:54:41.061599,285669,1551429617,1551430866,-1.075552,0.103456,0.08784,-0.5775,6.99125,-2.40625,43.024002,4.136,54.680004,concentric,3,3.0,21305.0,310430.0,280221.0,328498.0,287951.0
2026-04-07 17:54:41.062980,285670,1551438526,1551439557,-1.067744,0.095648,0.089792,-0.74375,7.2275,-2.73875,43.072002,3.896,56.792004,concentric,3,3.0,21305.0,310430.0,280221.0,328498.0,287951.0
2026-04-07 17:54:41.067218,285671,1551453080,1551454516,-1.067744,0.095648,0.089792,-0.42875,6.58875,-3.1675,43.072002,3.896,56.792004,concentric,3,3.0,21305.0,310430.0,280221.0,328498.0,287951.0
2026-04-07 17:54:41.095743,285672,1551462089,1551463236,-1.081408,0.085888,0.089792,-0.86625,7.035,-3.87625,43.552002,4.04,55.856003,concentric,3,3.0,21305.0,310430.0,280221.0,328498.0,287951.0
2026-04-07 17:54:41.100227,285673,1551471029,1551471924,-1.081408,0.085888,0.089792,0.245,6.4925,-4.305,43.552002,4.04,55.856003,concentric,3,3.0,21305.0,310430.0,280221.0,328498.0,287951.0
2026-04-07 17:54:41.102577,285674,1551479999,1551480649,-1.061888,0.08784,0.109312,2.1175,5.8275,-4.34,43.728,4.784,55.000004,concentric,3,3.0,21305.0,310430.0,280221.0,328498.0,287951.0
2026-04-07 17:54:41.108421,285675,1551494875,1551495593,-1.061888,0.08784,0.109312,4.0775,4.8825,-4.06875,43.728,4.784,55.000004,concentric,3,3.0,21305.0,310430.0,280221.0,328498.0,287951.0
2026-04-07 17:54:41.137051,285676,1551504290,1551506386,-1.069696,0.070272,0.099552,3.6575,4.97875,-5.0575,44.096,3.904,54.760002,concentric,3,3.0,21305.0,310430.0,280221.0,328498.0,287951.0
2026-04-07 17:54:41.140716,285677,1551513181,1551515075,-1.069696,0.070272,0.099552,2.9925,4.92625,-5.18,44.096,3.904,54.760002,concentric,3,3.0,21305.0,310430.0,280221.0,328498.0,287951.0
