pc_time,serial_num,sensor_ts,host_ts,ax,ay,az,gx,gy,gz,mx,my,mz,phase,rpe,weight_kg,ppg_a,ppg_b,ppg_c,ppg_d,ppg_e
2026-04-08 21:47:27.074618,214452,1609504019295616,1619262112,0.905728,0.113216,-0.193248,26.355,-7.0875,-14.46375,-25.064001,14.936001,4.944,eccentric,4,3.0,18462.0,138866.0,226862.0,278882.0,262743.0
2026-04-08 21:47:27.077141,214453,1609504019310744,1619277157,0.892064,0.101504,-0.220576,24.96375,-6.895,-13.895,-24.824001,14.816001,4.328,eccentric,4,3.0,18462.0,138866.0,226862.0,278882.0,262743.0
2026-04-08 21:47:27.080901,214454,1609504019319899,1619286143,0.952576,0.124928,-0.189344,21.84875,-6.18625,-13.335,-25.000002,15.136001,3.808,eccentric,4,3.0,18462.0,138866.0,226862.0,278882.0,262743.0
2026-04-08 21:47:27.111071,214455,1609504019334385,1619301081,0.952576,0.124928,-0.189344,20.335001,-6.1775,-12.4775,-25.000002,15.136001,3.808,eccentric,4,3.0,18462.0,138866.0,226862.0,278882.0,262743.0
2026-04-08 21:47:27.114639,214456,1609504019343310,1619309734,0.950624,0.16592,-0.050752,19.460001,-4.89125,-11.24375,-25.216002,14.400001,4.728,eccentric,4,3.0,18462.0,138866.0,226862.0,278882.0,262743.0
2026-04-08 21:47:27.117095,214457,1609504019352223,1619318391,0.950624,0.16592,-0.050752,17.535,-3.6925,-9.31,-25.216002,14.400001,4.728,eccentric,4,3.0,18462.0,138866.0,226862.0,278882.0,262743.0
2026-04-08 21:47:27.177177,214468,1609504019367180,1619333350,0.981856,0.11712,0.017568,14.0525,-2.17875,-7.9625,-25.408,14.296001,5.488,eccentric,4,3.0,18331.0,138453.0,226389.0,278615.0,262605.0
2026-04-08 21:47:27.179584,214469,1609504019376206,1619342124,0.981856,0.11712,0.017568,9.21375,-1.75,-6.7725,-25.408,14.296001,5.488,eccentric,4,3.0,18331.0,138453.0,226389.0,278615.0,262605.0
2026-04-08 21:47:27.182073,214470,1609504019390674,1619356959,0.976,0.083936,-0.091744,3.15875,-2.555,-5.41625,-25.208002,14.536,4.672,eccentric,4,3.0,18331.0,138453.0,226389.0,278615.0,262605.0
2026-04-08 21:47:27.184621,214471,1609504019399575,1619365679,0.962336,0.099552,0.013664,0.91,-2.835,-5.2325,-25.472002,14.56,4.304,eccentric,4,3.0,18331.0,138453.0,226389.0,278615.0,262605.0
2026-04-08 21:47:27.187071,214472,1609504019408591,1619374503,0.962336,0.099552,0.013664,3.77125,-2.73,-5.9675,-25.472002,14.56,4.304,eccentric,4,3.0,18331.0,138453.0,226389.0,278615.0,262605.0
2026-04-08 21:47:27.189564,214473,1609504019423121,1619389416,0.862784,0.103456,-0.15616,7.70875,-1.82,-5.46,-25.36,14.128,4.568,eccentric,4,3.0,18331.0,138453.0,226389.0,278615.0,262605.0
2026-04-08 21:47:27.193433,214474,1609504019432041,1619398078,0.862784,0.103456,-0.15616,11.24375,-1.25125,-4.9525,-25.36,14.128,4.568,eccentric,4,3.0,18331.0,138453.0,226389.0,278615.0,262605.0
2026-04-08 21:47:27.224829,214475,1609504019446557,1619412927,0.958432,0.113216,0.027328,11.5675,-1.295,-4.025,-25.512001,14.72,8.480001,eccentric,4,3.0,18331.0,138453.0,226389.0,278615.0,262605.0
2026-04-08 21:47:27.229136,214476,1609504019455505,1619421699,0.958432,0.113216,0.027328,9.948751,-1.12875,-4.06,-25.512001,14.72,8.480001,eccentric,4,3.0,18331.0,138453.0,226389.0,278615.0,262605.0
2026-04-08 21:47:27.255850,214487,1609504019470136,1619436603,0.958432,0.119072,0.03904,8.1725,-0.98,-3.54375,-25.560001,14.6,4.856,eccentric,4,3.0,18283.0,138240.0,226189.0,278437.0,262508.0
2026-04-08 21:47:27.258337,214488,1609504019479102,1619445282,0.958432,0.08784,-0.056608,6.9125,-0.7,-2.975,-25.560001,14.6,4.856,eccentric,4,3.0,18283.0,138240.0,226189.0,278437.0,262508.0
2026-04-08 21:47:27.260842,214489,1609504019488118,1619454010,0.952576,0.091744,-0.056608,7.735,-1.47,-2.23125,-25.44,14.528001,5.592001,eccentric,4,3.0,18283.0,138240.0,226189.0,278437.0,262508.0
2026-04-08 21:47:27.263380,214490,1609504019502740,1619468977,0.979904,0.070272,-0.16592,8.6275,-1.9075,-1.9775,-25.792002,14.088,5.536,eccentric,4,3.0,18283.0,138240.0,226189.0,278437.0,262508.0
2026-04-08 21:47:27.293580,214491,1609504019511698,1619477653,0.979904,0.070272,-0.16592,7.735,-1.925,-2.42375,-25.792002,14.088,5.536,eccentric,4,3.0,18283.0,138240.0,226189.0,278437.0,262508.0
2026-04-08 21:47:27.297171,214492,1609504019526169,1619492525,0.921344,0.064416,-0.1952,7.525,-1.05,-2.94875,-25.576002,14.056001,5.664,eccentric,4,3.0,18283.0,138240.0,226189.0,278437.0,262508.0
2026-04-08 21:47:27.299672,214493,1609504019535068,1619501168,0.921344,0.064416,-0.1952,9.7125,-0.34125,-2.82625,-25.576002,14.056001,5.664,eccentric,4,3.0,18283.0,138240.0,226189.0,278437.0,262508.0
2026-04-08 21:47:27.329825,214494,1609504019549576,1619516041,0.882304,0.150304,-0.062464,9.70375,-0.5425,-1.96875,-25.632002,14.136001,5.744,eccentric,4,3.0,18283.0,138240.0,226189.0,278437.0,262508.0
2026-04-08 21:47:27.333452,214495,1609504019558547,1619524737,0.882304,0.150304,-0.062464,9.31,-0.37625,-1.79375,-25.632002,14.136001,5.744,eccentric,4,3.0,18283.0,138240.0,226189.0,278437.0,262508.0
2026-04-08 21:47:27.360973,214506,1609504019567514,1619533609,0.894016,0.142496,-0.181536,7.91,-0.4375,-1.19,-25.632002,14.072001,6.576,eccentric,4,3.0,18221.0,138089.0,226015.0,278374.0,262468.0
2026-04-08 21:47:27.363449,214507,1609504019582178,1619548529,0.950624,0.119072,0.025376,5.95,-0.07875,-1.1725,-25.496,13.832001,4.52,eccentric,4,3.0,18221.0,138089.0,226015.0,278374.0,262468.0
2026-04-08 21:47:27.365912,214508,1609504019591221,1619557262,0.950624,0.119072,0.025376,2.35375,-0.09625,-0.8575,-25.496,13.832001,4.52,eccentric,4,3.0,18221.0,138089.0,226015.0,278374.0,262468.0
2026-04-08 21:47:27.368409,214509,1609504019605726,1619572175,0.938912,0.10736,0.003904,-0.49,0.1575,-0.0875,-25.456001,13.784,4.36,eccentric,4,3.0,18221.0,138089.0,226015.0,278374.0,262468.0
2026-04-08 21:47:27.402389,214510,1609504019614670,1619580855,0.938912,0.10736,0.003904,0.93625,0.0175,0.88375,-25.456001,13.784,4.36,eccentric,4,3.0,18221.0,138089.0,226015.0,278374.0,262468.0
2026-04-08 21:47:27.405916,214511,1609504019623585,1619589513,0.923296,0.13664,-0.070272,4.2525,0.1925,1.09375,-25.504002,14.368001,5.76,eccentric,4,3.0,18221.0,138089.0,226015.0,278374.0,262468.0
2026-04-08 21:47:27.408373,214512,1609504019638072,1619604306,0.923296,0.13664,-0.070272,6.53625,0.525,0.735,-25.504002,14.368001,5.76,eccentric,4,3.0,18221.0,138089.0,226015.0,278374.0,262468.0
2026-04-08 21:47:27.411004,214513,1609504019646996,1619612961,0.901824,0.109312,-0.193248,6.65,1.35625,0.21875,-25.344002,14.352,4.728,eccentric,4,3.0,18221.0,138089.0,226015.0,278374.0,262468.0
2026-04-08 21:47:27.441195,214514,1609504019661486,1619627818,0.933056,0.08784,-0.154208,4.45375,1.70625,0.6825,-25.432001,14.136001,4.736,eccentric,4,3.0,18221.0,138089.0,226015.0,278374.0,262468.0
2026-04-08 21:47:27.470580,214525,1609504019670544,1619636509,0.933056,0.08784,-0.154208,2.5025,1.40875,0.7,-25.432001,14.136001,4.736,eccentric,4,3.0,18192.0,137946.0,225813.0,278166.0,262331.0
2026-04-08 21:47:27.473457,214526,1609504019685054,1619651422,0.9272,0.122976,0.040992,1.2425,0.93625,0.51625,-25.28,14.400001,4.792,eccentric,4,3.0,18192.0,137946.0,225813.0,278166.0,262331.0
2026-04-08 21:47:27.475169,214527,1609504019694106,1619660175,0.9272,0.122976,0.040992,0.0175,1.28625,-0.30625,-25.28,14.400001,4.792,eccentric,4,3.0,18192.0,137946.0,225813.0,278166.0,262331.0
2026-04-08 21:47:27.477115,214528,1609504019703051,1619668843,0.8784,0.08784,-0.199104,-0.595,1.61875,-0.07875,-25.752,14.552001,6.152,eccentric,4,3.0,18192.0,137946.0,225813.0,278166.0,262331.0
2026-04-08 21:47:27.479619,214529,1609504019717553,1619683712,0.8784,0.08784,-0.199104,-0.5425,1.70625,0.60375,-25.752,14.552001,6.152,eccentric,4,3.0,18192.0,137946.0,225813.0,278166.0,262331.0
2026-04-08 21:47:27.511169,214530,1609504019726516,1619692511,0.911584,0.070272,-0.163968,-1.2425,1.75875,0.86625,-25.44,14.480001,5.968,eccentric,4,3.0,18192.0,137946.0,225813.0,278166.0,262331.0
2026-04-08 21:47:27.513460,214531,1609504019740994,1619707391,0.9272,0.089792,-0.206912,0.56,1.25125,-0.30625,-25.44,14.480001,5.968,eccentric,4,3.0,18192.0,137946.0,225813.0,278166.0,262331.0
2026-04-08 21:47:27.515932,214532,1609504019749930,1619716059,0.9272,0.089792,-0.206912,1.47,0.77,-1.435,-25.408,14.544001,6.056,eccentric,4,3.0,18192.0,137946.0,225813.0,278166.0,262331.0
2026-04-08 21:47:27.546157,214533,1609504019764433,1619730977,0.921344,0.12688,-0.025376,3.955,1.00625,-1.715,-25.768002,14.696001,5.952,eccentric,4,3.0,18192.0,137946.0,225813.0,278166.0,262331.0
2026-04-08 21:47:27.574719,214544,1609504019773364,1619739659,0.921344,0.12688,-0.025376,4.9875,2.05625,-0.13125,-25.768002,14.696001,5.952,eccentric,4,3.0,18214.0,138020.0,225889.0,278244.0,262399.0
2026-04-08 21:47:27.577123,214545,1609504019782257,1619748348,0.856928,0.113216,-0.103456,2.9575,2.51125,-0.035,-25.352001,14.312,3.792,eccentric,4,3.0,18214.0,138020.0,225889.0,278244.0,262399.0
2026-04-08 21:47:27.579606,214546,1609504019796721,1619763322,0.856928,0.113216,-0.103456,0.84875,2.70375,-0.67375,-25.352001,14.312,3.792,eccentric,4,3.0,18214.0,138020.0,225889.0,278244.0,262399.0
2026-04-08 21:47:27.582170,214547,1609504019805662,1619771990,0.837408,0.113216,-0.1952,-2.02125,1.75,-0.11375,-25.368002,13.872001,5.368,eccentric,4,3.0,18214.0,138020.0,225889.0,278244.0,262399.0
2026-04-08 21:47:27.587111,214548,1609504019820157,1619786883,0.837408,0.113216,-0.1952,-2.31,1.61875,0.3325,-25.368002,13.872001,5.368,eccentric,4,3.0,18214.0,138020.0,225889.0,278244.0,262399.0
2026-04-08 21:47:27.590900,214549,1609504019829117,1619795587,0.964288,0.099552,-0.054656,-0.16625,1.91625,-0.55125,-25.528002,14.176001,5.464,eccentric,4,3.0,18214.0,138020.0,225889.0,278244.0,262399.0
2026-04-08 21:47:27.637817,214550,1609504019843591,1619810425,0.958432,0.103456,-0.091744,1.0675,1.86375,-0.76125,-25.416,14.280001,6.008,eccentric,4,3.0,18214.0,138020.0,225889.0,278244.0,262399.0
2026-04-08 21:47:27.639691,214551,1609504019852519,1619819092,0.958432,0.103456,-0.091744,1.82875,2.77375,0.525,-25.416,14.280001,6.008,eccentric,4,3.0,18214.0,138020.0,225889.0,278244.0,262399.0
2026-04-08 21:47:27.641325,214552,1609504019861449,1619827757,0.958432,0.103456,0.0488,2.1875,3.395,0.805,-25.416,14.280001,6.008,eccentric,4,3.0,18214.0,138020.0,225889.0,278244.0,262399.0
2026-04-08 21:47:27.672775,214563,1609504019876405,1619842715,0.903776,0.134688,0.0488,0.9275,3.4475,0.945,-25.408,14.568001,7.232,eccentric,4,3.0,18185.0,137947.0,225844.0,278207.0,262368.0
2026-04-08 21:47:27.676184,214564,1609504019885327,1619851383,0.884256,0.122976,-0.023424,-1.085,2.86125,0.4025,-25.400002,14.280001,5.504,eccentric,4,3.0,18185.0,137947.0,225844.0,278207.0,262368.0
2026-04-08 21:47:27.682197,214565,1609504019899822,1619866261,0.884256,0.122976,-0.023424,-1.9075,1.7675,-0.35,-25.400002,14.280001,5.504,eccentric,4,3.0,18185.0,137947.0,225844.0,278207.0,262368.0
2026-04-08 21:47:27.683447,214566,1609504019908815,1619875007,0.9272,0.091744,-0.042944,-2.3275,1.39125,-1.085,-25.296001,14.208001,5.432,eccentric,4,3.0,18185.0,137947.0,225844.0,278207.0,262368.0
2026-04-08 21:47:27.694779,214567,1609504019923347,1619889950,0.925248,0.076128,-0.128832,-0.7175,1.2775,-1.89875,-25.448002,14.440001,5.112001,eccentric,4,3.0,18185.0,137947.0,225844.0,278207.0,262368.0
2026-04-08 21:47:27.697970,214568,1609504019932319,1619898663,0.925248,0.076128,-0.128832,2.35375,0.81375,-2.4675,-25.448002,14.440001,5.112001,eccentric,4,3.0,18185.0,137947.0,225844.0,278207.0,262368.0
2026-04-08 21:47:27.703790,214569,1609504019941248,1619907331,0.925248,0.076128,-0.128832,3.29,0.0525,-3.47375,-25.448002,14.440001,5.112001,eccentric,4,3.0,18185.0,137947.0,225844.0,278207.0,262368.0
2026-04-08 21:47:27.734809,214570,1609504019955731,1619922191,0.874496,0.093696,-0.23424,3.59625,-0.35875,-4.69,-25.400002,14.64,6.752,eccentric,4,3.0,18185.0,137947.0,225844.0,278207.0,262368.0
2026-04-08 21:47:27.737158,214571,1609504019964633,1619930873,0.856928,0.130784,-0.140544,4.41,-0.1575,-5.50375,-25.376001,14.336,5.488,eccentric,4,3.0,18185.0,137947.0,225844.0,278207.0,262368.0
2026-04-08 21:47:27.773488,214582,1609504019979168,1619946058,0.856928,0.130784,-0.140544,5.7225,-0.28875,-5.45125,-25.376001,14.336,5.488,eccentric,4,3.0,18220.0,138045.0,225981.0,278283.0,262436.0
2026-04-08 21:47:27.776225,214583,1609504019988195,1619954804,0.862784,0.140544,0.005856,5.95,-0.105,-4.795,-25.304,14.128,6.552001,eccentric,4,3.0,18220.0,138045.0,225981.0,278283.0,262436.0
2026-04-08 21:47:27.781882,214584,1609504019997167,1619963489,0.862784,0.140544,0.005856,3.5,-0.48125,-4.0425,-25.304,14.128,6.552001,eccentric,4,3.0,18220.0,138045.0,225981.0,278283.0,262436.0
2026-04-08 21:47:27.784415,214585,1609504020011901,1619978381,0.909632,0.105408,-0.222528,1.4175,-0.7525,-4.06875,-25.52,14.280001,5.296001,eccentric,4,3.0,18220.0,138045.0,225981.0,278283.0,262436.0
2026-04-08 21:47:27.788278,214586,1609504020020860,1619987120,0.909632,0.105408,-0.222528,2.5025,-1.26875,-5.29375,-25.52,14.280001,5.296001,eccentric,4,3.0,18220.0,138045.0,225981.0,278283.0,262436.0
2026-04-08 21:47:27.817467,214587,1609504020035386,1620002016,0.993568,0.10736,-0.13664,3.24625,-1.33875,-5.635,-25.464,14.200001,5.4,eccentric,4,3.0,18220.0,138045.0,225981.0,278283.0,262436.0
2026-04-08 21:47:27.823916,214588,1609504020044299,1620010675,1.001376,0.113216,0.001952,2.31,-1.015,-5.88,-25.472002,13.856001,6.512,eccentric,4,3.0,18220.0,138045.0,225981.0,278283.0,262436.0
2026-04-08 21:47:27.825537,214589,1609504020058747,1620025525,1.001376,0.113216,0.001952,1.7675,-0.805,-6.09875,-25.472002,13.856001,6.512,eccentric,4,3.0,18220.0,138045.0,225981.0,278283.0,262436.0
2026-04-08 21:47:27.853332,214600,1609504020067728,1620034136,0.903776,0.111264,-0.177632,0.91,-0.77875,-5.74875,-26.016,13.72,6.504,eccentric,4,3.0,18211.0,138023.0,225953.0,278241.0,262401.0
2026-04-08 21:47:27.855887,214601,1609504020076726,1620042810,0.903776,0.111264,-0.177632,0.42875,-0.84,-5.31125,-26.016,13.72,6.504,eccentric,4,3.0,18211.0,138023.0,225953.0,278241.0,262401.0
2026-04-08 21:47:27.858452,214602,1609504020091289,1620057788,1.007232,0.083936,-0.16592,0.13125,-1.5575,-5.74875,-25.44,14.144001,5.480001,eccentric,4,3.0,18211.0,138023.0,225953.0,278241.0,262401.0
2026-04-08 21:47:27.862146,214603,1609504020100304,1620066472,1.007232,0.083936,-0.16592,1.5575,-2.4325,-5.99375,-25.44,14.144001,5.480001,eccentric,4,3.0,18211.0,138023.0,225953.0,278241.0,262401.0
2026-04-08 21:47:27.893414,214604,1609504020114777,1620081329,1.009184,0.130784,-0.124928,2.835,-2.485,-6.39625,-25.496,14.496,6.232,eccentric,4,3.0,18211.0,138023.0,225953.0,278241.0,262401.0
2026-04-08 21:47:27.895910,214605,1609504020123698,1620089999,0.962336,0.138592,-0.169824,4.3575,-2.52,-6.44875,-25.496,13.864,5.592001,eccentric,4,3.0,18211.0,138023.0,225953.0,278241.0,262401.0
2026-04-08 21:47:27.899616,214606,1609504020138169,1620104887,0.962336,0.138592,-0.169824,5.76625,-1.995,-6.23,-25.808,13.864,5.592001,eccentric,4,3.0,18211.0,138023.0,225953.0,278241.0,262401.0
2026-04-08 21:47:27.930887,214607,1609504020147079,1620113568,1.003328,0.113216,-0.20496,3.36,-1.5575,-5.71375,-25.736002,14.272,5.656,eccentric,4,3.0,18211.0,138023.0,225953.0,278241.0,262401.0
2026-04-08 21:47:27.933360,214608,1609504020155998,1620122224,1.003328,0.113216,-0.20496,-0.56,-1.37375,-4.80375,-25.736002,14.272,5.656,eccentric,4,3.0,18211.0,138023.0,225953.0,278241.0,262401.0
2026-04-08 21:47:27.964648,214619,1609504020170576,1620137222,1.065792,0.113216,-0.208864,-0.5425,-1.74125,-3.4125,-25.976002,13.68,5.856,eccentric,4,3.0,18206.0,138057.0,225961.0,278187.0,262335.0
2026-04-08 21:47:27.969685,214620,1609504020179786,1620146009,1.065792,0.113216,-0.208864,0.42875,-2.1175,-2.73875,-25.976002,13.68,5.856,eccentric,4,3.0,18206.0,138057.0,225961.0,278187.0,262335.0
2026-04-08 21:47:27.975829,214621,1609504020194290,1620160887,1.056032,0.17568,-0.046848,0.595,-2.58125,-3.03625,-25.592001,13.872001,6.496,eccentric,4,3.0,18206.0,138057.0,225961.0,278187.0,262335.0
2026-04-08 21:47:27.978393,214622,1609504020203284,1620169610,1.056032,0.17568,-0.046848,1.0675,-2.4325,-3.54375,-25.592001,13.872001,6.496,eccentric,4,3.0,18206.0,138057.0,225961.0,278187.0,262335.0
2026-04-08 21:47:27.980885,214623,1609504020212245,1620178368,1.15168,0.105408,-0.138592,0.315,-2.415,-3.7625,-25.320002,13.848001,8.104,eccentric,4,3.0,18206.0,138057.0,225961.0,278187.0,262335.0
2026-04-08 21:47:28.011062,214624,1609504020226734,1620193306,1.136064,0.122976,-0.099552,-1.295,-2.52,-2.9925,-26.160002,14.056001,7.312,eccentric,4,3.0,18206.0,138057.0,225961.0,278187.0,262335.0
2026-04-08 21:47:28.014640,214625,1609504020235631,1620201955,1.136064,0.122976,-0.099552,-2.86125,-2.0825,-2.44125,-26.160002,14.056001,7.312,eccentric,4,3.0,18206.0,138057.0,225961.0,278187.0,262335.0
2026-04-08 21:47:28.017137,214626,1609504020250100,1620216832,1.130208,0.12688,-0.140544,-4.27875,-1.8375,-2.80875,-25.464,13.688001,5.784,eccentric,4,3.0,18206.0,138057.0,225961.0,278187.0,262335.0
2026-04-08 21:47:28.022109,214627,1609504020259009,1620225483,1.130208,0.12688,-0.140544,-3.0625,-1.98625,-1.98625,-25.464,13.688001,5.784,eccentric,4,3.0,18206.0,138057.0,225961.0,278187.0,262335.0
2026-04-08 21:47:28.078360,214638,1609504020273624,1620240371,1.138016,0.132736,-0.0976,-2.8,-1.93375,-1.3125,-25.592001,13.64,5.496,eccentric,4,3.0,18279.0,138172.0,226070.0,278242.0,262317.0
2026-04-08 21:47:28.080902,214639,1609504020282600,1620249082,1.138016,0.132736,-0.0976,-2.96625,-2.61625,-1.46125,-25.592001,13.64,5.496,eccentric,4,3.0,18279.0,138172.0,226070.0,278242.0,262317.0
2026-04-08 21:47:28.083380,214640,1609504020291524,1620257752,1.04432,0.134688,-0.23424,-4.01625,-3.22875,-1.26875,-25.248001,13.744,5.56,eccentric,4,3.0,18279.0,138172.0,226070.0,278242.0,262317.0
2026-04-08 21:47:28.085872,214641,1609504020306034,1620272623,1.110688,0.105408,-0.152256,-4.05125,-2.61625,-1.05,-25.424002,13.904,7.312,eccentric,4,3.0,18279.0,138172.0,226070.0,278242.0,262317.0
2026-04-08 21:47:28.088405,214642,1609504020315006,1620281349,1.110688,0.105408,-0.152256,-3.68375,-3.17625,-1.75875,-25.424002,13.904,7.312,eccentric,4,3.0,18279.0,138172.0,226070.0,278242.0,262317.0
2026-04-08 21:47:28.090985,214643,1609504020329616,1620296240,1.110688,0.119072,-0.08784,-3.99,-3.33375,-2.42375,-25.176,13.704,6.28,eccentric,4,3.0,18279.0,138172.0,226070.0,278242.0,262317.0
2026-04-08 21:47:28.121211,214644,1609504020338545,1620304966,1.110688,0.119072,-0.08784,-3.4125,-2.77375,-1.9075,-25.176,13.704,6.28,eccentric,4,3.0,18279.0,138172.0,226070.0,278242.0,262317.0
2026-04-08 21:47:28.124692,214645,1609504020353008,1620319807,1.059936,0.132736,-0.269376,-2.79125,-2.61625,-0.665,-25.224,13.528001,5.496,eccentric,4,3.0,18279.0,138172.0,226070.0,278242.0,262317.0
2026-04-08 21:47:28.127212,214646,1609504020361913,1620328513,1.059936,0.132736,-0.269376,-1.77625,-1.77625,2.19625,-25.224,13.528001,5.496,eccentric,4,3.0,18279.0,138172.0,226070.0,278242.0,262317.0
2026-04-08 21:47:28.157117,214657,1609504020371396,1620337872,1.057984,0.212768,-0.05856,-1.015,-0.55125,5.635,-24.992,13.624001,5.568,eccentric,4,3.0,18328.0,138338.0,226219.0,278294.0,262338.0
2026-04-08 21:47:28.159609,214658,1609504020385956,1620352886,0.99552,0.16592,-0.27328,-1.2425,-0.49875,8.19,-25.024002,14.176001,5.616,eccentric,4,3.0,18328.0,138338.0,226219.0,278294.0,262338.0
2026-04-08 21:47:28.162116,214659,1609504020394893,1620361576,0.99552,0.16592,-0.27328,-1.8725,-1.02375,8.33,-25.024002,14.176001,5.616,eccentric,4,3.0,18328.0,138338.0,226219.0,278294.0,262338.0
2026-04-08 21:47:28.192407,214660,1609504020409471,1620376457,0.989664,0.066368,-0.245952,-6.2825,-1.60125,6.8775,-24.872002,14.280001,7.16,eccentric,4,3.0,18328.0,138338.0,226219.0,278294.0,262338.0
2026-04-08 21:47:28.195915,214661,1609504020418392,1620385172,0.989664,0.066368,-0.245952,-17.77125,-2.0475,7.0,-24.872002,14.280001,7.16,eccentric,4,3.0,18328.0,138338.0,226219.0,278294.0,262338.0
2026-04-08 21:47:28.198399,214662,1609504020427291,1620393823,1.048224,0.054656,-0.007808,-26.46875,-2.38875,6.965,-24.512001,14.376,3.584,eccentric,4,3.0,18328.0,138338.0,226219.0,278294.0,262338.0
2026-04-08 21:47:28.204650,214663,1609504020441751,1620408732,1.048224,0.054656,-0.007808,-21.42,-2.45,6.545,-24.512001,14.376,3.584,eccentric,4,3.0,18328.0,138338.0,226219.0,278294.0,262338.0
2026-04-08 21:47:28.236108,214664,1609504020450690,1620417421,1.065792,0.081984,-0.054656,-11.935,-1.72375,8.295,-24.112001,14.008,5.392,eccentric,4,3.0,18328.0,138338.0,226219.0,278294.0,262338.0
2026-04-08 21:47:28.239686,214665,1609504020465228,1620432262,1.065792,0.081984,-0.132736,-3.00125,-1.44375,10.3425,-24.112001,14.008,5.392,eccentric,4,3.0,18328.0,138338.0,226219.0,278294.0,262338.0
2026-04-08 21:47:28.271698,214676,1609504020474599,1620441006,0.958432,0.171776,-0.13664,3.8325,-1.295,11.865,-24.136002,14.472001,3.936,eccentric,4,3.0,18440.0,138729.0,226670.0,278610.0,262511.0
2026-04-08 21:47:28.273854,214677,1609504020489146,1620455936,0.911584,0.138592,-0.247904,5.62625,-1.2425,13.3175,-24.096,14.784,6.704001,eccentric,4,3.0,18440.0,138729.0,226670.0,278610.0,262511.0
2026-04-08 21:47:28.275955,214678,1609504020498135,1620464624,0.911584,0.138592,-0.247904,-2.80875,-1.58375,14.0,-24.096,14.784,6.704001,eccentric,4,3.0,18440.0,138729.0,226670.0,278610.0,262511.0
2026-04-08 21:47:28.278446,214679,1609504020507165,1620473314,0.94672,0.091744,-0.206912,-14.945,-2.38875,13.667501,-23.584002,14.848001,6.064,eccentric,4,3.0,18440.0,138729.0,226670.0,278610.0,262511.0
2026-04-08 21:47:28.283451,214680,1609504020521714,1620488268,0.94672,0.091744,-0.206912,-21.525,-2.86125,14.25375,-23.584002,14.848001,6.064,eccentric,4,3.0,18440.0,138729.0,226670.0,278610.0,262511.0
2026-04-08 21:47:28.314633,214681,1609504020530634,1620496977,1.04432,0.021472,-0.163968,-22.75,-2.07375,15.05875,-23.064001,15.064001,6.168,eccentric,4,3.0,18440.0,138729.0,226670.0,278610.0,262511.0
2026-04-08 21:47:28.316837,214682,1609504020545117,1620511862,1.04432,0.021472,-0.163968,-19.285,-1.225,17.10625,-23.064001,15.064001,6.168,eccentric,4,3.0,18440.0,138729.0,226670.0,278610.0,262511.0
2026-04-08 21:47:28.321453,214683,1609504020554031,1620520529,0.954528,0.03904,-0.296704,-14.42,-0.69125,19.36375,-23.272001,14.848001,3.8,eccentric,4,3.0,18440.0,138729.0,226670.0,278610.0,262511.0
2026-04-08 21:47:28.351476,214684,1609504020568564,1620535400,0.98576,0.050752,-0.060512,-10.07125,-0.48125,21.48125,-22.856,15.312,5.544,eccentric,4,3.0,18440.0,138729.0,226670.0,278610.0,262511.0
2026-04-08 21:47:28.378365,214695,1609504020577513,1620544104,0.98576,0.050752,-0.060512,-4.7075,-0.21875,23.73875,-22.856,15.312,5.544,eccentric,4,3.0,18605.0,139284.0,227308.0,278997.0,262704.0
2026-04-08 21:47:28.380855,214696,1609504020586440,1620552836,0.860832,0.070272,-0.167872,-3.17625,0.105,25.3575,-22.856,15.312,5.544,eccentric,4,3.0,18605.0,139284.0,227308.0,278997.0,262704.0
2026-04-08 21:47:28.383404,214697,1609504020600969,1620567725,0.862784,0.070272,-0.167872,-4.445,-0.67375,24.64875,-22.408,15.632001,5.36,eccentric,4,3.0,18605.0,139284.0,227308.0,278997.0,262704.0
2026-04-08 21:47:28.385956,214698,1609504020609889,1620576461,0.974048,-0.007808,-0.212768,-8.61875,-1.53125,23.695,-22.112001,16.216002,7.208,eccentric,4,3.0,18605.0,139284.0,227308.0,278997.0,262704.0
2026-04-08 21:47:28.388505,214699,1609504020624413,1620591389,0.974048,-0.007808,-0.212768,-13.58875,-2.205,23.94875,-22.112001,16.216002,7.208,eccentric,4,3.0,18605.0,139284.0,227308.0,278997.0,262704.0
2026-04-08 21:47:28.419794,214700,1609504020633351,1620600138,0.915488,-0.00976,-0.259616,-15.198751,-1.4175,24.64,-22.000002,16.328001,8.304001,eccentric,4,3.0,18605.0,139284.0,227308.0,278997.0,262704.0
2026-04-08 21:47:28.422235,214701,1609504020647851,1620613008,0.892064,0.005856,-0.0488,-13.85125,-0.18375,26.29375,-21.328001,16.464,6.64,eccentric,4,3.0,18605.0,139284.0,227308.0,278997.0,262704.0
2026-04-08 21:47:28.424701,214702,1609504020656998,1620623732,0.892064,0.005856,-0.0488,-13.50125,0.77875,28.56,-21.328001,16.464,6.64,eccentric,4,3.0,18605.0,139284.0,227308.0,278997.0,262704.0
2026-04-08 21:47:28.427152,214703,1609504020665928,1620632409,0.892064,0.005856,-0.0488,-13.755,0.8225,30.54625,-21.328001,16.464,6.64,eccentric,4,3.0,18605.0,139284.0,227308.0,278997.0,262704.0
2026-04-08 21:47:28.458383,214714,1609504020680932,1620647657,0.833504,-0.005856,-0.203008,-13.09,0.48125,31.15875,-20.912,16.736,3.68,eccentric,4,3.0,18684.0,139618.0,227620.0,279289.0,262929.0
2026-04-08 21:47:28.460925,214715,1609504020689890,1620656363,0.823744,-0.027328,-0.1952,-13.97375,0.06125,28.88375,-20.824001,16.632,6.152,eccentric,4,3.0,18684.0,139618.0,227620.0,279289.0,262929.0
2026-04-08 21:47:28.465916,214716,1609504020704460,1620671278,0.823744,-0.027328,-0.1952,-19.2325,-1.155,25.01625,-20.824001,16.632,6.152,eccentric,4,3.0,18684.0,139618.0,227620.0,279289.0,262929.0
2026-04-08 21:47:28.496155,214717,1609504020713478,1620679959,0.860832,-0.042944,-0.122976,-23.40625,-2.5025,22.61875,-20.288,17.288,6.072001,eccentric,4,3.0,18684.0,139618.0,227620.0,279289.0,262929.0
2026-04-08 21:47:28.499691,214718,1609504020722404,1620688678,0.860832,-0.042944,-0.122976,-19.678751,-2.72125,22.505,-20.288,17.288,6.072001,eccentric,4,3.0,18684.0,139618.0,227620.0,279289.0,262929.0
2026-04-08 21:47:28.502190,214719,1609504020736878,1620703525,0.88816,-0.040992,0.011712,-10.7975,-2.58125,23.0475,-19.784,17.392,5.344,eccentric,4,3.0,18684.0,139618.0,227620.0,279289.0,262929.0
2026-04-08 21:47:28.507134,214720,1609504020745847,1620712254,0.88816,-0.040992,0.011712,-4.26125,-2.66875,22.7675,-19.784,17.392,5.344,eccentric,4,3.0,18684.0,139618.0,227620.0,279289.0,262929.0
2026-04-08 21:47:28.544120,214721,1609504020760311,1620727136,0.808128,-0.01952,0.007808,-2.63375,-2.79125,21.7175,-20.104,17.568,6.256001,eccentric,4,3.0,18684.0,139618.0,227620.0,279289.0,262929.0
2026-04-08 21:47:28.547218,214722,1609504020769212,1620735804,0.847168,-0.03904,-0.148352,-5.0925,-3.2725,21.428751,-19.240002,17.776001,3.656,eccentric,4,3.0,18684.0,139618.0,227620.0,279289.0,262929.0
2026-04-08 21:47:28.574676,214733,1609504020783768,1620750727,0.847168,-0.03904,-0.148352,-8.61,-6.04625,20.65,-19.240002,17.776001,3.656,eccentric,4,3.0,18861.0,140180.0,228177.0,279627.0,263098.0
2026-04-08 21:47:28.577074,214734,1609504020792700,1620759397,0.921344,-0.056608,0.0488,-9.5025,-7.6475,17.99875,-19.232,17.880001,5.480001,eccentric,4,3.0,18861.0,140180.0,228177.0,279627.0,263098.0
2026-04-08 21:47:28.579634,214735,1609504020801644,1620768095,0.921344,-0.056608,0.0488,-9.415,-7.4375,15.18125,-19.232,17.880001,5.480001,eccentric,4,3.0,18861.0,140180.0,228177.0,279627.0,263098.0
2026-04-08 21:47:28.582128,214736,1609504020816179,1620783032,0.796416,-0.054656,-0.013664,-13.58875,-5.73125,14.11375,-19.064001,17.936,6.768,eccentric,4,3.0,18861.0,140180.0,228177.0,279627.0,263098.0
2026-04-08 21:47:28.586565,214737,1609504020825104,1620791728,0.796416,-0.054656,-0.013664,-17.36875,-5.01375,13.965,-19.064001,17.936,6.768,eccentric,4,3.0,18861.0,140180.0,228177.0,279627.0,263098.0
2026-04-08 21:47:28.616972,214738,1609504020839632,1620806602,0.720288,-0.03904,-0.054656,-15.75875,-4.0425,14.5775,-19.112001,18.160002,5.912,eccentric,4,3.0,18861.0,140180.0,228177.0,279627.0,263098.0
2026-04-08 21:47:28.621355,214739,1609504020848500,1620815247,0.833504,-0.064416,-0.08784,-14.60375,-4.375,14.175,-18.728,17.744001,4.784,eccentric,4,3.0,18861.0,140180.0,228177.0,279627.0,263098.0
2026-04-08 21:47:28.627570,214740,1609504020862979,1620830138,0.833504,-0.064416,-0.08784,-15.18125,-4.9525,12.7575,-18.728,17.744001,4.784,eccentric,4,3.0,18861.0,140180.0,228177.0,279627.0,263098.0
2026-04-08 21:47:28.682153,214751,1609504020871915,1620838927,0.798368,-0.109312,-0.179584,-15.0325,-4.92625,9.73875,-18.528002,18.08,4.704,eccentric,4,3.0,18864.0,140208.0,228223.0,279755.0,263197.0
2026-04-08 21:47:28.684623,214752,1609504020880889,1620847700,0.798368,-0.109312,-0.179584,-14.83125,-3.73625,6.74625,-18.528002,18.08,4.704,eccentric,4,3.0,18864.0,140208.0,228223.0,279755.0,263197.0
2026-04-08 21:47:28.687147,214753,1609504020895381,1620860524,0.835456,-0.130784,-0.085888,-14.3675,-2.51125,5.1275,-18.152,18.08,5.28,eccentric,4,3.0,18864.0,140208.0,228223.0,279755.0,263197.0
2026-04-08 21:47:28.689732,214754,1609504020904489,1620871249,0.835456,-0.130784,-0.085888,-12.285,-0.62125,5.005,-18.152,18.08,5.28,eccentric,4,3.0,18864.0,140208.0,228223.0,279755.0,263197.0
2026-04-08 21:47:28.692130,214755,1609504020919054,1620886171,0.730048,-0.035136,-0.0488,-7.105,1.2775,5.24125,-18.288,18.272001,5.84,eccentric,4,3.0,18864.0,140208.0,228223.0,279755.0,263197.0
2026-04-08 21:47:28.694609,214756,1609504020928079,1620894883,0.730048,-0.035136,-0.0488,-1.26875,1.9775,4.24375,-18.288,18.272001,5.84,eccentric,4,3.0,18864.0,140208.0,228223.0,279755.0,263197.0
2026-04-08 21:47:28.700860,214757,1609504020937004,1620903547,0.774944,-0.031232,0.0488,-0.23625,2.1525,1.8725,-18.400002,18.096,6.128,eccentric,4,3.0,18864.0,140208.0,228223.0,279755.0,263197.0
2026-04-08 21:47:28.731057,214758,1609504020951478,1620918399,0.806176,-0.062464,0.033184,-2.79125,2.66875,-1.33,-18.12,18.0,4.672,eccentric,4,3.0,18864.0,140208.0,228223.0,279755.0,263197.0
2026-04-08 21:47:28.734664,214759,1609504020960385,1620927054,0.806176,-0.062464,0.033184,-4.17375,3.745,-3.3075,-18.12,18.0,4.672,eccentric,4,3.0,18864.0,140208.0,228223.0,279755.0,263197.0
2026-04-08 21:47:28.762096,214770,1609504020974938,1620942010,0.823744,-0.083936,-0.105408,-3.50875,4.2875,-2.9925,-18.016,17.848001,5.376,eccentric,4,3.0,18783.0,139854.0,227720.0,279503.0,263099.0
2026-04-08 21:47:28.764626,214771,1609504020983970,1620950715,0.823744,-0.083936,-0.105408,0.41125,5.0225,-1.07625,-18.016,17.848001,5.376,eccentric,4,3.0,18783.0,139854.0,227720.0,279503.0,263099.0
2026-04-08 21:47:28.767121,214772,1609504020998613,1620965609,0.827648,-0.080032,-0.105408,10.386251,6.50125,-0.42,-17.84,17.848001,5.36,eccentric,4,3.0,18783.0,139854.0,227720.0,279503.0,263099.0
2026-04-08 21:47:28.769669,214773,1609504021007555,1620974274,0.827648,-0.080032,-0.105408,17.89375,7.11375,-0.6825,-17.84,17.848001,5.36,eccentric,4,3.0,18783.0,139854.0,227720.0,279503.0,263099.0
2026-04-08 21:47:28.799865,214774,1609504021016530,1620982954,0.892064,-0.040992,0.05856,18.71625,7.37625,-0.9275,-17.832,18.224,5.864,eccentric,4,3.0,18783.0,139854.0,227720.0,279503.0,263099.0
2026-04-08 21:47:28.803438,214775,1609504021030983,1620997826,0.925248,-0.085888,-0.015616,16.24875,7.95375,-0.00875,-17.744001,17.536001,8.128,eccentric,4,3.0,18783.0,139854.0,227720.0,279503.0,263099.0
2026-04-08 21:47:28.805981,214776,1609504021039948,1621006489,0.925248,-0.085888,-0.015616,13.7025,8.8025,1.6625,-17.744001,17.536001,8.128,eccentric,4,3.0,18783.0,139854.0,227720.0,279503.0,263099.0
2026-04-08 21:47:28.838590,214777,1609504021054469,1621021350,0.843264,-0.101504,-0.177632,10.15,9.79125,3.6575,-17.792002,18.128,6.744,eccentric,4,3.0,18783.0,139854.0,227720.0,279503.0,263099.0
2026-04-08 21:47:28.842153,214778,1609504021063401,1621029994,0.843264,-0.101504,-0.177632,6.51875,10.78875,5.4075,-17.792002,18.128,6.744,eccentric,4,3.0,18783.0,139854.0,227720.0,279503.0,263099.0
2026-04-08 21:47:28.869624,214789,1609504021078160,1621044968,0.808128,-0.070272,0.035136,4.76,11.76,7.56,-17.288,17.872002,6.088,eccentric,4,3.0,18714.0,139478.0,227146.0,279079.0,262896.0
2026-04-08 21:47:28.872234,214790,1609504021087094,1621053624,0.808128,-0.070272,0.035136,7.07875,12.32875,7.65625,-17.288,17.872002,6.088,eccentric,4,3.0,18714.0,139478.0,227146.0,279079.0,262896.0
2026-04-08 21:47:28.874680,214791,1609504021096152,1621062368,0.864736,-0.103456,0.003904,9.26625,12.985,7.95375,-17.032001,17.904001,7.144001,eccentric,4,3.0,18714.0,139478.0,227146.0,279079.0,262896.0
2026-04-08 21:47:28.877231,214792,1609504021110698,1621077316,0.83936,0.00976,-0.054656,7.62125,12.565,7.25375,-17.240002,18.032001,6.544,eccentric,4,3.0,18714.0,139478.0,227146.0,279079.0,262896.0
2026-04-08 21:47:28.880884,214793,1609504021119615,1621085993,0.83936,0.00976,-0.054656,8.51375,12.88,8.16375,-17.240002,18.032001,6.544,eccentric,4,3.0,18714.0,139478.0,227146.0,279079.0,262896.0
2026-04-08 21:47:28.916139,214794,1609504021134105,1621100862,0.882304,-0.023424,-0.003904,7.6125,14.63875,5.45125,-16.832,18.232,6.704001,eccentric,4,3.0,18714.0,139478.0,227146.0,279079.0,262896.0
2026-04-08 21:47:28.919674,214795,1609504021143037,1621109515,0.882304,-0.023424,-0.003904,4.12125,15.54,-1.8725,-16.832,18.232,6.704001,eccentric,4,3.0,18714.0,139478.0,227146.0,279079.0,262896.0
2026-04-08 21:47:28.922174,214796,1609504021151967,1621118206,0.784704,-0.099552,-0.042944,-10.03625,14.58625,2.555,-16.392,18.512001,6.176,eccentric,4,3.0,18714.0,139478.0,227146.0,279079.0,262896.0
2026-04-08 21:47:28.928474,214797,1609504021166445,1621133099,0.784704,-0.099552,-0.042944,-30.59,14.02625,8.365,-16.392,18.512001,6.176,eccentric,4,3.0,18714.0,139478.0,227146.0,279079.0,262896.0
2026-04-08 21:47:28.959655,214808,1609504021175946,1621142088,0.774944,-0.122976,-0.091744,-31.0275,12.67875,7.9975,-16.544,18.464,7.08,eccentric,4,3.0,18870.0,139946.0,227591.0,279177.0,262873.0
2026-04-08 21:47:28.962246,214809,1609504021190498,1621157067,0.843264,-0.128832,-0.06832,-25.17375,11.66375,4.43625,-16.544,18.800001,6.304,eccentric,4,3.0,18870.0,139946.0,227591.0,279177.0,262873.0
2026-04-08 21:47:28.964678,214810,1609504021199423,1621165770,0.843264,-0.128832,-0.06832,-21.0,11.34,2.16125,-16.640001,18.800001,6.304,eccentric,4,3.0,18870.0,139946.0,227591.0,279177.0,262873.0
2026-04-08 21:47:28.996282,214811,1609504021213972,1621180737,0.769088,-0.074176,0.013664,-14.28875,10.3075,0.28,-16.688002,18.696001,8.504001,eccentric,4,3.0,18870.0,139946.0,227591.0,279177.0,262873.0
2026-04-08 21:47:28.999656,214812,1609504021222896,1621189413,0.769088,-0.074176,0.013664,-8.19,8.40875,0.2275,-16.688002,18.696001,8.504001,eccentric,4,3.0,18870.0,139946.0,227591.0,279177.0,262873.0
2026-04-08 21:47:29.002167,214813,1609504021231804,1621198086,0.806176,-0.10736,-0.124928,-5.18875,7.41125,-0.09625,-16.480001,18.576,4.64,eccentric,4,3.0,18870.0,139946.0,227591.0,279177.0,262873.0
2026-04-08 21:47:29.008377,214814,1609504021246306,1621212927,0.806176,-0.10736,-0.124928,-7.1925,6.51,-0.60375,-16.480001,18.576,4.64,eccentric,4,3.0,18870.0,139946.0,227591.0,279177.0,262873.0
2026-04-08 21:47:29.039741,214815,1609504021255223,1621221588,0.755424,-0.070272,-0.142496,-11.165,5.92375,-1.12,-16.352001,18.512001,6.456,eccentric,4,3.0,18870.0,139946.0,227591.0,279177.0,262873.0
2026-04-08 21:47:29.042248,214816,1609504021269716,1621236501,0.755424,-0.070272,-0.142496,-12.25,4.97875,-1.8025,-16.352001,18.512001,6.456,eccentric,4,3.0,18870.0,139946.0,227591.0,279177.0,262873.0
2026-04-08 21:47:29.073817,214827,1609504021279003,1621245206,0.776896,-0.08784,-0.218624,-10.15,3.07125,-2.14375,-16.264,18.632,6.168,eccentric,4,3.0,19090.0,140700.0,228327.0,279643.0,263101.0
2026-04-08 21:47:29.075866,214828,1609504021287947,1621253951,0.776896,-0.08784,-0.218624,-6.95625,1.51375,-2.47625,-16.264,18.632,6.168,eccentric,4,3.0,19090.0,140700.0,228327.0,279643.0,263101.0
2026-04-08 21:47:29.083412,214829,1609504021302499,1621268878,0.862784,-0.085888,0.06832,-5.2325,0.53375,-3.36875,-16.472,18.704,7.416,eccentric,4,3.0,19090.0,140700.0,228327.0,279643.0,263101.0
2026-04-08 21:47:29.085900,214830,1609504021311411,1621277558,0.812032,-0.089792,-0.017568,-7.58625,0.34125,-4.83875,-16.472,18.68,8.728001,eccentric,4,3.0,19090.0,140700.0,228327.0,279643.0,263101.0
2026-04-08 21:47:29.088388,214831,1609504021325919,1621292468,0.812032,-0.089792,-0.017568,-11.261251,0.77,-4.82125,-16.776001,18.68,8.728001,eccentric,4,3.0,19090.0,140700.0,228327.0,279643.0,263101.0
2026-04-08 21:47:29.118709,214832,1609504021334871,1621301167,0.825696,-0.080032,-0.031232,-10.56125,-0.2625,-5.0575,-16.472,18.592001,7.400001,eccentric,4,3.0,19090.0,140700.0,228327.0,279643.0,263101.0
2026-04-08 21:47:29.122236,214833,1609504021349338,1621316022,0.825696,-0.080032,-0.031232,-7.00875,-1.47875,-6.125,-16.472,18.592001,7.400001,eccentric,4,3.0,19090.0,140700.0,228327.0,279643.0,263101.0
2026-04-08 21:47:29.124717,214834,1609504021358271,1621324669,0.851072,-0.070272,-0.091744,-6.90375,-2.84375,-7.91875,-16.400002,18.448,6.168,eccentric,4,3.0,19090.0,140700.0,228327.0,279643.0,263101.0
2026-04-08 21:47:29.129760,214835,1609504021367190,1621333329,0.851072,-0.070272,-0.091744,-9.7125,-3.70125,-9.79125,-16.400002,18.448,6.168,eccentric,4,3.0,19090.0,140700.0,228327.0,279643.0,263101.0
2026-04-08 21:47:29.160919,214846,1609504021381778,1621348318,0.89792,-0.091744,-0.050752,-11.68125,-3.75375,-11.4975,-16.424002,18.792002,6.336,concentric,4,3.0,19132.0,140708.0,228291.0,279602.0,263048.0
2026-04-08 21:47:29.166098,214847,1609504021390718,1621357064,0.89792,-0.091744,-0.050752,-11.095,-4.26125,-12.573751,-16.424002,18.792002,6.336,concentric,4,3.0,19132.0,140708.0,228291.0,279602.0,263048.0
2026-04-08 21:47:29.167130,214848,1609504021405273,1621371959,0.88816,-0.066368,0.080032,-10.955,-5.41625,-12.2675,-16.968,18.712002,6.664001,concentric,4,3.0,19132.0,140708.0,228291.0,279602.0,263048.0
2026-04-08 21:47:29.197332,214849,1609504021414244,1621380649,0.942816,-0.085888,-0.101504,-11.235,-6.125,-12.705,-16.896,18.624,6.376,concentric,4,3.0,19132.0,140708.0,228291.0,279602.0,263048.0
2026-04-08 21:47:29.200910,214850,1609504021428672,1621395499,0.942816,-0.085888,-0.101504,-12.38125,-7.07875,-14.945,-16.896,18.624,6.376,concentric,4,3.0,19132.0,140708.0,228291.0,279602.0,263048.0
2026-04-08 21:47:29.203420,214851,1609504021437587,1621404177,0.919392,-0.070272,-0.150304,-15.1375,-7.245,-16.5375,-16.904001,18.44,5.888001,concentric,4,3.0,19132.0,140708.0,228291.0,279602.0,263048.0
2026-04-08 21:47:29.208387,214852,1609504021446508,1621412860,0.919392,-0.070272,-0.150304,-17.31625,-6.65,-17.19375,-16.904001,18.44,5.888001,concentric,4,3.0,19132.0,140708.0,228291.0,279602.0,263048.0
2026-04-08 21:47:29.238556,214853,1609504021460996,1621427722,0.948672,-0.091744,-0.062464,-17.12375,-5.6875,-15.4875,-17.472,18.512001,5.4,concentric,4,3.0,19132.0,140708.0,228291.0,279602.0,263048.0
2026-04-08 21:47:29.242153,214854,1609504021469880,1621436370,0.948672,-0.091744,-0.062464,-13.86875,-6.36125,-13.37875,-17.472,18.512001,5.4,concentric,4,3.0,19132.0,140708.0,228291.0,279602.0,263048.0
2026-04-08 21:47:29.269674,214865,1609504021484443,1621451264,0.93696,-0.072224,-0.111264,-9.24,-7.98,-11.9525,-17.352001,18.496,5.152,concentric,4,3.0,19078.0,140415.0,227958.0,279338.0,262939.0
2026-04-08 21:47:29.274620,214866,1609504021493444,1621459973,0.96624,-0.07808,-0.12688,-4.585,-9.05625,-12.8625,-17.232,18.264,8.400001,concentric,4,3.0,19078.0,140415.0,227958.0,279338.0,262939.0
2026-04-08 21:47:29.277233,214867,1609504021507954,1621474946,0.96624,-0.07808,-0.12688,-2.485,-9.93125,-13.2125,-17.232,18.264,8.400001,concentric,4,3.0,19078.0,140415.0,227958.0,279338.0,262939.0
2026-04-08 21:47:29.279592,214868,1609504021516903,1621483662,0.894016,-0.02928,-0.015616,-4.585,-9.8175,-12.52125,-17.744001,18.512001,6.296001,concentric,4,3.0,19078.0,140415.0,227958.0,279338.0,262939.0
2026-04-08 21:47:29.310697,214869,1609504021525979,1621492341,0.894016,-0.02928,-0.015616,-6.18625,-8.74125,-11.33125,-17.744001,18.512001,6.296001,concentric,4,3.0,19078.0,140415.0,227958.0,279338.0,262939.0
2026-04-08 21:47:29.313077,214870,1609504021540481,1621507209,0.890112,-0.064416,-0.150304,-5.74,-8.12,-10.21125,-17.704,18.36,5.232,concentric,4,3.0,19078.0,140415.0,227958.0,279338.0,262939.0
2026-04-08 21:47:29.317726,214871,1609504021549382,1621515864,0.890112,-0.064416,-0.150304,-5.87125,-8.21625,-9.292501,-17.704,18.36,5.232,concentric,4,3.0,19078.0,140415.0,227958.0,279338.0,262939.0
2026-04-08 21:47:29.346117,214872,1609504021563891,1621530755,0.864736,-0.0488,-0.197152,-6.37,-7.98875,-8.79375,-17.568,18.544,4.984,concentric,4,3.0,19078.0,140415.0,227958.0,279338.0,262939.0
2026-04-08 21:47:29.349674,214873,1609504021572823,1621539418,0.962336,-0.060512,-0.035136,-5.60875,-8.14625,-9.24875,-17.568,18.544,6.752,concentric,4,3.0,19078.0,140415.0,227958.0,279338.0,262939.0
2026-04-08 21:47:29.384318,214885,1609504021587381,1621552553,0.962336,-0.060512,-0.035136,-7.74375,-8.085,-10.5525,-17.560001,18.44,6.752,concentric,4,3.0,19102.0,140630.0,228260.0,279605.0,263103.0
2026-04-08 21:47:29.386834,214886,1609504021596593,1621563314,0.909632,-0.052704,0.0488,-10.26375,-6.88625,-11.82125,-17.832,18.216002,6.824,concentric,4,3.0,19102.0,140630.0,228260.0,279605.0,263103.0
2026-04-08 21:47:29.390230,214887,1609504021605615,1621572020,0.909632,-0.052704,0.0488,-11.48875,-5.36375,-11.47125,-17.832,18.216002,6.824,concentric,4,3.0,19102.0,140630.0,228260.0,279605.0,263103.0
2026-04-08 21:47:29.391915,214888,1609504021620187,1621586886,0.915488,-0.03904,0.062464,-10.9025,-4.85625,-9.905,-17.736,18.272001,6.568,concentric,4,3.0,19102.0,140630.0,228260.0,279605.0,263103.0
2026-04-08 21:47:29.393398,214889,1609504021629220,1621595611,0.915488,-0.03904,0.062464,-9.98375,-6.615,-9.8525,-17.736,18.272001,6.568,concentric,4,3.0,19102.0,140630.0,228260.0,279605.0,263103.0
2026-04-08 21:47:29.424479,214890,1609504021643724,1621610491,0.948672,-0.046848,-0.062464,-8.6275,-7.35875,-11.61125,-17.656,18.152,4.608,concentric,4,3.0,19102.0,140630.0,228260.0,279605.0,263103.0
2026-04-08 21:47:29.426766,214891,1609504021652626,1621619152,0.948672,-0.046848,-0.015616,-8.25125,-8.3125,-13.755,-17.656,18.152,4.608,concentric,4,3.0,19102.0,140630.0,228260.0,279605.0,263103.0
2026-04-08 21:47:29.431386,214892,1609504021661548,1621627792,0.90768,-0.007808,-0.007808,-9.77375,-8.49625,-15.53125,-18.096,17.880001,5.408001,concentric,4,3.0,19102.0,140630.0,228260.0,279605.0,263103.0
2026-04-08 21:47:29.490177,214903,1609504021676076,1621642656,0.796416,0.005856,-0.10736,-10.36875,-8.89,-14.25375,-18.432001,18.296001,5.584,concentric,4,3.0,19063.0,140526.0,228180.0,279658.0,263189.0
2026-04-08 21:47:29.491893,214904,1609504021685033,1621651336,0.796416,0.005856,-0.10736,-9.84375,-9.44125,-11.042501,-18.432001,18.296001,5.584,concentric,4,3.0,19063.0,140526.0,228180.0,279658.0,263189.0
2026-04-08 21:47:29.493490,214905,1609504021699505,1621666192,0.85888,0.005856,0.05856,-8.5225,-9.80875,-8.81125,-18.560001,17.856,4.56,concentric,4,3.0,19063.0,140526.0,228180.0,279658.0,263189.0
2026-04-08 21:47:29.497731,214906,1609504021708415,1621674857,0.85888,0.005856,0.05856,-6.615,-11.7775,-9.12625,-18.560001,17.856,4.56,concentric,4,3.0,19063.0,140526.0,228180.0,279658.0,263189.0
2026-04-08 21:47:29.499393,214907,1609504021722911,1621689754,0.901824,-0.025376,0.056608,-4.08625,-12.573751,-10.9025,-18.928001,18.216002,5.272,concentric,4,3.0,19063.0,140526.0,228180.0,279658.0,263189.0
2026-04-08 21:47:29.500948,214908,1609504021731843,1621698465,0.901824,-0.025376,0.056608,-2.45,-13.0725,-11.52375,-18.928001,18.216002,5.272,concentric,4,3.0,19063.0,140526.0,228180.0,279658.0,263189.0
2026-04-08 21:47:29.505010,214909,1609504021740784,1621707152,0.88816,-0.056608,-0.1464,-3.08875,-12.9325,-11.2525,-18.856,17.960001,5.008,concentric,4,3.0,19063.0,140526.0,228180.0,279658.0,263189.0
2026-04-08 21:47:29.533592,214910,1609504021755341,1621722033,0.853024,-0.031232,-0.081984,-2.9225,-11.27875,-9.31,-18.928001,17.856,4.736,concentric,4,3.0,19063.0,140526.0,228180.0,279658.0,263189.0
2026-04-08 21:47:29.538206,214911,1609504021764281,1621730713,0.853024,-0.031232,-0.081984,2.14375,-10.94625,-7.27125,-18.928001,17.856,4.736,concentric,4,3.0,19063.0,140526.0,228180.0,279658.0,263189.0
2026-04-08 21:47:29.566475,214922,1609504021779101,1621745635,0.83936,-0.01952,-0.091744,6.53625,-11.43625,-6.8075,-18.792002,17.944,3.912,concentric,4,3.0,19037.0,140567.0,228335.0,279894.0,263380.0
2026-04-08 21:47:29.568142,214923,1609504021788140,1621754312,0.83936,-0.01952,-0.091744,6.22125,-11.19125,-8.9425,-18.792002,17.944,3.912,concentric,4,3.0,19037.0,140567.0,228335.0,279894.0,263380.0
2026-04-08 21:47:29.570002,214924,1609504021802712,1621769234,0.909632,-0.017568,-0.240096,0.21875,-11.31375,-12.005,-19.216002,17.68,4.112,concentric,4,3.0,19037.0,140567.0,228335.0,279894.0,263380.0
2026-04-08 21:47:29.575062,214925,1609504021811625,1621777908,0.909632,-0.017568,-0.240096,-7.09625,-10.73625,-13.8075,-19.216002,17.68,4.112,concentric,4,3.0,19037.0,140567.0,228335.0,279894.0,263380.0
2026-04-08 21:47:29.603631,214926,1609504021820523,1621786556,0.823744,0.005856,-0.189344,-7.35,-8.7675,-12.2675,-19.216002,17.704,3.912,concentric,4,3.0,19037.0,140567.0,228335.0,279894.0,263380.0
2026-04-08 21:47:29.607167,214927,1609504021835020,1621801455,0.776896,0.01952,-0.122976,-2.5375,-7.55125,-7.62125,-19.048,18.016,3.824,concentric,4,3.0,19037.0,140567.0,228335.0,279894.0,263380.0
2026-04-08 21:47:29.611349,214928,1609504021843950,1621810153,0.776896,0.01952,-0.122976,0.245,-7.62125,-4.17375,-19.048,18.016,3.824,concentric,4,3.0,19037.0,140567.0,228335.0,279894.0,263380.0
2026-04-08 21:47:29.649020,214929,1609504021858446,1621825007,0.815936,-0.001952,-0.093696,-0.7175,-9.30125,-4.73375,-19.640001,17.744001,3.496,concentric,4,3.0,19037.0,140567.0,228335.0,279894.0,263380.0
2026-04-08 21:47:29.650810,214930,1609504021867376,1621833686,0.815936,-0.001952,-0.093696,-0.21875,-10.0275,-7.3325,-19.640001,17.744001,3.496,concentric,4,3.0,19037.0,140567.0,228335.0,279894.0,263380.0
2026-04-08 21:47:29.678937,214941,1609504021882084,1621848604,0.913536,-0.03904,0.005856,1.47,-9.835,-6.88625,-19.696001,17.288,5.536,concentric,4,3.0,18965.0,140340.0,228125.0,279870.0,263385.0
2026-04-08 21:47:29.680603,214942,1609504021891040,1621857270,0.913536,-0.03904,0.005856,0.35,-9.4675,-5.15375,-19.696001,17.288,5.536,concentric,4,3.0,18965.0,140340.0,228125.0,279870.0,263385.0
2026-04-08 21:47:29.682172,214943,1609504021899988,1621865938,0.798368,-0.003904,-0.076128,-1.82875,-8.96,-4.9,-19.504002,17.456001,3.912,concentric,4,3.0,18965.0,140340.0,228125.0,279870.0,263385.0
2026-04-08 21:47:29.686414,214944,1609504021914536,1621880821,0.798368,-0.003904,0.001952,-2.80875,-7.77,-5.46,-19.504002,17.456001,3.912,concentric,4,3.0,18965.0,140340.0,228125.0,279870.0,263385.0
2026-04-08 21:47:29.688855,214945,1609504021923555,1621889534,0.804224,-0.031232,0.001952,-4.2875,-6.79,-5.6525,-19.632002,17.704,4.104,concentric,4,3.0,18965.0,140340.0,228125.0,279870.0,263385.0
2026-04-08 21:47:29.717408,214946,1609504021938070,1621904438,0.94672,-0.060512,-0.044896,-8.81125,-6.8775,-6.2475,-20.072,17.584002,3.2,concentric,4,3.0,18965.0,140340.0,228125.0,279870.0,263385.0
2026-04-08 21:47:29.721902,214947,1609504021946995,1621913096,0.94672,-0.060512,-0.044896,-10.64875,-7.4725,-9.52875,-20.072,17.584002,3.2,concentric,4,3.0,18965.0,140340.0,228125.0,279870.0,263385.0
2026-04-08 21:47:29.723400,214948,1609504021955916,1621921838,0.909632,-0.007808,-0.181536,-6.37,-7.5775,-13.20375,-19.904001,17.44,3.608,concentric,4,3.0,18965.0,140340.0,228125.0,279870.0,263385.0
2026-04-08 21:47:29.754668,214949,1609504021970404,1621936639,0.909632,-0.007808,-0.181536,-0.91,-6.3875,-13.30875,-19.904001,17.44,3.608,concentric,4,3.0,18965.0,140340.0,228125.0,279870.0,263385.0
2026-04-08 21:47:29.783861,214960,1609504021979338,1621945362,0.890112,0.005856,-0.16592,2.12625,-4.55875,-10.59625,-20.144001,17.288,3.176,concentric,4,3.0,18979.0,140403.0,228248.0,279882.0,263379.0
2026-04-08 21:47:29.784704,214961,1609504021993855,1621960241,0.890112,0.005856,-0.16592,3.01,-3.63125,-7.60375,-20.144001,17.288,3.176,concentric,4,3.0,18979.0,140403.0,228248.0,279882.0,263379.0
2026-04-08 21:47:29.789609,214962,1609504022002777,1621968985,0.796416,0.035136,-0.163968,1.5225,-3.8675,-6.6325,-20.304,17.144001,1.888,concentric,4,3.0,18979.0,140403.0,228248.0,279882.0,263379.0
2026-04-08 21:47:29.790957,214963,1609504022017390,1621983908,0.876448,-0.033184,-0.130784,-1.12,-4.9875,-7.7175,-20.376001,17.632,3.584,concentric,4,3.0,18979.0,140403.0,228248.0,279882.0,263379.0
2026-04-08 21:47:29.792631,214964,1609504022026372,1621992624,0.876448,-0.033184,-0.130784,-0.3675,-5.4425,-9.3625,-20.376001,17.632,3.584,concentric,4,3.0,18979.0,140403.0,228248.0,279882.0,263379.0
2026-04-08 21:47:29.798802,214965,1609504022035338,1622001278,0.876448,-0.0488,-0.267424,0.14,-5.17125,-11.1475,-20.376001,17.632,3.584,concentric,4,3.0,18979.0,140403.0,228248.0,279882.0,263379.0
2026-04-08 21:47:29.827497,214966,1609504022049834,1622016220,0.8784,-0.054656,-0.267424,-0.385,-3.80625,-13.27375,-21.112001,17.216002,3.984,concentric,4,3.0,18979.0,140403.0,228248.0,279882.0,263379.0
2026-04-08 21:47:29.835304,214967,1609504022058760,1622024902,0.942816,-0.027328,-0.183488,-2.30125,-2.89625,-14.49875,-20.728,16.832,2.824,concentric,4,3.0,18979.0,140403.0,228248.0,279882.0,263379.0
2026-04-08 21:47:29.837683,214968,1609504022073201,1622039806,0.942816,-0.027328,-0.183488,-3.17625,-1.9775,-14.88375,-20.728,16.832,2.824,concentric,4,3.0,18979.0,140403.0,228248.0,279882.0,263379.0
2026-04-08 21:47:29.865950,214979,1609504022082657,1622048937,0.884256,-0.001952,-0.001952,0.7525,-0.175,-14.39375,-20.888,17.104,3.2,concentric,4,3.0,19034.0,140593.0,228438.0,279937.0,263349.0
2026-04-08 21:47:29.870549,214980,1609504022091834,1622057610,0.884256,-0.001952,-0.001952,6.67625,0.97125,-13.8075,-20.888,17.104,3.2,concentric,4,3.0,19034.0,140593.0,228438.0,279937.0,263349.0
2026-04-08 21:47:29.872874,214981,1609504022106369,1622072563,0.866688,-0.023424,-0.20496,8.6975,0.2625,-13.93875,-20.720001,16.704,3.968,concentric,4,3.0,19034.0,140593.0,228438.0,279937.0,263349.0
2026-04-08 21:47:29.887879,214982,1609504022115336,1622081223,0.866688,-0.023424,-0.20496,8.54,-0.5775,-15.015,-20.720001,16.704,3.968,concentric,4,3.0,19034.0,140593.0,228438.0,279937.0,263349.0
2026-04-08 21:47:29.893821,214983,1609504022129810,1622096074,0.954528,0.040992,-0.00976,6.79,-0.14875,-16.5025,-21.392,17.0,5.856,concentric,4,3.0,19034.0,140593.0,228438.0,279937.0,263349.0
2026-04-08 21:47:29.902531,214984,1609504022138748,1622104739,0.913536,-0.003904,-0.230336,4.7775,1.21625,-16.2575,-21.720001,16.6,3.032,concentric,4,3.0,19034.0,140593.0,228438.0,279937.0,263349.0
2026-04-08 21:47:29.931099,214985,1609504022153249,1622119669,0.913536,-0.003904,-0.230336,2.8525,3.94625,-14.14875,-21.720001,16.6,3.032,concentric,4,3.0,19034.0,140593.0,228438.0,279937.0,263349.0
2026-04-08 21:47:29.935628,214986,1609504022162145,1622128331,0.866688,0.003904,-0.044896,1.47875,6.37,-12.1275,-21.416,16.624,2.944,concentric,4,3.0,19034.0,140593.0,228438.0,279937.0,263349.0
2026-04-08 21:47:29.938056,214987,1609504022171050,1622136962,0.866688,0.003904,-0.044896,1.3125,7.0525,-10.70125,-21.416,16.624,2.944,concentric,4,3.0,19034.0,140593.0,228438.0,279937.0,263349.0
2026-04-08 21:47:29.964692,214998,1609504022185651,1622151844,0.835456,-0.001952,-0.232288,3.395,6.8425,-11.76,-21.768002,16.240002,2.912,concentric,4,3.0,19048.0,140593.0,228453.0,279953.0,263375.0
2026-04-08 21:47:29.968815,214999,1609504022194608,1622160550,0.835456,-0.001952,-0.232288,4.935,6.99125,-13.90375,-21.768002,16.240002,2.912,concentric,4,3.0,19048.0,140593.0,228453.0,279953.0,263375.0
2026-04-08 21:47:29.971717,215000,1609504022209226,1622175429,1.018944,0.001952,-0.148352,4.97875,6.62375,-16.1875,-22.12,16.560001,2.384,concentric,4,3.0,19048.0,140593.0,228453.0,279953.0,263375.0
2026-04-08 21:47:30.002051,215001,1609504022218182,1622184165,0.923296,0.060512,-0.00976,4.515,8.12875,-16.93125,-22.448002,16.68,4.28,concentric,4,3.0,19048.0,140593.0,228453.0,279953.0,263375.0
2026-04-08 21:47:30.004308,215002,1609504022232703,1622199091,0.923296,0.060512,-0.00976,4.13,10.15875,-14.06125,-22.448002,16.68,4.28,concentric,4,3.0,19048.0,140593.0,228453.0,279953.0,263375.0
2026-04-08 21:47:30.008914,215003,1609504022241601,1622207741,0.815936,0.074176,-0.208864,2.8175,11.1825,-9.948751,-22.056002,16.816,3.208,concentric,4,3.0,19048.0,140593.0,228453.0,279953.0,263375.0
2026-04-08 21:47:30.012304,215004,1609504022250560,1622216435,0.815936,0.074176,-0.208864,2.17,10.22,-9.02125,-22.056002,16.816,3.208,concentric,4,3.0,19048.0,140593.0,228453.0,279953.0,263375.0
2026-04-08 21:47:30.045841,215005,1609504022265060,1622231287,0.884256,0.033184,-0.25376,2.70375,9.58125,-10.85875,-22.248001,16.704,3.184,concentric,4,3.0,19048.0,140593.0,228453.0,279953.0,263375.0
2026-04-08 21:47:30.048138,215006,1609504022273994,1622239970,0.884256,0.033184,-0.25376,2.70375,9.94,-12.36375,-22.248001,16.704,3.184,concentric,4,3.0,19048.0,140593.0,228453.0,279953.0,263375.0
2026-04-08 21:47:30.076865,215017,1609504022288528,1622254914,0.935008,0.031232,0.013664,1.8025,10.3775,-11.69,-22.752,16.384,3.376,concentric,4,3.0,19007.0,140355.0,228110.0,279689.0,263243.0
2026-04-08 21:47:30.078434,215018,1609504022297467,1622263625,0.851072,0.046848,-0.167872,1.6275,11.6025,-10.10625,-22.752,16.408,5.0,concentric,4,3.0,19007.0,140355.0,228110.0,279689.0,263243.0
2026-04-08 21:47:30.082703,215019,1609504022312072,1622278604,0.851072,0.046848,-0.167872,1.4525,12.41625,-8.96,-22.936,16.408,5.0,concentric,4,3.0,19007.0,140355.0,228110.0,279689.0,263243.0
2026-04-08 21:47:30.084318,215020,1609504022321030,1622287335,0.944768,0.085888,-0.037088,0.97125,12.34625,-7.7525,-22.704,16.36,3.872,concentric,4,3.0,19007.0,140355.0,228110.0,279689.0,263243.0
2026-04-08 21:47:30.114032,215021,1609504022329979,1622295997,0.944768,0.085888,-0.037088,-2.58125,11.7775,-6.92125,-22.704,16.36,3.872,concentric,4,3.0,19007.0,140355.0,228110.0,279689.0,263243.0
2026-04-08 21:47:30.118942,215022,1609504022344457,1622310895,0.9272,0.037088,-0.281088,-3.56125,10.535,-9.58125,-23.208,16.184,4.928001,concentric,4,3.0,19007.0,140355.0,228110.0,279689.0,263243.0
2026-04-08 21:47:30.120571,215023,1609504022353356,1622319544,0.9272,0.037088,-0.281088,-2.975,9.33625,-12.1975,-23.208,16.184,4.928001,concentric,4,3.0,19007.0,140355.0,228110.0,279689.0,263243.0
2026-04-08 21:47:30.150817,215024,1609504022367970,1622334413,0.989664,0.060512,-0.062464,-7.16625,8.65375,-14.8925,-23.376001,16.144001,3.688,concentric,4,3.0,19007.0,140355.0,228110.0,279689.0,263243.0
2026-04-08 21:47:30.153057,215025,1609504022376937,1622343160,0.989664,0.060512,-0.062464,-8.56625,9.63375,-14.07875,-23.376001,16.144001,3.688,concentric,4,3.0,19007.0,140355.0,228110.0,279689.0,263243.0
2026-04-08 21:47:30.223468,215036,1609504022385939,1622351843,0.933056,0.095648,-0.00976,-7.7175,10.255,-10.7975,-23.240002,15.944001,3.144,concentric,4,3.0,18956.0,140175.0,227938.0,279582.0,263147.0
2026-04-08 21:47:30.227732,215037,1609504022400451,1622366749,0.909632,0.095648,-0.191296,-7.11375,10.26375,-7.27125,-23.424002,15.808001,3.496,concentric,4,3.0,18956.0,140175.0,227938.0,279582.0,263147.0
2026-04-08 21:47:30.229414,215038,1609504022409477,1622375445,0.909632,0.095648,-0.191296,-5.7575,8.91625,-5.39875,-23.424002,15.808001,3.496,concentric,4,3.0,18956.0,140175.0,227938.0,279582.0,263147.0
2026-04-08 21:47:30.230955,215039,1609504022423962,1622390355,1.0248,0.050752,-0.081984,-4.165,7.2975,-5.53,-23.536001,16.240002,5.024,concentric,4,3.0,18956.0,140175.0,227938.0,279582.0,263147.0
2026-04-08 21:47:30.235190,215040,1609504022432868,1622399024,1.0248,0.050752,-0.081984,-5.13625,6.65875,-6.8425,-23.536001,16.240002,5.024,concentric,4,3.0,18956.0,140175.0,227938.0,279582.0,263147.0
2026-04-08 21:47:30.236939,215041,1609504022447330,1622413889,0.970144,0.03904,-0.181536,-8.4,7.9625,-6.60625,-23.536001,16.232,3.904,concentric,4,3.0,18956.0,140175.0,227938.0,279582.0,263147.0
2026-04-08 21:47:30.238493,215042,1609504022456240,1622422544,0.970144,0.03904,-0.181536,-7.55125,8.9425,-4.61125,-23.536001,16.232,3.904,concentric,4,3.0,18956.0,140175.0,227938.0,279582.0,263147.0
2026-04-08 21:47:30.242691,215043,1609504022465270,1622431268,0.911584,0.085888,-0.128832,-4.75125,8.77625,-0.2275,-23.704,16.0,4.448,concentric,4,3.0,18956.0,140175.0,227938.0,279582.0,263147.0
2026-04-08 21:47:30.244466,215044,1609504022479773,1622446183,0.872544,0.128832,-0.054656,-3.21125,8.05,1.93375,-23.672,16.056002,5.096,concentric,4,3.0,18956.0,140175.0,227938.0,279582.0,263147.0
2026-04-08 21:47:30.272856,215055,1609504022488729,1622454980,0.872544,0.128832,-0.054656,-0.84,6.4925,0.91,-23.672,16.056002,5.096,concentric,4,3.0,18983.0,140267.0,228119.0,279699.0,263209.0
2026-04-08 21:47:30.274674,215056,1609504022503258,1622469889,0.993568,0.080032,0.005856,0.4725,5.39,-0.665,-23.472002,16.44,4.688,concentric,4,3.0,18983.0,140267.0,228119.0,279699.0,263209.0
2026-04-08 21:47:30.275972,215057,1609504022512278,1622478597,0.993568,0.080032,0.005856,-2.28375,4.76,-2.2225,-23.472002,16.44,4.688,concentric,4,3.0,18983.0,140267.0,228119.0,279699.0,263209.0
2026-04-08 21:47:30.307111,215058,1609504022526810,1622493507,0.993568,0.050752,-0.081984,-3.71,4.27875,-4.10375,-23.736002,16.368,4.424,concentric,4,3.0,18983.0,140267.0,228119.0,279699.0,263209.0
2026-04-08 21:47:30.309509,215059,1609504022535707,1622502176,0.993568,0.050752,-0.081984,-0.04375,4.06875,-5.10125,-23.736002,16.368,4.424,concentric,4,3.0,18983.0,140267.0,228119.0,279699.0,263209.0
2026-04-08 21:47:30.313949,215060,1609504022544609,1622510851,0.940864,0.080032,-0.25376,4.305,4.17375,-3.66625,-23.672,15.936001,3.576,concentric,4,3.0,18983.0,140267.0,228119.0,279699.0,263209.0
2026-04-08 21:47:30.345390,215061,1609504022559111,1622525718,0.940864,0.128832,-0.140544,8.70625,4.725,-2.66,-23.672,15.984001,4.296,concentric,4,3.0,18983.0,140267.0,228119.0,279699.0,263209.0
2026-04-08 21:47:30.346826,215062,1609504022568057,1622534435,0.940864,0.128832,-0.140544,11.55875,3.71875,-2.12625,-24.344002,15.984001,4.296,concentric,4,3.0,18983.0,140267.0,228119.0,279699.0,263209.0
2026-04-08 21:47:30.376506,215073,1609504022582546,1622549645,0.968192,0.08784,-0.160064,11.61125,2.24,-1.91625,-24.168001,15.752001,3.672,concentric,4,3.0,19031.0,140388.0,228225.0,279694.0,263151.0
2026-04-08 21:47:30.378182,215074,1609504022591492,1622558316,0.968192,0.08784,-0.160064,9.073751,1.02375,-2.0825,-24.168001,15.752001,3.672,concentric,4,3.0,19031.0,140388.0,228225.0,279694.0,263151.0
2026-04-08 21:47:30.379692,215075,1609504022606114,1622573224,0.99552,0.052704,-0.197152,4.4625,1.14625,-2.3275,-24.400002,16.12,3.848,concentric,4,3.0,19031.0,140388.0,228225.0,279694.0,263151.0
2026-04-08 21:47:30.383863,215076,1609504022615074,1622581934,0.99552,0.052704,-0.197152,1.82,2.0825,-1.65375,-24.400002,16.12,3.848,concentric,4,3.0,19031.0,140388.0,228225.0,279694.0,263151.0
2026-04-08 21:47:30.387534,215077,1609504022624007,1622590628,1.001376,0.06832,-0.070272,3.78,2.73875,-0.805,-24.248001,15.904,3.936,concentric,4,3.0,19031.0,140388.0,228225.0,279694.0,263151.0
2026-04-08 21:47:30.416152,215078,1609504022638512,1622605482,1.001376,0.06832,-0.070272,7.30625,2.77375,-0.3675,-24.248001,15.904,3.936,concentric,4,3.0,19031.0,140388.0,228225.0,279694.0,263151.0
2026-04-08 21:47:30.419778,215079,1609504022647466,1622614137,0.882304,0.111264,-0.089792,8.575,2.03875,-1.0675,-24.264002,16.032001,1.64,concentric,4,3.0,19031.0,140388.0,228225.0,279694.0,263151.0
2026-04-08 21:47:30.424048,215080,1609504022661941,1622629040,0.991616,0.07808,-0.037088,8.015,0.32375,-3.91125,-24.352001,15.888001,4.056,concentric,4,3.0,19031.0,140388.0,228225.0,279694.0,263151.0
2026-04-08 21:47:30.454916,215081,1609504022670919,1622637711,0.991616,0.07808,-0.037088,7.8575,-1.04125,-8.26,-24.352001,15.888001,4.056,concentric,4,3.0,19031.0,140388.0,228225.0,279694.0,263151.0
2026-04-08 21:47:30.483380,215092,1609504022685963,1622652622,0.991616,0.080032,-0.220576,8.12875,-0.7,-10.4125,-24.576,15.896001,3.936,concentric,4,3.0,19062.0,140438.0,228303.0,279665.0,263103.0
2026-04-08 21:47:30.485940,215093,1609504022694893,1622661354,0.991616,0.080032,-0.220576,9.93125,1.37375,-9.86125,-24.576,15.896001,3.936,concentric,4,3.0,19062.0,140438.0,228303.0,279665.0,263103.0
2026-04-08 21:47:30.488468,215094,1609504022703850,1622670036,0.979904,0.10736,-0.10736,11.34875,2.4325,-7.7525,-24.936,15.880001,3.896,concentric,4,3.0,19062.0,140438.0,228303.0,279665.0,263103.0
2026-04-08 21:47:30.490917,215095,1609504022718340,1622684911,0.979904,0.10736,-0.10736,10.35125,2.66875,-6.2475,-24.936,15.880001,3.896,concentric,4,3.0,19062.0,140438.0,228303.0,279665.0,263103.0
2026-04-08 21:47:30.493384,215096,1609504022727319,1622693672,0.864736,0.111264,-0.240096,6.27375,2.17875,-6.02,-24.960001,15.960001,4.952,concentric,4,3.0,19062.0,140438.0,228303.0,279665.0,263103.0
2026-04-08 21:47:30.523594,215097,1609504022741838,1622708596,1.007232,0.0976,0.033184,2.61625,0.76125,-6.545,-25.096,15.464001,3.312,concentric,4,3.0,19062.0,140438.0,228303.0,279665.0,263103.0
2026-04-08 21:47:30.527211,215098,1609504022750719,1622717251,1.007232,0.0976,0.033184,3.77125,-0.9625,-7.27125,-25.096,15.464001,3.312,concentric,4,3.0,19062.0,140438.0,228303.0,279665.0,263103.0
2026-04-08 21:47:30.529678,215099,1609504022759681,1622725917,1.007232,0.0976,0.033184,7.0875,-1.84625,-7.9975,-25.096,15.464001,3.312,concentric,4,3.0,19062.0,140438.0,228303.0,279665.0,263103.0
2026-04-08 21:47:30.559907,215100,1609504022774229,1622740763,0.94672,0.0488,-0.210816,11.62,-1.3125,-8.5225,-24.832,15.296001,2.888,concentric,4,3.0,19062.0,140438.0,228303.0,279665.0,263103.0
2026-04-08 21:47:30.591527,215111,1609504022783496,1622749408,0.91744,0.08784,-0.144448,13.7375,-1.155,-7.13125,-25.272001,15.536001,4.072,concentric,4,3.0,18922.0,139971.0,227811.0,279453.0,263029.0
2026-04-08 21:47:30.593505,215112,1609504022798010,1622764302,0.91744,0.08784,-0.144448,13.5275,-1.65375,-5.78375,-25.272001,15.536001,4.072,concentric,4,3.0,18922.0,139971.0,227811.0,279453.0,263029.0
2026-04-08 21:47:30.596019,215113,1609504022806941,1622772975,0.962336,0.11712,-0.033184,15.9425,-3.185,-6.41375,-25.664001,15.552001,4.56,concentric,4,3.0,18922.0,139971.0,227811.0,279453.0,263029.0
2026-04-08 21:47:30.598389,215114,1609504022821482,1622787859,0.96624,0.066368,-0.244,17.8325,-3.8675,-7.83125,-25.464,15.504001,4.656,concentric,4,3.0,18922.0,139971.0,227811.0,279453.0,263029.0
2026-04-08 21:47:30.601029,215115,1609504022830519,1622796554,0.96624,0.066368,-0.244,18.90875,-2.75625,-9.19625,-25.464,15.504001,4.656,concentric,4,3.0,18922.0,139971.0,227811.0,279453.0,263029.0
2026-04-08 21:47:30.603408,215116,1609504022839543,1622805215,0.96624,0.066368,-0.244,19.0925,-1.25125,-8.715,-25.464,15.504001,4.656,concentric,4,3.0,18922.0,139971.0,227811.0,279453.0,263029.0
2026-04-08 21:47:30.634745,215117,1609504022854015,1622820140,0.952576,0.111264,-0.035136,17.78,-0.88375,-7.9975,-25.624,15.192,4.696,concentric,4,3.0,18922.0,139971.0,227811.0,279453.0,263029.0
2026-04-08 21:47:30.637138,215118,1609504022862917,1622828837,1.038464,0.089792,-0.101504,15.12,-0.97125,-6.93875,-25.712002,14.960001,3.984,concentric,4,3.0,18922.0,139971.0,227811.0,279453.0,263029.0
2026-04-08 21:47:30.639659,215119,1609504022877376,1622843676,1.038464,0.089792,-0.101504,13.64125,-1.05,-7.0875,-25.712002,14.960001,3.984,concentric,4,3.0,18922.0,139971.0,227811.0,279453.0,263029.0
2026-04-08 21:47:30.670087,215130,1609504022886676,1622852414,1.056032,0.115168,0.023424,11.61125,-1.37375,-7.9625,-25.672,14.888001,4.528,concentric,4,3.0,18888.0,139891.0,227753.0,279432.0,262996.0
2026-04-08 21:47:30.672590,215131,1609504022895717,1622861151,1.056032,0.115168,0.023424,10.57875,-2.12625,-9.42375,-25.672,14.888001,4.528,concentric,4,3.0,18888.0,139891.0,227753.0,279432.0,262996.0
2026-04-08 21:47:30.674592,215132,1609504022910480,1622876024,1.050176,0.046848,-0.152256,8.96875,-2.1875,-10.33375,-25.880001,14.632001,4.104,concentric,4,3.0,18888.0,139891.0,227753.0,279432.0,262996.0
2026-04-08 21:47:30.680896,215133,1609504022919855,1622886829,1.050176,0.046848,-0.152256,5.6175,-1.8375,-9.70375,-25.880001,14.632001,4.104,concentric,4,3.0,18888.0,139891.0,227753.0,279432.0,262996.0
2026-04-08 21:47:30.713621,215134,1609504022934361,1622899649,1.018944,0.070272,-0.163968,3.5525,-1.16375,-7.37625,-25.920002,14.352,4.8,concentric,4,3.0,18888.0,139891.0,227753.0,279432.0,262996.0
2026-04-08 21:47:30.717135,215135,1609504022943618,1622910392,1.003328,0.122976,-0.050752,5.7225,-1.3475,-6.23875,-25.992,14.800001,2.984,concentric,4,3.0,18888.0,139891.0,227753.0,279432.0,262996.0
2026-04-08 21:47:30.719669,215136,1609504022952527,1622919028,1.003328,0.122976,-0.050752,8.3825,-1.715,-6.44,-25.992,14.800001,2.984,concentric,4,3.0,18888.0,139891.0,227753.0,279432.0,262996.0
2026-04-08 21:47:30.754033,215137,1609504022967005,1622933874,1.081408,0.076128,-0.013664,11.1475,-1.58375,-7.0175,-25.816002,14.672001,4.776,concentric,4,3.0,18888.0,139891.0,227753.0,279432.0,262996.0
2026-04-08 21:47:30.757136,215138,1609504022975957,1622942546,1.081408,0.076128,-0.013664,12.73125,-1.925,-6.22125,-25.816002,14.672001,4.776,concentric,4,3.0,18888.0,139891.0,227753.0,279432.0,262996.0
2026-04-08 21:47:30.787120,215149,1609504022990535,1622955851,1.08336,0.06832,-0.10736,13.15125,-1.54875,-4.9875,-25.856,14.552001,4.648,concentric,4,3.0,18851.0,139750.0,227641.0,279331.0,262923.0
2026-04-08 21:47:30.789606,215150,1609504022999877,1622966580,1.08336,0.06832,-0.10736,13.74625,-1.32125,-2.765,-25.856,14.552001,4.648,concentric,4,3.0,18851.0,139750.0,227641.0,279331.0,262923.0
2026-04-08 21:47:30.792099,215151,1609504023008826,1622975255,1.028704,0.134688,-0.163968,13.51875,-1.8025,-1.225,-26.36,14.328001,4.616,concentric,4,3.0,18851.0,139750.0,227641.0,279331.0,262923.0
2026-04-08 21:47:30.794607,215152,1609504023023332,1622990185,1.0248,0.10736,-0.247904,13.755,-2.275,-1.35625,-25.944002,14.632001,5.408001,concentric,4,3.0,18851.0,139750.0,227641.0,279331.0,262923.0
2026-04-08 21:47:30.797140,215153,1609504023032314,1622998894,1.0248,0.10736,-0.247904,13.230001,-1.68,-1.3475,-25.944002,14.632001,5.408001,concentric,4,3.0,18851.0,139750.0,227641.0,279331.0,262923.0
2026-04-08 21:47:30.827948,215154,1609504023046810,1623013768,1.087264,0.150304,-0.001952,11.725,-0.27125,0.9275,-26.144001,14.448001,5.816001,concentric,4,3.0,18851.0,139750.0,227641.0,279331.0,262923.0
2026-04-08 21:47:30.830913,215155,1609504023055706,1623022429,1.087264,0.150304,-0.001952,7.21875,0.58625,1.91625,-26.144001,14.448001,5.816001,concentric,4,3.0,18851.0,139750.0,227641.0,279331.0,262923.0
2026-04-08 21:47:30.833402,215156,1609504023070164,1623037267,1.108736,0.109312,-0.0976,5.85375,1.00625,3.68375,-26.080002,14.624001,5.24,concentric,4,3.0,18851.0,139750.0,227641.0,279331.0,262923.0
2026-04-08 21:47:30.863558,215157,1609504023079172,1623045951,1.108736,0.109312,-0.0976,2.94,1.26,4.48875,-26.080002,14.624001,5.24,concentric,4,3.0,18851.0,139750.0,227641.0,279331.0,262923.0
2026-04-08 21:47:30.892109,215168,1609504023088472,1623054714,1.079456,0.109312,0.037088,-0.11375,1.74125,5.2675,-25.688002,14.736001,4.88,concentric,4,3.0,18798.0,139559.0,227351.0,279102.0,262765.0
2026-04-08 21:47:30.894623,215169,1609504023102978,1623069574,1.00528,0.109312,-0.17568,-1.2775,1.4875,5.6525,-25.688002,14.888001,5.248,concentric,4,3.0,18798.0,139559.0,227351.0,279102.0,262765.0
2026-04-08 21:47:30.897119,215170,1609504023111899,1623078257,1.00528,0.109312,-0.17568,-1.61,0.7875,5.22375,-25.704,14.888001,5.248,concentric,4,3.0,18798.0,139559.0,227351.0,279102.0,262765.0
2026-04-08 21:47:30.899597,215171,1609504023126491,1623093230,1.091168,0.08784,-0.111264,-0.21,0.44625,5.10125,-25.848001,15.080001,6.824,concentric,4,3.0,18798.0,139559.0,227351.0,279102.0,262765.0
2026-04-08 21:47:30.902109,215172,1609504023135450,1623101917,1.091168,0.08784,-0.111264,1.12875,0.65625,4.57625,-25.848001,15.080001,6.824,concentric,4,3.0,18798.0,139559.0,227351.0,279102.0,262765.0
2026-04-08 21:47:30.905837,215173,1609504023144385,1623110590,1.075552,0.056608,-0.124928,2.8,1.3475,5.24125,-25.456001,15.040001,5.712,concentric,4,3.0,18798.0,139559.0,227351.0,279102.0,262765.0
2026-04-08 21:47:30.936106,215174,1609504023158873,1623125467,1.075552,0.056608,-0.124928,2.59875,1.4,5.1275,-25.456001,15.040001,5.712,concentric,4,3.0,18798.0,139559.0,227351.0,279102.0,262765.0
2026-04-08 21:47:30.939634,215175,1609504023167804,1623134147,0.987712,0.085888,-0.228384,2.7825,0.83125,5.285,-25.208002,15.120001,5.024,concentric,4,3.0,18798.0,139559.0,227351.0,279102.0,262765.0
2026-04-08 21:47:30.944688,215176,1609504023182264,1623148979,0.987712,0.085888,-0.228384,3.4125,0.2275,5.01375,-25.208002,15.120001,5.024,concentric,4,3.0,18798.0,139559.0,227351.0,279102.0,262765.0
