pc_time,serial_num,sensor_ts,host_ts,ax,ay,az,gx,gy,gz,mx,my,mz,phase,rpe,weight_kg,ppg_a,ppg_b,ppg_c,ppg_d,ppg_e
2026-04-08 21:33:35.092148,57985,1609503187233662,787200168,-0.212768,-0.267424,0.406016,99.26875,24.31625,-126.402504,18.256,28.216002,11.488001,inter_set_rest,0,3.0,16495.0,132066.0,218185.0,272723.0,258640.0
2026-04-08 21:33:35.127490,57996,1609503187248666,787215194,-0.212768,-0.267424,0.406016,74.01625,2.9225,-144.73375,18.256,28.216002,11.488001,inter_set_rest,0,3.0,17150.0,135047.0,222232.0,276141.0,260771.0
2026-04-08 21:33:35.129299,57997,1609503187257604,787223859,0.00976,-0.259616,0.489952,48.29125,-16.31,-163.02126,16.328001,28.600002,11.448001,inter_set_rest,0,3.0,17150.0,135047.0,222232.0,276141.0,260771.0
2026-04-08 21:33:35.130868,57998,1609503187266623,787232535,0.00976,-0.259616,0.489952,25.9525,-31.38625,-178.71,16.328001,28.600002,11.448001,inter_set_rest,0,3.0,17150.0,135047.0,222232.0,276141.0,260771.0
2026-04-08 21:33:35.135033,57999,1609503187281081,787247401,0.13664,-0.265472,0.484096,10.17625,-44.73875,-192.12375,13.400001,29.160002,12.072001,inter_set_rest,0,3.0,17150.0,135047.0,222232.0,276141.0,260771.0
2026-04-08 21:33:35.136645,58000,1609503187290021,787256075,0.13664,-0.265472,0.484096,-0.9625,-55.947502,-203.8575,13.400001,29.160002,12.072001,inter_set_rest,0,3.0,17150.0,135047.0,222232.0,276141.0,260771.0
2026-04-08 21:33:35.142270,58001,1609503187304606,787271023,0.310368,-0.30256,0.316224,-6.79,-63.665,-216.1775,10.584001,29.856,10.232,inter_set_rest,0,3.0,17150.0,135047.0,222232.0,276141.0,260771.0
2026-04-08 21:33:35.171709,58002,1609503187313537,787279693,0.505568,-0.275232,0.355264,-6.02,-68.99375,-229.90625,7.752,30.36,12.120001,inter_set_rest,0,3.0,17150.0,135047.0,222232.0,276141.0,260771.0
2026-04-08 21:33:35.175377,58003,1609503187322449,787288371,0.505568,-0.275232,0.355264,-4.1825,-72.42375,-245.175,7.752,30.36,12.120001,inter_set_rest,0,3.0,17150.0,135047.0,222232.0,276141.0,260771.0
2026-04-08 21:33:35.177004,58004,1609503187336969,787303252,0.882304,-0.271328,0.454816,-8.00625,-75.871254,-263.06876,4.088,30.416002,12.224001,inter_set_rest,0,3.0,17150.0,135047.0,222232.0,276141.0,260771.0
2026-04-08 21:33:35.214275,58015,1609503187345902,787311930,0.882304,-0.271328,0.454816,-18.64625,-78.11125,-275.92252,4.088,30.416002,12.224001,inter_set_rest,0,3.0,18116.0,138492.0,226217.0,278809.0,262268.0
2026-04-08 21:33:35.215887,58016,1609503187360776,787326857,1.241472,-0.290848,0.616832,-30.58125,-77.0875,-282.4325,0.088,30.152002,12.472,inter_set_rest,0,3.0,18116.0,138492.0,226217.0,278809.0,262268.0
2026-04-08 21:33:35.220053,58017,1609503187369713,787335523,1.241472,-0.290848,0.616832,-45.8325,-74.48875,-286.2825,0.088,30.152002,12.472,inter_set_rest,0,3.0,18116.0,138492.0,226217.0,278809.0,262268.0
2026-04-08 21:33:35.221620,58018,1609503187384244,787350407,1.436672,-0.482144,0.40992,-61.7225,-69.7375,-286.44,-3.416,30.016,12.464001,inter_set_rest,0,3.0,18116.0,138492.0,226217.0,278809.0,262268.0
2026-04-08 21:33:35.270624,58019,1609503187393179,787359085,1.155584,-0.525088,0.366976,-74.62875,-62.4925,-284.2,-6.848001,29.288002,9.400001,inter_set_rest,0,3.0,18116.0,138492.0,226217.0,278809.0,262268.0
2026-04-08 21:33:35.272873,58020,1609503187402085,787367828,1.155584,-0.525088,0.366976,-85.81125,-56.1925,-267.085,-6.848001,29.288002,9.400001,inter_set_rest,0,3.0,18116.0,138492.0,226217.0,278809.0,262268.0
2026-04-08 21:33:35.277508,58021,1609503187416563,787382693,0.89792,-0.665632,0.651968,-91.945,-48.64125,-239.925,-9.272,29.224,9.504001,inter_set_rest,0,3.0,18116.0,138492.0,226217.0,278809.0,262268.0
2026-04-08 21:33:35.279240,58022,1609503187425479,787391375,0.89792,-0.665632,0.651968,-92.70625,-40.97625,-207.6025,-9.272,29.224,9.504001,inter_set_rest,0,3.0,18116.0,138492.0,226217.0,278809.0,262268.0
2026-04-08 21:33:35.280776,58023,1609503187439924,787406241,0.495808,-0.76128,0.821792,-93.31875,-38.22875,-174.825,-10.92,28.976002,8.392,inter_set_rest,0,3.0,18116.0,138492.0,226217.0,278809.0,262268.0
2026-04-08 21:33:35.310748,58034,1609503187448973,787414977,0.495808,-0.76128,0.821792,-87.08875,-33.013752,-145.34625,-10.92,28.976002,8.392,inter_set_rest,0,3.0,17590.0,135833.0,222581.0,276206.0,260796.0
2026-04-08 21:33:35.315002,58035,1609503187463507,787429883,0.318176,-0.847168,0.843264,-76.265,-26.18,-114.6775,-11.968,28.864002,7.328001,inter_set_rest,0,3.0,17590.0,135833.0,222581.0,276206.0,260796.0
2026-04-08 21:33:35.316711,58036,1609503187472479,787438596,0.318176,-0.737856,0.753472,-68.27625,-23.8175,-78.12,-11.968,28.864002,7.328001,inter_set_rest,0,3.0,17590.0,135833.0,222581.0,276206.0,260796.0
2026-04-08 21:33:35.318267,58037,1609503187481538,787447331,0.271328,-0.743712,0.753472,-62.4575,-24.66625,-39.97,-12.456,29.12,7.064,inter_set_rest,0,3.0,17590.0,135833.0,222581.0,276206.0,260796.0
2026-04-08 21:33:35.349377,58038,1609503187496034,787462214,0.523136,-0.677344,0.815936,-52.57875,-25.025,-6.30875,-12.248,29.696001,6.728,inter_set_rest,0,3.0,17590.0,135833.0,222581.0,276206.0,260796.0
2026-04-08 21:33:35.351635,58039,1609503187504918,787470858,0.523136,-0.677344,0.815936,-31.45625,-23.63375,13.34375,-12.248,29.696001,6.728,inter_set_rest,0,3.0,17590.0,135833.0,222581.0,276206.0,260796.0
2026-04-08 21:33:35.358603,58040,1609503187519376,787485701,0.470432,-0.687104,0.646112,-4.05125,-21.13125,21.95375,-11.960001,29.792002,6.856,inter_set_rest,0,3.0,17590.0,135833.0,222581.0,276206.0,260796.0
2026-04-08 21:33:35.387180,58041,1609503187528299,787494405,0.470432,-0.687104,0.646112,24.2025,-17.3775,26.8275,-11.960001,29.792002,6.856,inter_set_rest,0,3.0,17590.0,135833.0,222581.0,276206.0,260796.0
2026-04-08 21:33:35.390798,58042,1609503187542750,787509303,0.476288,-0.632448,0.743712,52.535,-14.98875,30.905,-11.576,29.688002,8.008,inter_set_rest,0,3.0,17590.0,135833.0,222581.0,276206.0,260796.0
2026-04-08 21:33:35.419242,58053,1609503187551862,787517987,0.476288,-0.632448,0.743712,78.715004,-13.8075,32.4625,-11.576,29.688002,8.008,inter_set_rest,0,3.0,17726.0,136454.0,223430.0,276762.0,261060.0
2026-04-08 21:33:35.421673,58054,1609503187560864,787526796,0.640256,-0.571936,0.860832,101.3425,-11.50625,31.4825,-11.408001,29.264002,7.408001,inter_set_rest,0,3.0,17726.0,136454.0,223430.0,276762.0,261060.0
2026-04-08 21:33:35.423249,58055,1609503187575351,787541702,0.620736,-0.417728,0.864736,120.67125,-8.6625,30.51125,-11.256001,28.560001,12.440001,inter_set_rest,0,3.0,17726.0,136454.0,223430.0,276762.0,261060.0
2026-04-08 21:33:35.427388,58056,1609503187584265,787550492,0.620736,-0.417728,0.864736,138.4775,-5.32875,27.8075,-11.256001,28.560001,12.440001,inter_set_rest,0,3.0,17726.0,136454.0,223430.0,276762.0,261060.0
2026-04-08 21:33:35.458071,58057,1609503187598734,787565357,0.651968,-0.314272,0.81008,151.76,-3.3425,26.3375,-11.416,27.632002,12.752001,inter_set_rest,0,3.0,17726.0,136454.0,223430.0,276762.0,261060.0
2026-04-08 21:33:35.462569,58058,1609503187607653,787574063,0.651968,-0.314272,0.81008,158.095,-0.56875,24.7275,-11.416,27.632002,12.752001,inter_set_rest,0,3.0,17726.0,136454.0,223430.0,276762.0,261060.0
2026-04-08 21:33:35.465019,58059,1609503187622117,787588908,0.630496,-0.191296,0.841312,157.395,1.70625,23.5025,-10.672001,26.872002,13.296001,inter_set_rest,0,3.0,17726.0,136454.0,223430.0,276762.0,261060.0
2026-04-08 21:33:35.468320,58060,1609503187631055,787597577,0.630496,-0.191296,0.841312,150.08,5.6875,23.7125,-10.672001,26.872002,13.296001,inter_set_rest,0,3.0,17726.0,136454.0,223430.0,276762.0,261060.0
2026-04-08 21:33:35.478654,58061,1609503187640034,787606267,0.511424,-0.074176,0.618784,137.57625,9.56375,24.98125,-10.664001,25.952002,14.872001,inter_set_rest,0,3.0,17726.0,136454.0,223430.0,276762.0,261060.0
2026-04-08 21:33:35.512542,58072,1609503187654644,787621406,0.591456,0.005856,0.772992,118.4925,12.3375,28.48125,-10.360001,26.28,13.6,inter_set_rest,0,3.0,17800.0,136926.0,224086.0,277378.0,261489.0
2026-04-08 21:33:35.514242,58073,1609503187663657,787630168,0.591456,0.005856,0.772992,92.058754,14.34125,31.8325,-10.360001,26.28,13.6,inter_set_rest,0,3.0,17800.0,136926.0,224086.0,277378.0,261489.0
2026-04-08 21:33:35.515875,58074,1609503187678165,787645051,0.620736,0.005856,0.64416,58.6775,14.55125,32.62875,-9.84,25.848001,15.960001,inter_set_rest,0,3.0,17800.0,136926.0,224086.0,277378.0,261489.0
2026-04-08 21:33:35.574731,58075,1609503187687115,787653714,0.620736,0.005856,0.64416,21.8225,15.0675,33.57375,-9.84,25.848001,15.960001,inter_set_rest,0,3.0,17800.0,136926.0,224086.0,277378.0,261489.0
2026-04-08 21:33:35.576047,58076,1609503187696023,787662365,0.521184,0.070272,0.587552,-11.2525,18.47125,35.8225,-8.664001,26.000002,15.120001,inter_set_rest,0,3.0,17800.0,136926.0,224086.0,277378.0,261489.0
2026-04-08 21:33:35.577962,58077,1609503187710496,787677289,0.521184,0.070272,0.587552,-41.37875,23.205,38.19375,-8.664001,26.000002,15.120001,inter_set_rest,0,3.0,17800.0,136926.0,224086.0,277378.0,261489.0
2026-04-08 21:33:35.581359,58078,1609503187719401,787685961,0.51728,0.105408,0.560224,-74.64625,27.23875,36.74125,-8.392,27.088001,14.64,inter_set_rest,0,3.0,17800.0,136926.0,224086.0,277378.0,261489.0
2026-04-08 21:33:35.582964,58079,1609503187733899,787700890,0.51728,0.105408,0.484096,-113.295,31.84125,31.0975,-8.392,27.088001,14.64,inter_set_rest,0,3.0,17800.0,136926.0,224086.0,277378.0,261489.0
2026-04-08 21:33:35.584667,58080,1609503187742822,787709595,0.398208,0.08784,0.484096,-149.72125,32.41875,20.055,-8.168,28.152,11.368001,inter_set_rest,0,3.0,17800.0,136926.0,224086.0,277378.0,261489.0
2026-04-08 21:33:35.613005,58091,1609503187757421,787724574,0.435296,-0.121024,0.343552,-185.6225,28.65625,5.08375,-8.272,30.192001,11.992001,inter_set_rest,0,3.0,17754.0,136916.0,224107.0,277272.0,261368.0
2026-04-08 21:33:35.614690,58092,1609503187766344,787733250,0.435296,-0.121024,0.343552,-224.245,23.24875,-4.61125,-8.272,30.192001,11.992001,inter_set_rest,0,3.0,17754.0,136916.0,224107.0,277272.0,261368.0
2026-04-08 21:33:35.618648,58093,1609503187775313,787741917,0.486048,-0.310368,0.571936,-254.135,16.14375,-11.515,-8.408,31.488,9.104,inter_set_rest,0,3.0,17754.0,136916.0,224107.0,277272.0,261368.0
2026-04-08 21:33:35.647226,58094,1609503187789846,787756835,0.486048,-0.310368,0.571936,-271.39,10.00125,-12.03125,-8.408,31.488,9.104,inter_set_rest,0,3.0,17754.0,136916.0,224107.0,277272.0,261368.0
2026-04-08 21:33:35.650970,58095,1609503187798742,787765520,0.454816,-0.460672,0.482144,-274.53125,8.40875,-11.0075,-8.136001,32.640003,6.584,inter_set_rest,0,3.0,17754.0,136916.0,224107.0,277272.0,261368.0
2026-04-08 21:33:35.655851,58096,1609503187813241,787780382,0.454816,-0.460672,0.482144,-262.85,8.77625,-14.7875,-8.136001,32.640003,6.584,inter_set_rest,0,3.0,17754.0,136916.0,224107.0,277272.0,261368.0
2026-04-08 21:33:35.661239,58097,1609503187822239,787789116,0.425536,-0.630496,0.353312,-237.335,10.17625,-24.8325,-8.592,33.456,4.952,inter_set_rest,0,3.0,17754.0,136916.0,224107.0,277272.0,261368.0
2026-04-08 21:33:35.689805,58098,1609503187836738,787802033,0.353312,-0.710528,0.52704,-200.24374,11.29625,-39.43625,-9.592,33.808002,3.888,inter_set_rest,0,3.0,17754.0,136916.0,224107.0,277272.0,261368.0
2026-04-08 21:33:35.694354,58099,1609503187846025,787812756,0.353312,-0.710528,0.52704,-156.5725,11.41,-54.495,-9.592,33.808002,3.888,inter_set_rest,0,3.0,17754.0,136916.0,224107.0,277272.0,261368.0
2026-04-08 21:33:35.773081,58110,1609503187855053,787821509,0.353312,-0.813984,0.345504,-109.26125,10.17625,-69.83375,-9.592,33.808002,3.888,inter_set_rest,0,3.0,17480.0,135479.0,222104.0,275536.0,260216.0
2026-04-08 21:33:35.774571,58111,1609503187869534,787836516,0.382592,-0.813984,0.345504,-61.59125,8.33875,-85.785,-10.872001,33.024002,2.224,inter_set_rest,0,3.0,17480.0,135479.0,222104.0,275536.0,260216.0
2026-04-08 21:33:35.787649,58112,1609503187878452,787845193,0.44896,-0.72224,0.425536,-16.87875,4.515,-100.1,-12.544001,32.392002,4.6,inter_set_rest,0,3.0,17480.0,135479.0,222104.0,275536.0,260216.0
2026-04-08 21:33:35.789228,58113,1609503187892935,787860091,0.44896,-0.72224,0.425536,21.1225,-2.24875,-112.53375,-12.544001,32.392002,4.6,inter_set_rest,0,3.0,17480.0,135479.0,222104.0,275536.0,260216.0
2026-04-08 21:33:35.790960,58114,1609503187901884,787868754,0.568032,-0.696864,0.427488,50.435,-8.89875,-121.415,-14.064001,31.432001,5.896,inter_set_rest,0,3.0,17480.0,135479.0,222104.0,275536.0,260216.0
2026-04-08 21:33:35.795052,58115,1609503187916363,787881551,0.646112,-0.76128,0.609024,69.76375,-12.76625,-126.315,-16.024,30.232002,5.872,inter_set_rest,0,3.0,17480.0,135479.0,222104.0,275536.0,260216.0
2026-04-08 21:33:35.796869,58116,1609503187925531,787892348,0.646112,-0.76128,0.609024,85.12,-14.51625,-132.01125,-16.024,30.232002,5.872,inter_set_rest,0,3.0,17480.0,135479.0,222104.0,275536.0,260216.0
2026-04-08 21:33:35.798318,58117,1609503187934447,787901029,0.646112,-0.76128,0.609024,95.5675,-16.555,-138.53,-16.024,30.232002,5.872,inter_set_rest,0,3.0,17480.0,135479.0,222104.0,275536.0,260216.0
2026-04-08 21:33:35.826801,58128,1609503187948934,787916010,0.69296,-0.772992,0.808128,100.86125,-17.4475,-138.8975,-18.072,28.368002,7.976,inter_set_rest,0,3.0,17556.0,135767.0,222458.0,275802.0,260397.0
2026-04-08 21:33:35.828327,58129,1609503187958192,787924651,0.778848,-0.720288,0.81984,104.9825,-17.36875,-132.37,-19.696001,26.456001,10.472,inter_set_rest,0,3.0,17556.0,135767.0,222458.0,275802.0,260397.0
2026-04-08 21:33:35.832588,58130,1609503187972770,787939565,0.778848,-0.720288,0.81984,104.9825,-17.5,-118.6325,-19.696001,26.456001,10.472,inter_set_rest,0,3.0,17556.0,135767.0,222458.0,275802.0,260397.0
2026-04-08 21:33:35.834280,58131,1609503187981828,787948245,0.796416,-0.691008,0.55632,104.3525,-14.595,-99.07625,-20.672,24.664001,11.408001,inter_set_rest,0,3.0,17556.0,135767.0,222458.0,275802.0,260397.0
2026-04-08 21:33:35.836606,58132,1609503187990761,787956949,0.796416,-0.691008,0.55632,102.865,-10.80625,-82.5825,-20.672,24.664001,11.408001,inter_set_rest,0,3.0,17556.0,135767.0,222458.0,275802.0,260397.0
2026-04-08 21:33:35.874430,58133,1609503188005230,787971863,0.749568,-0.638304,0.628544,93.0825,-11.0075,-68.635,-21.112001,23.216002,12.56,inter_set_rest,0,3.0,17556.0,135767.0,222458.0,275802.0,260397.0
2026-04-08 21:33:35.878820,58134,1609503188014156,787980528,0.749568,-0.638304,0.628544,79.26625,-15.82875,-55.18625,-21.112001,23.216002,12.56,inter_set_rest,0,3.0,17556.0,135767.0,222458.0,275802.0,260397.0
2026-04-08 21:33:35.880555,58135,1609503188028623,787995386,0.675392,-0.745664,0.484096,68.3725,-22.00625,-38.42125,-21.512001,22.552002,10.064,inter_set_rest,0,3.0,17556.0,135767.0,222458.0,275802.0,260397.0
2026-04-08 21:33:35.882217,58136,1609503188037524,788004035,0.81008,-0.769088,0.813984,68.27625,-21.6125,-17.36,-22.032001,21.76,12.232,inter_set_rest,0,3.0,17556.0,135767.0,222458.0,275802.0,260397.0
2026-04-08 21:33:35.910538,58147,1609503188052123,788017332,0.81008,-0.769088,0.813984,78.91625,-14.3325,3.0625,-22.032001,21.76,12.232,inter_set_rest,0,3.0,17634.0,135902.0,222525.0,275732.0,260316.0
2026-04-08 21:33:35.912181,58148,1609503188061409,788028149,0.759328,-0.538752,0.610976,95.6375,-3.70125,17.5175,-21.52,20.728,14.208001,inter_set_rest,0,3.0,17634.0,135902.0,222525.0,275732.0,260316.0
2026-04-08 21:33:35.916130,58149,1609503188070347,788036865,0.759328,-0.538752,0.610976,110.0575,6.2475,23.75625,-21.52,20.728,14.208001,inter_set_rest,0,3.0,17634.0,135902.0,222525.0,275732.0,260316.0
2026-04-08 21:33:35.944963,58150,1609503188084901,788051788,0.657824,-0.359168,0.47824,113.3825,13.3,21.70875,-21.832,20.288,14.848001,inter_set_rest,0,3.0,17634.0,135902.0,222525.0,275732.0,260316.0
2026-04-08 21:33:35.949263,58151,1609503188093869,788060492,0.657824,-0.359168,0.47824,101.21125,14.1575,15.505,-21.832,20.288,14.848001,inter_set_rest,0,3.0,17634.0,135902.0,222525.0,275732.0,260316.0
2026-04-08 21:33:35.951088,58152,1609503188108342,788075339,0.421632,-0.31232,0.32208,72.3975,10.26375,8.295,-22.064001,19.632002,15.080001,inter_set_rest,0,3.0,17634.0,135902.0,222525.0,275732.0,260316.0
2026-04-08 21:33:35.955886,58153,1609503188117273,788083994,0.347456,-0.304512,0.714432,34.65875,2.12625,4.795,-22.168001,19.264002,17.096,inter_set_rest,0,3.0,17634.0,135902.0,222525.0,275732.0,260316.0
2026-04-08 21:33:35.985918,58154,1609503188126192,788092738,0.347456,-0.304512,0.714432,-2.52,-4.97875,3.4825,-22.168001,19.264002,17.096,inter_set_rest,0,3.0,17634.0,135902.0,222525.0,275732.0,260316.0
2026-04-08 21:33:35.989468,58155,1609503188140636,788107593,0.324032,-0.447008,0.739808,-36.09375,-10.08875,0.27125,-22.04,19.752,14.608001,inter_set_rest,0,3.0,17634.0,135902.0,222525.0,275732.0,260316.0
2026-04-08 21:33:36.017026,58166,1609503188149502,788116314,0.324032,-0.447008,0.739808,-63.84,-12.81,-4.3575,-22.04,19.752,14.608001,inter_set_rest,0,3.0,17391.0,135130.0,221671.0,275259.0,260121.0
2026-04-08 21:33:36.019483,58167,1609503188164030,788129233,0.382592,-0.616832,0.509472,-82.985,-15.8725,-5.95875,-22.480001,20.208,16.368,inter_set_rest,0,3.0,17391.0,135130.0,221671.0,275259.0,260121.0
2026-04-08 21:33:36.022004,58168,1609503188173475,788139977,0.382592,-0.616832,0.509472,-95.165,-20.055,-6.58,-22.480001,20.208,16.368,inter_set_rest,0,3.0,17391.0,135130.0,221671.0,275259.0,260121.0
2026-04-08 21:33:36.028311,58169,1609503188188025,788154899,0.441152,-0.700768,0.44896,-100.07375,-24.70125,-9.555,-23.448002,20.696001,13.768001,inter_set_rest,0,3.0,17391.0,135130.0,221671.0,275259.0,260121.0
2026-04-08 21:33:36.035840,58170,1609503188196979,788163550,0.441152,-0.716384,0.5856,-96.7225,-30.6075,-14.4725,-23.448002,20.696001,13.768001,inter_set_rest,0,3.0,17391.0,135130.0,221671.0,275259.0,260121.0
2026-04-08 21:33:36.042145,58171,1609503188205912,788172229,0.447008,-0.708576,0.5856,-84.55125,-36.68875,-18.48875,-23.824001,20.92,12.56,inter_set_rest,0,3.0,17391.0,135130.0,221671.0,275259.0,260121.0
