pc_time,serial_num,sensor_ts,host_ts,ax,ay,az,gx,gy,gz,mx,my,mz,phase,rpe,weight_kg,ppg_a,ppg_b,ppg_c,ppg_d,ppg_e
2026-04-09 22:37:24.928699,532594,3174787289,3174788951,-1.257088,0.368928,0.314272,-9.82625,6.08125,65.10875,18.496,-30.872002,15.048,inter_set_rest,7,5.0,18649.0,403431.0,208059.0,61815.0,3046.0
2026-04-09 22:37:24.930152,532595,3174796232,3174797684,-1.257088,0.368928,0.314272,-10.9375,5.0575,70.2275,17.432001,-30.872002,15.048,inter_set_rest,7,5.0,18649.0,403431.0,208059.0,61815.0,3046.0
2026-04-09 22:37:24.931057,532596,3174810817,3174812565,-1.294176,0.365024,0.306464,-12.53875,3.64875,73.61375,16.672,-31.632002,15.064001,inter_set_rest,7,5.0,18649.0,403431.0,208059.0,61815.0,3046.0
2026-04-09 22:37:24.933684,532597,3174819815,3174821225,-1.294176,0.365024,0.306464,-14.2275,1.44375,75.8275,16.672,-31.632002,15.064001,inter_set_rest,7,5.0,18649.0,403431.0,208059.0,61815.0,3046.0
2026-04-09 22:37:24.968893,532598,3174828769,3174829943,-1.233664,0.33184,0.308416,-15.505,-1.75,78.09375,16.064001,-31.432001,15.144001,inter_set_rest,7,5.0,18649.0,403431.0,208059.0,61815.0,3046.0
2026-04-09 22:37:24.972434,532599,3174837657,3174838699,-1.233664,0.33184,0.308416,-16.38875,-5.5825,79.98375,16.064001,-31.432001,15.144001,inter_set_rest,7,5.0,18649.0,403431.0,208059.0,61815.0,3046.0
2026-04-09 22:37:24.974919,532600,3174852182,3174853662,-1.085312,0.290848,0.294752,-16.205,-9.45875,82.46875,15.296001,-32.144,15.488001,inter_set_rest,7,5.0,18649.0,403431.0,208059.0,61815.0,3046.0
2026-04-09 22:37:24.977389,532601,3174861113,3174862376,-1.085312,0.290848,0.294752,-14.98875,-13.02875,85.53125,15.296001,-32.144,15.488001,inter_set_rest,7,5.0,18649.0,403431.0,208059.0,61815.0,3046.0
2026-04-09 22:37:24.979897,532602,3174870031,3174871124,-0.95648,0.255712,0.279136,-13.11625,-16.24875,88.57625,14.280001,-32.736,15.808001,inter_set_rest,7,5.0,18649.0,403431.0,208059.0,61815.0,3046.0
2026-04-09 22:37:25.006703,532612,3174884948,3174886061,-0.95648,0.255712,0.279136,-9.8175,-18.50625,91.8925,14.280001,-32.736,15.808001,inter_set_rest,7,5.0,18767.0,403431.0,206344.0,60378.0,2744.0
2026-04-09 22:37:25.008458,532613,3174894192,3174894828,-0.8784,0.238144,0.247904,-7.23625,-20.16875,96.3375,12.536,-33.312,17.240002,inter_set_rest,7,5.0,18767.0,403431.0,206344.0,60378.0,2744.0
2026-04-09 22:37:25.009954,532614,3174903540,3174905653,-0.8784,0.238144,0.247904,-3.045,-20.9475,99.77625,12.536,-33.312,17.240002,inter_set_rest,7,5.0,18767.0,403431.0,206344.0,60378.0,2744.0
2026-04-09 22:37:25.016588,532615,3174912535,3174914439,-0.86864,0.240096,0.20496,1.0325,-21.7875,102.48875,11.264001,-33.464,16.424002,inter_set_rest,7,5.0,18767.0,403431.0,206344.0,60378.0,2744.0
2026-04-09 22:37:25.020318,532616,3174927100,3174929347,-0.86864,0.240096,0.158112,5.32875,-22.91625,103.11875,11.264001,-33.464,16.424002,inter_set_rest,7,5.0,18767.0,403431.0,206344.0,60378.0,2744.0
2026-04-09 22:37:25.048899,532617,3174936030,3174938061,-0.862784,0.251808,0.15616,8.417501,-23.765,101.7275,10.744,-34.832,17.384,inter_set_rest,7,5.0,18767.0,403431.0,206344.0,60378.0,2744.0
2026-04-09 22:37:25.053423,532618,3174944953,3174946786,-0.862784,0.251808,0.15616,9.73875,-25.4975,98.60375,10.744,-34.832,17.384,inter_set_rest,7,5.0,18767.0,403431.0,206344.0,60378.0,2744.0
2026-04-09 22:37:25.054980,532619,3174959417,3174961670,-0.856928,0.271328,0.13664,10.43,-25.97875,92.295,10.104,-34.248,16.544,inter_set_rest,7,5.0,18767.0,403431.0,206344.0,60378.0,2744.0
2026-04-09 22:37:25.062854,532620,3174968326,3174970366,-0.856928,0.277184,0.121024,11.1125,-26.215,84.402504,9.168,-34.592003,16.384,inter_set_rest,7,5.0,18767.0,403431.0,206344.0,60378.0,2744.0
2026-04-09 22:37:25.091342,532621,3174977262,3174979062,-0.856928,0.277184,0.121024,12.215,-27.3525,75.36375,9.168,-34.592003,16.384,inter_set_rest,7,5.0,18767.0,403431.0,206344.0,60378.0,2744.0
2026-04-09 22:37:25.119977,532632,3174991835,3174994083,-0.835456,0.271328,0.10736,14.35875,-28.56,65.44125,9.480001,-35.144,16.376001,inter_set_rest,7,5.0,18697.0,403431.0,206509.0,60468.0,2655.0
2026-04-09 22:37:25.124234,532633,3175000781,3175002782,-0.835456,0.271328,0.10736,17.22,-30.02125,55.20375,9.480001,-35.144,16.376001,inter_set_rest,7,5.0,18697.0,403431.0,206509.0,60468.0,2655.0
2026-04-09 22:37:25.125931,532634,3175009690,3175011535,-0.802272,0.26352,0.085888,22.61875,-31.75375,44.24875,9.352,-35.0,16.800001,inter_set_rest,7,5.0,18697.0,403431.0,206509.0,60468.0,2655.0
2026-04-09 22:37:25.127631,532635,3175018626,3175020261,-0.802272,0.26352,0.085888,30.02125,-32.375,33.55625,9.352,-35.0,16.800001,inter_set_rest,7,5.0,18697.0,403431.0,206509.0,60468.0,2655.0
2026-04-09 22:37:25.131655,532636,3175033197,3175035254,-0.757376,0.271328,0.062464,38.8675,-32.8125,22.4525,9.288,-34.960003,16.552,inter_set_rest,7,5.0,18697.0,403431.0,206509.0,60468.0,2655.0
2026-04-09 22:37:25.133305,532637,3175042129,3175044017,-0.757376,0.271328,0.062464,47.9325,-32.26125,11.99625,9.288,-34.960003,16.552,inter_set_rest,7,5.0,18697.0,403431.0,206509.0,60468.0,2655.0
2026-04-09 22:37:25.163541,532638,3175051179,3175052738,-0.689056,0.27328,0.052704,55.34375,-31.185,3.01,9.416,-34.960003,15.792001,inter_set_rest,7,5.0,18697.0,403431.0,206509.0,60468.0,2655.0
2026-04-09 22:37:25.165852,532639,3175065599,3175067646,-0.689056,0.27328,0.052704,60.3925,-29.63625,-5.32875,9.416,-34.960003,15.792001,inter_set_rest,7,5.0,18697.0,403431.0,206509.0,60468.0,2655.0
2026-04-09 22:37:25.170464,532640,3175074558,3175076404,-0.62464,0.277184,0.05856,63.2975,-27.685,-13.265,10.248,-33.936,15.816001,inter_set_rest,7,5.0,18697.0,403431.0,206509.0,60468.0,2655.0
2026-04-09 22:37:25.174718,532641,3175083514,3175085113,-0.62464,0.277184,0.05856,64.54875,-24.605,-20.0375,10.248,-33.936,15.816001,inter_set_rest,7,5.0,18697.0,403431.0,206509.0,60468.0,2655.0
2026-04-09 22:37:25.234991,532651,3175098126,3175100145,-0.601216,0.290848,0.06832,64.74125,-21.1575,-25.9,10.552,-33.656002,16.12,inter_set_rest,7,5.0,18642.0,403431.0,206872.0,60979.0,2680.0
2026-04-09 22:37:25.267671,532652,3175107093,3175108889,-0.601216,0.290848,0.06832,62.895,-17.75375,-31.87625,10.552,-33.656002,16.12,inter_set_rest,7,5.0,18642.0,403431.0,206872.0,60979.0,2680.0
2026-04-09 22:37:25.271156,532653,3175116005,3175117599,-0.648064,0.325984,0.074176,58.625,-13.877501,-37.17875,11.272,-33.592003,15.776001,inter_set_rest,7,5.0,18642.0,403431.0,206872.0,60979.0,2680.0
2026-04-09 22:37:25.273654,532654,3175124982,3175126344,-0.648064,0.325984,0.074176,51.45,-10.885,-42.18375,11.272,-33.592003,15.776001,inter_set_rest,7,5.0,18642.0,403431.0,206872.0,60979.0,2680.0
2026-04-09 22:37:25.276160,532655,3175139443,3175141286,-0.767136,0.359168,0.066368,41.55375,-8.05,-47.59125,11.480001,-32.856003,14.232,inter_set_rest,7,5.0,18642.0,403431.0,206872.0,60979.0,2680.0
2026-04-09 22:37:25.278641,532656,3175148514,3175150079,-0.767136,0.378688,0.044896,30.2225,-6.11625,-52.745,11.480001,-32.856003,16.28,inter_set_rest,7,5.0,18642.0,403431.0,206872.0,60979.0,2680.0
2026-04-09 22:37:25.281201,532657,3175157429,3175158825,-0.925248,0.378688,0.044896,17.45625,-4.94375,-57.75875,10.728001,-32.72,15.400001,inter_set_rest,7,5.0,18642.0,403431.0,206872.0,60979.0,2680.0
2026-04-09 22:37:25.283658,532658,3175171920,3175173759,-1.100928,0.36112,0.015616,4.9,-4.865,-64.19875,13.288001,-32.056,14.816001,inter_set_rest,7,5.0,18642.0,403431.0,206872.0,60979.0,2680.0
2026-04-09 22:37:25.286132,532659,3175180841,3175182458,-1.100928,0.36112,0.015616,-4.12125,-5.775,-72.21375,13.288001,-32.056,14.816001,inter_set_rest,7,5.0,18642.0,403431.0,206872.0,60979.0,2680.0
2026-04-09 22:37:25.314927,532669,3175189950,3175191206,-1.300032,0.3416,-0.007808,-9.03,-6.44,-82.60875,12.960001,-32.288002,16.144001,inter_set_rest,7,5.0,18418.0,403431.0,209669.0,63148.0,3078.0
2026-04-09 22:37:25.317420,532670,3175204559,3175206184,-1.300032,0.3416,-0.007808,-9.02125,-6.09,-93.98375,12.960001,-32.288002,16.144001,inter_set_rest,7,5.0,18418.0,403431.0,209669.0,63148.0,3078.0
2026-04-09 22:37:25.320163,532671,3175213500,3175214941,-1.45424,0.310368,-0.023424,-4.69,-5.9675,-104.308754,14.192,-31.192001,15.920001,inter_set_rest,7,5.0,18418.0,403431.0,209669.0,63148.0,3078.0
2026-04-09 22:37:25.322675,532672,3175222438,3175223646,-1.45424,0.310368,-0.023424,4.48875,-5.55625,-113.4,14.192,-31.192001,15.920001,inter_set_rest,7,5.0,18418.0,403431.0,209669.0,63148.0,3078.0
2026-04-09 22:37:25.324947,532673,3175231416,3175232373,-1.575264,0.308416,-0.033184,19.11,-3.38625,-121.52875,15.920001,-30.160002,15.400001,inter_set_rest,7,5.0,18418.0,403431.0,209669.0,63148.0,3078.0
2026-04-09 22:37:25.355125,532674,3175245959,3175247380,-1.575264,0.308416,-0.033184,37.94875,0.13125,-129.8325,15.920001,-30.160002,15.400001,inter_set_rest,7,5.0,18418.0,403431.0,209669.0,63148.0,3078.0
2026-04-09 22:37:25.358759,532675,3175254873,3175256075,-1.626016,0.372832,-0.001952,58.135002,3.675,-139.22125,17.568,-28.472002,13.976001,inter_set_rest,7,5.0,18418.0,403431.0,209669.0,63148.0,3078.0
2026-04-09 22:37:25.361242,532676,3175263798,3175264775,-1.626016,0.372832,-0.001952,75.74,6.965,-147.30624,17.568,-28.472002,13.976001,inter_set_rest,7,5.0,18418.0,403431.0,209669.0,63148.0,3078.0
2026-04-09 22:37:25.391469,532677,3175278381,3175279672,-1.510848,0.456768,0.099552,86.56375,9.2225,-152.60875,18.432001,-27.256,13.544001,inter_set_rest,7,5.0,18418.0,403431.0,209669.0,63148.0,3078.0
2026-04-09 22:37:25.422419,532688,3175287787,3175288391,-1.510848,0.456768,0.099552,88.1475,10.64,-154.39375,18.432001,-27.256,13.544001,inter_set_rest,7,5.0,18293.0,403431.0,211217.0,64518.0,3373.0
2026-04-09 22:37:25.424946,532689,3175297021,3175299188,-1.311744,0.521184,0.21472,79.42375,13.16875,-153.7025,19.448002,-26.144001,12.84,inter_set_rest,7,5.0,18293.0,403431.0,211217.0,64518.0,3373.0
2026-04-09 22:37:25.427483,532690,3175306017,3175307873,-1.311744,0.521184,0.21472,64.26,15.72375,-151.06876,19.448002,-26.144001,12.84,inter_set_rest,7,5.0,18293.0,403431.0,211217.0,64518.0,3373.0
2026-04-09 22:37:25.429930,532691,3175320573,3175322842,-1.124352,0.534848,0.257664,44.1875,19.075,-146.67625,19.584002,-25.096,13.408001,inter_set_rest,7,5.0,18293.0,403431.0,211217.0,64518.0,3373.0
2026-04-09 22:37:25.432476,532692,3175329641,3175331583,-0.94672,0.511424,0.269376,21.37625,22.26875,-140.385,21.136002,-23.904001,10.608001,inter_set_rest,7,5.0,18293.0,403431.0,211217.0,64518.0,3373.0
2026-04-09 22:37:25.434929,532693,3175338600,3175340281,-0.94672,0.511424,0.269376,-1.60125,25.34,-131.64375,21.136002,-23.904001,10.608001,inter_set_rest,7,5.0,18293.0,403431.0,211217.0,64518.0,3373.0
2026-04-09 22:37:25.465194,532694,3175353164,3175355199,-0.815936,0.464576,0.255712,-26.20625,28.7175,-120.04125,20.368,-23.6,14.088,inter_set_rest,7,5.0,18293.0,403431.0,211217.0,64518.0,3373.0
2026-04-09 22:37:25.468747,532695,3175362093,3175363888,-0.815936,0.464576,0.255712,-51.59875,31.7975,-105.945,20.368,-23.6,14.088,inter_set_rest,7,5.0,18293.0,403431.0,211217.0,64518.0,3373.0
2026-04-09 22:37:25.471233,532696,3175371070,3175372590,-0.759328,0.363072,0.222528,-73.45625,35.0175,-90.9475,21.872002,-23.608002,13.592001,inter_set_rest,7,5.0,18293.0,403431.0,211217.0,64518.0,3373.0
2026-04-09 22:37:25.498806,532706,3175385585,3175387873,-0.759328,0.363072,0.222528,-88.795,36.75,-75.88,21.872002,-23.608002,13.592001,inter_set_rest,7,5.0,17660.0,403431.0,220877.0,72023.0,5320.0
2026-04-09 22:37:25.501284,532707,3175394575,3175396579,-0.739808,0.275232,0.16592,-96.24125,37.485,-62.04625,21.592001,-23.288002,13.456,inter_set_rest,7,5.0,17660.0,403431.0,220877.0,72023.0,5320.0
2026-04-09 22:37:25.503782,532708,3175403523,3175405382,-0.739808,0.275232,0.16592,-95.585,36.82,-50.4,21.592001,-23.288002,13.456,inter_set_rest,7,5.0,17660.0,403431.0,220877.0,72023.0,5320.0
2026-04-09 22:37:25.506216,532709,3175412486,3175414119,-0.776896,0.232288,0.160064,-88.97,35.35,-40.99375,21.880001,-24.320002,13.312,inter_set_rest,7,5.0,17660.0,403431.0,220877.0,72023.0,5320.0
2026-04-09 22:37:25.565231,532710,3175427015,3175429026,-0.776896,0.232288,0.160064,-75.775,32.62,-34.34375,21.880001,-24.320002,13.312,inter_set_rest,7,5.0,17660.0,403431.0,220877.0,72023.0,5320.0
2026-04-09 22:37:25.568758,532711,3175435939,3175437714,-0.866688,0.210816,0.138592,-59.71875,29.522501,-29.3825,20.912,-23.872002,14.112,inter_set_rest,7,5.0,17660.0,403431.0,220877.0,72023.0,5320.0
2026-04-09 22:37:25.571224,532712,3175444889,3175446470,-0.866688,0.210816,0.138592,-41.107502,26.08375,-24.928751,20.912,-23.872002,14.112,inter_set_rest,7,5.0,17660.0,403431.0,220877.0,72023.0,5320.0
2026-04-09 22:37:25.573709,532713,3175459369,3175461368,-0.968192,0.206912,0.144448,-19.94125,21.14875,-20.90375,21.640001,-23.936,14.072001,inter_set_rest,7,5.0,17660.0,403431.0,220877.0,72023.0,5320.0
2026-04-09 22:37:25.576174,532714,3175468296,3175470113,-0.968192,0.206912,0.144448,3.78875,15.18125,-18.27875,21.640001,-23.936,14.072001,inter_set_rest,7,5.0,17660.0,403431.0,220877.0,72023.0,5320.0
2026-04-09 22:37:25.578699,532715,3175477238,3175478803,-1.059936,0.216672,0.138592,29.015,9.45875,-18.27875,21.336,-23.080002,14.400001,inter_set_rest,7,5.0,17660.0,403431.0,220877.0,72023.0,5320.0
2026-04-09 22:37:25.617196,532725,3175491862,3175493730,-1.147776,0.251808,0.105408,53.4975,5.01375,-19.90625,21.488,-23.072,12.928,inter_set_rest,7,5.0,17757.0,403431.0,218767.0,70343.0,4821.0
2026-04-09 22:37:25.619680,532726,3175501109,3175502535,-1.147776,0.251808,0.105408,77.2975,0.6125,-22.49625,21.488,-23.072,12.928,inter_set_rest,7,5.0,17757.0,403431.0,218767.0,70343.0,4821.0
2026-04-09 22:37:25.621296,532727,3175510073,3175511314,-1.204384,0.324032,0.0976,99.65375,-4.4625,-25.2175,21.488,-21.024,13.024,inter_set_rest,7,5.0,17757.0,403431.0,218767.0,70343.0,4821.0
2026-04-09 22:37:25.625621,532728,3175519004,3175520095,-1.204384,0.324032,0.0976,119.1225,-8.65375,-28.49,21.640001,-21.920002,13.024,inter_set_rest,7,5.0,17757.0,403431.0,218767.0,70343.0,4821.0
2026-04-09 22:37:25.627126,532729,3175533582,3175535080,-1.216096,0.394304,0.083936,135.51125,-12.985,-31.43,22.44,-20.480001,13.72,inter_set_rest,7,5.0,17757.0,403431.0,218767.0,70343.0,4821.0
2026-04-09 22:37:25.634444,532730,3175542594,3175543835,-1.216096,0.394304,0.083936,147.4025,-16.59875,-33.9325,22.44,-20.480001,13.72,inter_set_rest,7,5.0,17757.0,403431.0,218767.0,70343.0,4821.0
2026-04-09 22:37:25.668051,532731,3175551527,3175552594,-1.21024,0.445056,0.080032,153.58,-19.74,-35.3325,22.208,-19.92,13.016001,inter_set_rest,7,5.0,17757.0,403431.0,218767.0,70343.0,4821.0
2026-04-09 22:37:25.669735,532732,3175566040,3175567522,-1.21024,0.445056,0.080032,154.8225,-21.2275,-37.14375,22.208,-19.92,13.016001,inter_set_rest,7,5.0,17757.0,403431.0,218767.0,70343.0,4821.0
2026-04-09 22:37:25.671205,532733,3175574961,3175576229,-1.177056,0.486048,0.091744,151.24374,-21.647501,-37.86125,21.632002,-18.36,13.240001,inter_set_rest,7,5.0,17757.0,403431.0,218767.0,70343.0,4821.0
2026-04-09 22:37:25.673686,532734,3175583876,3175584955,-1.177056,0.486048,0.091744,143.08875,-21.866251,-37.3625,21.632002,-18.36,13.240001,inter_set_rest,7,5.0,17757.0,403431.0,218767.0,70343.0,4821.0
2026-04-09 22:37:25.712481,532745,3175598458,3175599946,-1.126304,0.523136,0.128832,129.78876,-20.125,-35.665,22.480001,-17.616001,12.368001,inter_set_rest,7,5.0,17737.0,403431.0,218339.0,70058.0,4643.0
2026-04-09 22:37:25.714984,532746,3175607560,3175608739,-1.126304,0.523136,0.128832,111.7025,-17.2025,-33.7925,22.480001,-17.616001,12.368001,inter_set_rest,7,5.0,17737.0,403431.0,218339.0,70058.0,4643.0
2026-04-09 22:37:25.722667,532747,3175616586,3175617439,-1.087264,0.538752,0.158112,88.41875,-12.792501,-30.1525,22.704,-17.04,12.472,inter_set_rest,7,5.0,17737.0,403431.0,218339.0,70058.0,4643.0
2026-04-09 22:37:25.728732,532748,3175625506,3175626160,-1.087264,0.538752,0.158112,61.08375,-8.93375,-23.96625,22.704,-17.04,12.472,inter_set_rest,7,5.0,17737.0,403431.0,218339.0,70058.0,4643.0
2026-04-09 22:37:25.733767,532749,3175640528,3175641155,-1.046272,0.519232,0.158112,30.03,-4.6025,-16.84375,22.936,-17.08,10.968,inter_set_rest,7,5.0,17737.0,403431.0,218339.0,70058.0,4643.0
2026-04-09 22:37:25.748787,532750,3175649787,3175651941,-1.046272,0.519232,0.158112,-1.32125,0.5075,-8.47875,22.936,-17.08,10.968,inter_set_rest,7,5.0,17737.0,403431.0,218339.0,70058.0,4643.0
2026-04-09 22:37:25.751225,532751,3175658734,3175660642,-0.98576,0.452864,0.142496,-29.33875,4.26125,0.4025,22.648,-17.728,12.256001,inter_set_rest,7,5.0,17737.0,403431.0,218339.0,70058.0,4643.0
2026-04-09 22:37:25.781408,532752,3175673280,3175675579,-0.940864,0.38064,0.10736,-52.3075,7.77,9.9225,22.904001,-18.048,12.008,inter_set_rest,7,5.0,17737.0,403431.0,218339.0,70058.0,4643.0
2026-04-09 22:37:25.785050,532753,3175682236,3175684297,-0.940864,0.38064,0.10736,-69.65,10.6925,18.34875,22.904001,-18.048,12.008,inter_set_rest,7,5.0,17737.0,403431.0,218339.0,70058.0,4643.0
2026-04-09 22:37:25.813774,532763,3175691274,3175693036,-0.921344,0.327936,0.089792,-81.06,12.29375,26.15375,23.04,-18.640001,12.528001,inter_set_rest,7,5.0,17580.0,403431.0,220800.0,71983.0,5195.0
2026-04-09 22:37:25.816162,532764,3175700246,3175701801,-0.921344,0.327936,0.089792,-86.9575,12.85375,32.76,23.04,-18.640001,12.528001,inter_set_rest,7,5.0,17580.0,403431.0,220800.0,71983.0,5195.0
2026-04-09 22:37:25.818829,532765,3175714772,3175716751,-0.88816,0.288896,0.080032,-87.675,12.3375,37.6775,20.928001,-20.096,15.064001,inter_set_rest,7,5.0,17580.0,403431.0,220800.0,71983.0,5195.0
2026-04-09 22:37:25.821265,532766,3175723741,3175725525,-0.88816,0.288896,0.080032,-84.56,11.0775,41.4225,20.928001,-20.096,15.064001,inter_set_rest,7,5.0,17580.0,403431.0,220800.0,71983.0,5195.0
2026-04-09 22:37:25.823803,532767,3175732685,3175734266,-0.86864,0.26352,0.076128,-77.5775,10.045,44.87,20.160002,-20.848001,13.816001,inter_set_rest,7,5.0,17580.0,403431.0,220800.0,71983.0,5195.0
2026-04-09 22:37:25.868909,532768,3175747175,3175749189,-0.86864,0.26352,0.076128,-67.50625,8.81125,47.11,20.160002,-20.848001,13.816001,inter_set_rest,7,5.0,17580.0,403431.0,220800.0,71983.0,5195.0
2026-04-09 22:37:25.872488,532769,3175756091,3175757861,-0.860832,0.271328,0.076128,-56.6475,7.2625,48.23,21.096,-21.712002,12.784,inter_set_rest,7,5.0,17580.0,403431.0,220800.0,71983.0,5195.0
2026-04-09 22:37:25.875030,532770,3175765042,3175766586,-0.860832,0.271328,0.076128,-46.2875,4.8825,48.3175,21.096,-21.712002,12.784,inter_set_rest,7,5.0,17580.0,403431.0,220800.0,71983.0,5195.0
2026-04-09 22:37:25.877474,532771,3175779510,3175781499,-0.882304,0.308416,0.066368,-37.35375,2.44125,48.0375,21.224,-22.152,12.296001,inter_set_rest,7,5.0,17580.0,403431.0,220800.0,71983.0,5195.0
2026-04-09 22:37:25.909872,532781,3175788439,3175790184,-0.882304,0.308416,0.066368,-31.78,0.25375,46.97,21.224,-22.152,12.296001,inter_set_rest,7,5.0,17578.0,403431.0,220738.0,71988.0,5237.0
2026-04-09 22:37:25.912734,532782,3175797446,3175798982,-0.923296,0.339648,0.054656,-28.06125,-2.84375,44.905,21.216002,-22.584002,13.000001,inter_set_rest,7,5.0,17578.0,403431.0,220738.0,71988.0,5237.0
2026-04-09 22:37:25.915016,532783,3175811972,3175813951,-1.003328,0.359168,0.027328,-25.92625,-6.72,41.65,21.6,-23.016,12.568001,inter_set_rest,7,5.0,17578.0,403431.0,220738.0,71988.0,5237.0
2026-04-09 22:37:25.917474,532784,3175820951,3175822657,-1.003328,0.359168,0.027328,-25.2175,-9.45875,38.395,21.6,-23.016,12.568001,inter_set_rest,7,5.0,17578.0,403431.0,220738.0,71988.0,5237.0
2026-04-09 22:37:25.926319,532785,3175829938,3175831390,-1.003328,0.359168,0.027328,-25.795,-12.5825,35.72625,21.6,-23.016,12.568001,inter_set_rest,7,5.0,17578.0,403431.0,220738.0,71988.0,5237.0
2026-04-09 22:37:25.928769,532786,3175838855,3175840164,-1.110688,0.347456,-0.007808,-24.8325,-16.73,32.8475,21.424002,-23.632002,13.248001,inter_set_rest,7,5.0,17578.0,403431.0,220738.0,71988.0,5237.0
2026-04-09 22:37:25.959795,532787,3175853306,3175855120,-1.159488,0.294752,-0.017568,-23.31,-21.385,30.8525,21.312,-24.176,14.128,inter_set_rest,7,5.0,17578.0,403431.0,220738.0,71988.0,5237.0
2026-04-09 22:37:25.967533,532788,3175862248,3175863870,-1.159488,0.294752,-0.017568,-18.27875,-24.92,29.23375,21.312,-24.176,14.128,inter_set_rest,7,5.0,17578.0,403431.0,220738.0,71988.0,5237.0
2026-04-09 22:37:25.969974,532789,3175871227,3175872628,-1.159488,0.271328,-0.040992,-8.98625,-27.615,28.56,21.312,-24.176,14.128,inter_set_rest,7,5.0,17578.0,403431.0,220738.0,71988.0,5237.0
2026-04-09 22:37:25.976280,532790,3175885710,3175887570,-1.24928,0.271328,-0.040992,4.78625,-28.4725,28.385,19.872002,-24.400002,13.776001,inter_set_rest,7,5.0,17578.0,403431.0,220738.0,71988.0,5237.0
2026-04-09 22:37:26.008659,532801,3175894818,3175896349,-1.352736,0.255712,-0.083936,21.9625,-29.12,29.09375,20.416,-24.68,13.928,inter_set_rest,7,5.0,17722.0,403431.0,218195.0,70044.0,4607.0
2026-04-09 22:37:26.011169,532802,3175903785,3175905110,-1.352736,0.255712,-0.083936,41.44,-28.77875,31.8675,20.416,-24.68,13.928,inter_set_rest,7,5.0,17722.0,403431.0,218195.0,70044.0,4607.0
2026-04-09 22:37:26.013646,532803,3175918351,3175920113,-1.370304,0.259616,-0.105408,61.0225,-26.81,36.0675,19.504002,-24.6,12.792001,inter_set_rest,7,5.0,17722.0,403431.0,218195.0,70044.0,4607.0
2026-04-09 22:37:26.017412,532804,3175927283,3175928886,-1.370304,0.259616,-0.105408,81.27,-23.835001,40.36375,19.504002,-24.6,12.792001,inter_set_rest,7,5.0,17722.0,403431.0,218195.0,70044.0,4607.0
2026-04-09 22:37:26.047730,532805,3175936209,3175937594,-1.342976,0.294752,-0.089792,100.1175,-18.83875,44.86125,20.52,-24.736002,12.280001,inter_set_rest,7,5.0,17722.0,403431.0,218195.0,70044.0,4607.0
2026-04-09 22:37:26.051213,532806,3175945143,3175946330,-1.342976,0.294752,-0.089792,117.0575,-11.4975,50.09375,20.52,-24.736002,12.280001,inter_set_rest,7,5.0,17722.0,403431.0,218195.0,70044.0,4607.0
2026-04-09 22:37:26.053649,532807,3175959651,3175961283,-1.331264,0.36112,-0.042944,127.54875,-1.82875,54.985,19.856,-23.744001,11.616,inter_set_rest,7,5.0,17722.0,403431.0,218195.0,70044.0,4607.0
2026-04-09 22:37:26.058730,532808,3175968589,3175969972,-1.331264,0.36112,-0.042944,129.815,8.46125,57.995,19.856,-23.744001,11.616,inter_set_rest,7,5.0,17722.0,403431.0,218195.0,70044.0,4607.0
2026-04-09 22:37:26.088913,532809,3175977532,3175978747,-1.247328,0.415776,0.033184,123.62,18.96125,59.99,19.728,-23.400002,10.624001,inter_set_rest,7,5.0,17722.0,403431.0,218195.0,70044.0,4607.0
2026-04-09 22:37:26.114946,532819,3175992108,3175993746,-1.08336,0.484096,0.103456,109.27875,29.75875,61.52125,19.728,-23.400002,6.568,inter_set_rest,7,5.0,18102.0,403431.0,212185.0,65661.0,3519.0
2026-04-09 22:37:26.117460,532820,3176001065,3176002519,-1.08336,0.484096,0.103456,85.77625,40.0225,62.65875,18.808,-24.128,6.568,inter_set_rest,7,5.0,18102.0,403431.0,212185.0,65661.0,3519.0
2026-04-09 22:37:26.120262,532821,3176010042,3176011216,-1.08336,0.484096,0.103456,54.6175,50.91625,62.763752,18.808,-24.128,6.568,inter_set_rest,7,5.0,18102.0,403431.0,212185.0,65661.0,3519.0
2026-04-09 22:37:26.122493,532822,3176024615,3176026165,-0.93696,0.503616,0.109312,18.9525,62.055,63.4375,17.072,-24.736002,11.120001,inter_set_rest,7,5.0,18102.0,403431.0,212185.0,65661.0,3519.0
2026-04-09 22:37:26.124942,532823,3176033560,3176034906,-0.854976,0.523136,0.103456,-21.35875,72.94875,65.65125,14.968,-25.976002,11.336,inter_set_rest,7,5.0,18102.0,403431.0,212185.0,65661.0,3519.0
2026-04-09 22:37:26.172693,532824,3176042537,3176043632,-0.854976,0.523136,0.103456,-65.24875,82.78375,67.41875,14.968,-25.976002,11.336,inter_set_rest,7,5.0,18102.0,403431.0,212185.0,65661.0,3519.0
2026-04-09 22:37:26.176276,532825,3176057070,3176058569,-0.813984,0.491904,0.089792,-111.02875,92.25125,68.94125,14.72,-27.152,10.120001,inter_set_rest,7,5.0,18102.0,403431.0,212185.0,65661.0,3519.0
2026-04-09 22:37:26.179658,532826,3176065970,3176067245,-0.813984,0.491904,0.089792,-153.62375,100.5375,71.1725,14.72,-27.152,10.120001,inter_set_rest,7,5.0,18102.0,403431.0,212185.0,65661.0,3519.0
2026-04-09 22:37:26.181326,532827,3176074951,3176075963,-0.812032,0.427488,0.091744,-192.36874,107.4675,74.10375,13.768001,-29.44,10.952001,inter_set_rest,7,5.0,18102.0,403431.0,212185.0,65661.0,3519.0
2026-04-09 22:37:26.185516,532828,3176085612,3176087923,-0.812032,0.427488,0.091744,-223.69376,111.48375,75.433754,13.768001,-29.44,10.952001,inter_set_rest,7,5.0,18102.0,403431.0,212185.0,65661.0,3519.0
2026-04-09 22:37:26.209692,532838,3176095010,3176096720,-0.847168,0.388448,0.085888,-248.01875,113.575,76.5975,12.328001,-31.312002,12.392,inter_set_rest,7,5.0,17612.0,403431.0,219030.0,71001.0,4938.0
2026-04-09 22:37:26.211394,532839,3176109654,3176111680,-0.847168,0.388448,0.085888,-267.11124,113.30375,77.42875,12.328001,-31.312002,12.392,inter_set_rest,7,5.0,17612.0,403431.0,219030.0,71001.0,4938.0
2026-04-09 22:37:26.215332,532840,3176118826,3176120490,-0.890112,0.318176,0.074176,-279.67624,109.97875,74.83,11.264001,-33.216003,14.304001,inter_set_rest,7,5.0,17612.0,403431.0,219030.0,71001.0,4938.0
2026-04-09 22:37:26.220335,532841,3176127772,3176129219,-0.890112,0.318176,0.074176,-285.73126,105.63,71.6275,11.264001,-33.216003,14.304001,inter_set_rest,7,5.0,17612.0,403431.0,219030.0,71001.0,4938.0
2026-04-09 22:37:26.248970,532842,3176142267,3176144136,-0.903776,0.261568,0.074176,-286.58875,100.17,69.22125,9.360001,-35.120003,16.472,inter_set_rest,7,5.0,17612.0,403431.0,219030.0,71001.0,4938.0
2026-04-09 22:37:26.253384,532843,3176151202,3176152800,-0.903776,0.261568,0.074176,-281.9075,94.5875,66.56125,9.360001,-35.120003,16.472,inter_set_rest,7,5.0,17612.0,403431.0,219030.0,71001.0,4938.0
2026-04-09 22:37:26.254965,532844,3176160168,3176161508,-0.95648,0.216672,0.109312,-268.30124,88.7075,61.15375,8.392,-36.568,18.608002,inter_set_rest,7,5.0,17612.0,403431.0,219030.0,71001.0,4938.0
2026-04-09 22:37:26.260356,532845,3176169123,3176170239,-0.95648,0.216672,0.109312,-248.99,82.1275,53.515,8.392,-36.568,18.608002,inter_set_rest,7,5.0,17612.0,403431.0,219030.0,71001.0,4938.0
2026-04-09 22:37:26.288936,532846,3176183614,3176185131,-0.979904,0.183488,0.138592,-225.56625,73.98125,45.14125,7.088,-37.256,21.272001,inter_set_rest,7,5.0,17612.0,403431.0,219030.0,71001.0,4938.0
2026-04-09 22:37:26.317629,532857,3176193074,3176194431,-0.979904,0.148352,0.16592,-198.7125,65.77375,36.5925,7.088,-37.256,21.272001,inter_set_rest,7,5.0,17372.0,403431.0,223466.0,74350.0,6031.0
2026-04-09 22:37:26.321728,532858,3176202075,3176203151,-0.931104,0.148352,0.16592,-170.17876,57.8375,27.86875,6.920001,-37.824,22.504002,inter_set_rest,7,5.0,17372.0,403431.0,223466.0,74350.0,6031.0
2026-04-09 22:37:26.323462,532859,3176216625,3176218068,-0.90768,0.148352,0.201056,-138.88875,50.67125,19.425,6.296001,-37.84,22.880001,inter_set_rest,7,5.0,17372.0,403431.0,223466.0,74350.0,6031.0
2026-04-09 22:37:26.325188,532860,3176225685,3176226739,-0.90768,0.148352,0.201056,-107.371254,44.61625,11.85625,6.296001,-37.84,22.880001,inter_set_rest,7,5.0,17372.0,403431.0,223466.0,74350.0,6031.0
2026-04-09 22:37:26.329099,532861,3176234594,3176235465,-0.954528,0.181536,0.216672,-76.25625,38.71875,3.57875,6.536,-38.032,23.320002,inter_set_rest,7,5.0,17372.0,403431.0,223466.0,74350.0,6031.0
2026-04-09 22:37:26.335363,532862,3176243528,3176244240,-0.954528,0.181536,0.216672,-48.85125,32.71625,-3.28125,6.536,-38.032,23.320002,inter_set_rest,7,5.0,17372.0,403431.0,223466.0,74350.0,6031.0
2026-04-09 22:37:26.363877,532863,3176258475,3176259146,-0.991616,0.226432,0.232288,-27.76375,26.41625,-8.86375,6.632,-38.088,23.224,inter_set_rest,7,5.0,17372.0,403431.0,223466.0,74350.0,6031.0
2026-04-09 22:37:26.367498,532864,3176267742,3176269933,-0.991616,0.226432,0.232288,-13.011251,20.72875,-14.21,6.632,-38.088,23.224,inter_set_rest,7,5.0,17372.0,403431.0,223466.0,74350.0,6031.0
2026-04-09 22:37:26.369958,532865,3176276677,3176278695,-1.011136,0.265472,0.245952,-4.0425,15.855001,-18.89125,7.16,-38.496002,23.2,inter_set_rest,7,5.0,17372.0,403431.0,223466.0,74350.0,6031.0
2026-04-09 22:37:26.400185,532866,3176291234,3176291564,-1.011136,0.265472,0.245952,1.25125,12.39,-22.1025,7.16,-38.496002,23.2,inter_set_rest,7,5.0,17372.0,403431.0,223466.0,74350.0,6031.0
2026-04-09 22:37:26.429903,532876,3176300465,3176302377,-1.022848,0.30256,0.279136,2.19625,8.89,-25.4275,7.056,-38.280003,21.808,inter_set_rest,7,5.0,17105.0,403431.0,227554.0,77316.0,7046.0
2026-04-09 22:37:26.432432,532877,3176309376,3176311065,-1.022848,0.30256,0.279136,-0.21875,6.475,-28.27125,7.056,-38.280003,21.808,inter_set_rest,7,5.0,17105.0,403431.0,227554.0,77316.0,7046.0
2026-04-09 22:37:26.434982,532878,3176318352,3176319763,-1.001376,0.306464,0.298656,-4.06,4.97,-29.3825,7.16,-38.152,23.432001,inter_set_rest,7,5.0,17105.0,403431.0,227554.0,77316.0,7046.0
2026-04-09 22:37:26.486448,532879,3176332901,3176334718,-1.001376,0.306464,0.298656,-9.17875,3.605,-27.825,7.16,-38.152,23.432001,inter_set_rest,7,5.0,17105.0,403431.0,227554.0,77316.0,7046.0
2026-04-09 22:37:26.497532,532880,3176341889,3176343503,-0.970144,0.308416,0.298656,-14.2275,3.3075,-26.005,7.328001,-38.0,23.080002,inter_set_rest,7,5.0,17105.0,403431.0,227554.0,77316.0,7046.0
2026-04-09 22:37:26.499970,532881,3176350893,3176352208,-0.970144,0.308416,0.298656,-19.31125,2.905,-24.68375,7.328001,-38.0,23.080002,inter_set_rest,7,5.0,17105.0,403431.0,227554.0,77316.0,7046.0
2026-04-09 22:37:26.502472,532882,3176365414,3176367125,-0.972096,0.290848,0.28304,-23.5725,2.09125,-24.4475,8.104,-37.992,23.872002,inter_set_rest,7,5.0,17105.0,403431.0,227554.0,77316.0,7046.0
2026-04-09 22:37:26.505846,532883,3176374316,3176375826,-0.989664,0.277184,0.249856,-27.055,1.505,-24.21125,7.72,-38.280003,24.880001,inter_set_rest,7,5.0,17105.0,403431.0,227554.0,77316.0,7046.0
2026-04-09 22:37:26.507507,532884,3176383315,3176384468,-0.989664,0.277184,0.249856,-28.385,1.05,-23.93125,7.72,-38.280003,24.880001,inter_set_rest,7,5.0,17105.0,403431.0,227554.0,77316.0,7046.0
2026-04-09 22:37:26.534977,532894,3176397920,3176399626,-0.981856,0.255712,0.236192,-27.44,-0.18375,-24.52625,8.448,-37.832,24.088001,inter_set_rest,7,5.0,17161.0,403431.0,226471.0,76570.0,6699.0
2026-04-09 22:37:26.537466,532895,3176406878,3176408336,-0.981856,0.255712,0.236192,-23.975,-2.73,-26.53875,8.448,-37.832,24.088001,inter_set_rest,7,5.0,17161.0,403431.0,226471.0,76570.0,6699.0
2026-04-09 22:37:26.539976,532896,3176415832,3176417043,-0.96624,0.255712,0.218624,-17.80625,-4.55,-28.81375,8.544001,-37.688004,24.448002,inter_set_rest,7,5.0,17161.0,403431.0,226471.0,76570.0,6699.0
2026-04-09 22:37:26.542483,532897,3176424789,3176425902,-0.96624,0.255712,0.218624,-10.0275,-6.1775,-31.92,8.544001,-37.688004,24.448002,inter_set_rest,7,5.0,17161.0,403431.0,226471.0,76570.0,6699.0
2026-04-09 22:37:26.544968,532898,3176439378,3176440863,-0.991616,0.259616,0.199104,-1.30375,-7.34125,-36.085,9.048,-37.792004,24.696001,inter_set_rest,7,5.0,17161.0,403431.0,226471.0,76570.0,6699.0
2026-04-09 22:37:26.547501,532899,3176448410,3176449600,-0.991616,0.259616,0.199104,9.42375,-8.5575,-40.705,9.048,-37.792004,24.696001,inter_set_rest,7,5.0,17161.0,403431.0,226471.0,76570.0,6699.0
2026-04-09 22:37:26.549993,532900,3176457430,3176458310,-1.016992,0.279136,0.171776,19.11,-9.948751,-44.45875,9.408,-37.464,25.52,inter_set_rest,7,5.0,17161.0,403431.0,226471.0,76570.0,6699.0
2026-04-09 22:37:26.580165,532901,3176471966,3176473227,-1.016992,0.279136,0.171776,28.37625,-10.75375,-48.3525,9.408,-37.464,25.52,inter_set_rest,7,5.0,17161.0,403431.0,226471.0,76570.0,6699.0
2026-04-09 22:37:26.583776,532902,3176480874,3176481968,-1.01504,0.286944,0.1464,36.82875,-10.57,-53.9,10.272,-37.24,23.752,inter_set_rest,7,5.0,17161.0,403431.0,226471.0,76570.0,6699.0
2026-04-09 22:37:26.586246,532903,3176489790,3176490694,-1.01504,0.286944,0.1464,45.17625,-10.22,-58.66,10.272,-37.24,23.752,inter_set_rest,7,5.0,17161.0,403431.0,226471.0,76570.0,6699.0
2026-04-09 22:37:26.613737,532914,3176504499,3176505702,-0.962336,0.306464,0.132736,52.15,-9.17,-62.65875,10.952001,-37.088,23.448002,inter_set_rest,7,5.0,17133.0,403431.0,226214.0,76420.0,6593.0
2026-04-09 22:37:26.616244,532915,3176513501,3176514598,-0.962336,0.306464,0.132736,58.03875,-8.1375,-66.35125,10.952001,-37.088,23.448002,inter_set_rest,7,5.0,17133.0,403431.0,226214.0,76420.0,6593.0
2026-04-09 22:37:26.618739,532916,3176522456,3176523305,-0.91744,0.339648,0.138592,62.06375,-5.29375,-69.78125,10.688001,-36.728,20.432001,inter_set_rest,7,5.0,17133.0,403431.0,226214.0,76420.0,6593.0
2026-04-09 22:37:26.621272,532917,3176531390,3176531962,-0.91744,0.339648,0.138592,62.72,-2.485,-72.6425,10.688001,-36.728,20.432001,inter_set_rest,7,5.0,17133.0,403431.0,226214.0,76420.0,6593.0
2026-04-09 22:37:26.651487,532918,3176546129,3176546906,-0.91744,0.398208,0.142496,61.03125,0.175,-76.0025,12.064,-35.784,22.184002,inter_set_rest,7,5.0,17133.0,403431.0,226214.0,76420.0,6593.0
2026-04-09 22:37:26.655001,532919,3176555515,3176557684,-0.950624,0.462624,0.15616,54.285,2.79125,-79.45875,13.312,-35.24,21.048,inter_set_rest,7,5.0,17133.0,403431.0,226214.0,76420.0,6593.0
2026-04-09 22:37:26.657486,532920,3176564423,3176566363,-0.950624,0.462624,0.15616,43.02375,4.83,-82.5475,13.312,-35.24,21.048,inter_set_rest,7,5.0,17133.0,403431.0,226214.0,76420.0,6593.0
2026-04-09 22:37:26.687695,532921,3176579030,3176581353,-0.983808,0.509472,0.152256,27.46625,6.99125,-84.81375,13.200001,-35.664,23.712002,inter_set_rest,7,5.0,17133.0,403431.0,226214.0,76420.0,6593.0
2026-04-09 22:37:26.691246,532922,3176588043,3176590111,-0.983808,0.509472,0.152256,6.3875,8.33875,-87.5525,13.200001,-35.664,23.712002,inter_set_rest,7,5.0,17133.0,403431.0,226214.0,76420.0,6593.0
2026-04-09 22:37:26.721259,532932,3176597433,3176598852,-1.046272,0.538752,0.152256,-17.78,10.28125,-90.16,14.792001,-35.176003,22.000002,inter_set_rest,7,5.0,16998.0,403431.0,227868.0,77664.0,7068.0
2026-04-09 22:37:26.723743,532933,3176606421,3176607504,-1.046272,0.538752,0.152256,-41.71125,13.64125,-91.8925,14.792001,-35.176003,22.000002,inter_set_rest,7,5.0,16998.0,403431.0,227868.0,77664.0,7068.0
2026-04-09 22:37:26.726162,532934,3176620971,3176622498,-1.118496,0.505568,0.169824,-64.9425,16.37125,-93.2925,16.0,-34.872,22.688002,inter_set_rest,7,5.0,16998.0,403431.0,227868.0,77664.0,7068.0
2026-04-09 22:37:26.728697,532935,3176629897,3176631245,-1.118496,0.505568,0.169824,-85.4525,19.55625,-92.75,16.0,-34.872,22.688002,inter_set_rest,7,5.0,16998.0,403431.0,227868.0,77664.0,7068.0
2026-04-09 22:37:26.731238,532936,3176638884,3176639971,-1.118496,0.470432,0.236192,-103.67875,23.17,-88.78625,16.880001,-34.24,23.672,inter_set_rest,7,5.0,16998.0,403431.0,227868.0,77664.0,7068.0
2026-04-09 22:37:26.768612,532937,3176653392,3176655027,-1.118496,0.470432,0.236192,-116.3925,26.897501,-82.73125,16.880001,-34.24,23.672,inter_set_rest,7,5.0,16998.0,403431.0,227868.0,77664.0,7068.0
2026-04-09 22:37:26.770878,532938,3176662317,3176663720,-1.136064,0.476288,0.345504,-126.02625,29.715,-75.39,17.352001,-33.992,24.552002,inter_set_rest,7,5.0,16998.0,403431.0,227868.0,77664.0,7068.0
2026-04-09 22:37:26.775578,532939,3176671230,3176672403,-1.136064,0.476288,0.345504,-134.24251,30.817501,-66.7275,17.352001,-33.992,24.552002,inter_set_rest,7,5.0,16998.0,403431.0,227868.0,77664.0,7068.0
2026-04-09 22:37:26.778036,532940,3176680142,3176681085,-1.04432,0.45872,0.425536,-142.51125,30.205,-55.72,17.608002,-34.304,25.848001,inter_set_rest,7,5.0,16998.0,403431.0,227868.0,77664.0,7068.0
2026-04-09 22:37:26.829965,532950,3176694928,3176696026,-1.04432,0.41968,0.423584,-150.0275,27.36125,-42.857502,17.608002,-34.304,25.848001,inter_set_rest,7,5.0,16401.0,403431.0,238932.0,85610.0,10535.0
2026-04-09 22:37:26.832537,532951,3176703872,3176704726,-0.921344,0.41968,0.423584,-156.44125,24.491251,-28.665,17.944,-34.368,27.904001,inter_set_rest,7,5.0,16401.0,403431.0,238932.0,85610.0,10535.0
2026-04-09 22:37:26.834989,532952,3176712794,3176713454,-0.921344,0.41968,0.423584,-160.46625,21.56875,-16.02125,17.944,-34.368,27.904001,inter_set_rest,7,5.0,16401.0,403431.0,238932.0,85610.0,10535.0
2026-04-09 22:37:26.837517,532953,3176727712,3176728348,-0.890112,0.372832,0.349408,-161.1575,18.3575,-5.04875,17.496,-34.384003,30.792002,inter_set_rest,7,5.0,16401.0,403431.0,238932.0,85610.0,10535.0
2026-04-09 22:37:26.840548,532954,3176736987,3176739141,-0.952576,0.327936,0.251808,-160.1775,15.3125,5.145,16.368,-34.624,31.28,inter_set_rest,7,5.0,16401.0,403431.0,238932.0,85610.0,10535.0
2026-04-09 22:37:26.842536,532955,3176745934,3176747894,-0.952576,0.327936,0.251808,-158.69,12.41625,14.4375,16.368,-34.624,31.28,inter_set_rest,7,5.0,16401.0,403431.0,238932.0,85610.0,10535.0
2026-04-09 22:37:26.844946,532956,3176754915,3176756635,-0.952576,0.259616,0.197152,-155.86375,9.4675,22.1725,16.368,-34.624,31.28,inter_set_rest,7,5.0,16401.0,403431.0,238932.0,85610.0,10535.0
2026-04-09 22:37:26.875227,532957,3176769399,3176771574,-1.06384,0.259616,0.197152,-149.33626,6.5625,29.505001,15.824,-34.52,31.168001,inter_set_rest,7,5.0,16401.0,403431.0,238932.0,85610.0,10535.0
2026-04-09 22:37:26.878786,532958,3176778303,3176780268,-1.159488,0.18544,0.191296,-137.34,2.26625,35.2625,16.376001,-35.256,32.68,inter_set_rest,7,5.0,16401.0,403431.0,238932.0,85610.0,10535.0
2026-04-09 22:37:26.881182,532959,3176787236,3176789016,-1.159488,0.18544,0.191296,-118.60625,-2.9225,40.1275,16.376001,-35.256,32.68,inter_set_rest,7,5.0,16401.0,403431.0,238932.0,85610.0,10535.0
2026-04-09 22:37:26.911195,532970,3176801744,3176802167,-1.173152,0.124928,0.201056,-93.5025,-9.3625,44.17875,15.272,-34.88,34.248,inter_set_rest,7,5.0,16457.0,403431.0,237347.0,84382.0,9926.0
2026-04-09 22:37:26.913836,532971,3176811198,3176813073,-1.173152,0.124928,0.201056,-63.945,-15.70625,46.61125,15.272,-34.88,34.248,inter_set_rest,7,5.0,16457.0,403431.0,237347.0,84382.0,9926.0
2026-04-09 22:37:26.917009,532972,3176820189,3176821785,-1.124352,0.12688,0.20496,-30.96625,-20.92125,49.21875,13.880001,-35.896,34.976,inter_set_rest,7,5.0,16457.0,403431.0,237347.0,84382.0,9926.0
2026-04-09 22:37:26.946455,532973,3176834682,3176836676,-1.124352,0.12688,0.20496,2.6425,-24.61375,51.9925,13.880001,-35.896,34.976,inter_set_rest,7,5.0,16457.0,403431.0,237347.0,84382.0,9926.0
2026-04-09 22:37:26.950087,532974,3176843596,3176845384,-1.067744,0.210816,0.208864,34.0725,-26.95,56.11375,14.152,-36.048,33.424,inter_set_rest,7,5.0,16457.0,403431.0,237347.0,84382.0,9926.0
2026-04-09 22:37:26.952513,532975,3176852528,3176854099,-1.067744,0.210816,0.208864,59.2025,-28.411251,59.96375,14.152,-36.048,33.424,inter_set_rest,7,5.0,16457.0,403431.0,237347.0,84382.0,9926.0
2026-04-09 22:37:26.955002,532976,3176861454,3176862790,-1.03456,0.306464,0.222528,76.79875,-27.43125,62.78125,13.472001,-37.024002,31.728,inter_set_rest,7,5.0,16457.0,403431.0,237347.0,84382.0,9926.0
2026-04-09 22:37:26.985221,532977,3176875936,3176877708,-1.018944,0.378688,0.226432,86.12625,-26.565,65.75625,12.392,-37.552002,33.376003,inter_set_rest,7,5.0,16457.0,403431.0,237347.0,84382.0,9926.0
2026-04-09 22:37:26.988786,532978,3176884843,3176886429,-1.018944,0.378688,0.226432,87.92875,-24.98125,68.1275,12.392,-37.552002,33.376003,inter_set_rest,7,5.0,16457.0,403431.0,237347.0,84382.0,9926.0
2026-04-09 22:37:26.995200,532979,3176893771,3176895132,-1.018944,0.378688,0.226432,84.0525,-23.87,70.48125,12.392,-37.552002,33.376003,inter_set_rest,7,5.0,16457.0,403431.0,237347.0,84382.0,9926.0
2026-04-09 22:37:27.025098,532989,3176908295,3176910127,-0.96624,0.407968,0.206912,75.6,-21.77,72.2575,11.296001,-38.104,31.072002,inter_set_rest,7,5.0,16955.0,403431.0,229223.0,78732.0,7415.0
2026-04-09 22:37:27.026268,532990,3176917288,3176918863,-0.931104,0.402112,0.18544,64.225,-19.29375,73.7275,10.504001,-38.288002,30.840002,inter_set_rest,7,5.0,16955.0,403431.0,229223.0,78732.0,7415.0
2026-04-09 22:37:27.028743,532991,3176926240,3176927597,-0.931104,0.402112,0.18544,48.6675,-15.575,76.01125,10.504001,-38.288002,30.840002,inter_set_rest,7,5.0,16955.0,403431.0,229223.0,78732.0,7415.0
2026-04-09 22:37:27.031252,532992,3176940784,3176942551,-0.952576,0.388448,0.152256,31.36,-11.10375,79.52,7.960001,-38.768,33.112003,inter_set_rest,7,5.0,16955.0,403431.0,229223.0,78732.0,7415.0
2026-04-09 22:37:27.066546,532993,3176949780,3176951295,-0.952576,0.388448,0.152256,12.2325,-7.0,82.59125,7.960001,-38.768,33.112003,inter_set_rest,7,5.0,16955.0,403431.0,229223.0,78732.0,7415.0
2026-04-09 22:37:27.069988,532994,3176958756,3176960068,-0.979904,0.35136,0.109312,-7.2275,-3.24625,85.82,8.008,-39.448,31.584002,inter_set_rest,7,5.0,16955.0,403431.0,229223.0,78732.0,7415.0
2026-04-09 22:37:27.072465,532995,3176967682,3176968790,-0.979904,0.35136,0.109312,-25.06,-0.385,87.80625,8.008,-39.448,31.584002,inter_set_rest,7,5.0,16955.0,403431.0,229223.0,78732.0,7415.0
2026-04-09 22:37:27.074958,532996,3176982182,3176983675,-0.999424,0.294752,0.08784,-36.3125,2.38875,87.9725,6.808,-39.696003,31.696001,inter_set_rest,7,5.0,16955.0,403431.0,229223.0,78732.0,7415.0
2026-04-09 22:37:27.081299,532997,3176991105,3176992368,-0.999424,0.294752,0.08784,-42.1925,3.92,86.7825,6.808,-39.696003,31.696001,inter_set_rest,7,5.0,16955.0,403431.0,229223.0,78732.0,7415.0
2026-04-09 22:37:27.110482,533007,3177000199,3177001117,-1.030656,0.26352,0.07808,-42.1925,5.67,84.315,5.528,-39.608,32.216003,inter_set_rest,7,5.0,17195.0,403431.0,226305.0,76843.0,6768.0
2026-04-09 22:37:27.112512,533008,3177014719,3177016069,-1.030656,0.26352,0.07808,-39.45375,6.90375,81.17375,5.528,-39.608,32.216003,inter_set_rest,7,5.0,17195.0,403431.0,226305.0,76843.0,6768.0
2026-04-09 22:37:27.114928,533009,3177023638,3177024776,-1.016992,0.255712,0.064416,-34.965,8.3125,77.5075,4.456,-39.768,32.968002,inter_set_rest,7,5.0,17195.0,403431.0,226305.0,76843.0,6768.0
2026-04-09 22:37:27.145315,533010,3177032601,3177033473,-1.016992,0.255712,0.064416,-29.19875,9.5375,73.6225,4.456,-39.768,32.968002,inter_set_rest,7,5.0,17195.0,403431.0,226305.0,76843.0,6768.0
2026-04-09 22:37:27.148776,533011,3177047083,3177048346,-0.948672,0.249856,0.064416,-23.9575,11.34875,70.14875,4.144,-40.296,33.536003,inter_set_rest,7,5.0,17195.0,403431.0,226305.0,76843.0,6768.0
2026-04-09 22:37:27.151336,533012,3177055991,3177057074,-0.948672,0.259616,0.05856,-18.34,13.685,66.91125,4.144,-40.296,33.536003,inter_set_rest,7,5.0,17195.0,403431.0,226305.0,76843.0,6768.0
2026-04-09 22:37:27.154897,533013,3177064919,3177065784,-0.913536,0.259616,0.05856,-12.66125,17.2025,62.44875,2.68,-40.424004,34.84,inter_set_rest,7,5.0,17195.0,403431.0,226305.0,76843.0,6768.0
2026-04-09 22:37:27.185171,533014,3177079426,3177080690,-0.911584,0.284992,0.060512,-8.2425,21.315,57.2775,1.824,-41.224003,34.312,inter_set_rest,7,5.0,17195.0,403431.0,226305.0,76843.0,6768.0
2026-04-09 22:37:27.188786,533015,3177088341,3177089412,-0.911584,0.284992,0.060512,-4.82125,25.5675,51.42375,1.824,-41.224003,34.312,inter_set_rest,7,5.0,17195.0,403431.0,226305.0,76843.0,6768.0
2026-04-09 22:37:27.213742,533025,3177097265,3177098137,-0.894016,0.325984,0.072224,-3.29,28.945,44.37125,1.616,-41.224003,32.552002,inter_set_rest,7,5.0,17363.0,403431.0,224457.0,75617.0,6405.0
2026-04-09 22:37:27.216214,533026,3177106213,3177106876,-0.894016,0.325984,0.072224,-4.75125,32.38375,37.09125,1.616,-41.224003,32.552002,inter_set_rest,7,5.0,17363.0,403431.0,224457.0,75617.0,6405.0
2026-04-09 22:37:27.218700,533027,3177121261,3177121865,-0.86864,0.365024,0.095648,-9.87,36.54,29.067501,0.432,-40.992,33.624,inter_set_rest,7,5.0,17363.0,403431.0,224457.0,75617.0,6405.0
2026-04-09 22:37:27.221275,533028,3177130511,3177132683,-0.86864,0.365024,0.095648,-18.305,40.31125,20.30875,0.432,-40.992,33.624,inter_set_rest,7,5.0,17363.0,403431.0,224457.0,75617.0,6405.0
2026-04-09 22:37:27.251449,533029,3177139462,3177141384,-0.854976,0.402112,0.122976,-28.88375,44.135,11.585,1.24,-40.72,33.824,inter_set_rest,7,5.0,17363.0,403431.0,224457.0,75617.0,6405.0
2026-04-09 22:37:27.255042,533030,3177154057,3177156323,-0.854976,0.402112,0.122976,-42.39375,47.53,2.66,1.24,-40.72,33.824,inter_set_rest,7,5.0,17363.0,403431.0,224457.0,75617.0,6405.0
2026-04-09 22:37:27.257483,533031,3177162978,3177165028,-0.80032,0.40016,0.13664,-56.70875,50.5575,-4.66375,1.704,-40.728,35.096,inter_set_rest,7,5.0,17363.0,403431.0,224457.0,75617.0,6405.0
2026-04-09 22:37:27.262499,533032,3177172005,3177173778,-0.80032,0.40016,0.13664,-71.645,52.9725,-11.06875,1.704,-40.728,35.096,inter_set_rest,7,5.0,17363.0,403431.0,224457.0,75617.0,6405.0
2026-04-09 22:37:27.295239,533033,3177181045,3177182532,-0.778848,0.372832,0.150304,-85.995,55.5275,-16.8525,1.088,-40.288002,36.272003,inter_set_rest,7,5.0,17363.0,403431.0,224457.0,75617.0,6405.0
2026-04-09 22:37:27.323778,533044,3177195537,3177197817,-0.778848,0.372832,0.150304,-98.9275,58.30125,-21.28,1.088,-40.288002,36.272003,inter_set_rest,7,5.0,17277.0,403431.0,227084.0,77730.0,7194.0
2026-04-09 22:37:27.326210,533045,3177204547,3177206525,-0.813984,0.355264,0.150304,-108.29875,60.5325,-24.7625,2.136,-40.416,37.128002,inter_set_rest,7,5.0,17277.0,403431.0,227084.0,77730.0,7194.0
2026-04-09 22:37:27.328710,533046,3177213539,3177215206,-0.813984,0.355264,0.150304,-115.4475,61.67875,-27.44875,2.136,-40.416,37.128002,inter_set_rest,7,5.0,17277.0,403431.0,227084.0,77730.0,7194.0
2026-04-09 22:37:27.331272,533047,3177228156,3177230198,-0.860832,0.339648,0.158112,-120.8025,62.58,-30.380001,2.992,-39.944,38.424004,inter_set_rest,7,5.0,17277.0,403431.0,227084.0,77730.0,7194.0
2026-04-09 22:37:27.333742,533048,3177237144,3177238909,-0.892064,0.32208,0.18544,-124.46,62.34375,-32.59375,2.992,-39.944,42.048,inter_set_rest,7,5.0,17277.0,403431.0,227084.0,77730.0,7194.0
2026-04-09 22:37:27.367703,533049,3177246156,3177247606,-0.892064,0.32208,0.18544,-126.385,62.62375,-34.44,3.088,-39.392002,42.048,inter_set_rest,7,5.0,17277.0,403431.0,227084.0,77730.0,7194.0
2026-04-09 22:37:27.371327,533050,3177260647,3177262579,-0.977952,0.329888,0.236192,-125.79875,62.09875,-36.44375,3.648,-38.904003,40.976,inter_set_rest,7,5.0,17277.0,403431.0,227084.0,77730.0,7194.0
2026-04-09 22:37:27.373820,533051,3177269591,3177271276,-0.977952,0.329888,0.236192,-122.92,60.31375,-38.29875,3.648,-38.904003,40.976,inter_set_rest,7,5.0,17277.0,403431.0,227084.0,77730.0,7194.0
2026-04-09 22:37:27.376272,533052,3177278534,3177279959,-1.128256,0.357216,0.286944,-119.035,59.36875,-40.3375,4.624,-37.992,41.184002,inter_set_rest,7,5.0,17277.0,403431.0,227084.0,77730.0,7194.0
2026-04-09 22:37:27.378914,533053,3177287426,3177288711,-1.128256,0.357216,0.286944,-114.86125,57.61875,-42.84875,4.624,-37.992,41.184002,inter_set_rest,7,5.0,17277.0,403431.0,227084.0,77730.0,7194.0
2026-04-09 22:37:27.433047,533063,3177302112,3177303763,-1.280512,0.366976,0.318176,-110.8975,55.01125,-46.0775,5.016,-38.032,43.4,inter_set_rest,7,5.0,16830.0,403431.0,234441.0,82926.0,9375.0
2026-04-09 22:37:27.447650,533064,3177311086,3177312516,-1.280512,0.366976,0.318176,-105.51625,50.7675,-49.07875,5.016,-38.032,43.4,inter_set_rest,7,5.0,16830.0,403431.0,234441.0,82926.0,9375.0
2026-04-09 22:37:27.449612,533065,3177319999,3177321206,-1.284416,0.353312,0.339648,-99.4525,45.19375,-51.905,5.976,-37.120003,44.048,inter_set_rest,7,5.0,16830.0,403431.0,234441.0,82926.0,9375.0
2026-04-09 22:37:27.450675,533066,3177334689,3177336134,-1.284416,0.353312,0.339648,-91.9975,39.22625,-53.59375,5.976,-37.120003,44.048,inter_set_rest,7,5.0,16830.0,403431.0,234441.0,82926.0,9375.0
2026-04-09 22:37:27.450721,533067,3177343679,3177344856,-1.188768,0.3416,0.359168,-82.7925,34.64125,-53.92625,6.264,-36.712,46.08,inter_set_rest,7,5.0,16830.0,403431.0,234441.0,82926.0,9375.0
2026-04-09 22:37:27.450895,533068,3177352678,3177353610,-1.188768,0.3416,0.359168,-72.6775,29.39125,-54.32,6.264,-36.712,46.08,inter_set_rest,7,5.0,16830.0,403431.0,234441.0,82926.0,9375.0
2026-04-09 22:37:27.467733,533069,3177367195,3177368520,-1.100928,0.310368,0.365024,-62.055,25.01625,-52.395,6.184001,-35.744003,46.336002,inter_set_rest,7,5.0,16830.0,403431.0,234441.0,82926.0,9375.0
2026-04-09 22:37:27.467848,533070,3177376113,3177377229,-1.100928,0.310368,0.365024,-52.84125,21.6825,-48.72875,6.184001,-35.744003,46.336002,inter_set_rest,7,5.0,16830.0,403431.0,234441.0,82926.0,9375.0
2026-04-09 22:37:27.475114,533071,3177385082,3177385929,-1.020896,0.281088,0.36112,-43.91625,18.26125,-42.83125,7.56,-36.048,44.344,inter_set_rest,7,5.0,16830.0,403431.0,234441.0,82926.0,9375.0
2026-04-09 22:37:27.506189,533072,3177394000,3177394679,-1.020896,0.281088,0.36112,-35.525,15.42625,-35.6825,7.56,-36.048,44.344,inter_set_rest,7,5.0,16830.0,403431.0,234441.0,82926.0,9375.0
2026-04-09 22:37:27.534925,533082,3177408877,3177409620,-0.942816,0.294752,0.345504,-27.3525,12.7575,-29.2075,7.016,-35.552002,46.984,inter_set_rest,7,5.0,16474.0,403431.0,240755.0,87279.0,11454.0
2026-04-09 22:37:27.537465,533083,3177418339,3177420388,-0.899872,0.335744,0.318176,-21.5425,10.47375,-23.59875,8.376,-35.544003,46.232002,inter_set_rest,7,5.0,16474.0,403431.0,240755.0,87279.0,11454.0
2026-04-09 22:37:27.539985,533084,3177427283,3177429096,-0.899872,0.335744,0.318176,-18.13,9.292501,-18.4275,8.376,-35.544003,46.232002,inter_set_rest,7,5.0,16474.0,403431.0,240755.0,87279.0,11454.0
2026-04-09 22:37:27.542546,533085,3177441818,3177444077,-0.886208,0.36112,0.296704,-16.24875,7.09625,-13.51875,7.6,-35.280003,46.032,inter_set_rest,7,5.0,16474.0,403431.0,240755.0,87279.0,11454.0
2026-04-09 22:37:27.548779,533086,3177450797,3177452802,-0.886208,0.36112,0.296704,-16.87,4.83,-9.17875,7.6,-35.280003,46.032,inter_set_rest,7,5.0,16474.0,403431.0,240755.0,87279.0,11454.0
2026-04-09 22:37:27.551239,533087,3177459766,3177461546,-0.895968,0.376736,0.27328,-18.50625,3.0975,-5.2675,7.72,-35.672,46.544003,inter_set_rest,7,5.0,16474.0,403431.0,240755.0,87279.0,11454.0
2026-04-09 22:37:27.581446,533088,3177468744,3177470263,-0.895968,0.376736,0.27328,-21.84,0.98,-1.4175,7.72,-35.672,46.544003,inter_set_rest,7,5.0,16474.0,403431.0,240755.0,87279.0,11454.0
2026-04-09 22:37:27.585046,533089,3177483362,3177485222,-0.921344,0.372832,0.240096,-25.92625,-0.44625,1.1375,8.312,-35.488003,46.808002,inter_set_rest,7,5.0,16474.0,403431.0,240755.0,87279.0,11454.0
2026-04-09 22:37:27.587622,533090,3177492292,3177493925,-0.921344,0.372832,0.240096,-29.6975,-2.26625,1.96,8.312,-35.488003,46.808002,inter_set_rest,7,5.0,16474.0,403431.0,240755.0,87279.0,11454.0
2026-04-09 22:37:27.615237,533101,3177501347,3177502659,-0.968192,0.376736,0.230336,-32.1475,-3.78,2.47625,7.480001,-35.432003,47.256,inter_set_rest,7,5.0,16492.0,403431.0,239779.0,86596.0,11005.0
2026-04-09 22:37:27.618797,533102,3177515927,3177517643,-0.968192,0.376736,0.230336,-32.97,-5.85375,2.26625,7.480001,-35.432003,47.256,inter_set_rest,7,5.0,16492.0,403431.0,239779.0,86596.0,11005.0
2026-04-09 22:37:27.620008,533103,3177524911,3177526379,-1.020896,0.378688,0.220576,-33.7225,-7.93625,2.94875,7.888001,-34.952003,47.416,inter_set_rest,7,5.0,16492.0,403431.0,239779.0,86596.0,11005.0
2026-04-09 22:37:27.625591,533104,3177533840,3177535080,-1.020896,0.378688,0.220576,-34.0025,-10.43,4.54125,7.888001,-34.952003,47.416,inter_set_rest,7,5.0,16492.0,403431.0,239779.0,86596.0,11005.0
2026-04-09 22:37:27.669042,533105,3177548335,3177550045,-1.01504,0.363072,0.183488,-33.38125,-12.36375,5.7925,7.2,-34.568,48.064003,inter_set_rest,7,5.0,16492.0,403431.0,239779.0,86596.0,11005.0
2026-04-09 22:37:27.672814,533106,3177557251,3177558771,-1.01504,0.363072,0.183488,-31.07125,-14.5075,6.60625,7.2,-34.568,48.064003,inter_set_rest,7,5.0,16492.0,403431.0,239779.0,86596.0,11005.0
2026-04-09 22:37:27.675109,533107,3177566149,3177567464,-0.993568,0.347456,0.12688,-27.86875,-14.752501,7.34125,6.856,-34.112003,47.728,inter_set_rest,7,5.0,16492.0,403431.0,239779.0,86596.0,11005.0
2026-04-09 22:37:27.677568,533108,3177575066,3177576144,-0.993568,0.347456,0.12688,-24.0275,-13.50125,7.83125,6.856,-34.112003,47.728,inter_set_rest,7,5.0,16492.0,403431.0,239779.0,86596.0,11005.0
2026-04-09 22:37:27.680015,533109,3177589520,3177591059,-0.98576,0.363072,0.083936,-21.21875,-11.2525,8.365,6.528,-34.84,48.832,inter_set_rest,7,5.0,16492.0,403431.0,239779.0,86596.0,11005.0
2026-04-09 22:37:27.733737,533119,3177598524,3177600029,-1.036512,0.3904,0.0488,-20.1425,-7.5075,8.70625,6.528,-32.792,49.048004,inter_set_rest,7,5.0,16685.0,403431.0,235846.0,83878.0,9607.0
2026-04-09 22:37:27.736228,533120,3177607477,3177608746,-1.036512,0.3904,0.0488,-22.19,-3.68375,9.625,6.552001,-34.496002,49.048004,inter_set_rest,7,5.0,16685.0,403431.0,235846.0,83878.0,9607.0
2026-04-09 22:37:27.738811,533121,3177621954,3177623693,-1.130208,0.398208,-0.03904,-27.08125,0.91,10.15,6.920001,-34.416,49.616,inter_set_rest,7,5.0,16685.0,403431.0,235846.0,83878.0,9607.0
2026-04-09 22:37:27.741273,533122,3177630958,3177632403,-1.130208,0.398208,-0.03904,-33.9675,5.36375,10.29875,6.920001,-34.416,49.616,inter_set_rest,7,5.0,16685.0,403431.0,235846.0,83878.0,9607.0
2026-04-09 22:37:27.743796,533123,3177639882,3177641105,-1.192672,0.411872,-0.066368,-43.04125,10.49125,10.35125,5.408001,-34.304,50.632004,inter_set_rest,7,5.0,16685.0,403431.0,235846.0,83878.0,9607.0
2026-04-09 22:37:27.778978,533124,3177654476,3177656051,-1.192672,0.411872,-0.066368,-53.8475,14.79625,10.823751,5.408001,-34.304,50.632004,inter_set_rest,7,5.0,16685.0,403431.0,235846.0,83878.0,9607.0
2026-04-09 22:37:27.782543,533125,3177663416,3177664761,-1.136064,0.413824,-0.085888,-66.84125,19.94125,10.5875,5.576,-33.496002,51.832,inter_set_rest,7,5.0,16685.0,403431.0,235846.0,83878.0,9607.0
2026-04-09 22:37:27.785020,533126,3177672335,3177673467,-1.136064,0.413824,-0.085888,-84.04375,25.41875,10.42125,5.576,-33.496002,51.832,inter_set_rest,7,5.0,16685.0,403431.0,235846.0,83878.0,9607.0
2026-04-09 22:37:27.787541,533127,3177686813,3177688357,-1.0736,0.378688,-0.138592,-104.51875,31.73625,9.68625,6.848001,-33.016003,52.232002,inter_set_rest,7,5.0,16685.0,403431.0,235846.0,83878.0,9607.0
2026-04-09 22:37:27.790070,533128,3177695729,3177697043,-1.0736,0.378688,-0.138592,-126.402504,39.0075,9.345,6.848001,-33.016003,52.232002,inter_set_rest,7,5.0,16685.0,403431.0,235846.0,83878.0,9607.0
2026-04-09 22:37:27.822566,533138,3177704752,3177705791,-1.028704,0.357216,-0.212768,-146.265,45.82375,10.6225,6.416,-31.880001,54.208004,inter_set_rest,7,5.0,17287.0,403431.0,227081.0,77829.0,7235.0
2026-04-09 22:37:27.825109,533139,3177713714,3177714551,-1.028704,0.357216,-0.212768,-161.74374,51.5025,11.3925,6.416,-31.880001,54.208004,inter_set_rest,7,5.0,17287.0,403431.0,227081.0,77829.0,7235.0
2026-04-09 22:37:27.827526,533140,3177728287,3177729462,-0.997472,0.318176,-0.245952,-172.7775,57.4,12.50375,6.576,-30.032001,54.944004,inter_set_rest,7,5.0,17287.0,403431.0,227081.0,77829.0,7235.0
2026-04-09 22:37:27.830094,533141,3177737182,3177738139,-0.997472,0.318176,-0.245952,-179.585,62.3525,13.9125,6.576,-30.032001,54.944004,inter_set_rest,7,5.0,17287.0,403431.0,227081.0,77829.0,7235.0
2026-04-09 22:37:27.835006,533142,3177746105,3177746872,-0.954528,0.277184,-0.240096,-182.525,66.0975,15.70625,7.224001,-28.576002,56.648003,inter_set_rest,7,5.0,17287.0,403431.0,227081.0,77829.0,7235.0
2026-04-09 22:37:27.865167,533143,3177761011,3177761795,-0.952576,0.25376,-0.23424,-183.6625,69.5625,17.6925,8.248,-27.408,56.512,inter_set_rest,7,5.0,17287.0,403431.0,227081.0,77829.0,7235.0
2026-04-09 22:37:27.877584,533144,3177769900,3177770505,-0.952576,0.25376,-0.23424,-183.995,72.16125,18.50625,8.248,-27.408,56.512,inter_set_rest,7,5.0,17287.0,403431.0,227081.0,77829.0,7235.0
2026-04-09 22:37:27.880086,533145,3177779100,3177781260,-1.01504,0.228384,-0.261568,-182.41125,73.43875,19.83625,8.248,-27.408,58.56,inter_set_rest,7,5.0,17287.0,403431.0,227081.0,77829.0,7235.0
2026-04-09 22:37:27.882525,533146,3177788045,3177789995,-1.009184,0.228384,-0.261568,-178.80624,73.683754,21.2275,9.032001,-26.112001,57.768,inter_set_rest,7,5.0,17287.0,403431.0,227081.0,77829.0,7235.0
2026-04-09 22:37:27.973806,533157,3177803003,3177803387,-1.079456,0.20496,-0.267424,-173.71375,73.08875,23.16125,9.0,-24.376001,59.440002,inter_set_rest,7,5.0,17419.0,403431.0,225084.0,76545.0,6830.0
2026-04-09 22:37:27.976277,533158,3177812424,3177814203,-1.079456,0.20496,-0.267424,-166.7925,72.38875,25.52375,9.0,-24.376001,59.440002,inter_set_rest,7,5.0,17419.0,403431.0,225084.0,76545.0,6830.0
2026-04-09 22:37:27.978772,533159,3177821390,3177822934,-1.106784,0.191296,-0.271328,-157.045,70.70875,27.81625,10.424001,-23.544,59.224003,inter_set_rest,7,5.0,17419.0,403431.0,225084.0,76545.0,6830.0
2026-04-09 22:37:27.981329,533160,3177835912,3177837895,-1.106784,0.191296,-0.271328,-146.01125,68.5475,29.40875,10.424001,-23.544,59.224003,inter_set_rest,7,5.0,17419.0,403431.0,225084.0,76545.0,6830.0
2026-04-09 22:37:27.983780,533161,3177844884,3177846663,-1.089216,0.191296,-0.277184,-134.3825,66.0975,30.03,10.56,-21.68,59.440002,inter_set_rest,7,5.0,17419.0,403431.0,225084.0,76545.0,6830.0
2026-04-09 22:37:27.986298,533162,3177853917,3177855372,-1.089216,0.191296,-0.277184,-123.15625,63.63,30.37125,10.56,-21.68,59.440002,inter_set_rest,7,5.0,17419.0,403431.0,225084.0,76545.0,6830.0
2026-04-09 22:37:27.988791,533163,3177862835,3177864054,-1.06384,0.187392,-0.28304,-112.113754,62.8075,31.01,11.088,-20.6,59.280003,inter_set_rest,7,5.0,17419.0,403431.0,225084.0,76545.0,6830.0
2026-04-09 22:37:27.991292,533164,3177877288,3177878977,-1.06384,0.187392,-0.28304,-102.52375,62.44875,31.4125,11.088,-20.6,59.280003,inter_set_rest,7,5.0,17419.0,403431.0,225084.0,76545.0,6830.0
2026-04-09 22:37:27.993785,533165,3177886210,3177887682,-1.046272,0.187392,-0.267424,-93.9575,62.57125,33.11,11.408001,-20.12,59.792004,inter_set_rest,7,5.0,17419.0,403431.0,225084.0,76545.0,6830.0
2026-04-09 22:37:27.996261,533166,3177895232,3177896408,-1.046272,0.187392,-0.267424,-86.58125,63.79625,34.3175,11.408001,-20.12,59.792004,inter_set_rest,7,5.0,17419.0,403431.0,225084.0,76545.0,6830.0
2026-04-09 22:37:28.027514,533176,3177910320,3177911368,-1.046272,0.203008,-0.247904,-80.57,65.35375,35.79625,11.392,-19.784,60.176003,inter_set_rest,7,5.0,17801.0,403431.0,219133.0,72270.0,5375.0
2026-04-09 22:37:28.032592,533177,3177919384,3177920145,-1.046272,0.203008,-0.21472,-75.55625,66.7625,37.24,11.392,-19.784,60.176003,inter_set_rest,7,5.0,17801.0,403431.0,219133.0,72270.0,5375.0
2026-04-09 22:37:28.035045,533178,3177928793,3177930975,-1.065792,0.220576,-0.21472,-72.72125,68.39,38.43,12.456,-19.368,59.120003,inter_set_rest,7,5.0,17801.0,403431.0,219133.0,72270.0,5375.0
2026-04-09 22:37:28.037548,533179,3177937727,3177939720,-1.065792,0.220576,-0.21472,-71.26,70.09625,39.59375,12.456,-19.368,59.120003,inter_set_rest,7,5.0,17801.0,403431.0,219133.0,72270.0,5375.0
2026-04-09 22:37:28.041308,533180,3177952223,3177952597,-1.081408,0.249856,-0.193248,-72.00375,71.7325,39.8825,12.280001,-18.52,60.024002,inter_set_rest,7,5.0,17801.0,403431.0,219133.0,72270.0,5375.0
2026-04-09 22:37:28.071490,533181,3177961500,3177963439,-1.085312,0.2928,-0.1464,-75.0575,72.4325,40.34625,14.088,-17.672,59.608,inter_set_rest,7,5.0,17801.0,403431.0,219133.0,72270.0,5375.0
2026-04-09 22:37:28.075091,533182,3177970504,3177972180,-1.085312,0.2928,-0.1464,-82.55625,72.2575,40.22375,14.088,-17.672,59.608,inter_set_rest,7,5.0,17801.0,403431.0,219133.0,72270.0,5375.0
2026-04-09 22:37:28.077561,533183,3177985003,3177987072,-1.077504,0.30256,-0.158112,-93.0825,72.23125,40.0225,14.120001,-16.792002,59.936005,inter_set_rest,7,5.0,17801.0,403431.0,219133.0,72270.0,5375.0
2026-04-09 22:37:28.107719,533184,3177993941,3177995822,-1.077504,0.30256,-0.158112,-104.3525,71.75,40.0575,14.120001,-16.792002,59.936005,inter_set_rest,7,5.0,17801.0,403431.0,219133.0,72270.0,5375.0
2026-04-09 22:37:28.133813,533194,3178003137,3178004583,-1.077504,0.269376,-0.201056,-115.1325,70.455,39.1475,15.232,-15.216001,60.352,inter_set_rest,7,5.0,17885.0,403431.0,217599.0,71280.0,5128.0
2026-04-09 22:37:28.136256,533195,3178012213,3178013308,-1.077504,0.269376,-0.201056,-123.19125,68.38125,38.01875,15.232,-15.216001,60.352,inter_set_rest,7,5.0,17885.0,403431.0,217599.0,71280.0,5128.0
2026-04-09 22:37:28.138776,533196,3178026744,3178028225,-1.079456,0.247904,-0.226432,-126.46375,66.59625,37.03875,15.752001,-14.400001,60.040005,inter_set_rest,7,5.0,17885.0,403431.0,217599.0,71280.0,5128.0
2026-04-09 22:37:28.141375,533197,3178035693,3178036969,-1.079456,0.247904,-0.226432,-124.775,63.6475,36.46125,15.752001,-14.400001,60.040005,inter_set_rest,7,5.0,17885.0,403431.0,217599.0,71280.0,5128.0
2026-04-09 22:37:28.143791,533198,3178044659,3178045753,-1.077504,0.255712,-0.222528,-122.19375,61.3375,36.25125,15.280001,-12.472,60.824,inter_set_rest,7,5.0,17885.0,403431.0,217599.0,71280.0,5128.0
2026-04-09 22:37:28.150107,533199,3178059227,3178060738,-1.077504,0.255712,-0.222528,-121.10875,59.045002,35.70875,15.280001,-12.472,60.824,inter_set_rest,7,5.0,17885.0,403431.0,217599.0,71280.0,5128.0
2026-04-09 22:37:28.180247,533200,3178068129,3178069430,-1.149728,0.249856,-0.236192,-121.93125,56.0175,34.6325,15.544001,-11.912001,62.128002,inter_set_rest,7,5.0,17885.0,403431.0,217599.0,71280.0,5128.0
2026-04-09 22:37:28.183754,533201,3178077059,3178078139,-1.149728,0.249856,-0.236192,-121.19625,52.84125,32.8125,15.544001,-11.912001,62.128002,inter_set_rest,7,5.0,17885.0,403431.0,217599.0,71280.0,5128.0
2026-04-09 22:37:28.186304,533202,3178091574,3178093071,-1.212192,0.20496,-0.226432,-116.6025,49.44625,29.5925,16.848001,-10.376,59.448,inter_set_rest,7,5.0,17885.0,403431.0,217599.0,71280.0,5128.0
2026-04-09 22:37:28.191242,533203,3178100496,3178101778,-1.124352,0.183488,-0.183488,-107.4325,45.255,25.96125,16.848001,-8.328,59.112003,inter_set_rest,7,5.0,17885.0,403431.0,217599.0,71280.0,5128.0
2026-04-09 22:37:28.222526,533214,3178109478,3178110599,-1.124352,0.183488,-0.183488,-94.10625,41.18625,22.960001,16.216002,-9.504001,59.112003,inter_set_rest,7,5.0,17671.0,403431.0,221029.0,73872.0,5936.0
2026-04-09 22:37:28.225055,533215,3178118410,3178119356,-1.124352,0.183488,-0.183488,-80.12375,39.1825,20.7375,16.216002,-9.504001,59.112003,inter_set_rest,7,5.0,17671.0,403431.0,221029.0,73872.0,5936.0
2026-04-09 22:37:28.227523,533216,3178132959,3178134323,-1.126304,0.232288,-0.160064,-66.3075,39.9525,18.7425,16.712,-8.984,60.120003,inter_set_rest,7,5.0,17671.0,403431.0,221029.0,73872.0,5936.0
2026-04-09 22:37:28.231224,533217,3178141938,3178142998,-1.19072,0.271328,-0.121024,-55.55375,41.53625,16.205,17.736,-7.84,58.08,inter_set_rest,7,5.0,17671.0,403431.0,221029.0,73872.0,5936.0
2026-04-09 22:37:28.266545,533218,3178150907,3178151761,-1.19072,0.271328,-0.121024,-48.335,41.90375,13.55375,17.736,-7.84,58.08,inter_set_rest,7,5.0,17671.0,403431.0,221029.0,73872.0,5936.0
2026-04-09 22:37:28.269999,533219,3178165428,3178166653,-1.098976,0.30256,-0.054656,-45.36,41.25625,12.81,18.096,-7.664001,58.672,inter_set_rest,7,5.0,17671.0,403431.0,221029.0,73872.0,5936.0
2026-04-09 22:37:28.272562,533220,3178174311,3178175390,-1.098976,0.30256,-0.054656,-45.61375,41.1775,12.69625,18.096,-7.664001,58.672,inter_set_rest,7,5.0,17671.0,403431.0,221029.0,73872.0,5936.0
2026-04-09 22:37:28.275018,533221,3178183237,3178184086,-1.009184,0.339648,-0.017568,-48.06375,41.475,13.09,18.136002,-7.104001,58.248,inter_set_rest,7,5.0,17671.0,403431.0,221029.0,73872.0,5936.0
2026-04-09 22:37:28.305255,533222,3178197812,3178199128,-1.009184,0.339648,-0.017568,-52.1675,42.25375,14.533751,18.136002,-7.104001,58.248,inter_set_rest,7,5.0,17671.0,403431.0,221029.0,73872.0,5936.0
2026-04-09 22:37:28.334991,533232,3178206878,3178207892,-0.974048,0.386496,0.0,-57.61,42.9975,18.34875,18.608002,-6.344,57.712,inter_set_rest,7,5.0,17337.0,403431.0,225957.0,77607.0,7216.0
2026-04-09 22:37:28.337523,533233,3178215835,3178216559,-0.974048,0.386496,0.0,-63.945,43.9775,25.38375,18.608002,-6.344,57.712,inter_set_rest,7,5.0,17337.0,403431.0,225957.0,77607.0,7216.0
2026-04-09 22:37:28.340037,533234,3178225249,3178227264,-0.96624,0.40992,-0.005856,-73.45625,45.17625,34.405,19.0,-5.784,56.928,inter_set_rest,7,5.0,17337.0,403431.0,225957.0,77607.0,7216.0
2026-04-09 22:37:28.342523,533235,3178239752,3178240215,-0.96624,0.40992,-0.005856,-85.86375,46.9,43.61,19.0,-5.784,56.928,inter_set_rest,7,5.0,17337.0,403431.0,225957.0,77607.0,7216.0
2026-04-09 22:37:28.345113,533236,3178249291,3178251018,-1.01504,0.415776,-0.01952,-98.37625,47.495,51.52,17.568,-4.912,58.304005,inter_set_rest,7,5.0,17337.0,403431.0,225957.0,77607.0,7216.0
2026-04-09 22:37:28.351304,533237,3178258296,3178259753,-1.01504,0.415776,-0.01952,-110.39,45.7625,57.05875,17.568,-4.912,58.304005,inter_set_rest,7,5.0,17337.0,403431.0,225957.0,77607.0,7216.0
2026-04-09 22:37:28.357545,533238,3178267258,3178268474,-1.030656,0.413824,0.027328,-121.3625,42.07875,60.322502,19.736,-3.904,56.520004,inter_set_rest,7,5.0,17337.0,403431.0,225957.0,77607.0,7216.0
2026-04-09 22:37:28.387751,533239,3178281706,3178283420,-1.057984,0.42944,0.091744,-127.53125,37.56375,61.62625,20.624,-2.624,55.792004,inter_set_rest,7,5.0,17337.0,403431.0,225957.0,77607.0,7216.0
2026-04-09 22:37:28.391343,533240,3178290614,3178292121,-1.057984,0.42944,0.091744,-127.96,32.13,63.28,20.624,-2.624,55.792004,inter_set_rest,7,5.0,17337.0,403431.0,225957.0,77607.0,7216.0
2026-04-09 22:37:28.393750,533241,3178299541,3178300811,-1.057984,0.42944,0.091744,-121.61625,26.03125,65.10875,20.624,-2.624,55.792004,inter_set_rest,7,5.0,17337.0,403431.0,225957.0,77607.0,7216.0
2026-04-09 22:37:28.421283,533251,3178314171,3178315827,-1.104832,0.374784,0.140544,-110.55625,18.78625,68.005,20.240002,-1.736,55.000004,inter_set_rest,7,5.0,16788.0,403431.0,234979.0,83958.0,9913.0
2026-04-09 22:37:28.423796,533252,3178323189,3178324555,-1.081408,0.32208,0.16592,-94.15,10.00125,70.805,19.952002,-2.44,54.768,inter_set_rest,7,5.0,16788.0,403431.0,234979.0,83958.0,9913.0
2026-04-09 22:37:28.426311,533253,3178332120,3178333269,-1.081408,0.32208,0.16592,-72.2575,1.56625,72.9925,19.952002,-2.44,54.768,inter_set_rest,7,5.0,16788.0,403431.0,234979.0,83958.0,9913.0
2026-04-09 22:37:28.456511,533254,3178346632,3178348222,-1.114592,0.36112,0.232288,-46.2,-6.965,74.8475,19.960001,-2.224,55.768,inter_set_rest,7,5.0,16788.0,403431.0,234979.0,83958.0,9913.0
2026-04-09 22:37:28.460264,533255,3178355568,3178356922,-1.114592,0.36112,0.232288,-18.12125,-16.87875,75.8275,19.960001,-2.224,55.768,inter_set_rest,7,5.0,16788.0,403431.0,234979.0,83958.0,9913.0
2026-04-09 22:37:28.462687,533256,3178364485,3178365626,-1.198528,0.40016,0.218624,10.1325,-28.62125,75.6175,20.096,-3.24,55.704002,inter_set_rest,7,5.0,16788.0,403431.0,234979.0,83958.0,9913.0
2026-04-09 22:37:28.468951,533257,3178379027,3178380564,-1.198528,0.40016,0.218624,36.925,-41.09875,74.78625,20.096,-3.24,55.704002,inter_set_rest,7,5.0,16788.0,403431.0,234979.0,83958.0,9913.0
2026-04-09 22:37:28.502270,533258,3178387991,3178389285,-1.184864,0.406016,0.144448,62.16875,-52.49125,73.8325,18.776001,-4.872,56.304,inter_set_rest,7,5.0,16788.0,403431.0,234979.0,83958.0,9913.0
2026-04-09 22:37:28.503751,533259,3178396900,3178397991,-1.184864,0.406016,0.144448,85.77625,-60.9,72.56375,18.776001,-4.872,56.304,inter_set_rest,7,5.0,16788.0,403431.0,234979.0,83958.0,9913.0
2026-04-09 22:37:28.531231,533270,3178406296,3178406806,-1.128256,0.46848,0.115168,105.5075,-65.72125,71.09375,18.880001,-6.000001,56.56,inter_set_rest,7,5.0,16617.0,403431.0,238250.0,86173.0,10961.0
2026-04-09 22:37:28.533676,533271,3178421456,3178421829,-1.128256,0.46848,0.134688,119.6475,-68.74,68.145,18.880001,-6.000001,56.56,inter_set_rest,7,5.0,16617.0,403431.0,238250.0,86173.0,10961.0
2026-04-09 22:37:28.535345,533272,3178430836,3178432615,-1.0736,0.519232,0.134688,125.99125,-69.48375,65.1875,17.936,-7.808001,60.360004,inter_set_rest,7,5.0,16617.0,403431.0,238250.0,86173.0,10961.0
2026-04-09 22:37:28.570110,533273,3178439912,3178441359,-1.0736,0.519232,0.134688,123.96125,-67.8825,62.78125,17.936,-7.808001,60.360004,inter_set_rest,7,5.0,16617.0,403431.0,238250.0,86173.0,10961.0
2026-04-09 22:37:28.572266,533274,3178448860,3178450134,-1.011136,0.56608,0.152256,115.64875,-64.89,60.48875,16.504002,-8.992001,58.792004,inter_set_rest,7,5.0,16617.0,403431.0,238250.0,86173.0,10961.0
2026-04-09 22:37:28.576855,533275,3178463372,3178465044,-0.940864,0.525088,0.144448,105.1225,-62.326252,52.98125,16.056002,-10.072001,59.696003,inter_set_rest,7,5.0,16617.0,403431.0,238250.0,86173.0,10961.0
2026-04-09 22:37:28.578564,533276,3178472332,3178473750,-0.940864,0.525088,0.144448,90.6675,-58.93125,47.0925,16.056002,-10.072001,59.696003,inter_set_rest,7,5.0,16617.0,403431.0,238250.0,86173.0,10961.0
2026-04-09 22:37:28.580929,533277,3178481250,3178482448,-0.940864,0.525088,0.144448,78.53125,-54.48625,45.61375,16.056002,-10.072001,59.696003,inter_set_rest,7,5.0,16617.0,403431.0,238250.0,86173.0,10961.0
2026-04-09 22:37:28.588304,533278,3178495734,3178497373,-0.882304,0.489952,0.119072,70.14875,-50.47,38.01,15.968,-10.832001,58.504,inter_set_rest,7,5.0,16617.0,403431.0,238250.0,86173.0,10961.0
2026-04-09 22:37:28.616440,533288,3178504905,3178506139,-0.81984,0.49776,0.089792,60.34,-45.68375,29.75,14.472001,-12.016001,58.888004,inter_set_rest,7,5.0,16979.0,403431.0,231743.0,81734.0,8863.0
2026-04-09 22:37:28.620679,533289,3178513863,3178515011,-0.81984,0.49776,0.089792,50.63625,-41.23875,23.135,14.472001,-12.016001,58.888004,inter_set_rest,7,5.0,16979.0,403431.0,231743.0,81734.0,8863.0
2026-04-09 22:37:28.622329,533290,3178528350,3178530046,-0.7808,0.484096,0.06832,39.54125,-36.61,14.875,14.712001,-11.656,58.520004,inter_set_rest,7,5.0,16979.0,403431.0,231743.0,81734.0,8863.0
2026-04-09 22:37:28.631632,533291,3178537296,3178538801,-0.7808,0.484096,0.06832,26.8275,-32.27875,5.27625,14.712001,-11.656,58.520004,inter_set_rest,7,5.0,16979.0,403431.0,231743.0,81734.0,8863.0
2026-04-09 22:37:28.659828,533292,3178546211,3178547525,-0.757376,0.476288,0.03904,11.795,-28.37625,-3.71,13.872001,-11.128,58.808002,inter_set_rest,7,5.0,16979.0,403431.0,231743.0,81734.0,8863.0
2026-04-09 22:37:28.662870,533293,3178555183,3178556253,-0.757376,0.476288,0.03904,-3.50875,-24.73625,-12.99375,13.872001,-11.128,58.808002,inter_set_rest,7,5.0,16979.0,403431.0,231743.0,81734.0,8863.0
2026-04-09 22:37:28.665195,533294,3178569653,3178571185,-0.776896,0.443104,0.021472,-18.27875,-20.9125,-22.63625,14.032001,-10.480001,58.512,inter_set_rest,7,5.0,16979.0,403431.0,231743.0,81734.0,8863.0
2026-04-09 22:37:28.669175,533295,3178578578,3178579892,-0.776896,0.443104,0.021472,-30.58125,-18.92625,-31.52625,14.032001,-10.480001,58.512,inter_set_rest,7,5.0,16979.0,403431.0,231743.0,81734.0,8863.0
2026-04-09 22:37:28.699298,533296,3178587583,3178588658,-0.80032,0.411872,0.003904,-42.5425,-17.42125,-39.97,13.008,-8.976001,59.664,inter_set_rest,7,5.0,16979.0,403431.0,231743.0,81734.0,8863.0
2026-04-09 22:37:28.702669,533297,3178602056,3178603531,-0.80032,0.365024,-0.011712,-52.71,-16.9575,-48.125,13.008,-8.976001,59.664,inter_set_rest,7,5.0,16979.0,403431.0,231743.0,81734.0,8863.0
2026-04-09 22:37:28.727720,533307,3178611064,3178612239,-0.798368,0.368928,-0.011712,-61.67875,-16.0825,-55.18625,13.336,-7.920001,61.432003,inter_set_rest,7,5.0,17276.0,403431.0,226734.0,78350.0,7526.0
2026-04-09 22:37:28.730090,533308,3178620026,3178620956,-0.798368,0.368928,-0.011712,-68.0225,-14.3325,-62.36125,13.336,-7.920001,61.432003,inter_set_rest,7,5.0,17276.0,403431.0,226734.0,78350.0,7526.0
2026-04-09 22:37:28.732602,533309,3178634522,3178635893,-0.80032,0.335744,-0.025376,-70.875,-12.48625,-69.8775,12.280001,-6.704001,60.256004,inter_set_rest,7,5.0,17276.0,403431.0,226734.0,78350.0,7526.0
2026-04-09 22:37:28.735195,533310,3178643458,3178644636,-0.825696,0.325984,-0.021472,-70.7,-10.6925,-77.6125,11.528001,-5.464,59.896004,inter_set_rest,7,5.0,17276.0,403431.0,226734.0,78350.0,7526.0
2026-04-09 22:37:28.765489,533311,3178652411,3178653363,-0.825696,0.325984,-0.021472,-68.60875,-8.51375,-84.315,11.528001,-5.464,59.896004,inter_set_rest,7,5.0,17276.0,403431.0,226734.0,78350.0,7526.0
2026-04-09 22:37:28.768913,533312,3178666873,3178668296,-0.874496,0.327936,-0.005856,-65.21375,-7.35875,-89.99375,12.376,-4.16,58.784004,inter_set_rest,7,5.0,17276.0,403431.0,226734.0,78350.0,7526.0
2026-04-09 22:37:28.772797,533313,3178675774,3178676983,-0.874496,0.327936,-0.005856,-61.04,-6.62375,-94.902504,12.376,-4.16,58.784004,inter_set_rest,7,5.0,17276.0,403431.0,226734.0,78350.0,7526.0
2026-04-09 22:37:28.776432,533314,3178684691,3178685681,-0.903776,0.329888,-0.015616,-58.1,-5.97625,-99.0325,11.064,-3.04,59.496002,inter_set_rest,7,5.0,17276.0,403431.0,226734.0,78350.0,7526.0
2026-04-09 22:37:28.782766,533315,3178693593,3178694456,-0.903776,0.329888,-0.015616,-55.78125,-5.60875,-101.85,11.064,-3.04,59.496002,inter_set_rest,7,5.0,17276.0,403431.0,226734.0,78350.0,7526.0
2026-04-09 22:37:28.872831,533326,3178708771,3178709399,-0.886208,0.324032,-0.023424,-54.38125,-5.69625,-105.23625,10.904,-1.696,59.128002,inter_set_rest,7,5.0,17186.0,403431.0,226468.0,78055.0,7451.0
2026-04-09 22:37:28.875144,533327,3178718016,3178720186,-0.886208,0.324032,-0.023424,-51.8525,-4.64625,-109.06,10.904,-1.696,59.128002,inter_set_rest,7,5.0,17186.0,403431.0,226468.0,78055.0,7451.0
2026-04-09 22:37:28.877625,533328,3178726937,3178728892,-0.886208,0.324032,0.0488,-47.94125,-2.94,-112.183754,11.408001,-0.392,58.544003,inter_set_rest,7,5.0,17186.0,403431.0,226468.0,78055.0,7451.0
2026-04-09 22:37:28.880120,533329,3178741484,3178741806,-0.886208,0.324032,0.0488,-44.02125,-0.72625,-115.01875,11.408001,-0.392,58.544003,inter_set_rest,7,5.0,17186.0,403431.0,226468.0,78055.0,7451.0
2026-04-09 22:37:28.882573,533330,3178750892,3178752627,-0.925248,0.300608,0.040992,-38.73625,1.54,-117.69625,9.384001,1.296,58.928,inter_set_rest,7,5.0,17186.0,403431.0,226468.0,78055.0,7451.0
2026-04-09 22:37:28.885071,533331,3178759792,3178761323,-0.925248,0.300608,0.040992,-31.15875,4.10375,-118.4925,9.384001,1.296,58.928,inter_set_rest,7,5.0,17186.0,403431.0,226468.0,78055.0,7451.0
2026-04-09 22:37:28.887646,533332,3178768873,3178770045,-0.944768,0.284992,-0.011712,-24.94625,7.81375,-118.1075,10.512,1.88,58.072002,inter_set_rest,7,5.0,17186.0,403431.0,226468.0,78055.0,7451.0
2026-04-09 22:37:28.890138,533333,3178783378,3178784986,-0.981856,0.238144,0.1464,-17.675,9.84375,-119.77875,9.656,2.192,58.896004,inter_set_rest,7,5.0,17186.0,403431.0,226468.0,78055.0,7451.0
2026-04-09 22:37:28.892564,533334,3178792437,3178793746,-0.981856,0.238144,0.1464,-4.08625,8.225,-121.75625,9.656,2.192,58.896004,inter_set_rest,7,5.0,17186.0,403431.0,226468.0,78055.0,7451.0
2026-04-09 22:37:28.895077,533335,3178801408,3178802501,-0.981856,0.238144,0.1464,17.92,3.50875,-122.4475,9.656,2.192,58.896004,inter_set_rest,7,5.0,17186.0,403431.0,226468.0,78055.0,7451.0
2026-04-09 22:37:28.927605,533345,3178815958,3178817492,-1.001376,0.189344,0.162016,47.705,-2.5725,-119.805,8.76,1.656,59.304005,inter_set_rest,7,5.0,17976.0,403431.0,217294.0,71272.0,5433.0
2026-04-09 22:37:28.930065,533346,3178824939,3178826253,-0.98576,0.255712,0.027328,84.91,-6.4925,-113.44375,6.84,0.968,58.800003,inter_set_rest,7,5.0,17976.0,403431.0,217294.0,71272.0,5433.0
2026-04-09 22:37:28.932566,533347,3178833967,3178834985,-0.98576,0.255712,0.027328,119.9275,-6.195,-107.86125,6.84,0.968,58.800003,inter_set_rest,7,5.0,17976.0,403431.0,217294.0,71272.0,5433.0
2026-04-09 22:37:28.935122,533348,3178842929,3178843737,-0.98576,0.255712,0.08784,147.98875,-5.6525,-104.475,6.84,0.968,58.800003,inter_set_rest,7,5.0,17976.0,403431.0,217294.0,71272.0,5433.0
2026-04-09 22:37:28.965690,533349,3178857419,3178858678,-0.991616,0.345504,0.08784,167.5975,-6.9825,-103.1275,8.056001,-0.168,56.88,inter_set_rest,7,5.0,17976.0,403431.0,217294.0,71272.0,5433.0
2026-04-09 22:37:28.969176,533350,3178866314,3178867411,-1.057984,0.491904,0.0976,180.67876,-8.3475,-101.57875,7.248,-1.36,59.496002,inter_set_rest,7,5.0,17976.0,403431.0,217294.0,71272.0,5433.0
2026-04-09 22:37:28.971517,533351,3178875248,3178876156,-1.057984,0.491904,0.0976,187.95,-10.43875,-97.09875,7.248,-1.36,59.496002,inter_set_rest,7,5.0,17976.0,403431.0,217294.0,71272.0,5433.0
2026-04-09 22:37:29.001990,533352,3178889730,3178891078,-1.116544,0.650016,0.037088,186.515,-10.85,-88.64625,6.752,-3.152,61.064003,inter_set_rest,7,5.0,17976.0,403431.0,217294.0,71272.0,5433.0
2026-04-09 22:37:29.005215,533353,3178898654,3178899794,-1.116544,0.650016,0.037088,172.24374,-9.9575,-81.22625,6.752,-3.152,61.064003,inter_set_rest,7,5.0,17976.0,403431.0,217294.0,71272.0,5433.0
2026-04-09 22:37:29.063845,533363,3178907915,3178908477,-1.20048,0.618784,0.085888,150.54375,-8.79375,-76.8775,6.488,-4.344,59.904003,inter_set_rest,7,5.0,18642.0,403431.0,210183.0,65340.0,4138.0
2026-04-09 22:37:29.068303,533364,3178922575,3178923541,-1.20048,0.618784,0.085888,132.5275,-7.28,-74.4975,6.488,-4.344,59.904003,inter_set_rest,7,5.0,18642.0,403431.0,210183.0,65340.0,4138.0
2026-04-09 22:37:29.070002,533365,3178931673,3178932297,-1.319552,0.607072,0.080032,123.03375,-4.9525,-70.65625,6.096,-4.456,60.224003,inter_set_rest,7,5.0,18642.0,403431.0,210183.0,65340.0,4138.0
2026-04-09 22:37:29.071679,533366,3178940983,3178943103,-1.319552,0.607072,0.080032,118.18625,-2.96625,-63.2275,6.096,-4.456,60.224003,inter_set_rest,7,5.0,18642.0,403431.0,210183.0,65340.0,4138.0
2026-04-09 22:37:29.075890,533367,3178949957,3178951804,-1.339072,0.470432,0.177632,123.445,-6.18625,-56.84,6.216,-5.960001,60.360004,inter_set_rest,7,5.0,18642.0,403431.0,210183.0,65340.0,4138.0
2026-04-09 22:37:29.079296,533368,3178964460,3178966721,-1.40544,0.2928,0.22448,121.8,-10.386251,-59.91125,5.832,-6.76,59.896004,inter_set_rest,7,5.0,18642.0,403431.0,210183.0,65340.0,4138.0
2026-04-09 22:37:29.079557,533369,3178973473,3178975423,-1.40544,0.2928,0.22448,118.99125,-13.27375,-59.89375,5.832,-6.76,59.896004,inter_set_rest,7,5.0,18642.0,403431.0,210183.0,65340.0,4138.0
2026-04-09 22:37:29.082996,533370,3178982528,3178984150,-1.40544,0.2928,0.22448,129.99875,-15.417501,-55.95625,5.832,-6.76,59.896004,inter_set_rest,7,5.0,18642.0,403431.0,210183.0,65340.0,4138.0
2026-04-09 22:37:29.111710,533371,3178997076,3178999125,-1.362496,0.201056,0.228384,146.2475,-17.491251,-52.64875,4.824,-7.856,57.752003,inter_set_rest,7,5.0,18642.0,403431.0,210183.0,65340.0,4138.0
2026-04-09 22:37:29.172435,533382,3179006079,3179007946,-1.251232,-0.001952,0.197152,155.575,-20.51875,-52.99875,5.152,-9.152,60.448,inter_set_rest,7,5.0,18773.0,403431.0,210164.0,65398.0,4253.0
2026-04-09 22:37:29.177309,533383,3179015050,3179016658,-1.251232,-0.001952,0.197152,169.4,-21.46375,-49.28875,5.152,-9.152,60.448,inter_set_rest,7,5.0,18773.0,403431.0,210164.0,65398.0,4253.0
2026-04-09 22:37:29.178720,533384,3179023960,3179025365,-1.106784,-0.07808,0.271328,186.2,-19.06625,-43.53125,5.152,-11.200001,60.312004,inter_set_rest,7,5.0,18773.0,403431.0,210164.0,65398.0,4253.0
2026-04-09 22:37:29.180336,533385,3179038550,3179040290,-1.106784,-0.07808,0.271328,191.98375,-17.35125,-40.5825,5.864,-10.88,60.312004,inter_set_rest,7,5.0,18773.0,403431.0,210164.0,65398.0,4253.0
2026-04-09 22:37:29.190975,533386,3179047648,3179049029,-0.921344,0.07808,0.32208,186.41875,-14.8225,-34.69375,4.584,-12.960001,61.088,inter_set_rest,7,5.0,18773.0,403431.0,210164.0,65398.0,4253.0
2026-04-09 22:37:29.192405,533387,3179056593,3179057677,-0.921344,0.07808,0.32208,166.62625,-12.20625,-27.16875,4.584,-12.960001,61.088,inter_set_rest,7,5.0,18773.0,403431.0,210164.0,65398.0,4253.0
2026-04-09 22:37:29.193998,533388,3179071093,3179072585,-0.856928,0.119072,0.388448,130.68124,-10.29875,-23.485,5.488,-13.288001,59.624004,inter_set_rest,7,5.0,18773.0,403431.0,210164.0,65398.0,4253.0
2026-04-09 22:37:29.198173,533389,3179080040,3179081285,-0.856928,0.119072,0.388448,86.2575,-9.00375,-20.5975,5.488,-13.288001,59.624004,inter_set_rest,7,5.0,18773.0,403431.0,210164.0,65398.0,4253.0
2026-04-09 22:37:29.199918,533390,3179089043,3179090086,-0.853024,0.06832,0.386496,42.385,-7.62125,-15.75,5.496,-13.656001,60.160004,inter_set_rest,7,5.0,18773.0,403431.0,210164.0,65398.0,4253.0
2026-04-09 22:37:29.201530,533391,3179103589,3179104957,-0.853024,0.06832,0.386496,7.46375,-6.2125,-11.917501,5.496,-13.656001,60.160004,inter_set_rest,7,5.0,18773.0,403431.0,210164.0,65398.0,4253.0
2026-04-09 22:37:29.228347,533401,3179112692,3179113706,-0.919392,0.040992,0.357216,-17.6225,-5.34625,-8.02375,5.312,-12.896001,59.864002,inter_set_rest,7,5.0,17759.0,403431.0,224387.0,75878.0,7683.0
2026-04-09 22:37:29.230008,533402,3179121631,3179122440,-0.919392,0.040992,0.357216,-36.0325,-4.89125,-5.17125,5.312,-12.896001,59.864002,inter_set_rest,7,5.0,17759.0,403431.0,224387.0,75878.0,7683.0
2026-04-09 22:37:29.231544,533403,3179130575,3179131258,-1.007232,0.076128,0.304512,-52.99875,-4.22625,-2.59875,5.664,-11.696,59.952003,inter_set_rest,7,5.0,17759.0,403431.0,224387.0,75878.0,7683.0
2026-04-09 22:37:29.237817,533404,3179145438,3179146240,-1.0736,0.105408,0.245952,-70.9625,-4.01625,0.385,5.520001,-10.184,60.176003,inter_set_rest,7,5.0,17759.0,403431.0,224387.0,75878.0,7683.0
2026-04-09 22:37:29.265783,533405,3179154466,3179154967,-1.0736,0.105408,0.245952,-91.6125,-3.9025,1.12,5.520001,-10.184,60.176003,inter_set_rest,7,5.0,17759.0,403431.0,224387.0,75878.0,7683.0
2026-04-09 22:37:29.269196,533406,3179163821,3179165776,-1.0736,0.105408,0.245952,-107.38,-3.0625,3.815,5.520001,-10.184,60.176003,inter_set_rest,7,5.0,17759.0,403431.0,224387.0,75878.0,7683.0
2026-04-09 22:37:29.271524,533407,3179172757,3179174553,-1.145824,0.119072,0.193248,-111.09875,-2.91375,8.636251,5.824,-9.024,61.552002,inter_set_rest,7,5.0,17759.0,403431.0,224387.0,75878.0,7683.0
2026-04-09 22:37:29.302225,533408,3179187251,3179189540,-1.194624,0.216672,0.140544,-106.37375,-0.91875,14.2275,6.36,-8.112,60.840004,inter_set_rest,7,5.0,17759.0,403431.0,224387.0,75878.0,7683.0
2026-04-09 22:37:29.307996,533409,3179196168,3179198228,-1.194624,0.216672,0.140544,-101.045,2.66875,20.1775,6.36,-8.112,60.840004,inter_set_rest,7,5.0,17759.0,403431.0,224387.0,75878.0,7683.0
2026-04-09 22:37:29.312188,533410,3179205071,3179206894,-1.22,0.220576,0.179584,-96.74,6.64125,27.81625,6.248,-6.960001,59.288002,inter_set_rest,7,5.0,17759.0,403431.0,224387.0,75878.0,7683.0
2026-04-09 22:37:29.337747,533420,3179219645,3179221904,-1.22,0.220576,0.179584,-92.0675,8.8375,36.39125,6.248,-6.960001,59.288002,inter_set_rest,7,5.0,17914.0,403431.0,220358.0,72602.0,6367.0
2026-04-09 22:37:29.340251,533421,3179228572,3179230662,-1.196576,0.181536,0.226432,-88.54125,11.03375,43.6625,5.856,-6.576,61.600002,inter_set_rest,7,5.0,17914.0,403431.0,220358.0,72602.0,6367.0
2026-04-09 22:37:29.342562,533422,3179237594,3179239389,-1.196576,0.181536,0.226432,-84.91875,12.85375,50.82,5.856,-6.576,61.600002,inter_set_rest,7,5.0,17914.0,403431.0,220358.0,72602.0,6367.0
2026-04-09 22:37:29.346744,533423,3179252105,3179254353,-1.1224,0.105408,0.22448,-77.21,10.675,57.732502,5.808,-5.704001,61.200005,inter_set_rest,7,5.0,17914.0,403431.0,220358.0,72602.0,6367.0
2026-04-09 22:37:29.353284,533424,3179261061,3179263070,-1.1224,0.105408,0.22448,-72.6075,12.7225,59.45625,5.808,-5.704001,61.200005,inter_set_rest,7,5.0,17914.0,403431.0,220358.0,72602.0,6367.0
2026-04-09 22:37:29.382009,533425,3179270066,3179271786,-0.976,0.320128,0.025376,-62.11625,16.59875,62.09,7.072001,-5.744,60.840004,inter_set_rest,7,5.0,17914.0,403431.0,220358.0,72602.0,6367.0
2026-04-09 22:37:29.386318,533426,3179284573,3179286700,-0.976,0.320128,-0.21472,-41.4225,23.66875,70.46375,7.072001,-5.744,60.840004,inter_set_rest,7,5.0,17914.0,403431.0,220358.0,72602.0,6367.0
2026-04-09 22:37:29.387669,533427,3179293481,3179295383,-0.915488,0.732,-0.21472,-14.0525,36.46125,86.03,8.256001,-4.952,60.320004,inter_set_rest,7,5.0,17914.0,403431.0,220358.0,72602.0,6367.0
2026-04-09 22:37:29.394620,533428,3179302431,3179304169,-0.915488,0.732,-0.21472,8.12875,50.47,106.21625,8.256001,-4.952,60.320004,inter_set_rest,7,5.0,17914.0,403431.0,220358.0,72602.0,6367.0
2026-04-09 22:37:29.422871,533439,3179311588,3179312875,-1.001376,0.794464,-0.228384,1.7675,58.45875,120.925,8.144,-5.976,60.440002,inter_set_rest,7,5.0,17837.0,403431.0,218977.0,71958.0,5690.0
2026-04-09 22:37:29.425170,533440,3179326127,3179327874,-1.08336,0.642208,-0.244,-20.16875,61.50375,136.6575,9.312,-5.536,59.776,inter_set_rest,7,5.0,17837.0,403431.0,218977.0,71958.0,5690.0
2026-04-09 22:37:29.427716,533441,3179335119,3179336568,-1.08336,0.642208,-0.244,-45.52625,62.79875,150.045,9.312,-5.536,59.776,inter_set_rest,7,5.0,17837.0,403431.0,218977.0,71958.0,5690.0
2026-04-09 22:37:29.434262,533442,3179344054,3179345319,-1.08336,0.642208,-0.244,-70.035,62.3175,154.4025,9.312,-5.536,59.776,inter_set_rest,7,5.0,17837.0,403431.0,218977.0,71958.0,5690.0
2026-04-09 22:37:29.472347,533443,3179358527,3179360278,-1.065792,0.443104,-0.201056,-93.2575,60.7075,152.285,10.6,-4.968,58.288002,inter_set_rest,7,5.0,17837.0,403431.0,218977.0,71958.0,5690.0
2026-04-09 22:37:29.479129,533444,3179367426,3179368949,-0.962336,0.32208,-0.128832,-115.21125,57.88125,146.6325,11.440001,-3.744,58.984,inter_set_rest,7,5.0,17837.0,403431.0,218977.0,71958.0,5690.0
2026-04-09 22:37:29.481485,533445,3179376354,3179377664,-0.962336,0.32208,-0.128832,-137.10374,55.8075,138.97626,11.440001,-3.744,58.984,inter_set_rest,7,5.0,17837.0,403431.0,218977.0,71958.0,5690.0
2026-04-09 22:37:29.483920,533446,3179390847,3179392603,-0.915488,0.226432,-0.037088,-159.4075,53.760002,133.16624,12.360001,-2.448,58.584003,inter_set_rest,7,5.0,17837.0,403431.0,218977.0,71958.0,5690.0
2026-04-09 22:37:29.490187,533447,3179399792,3179401317,-0.915488,0.226432,-0.037088,-177.24,52.43875,130.34875,12.360001,-2.448,58.584003,inter_set_rest,7,5.0,17837.0,403431.0,218977.0,71958.0,5690.0
2026-04-09 22:37:29.544028,533457,3179408767,3179410421,-0.90768,0.171776,0.003904,-186.34,50.8725,128.5375,13.584001,-1.008,58.232002,inter_set_rest,7,5.0,17663.0,403431.0,218995.0,71833.0,5424.0
2026-04-09 22:37:29.546376,533458,3179423256,3179425382,-0.90768,0.171776,0.003904,-186.33125,47.52125,124.53,13.584001,-1.008,58.232002,inter_set_rest,7,5.0,17663.0,403431.0,218995.0,71833.0,5424.0
2026-04-09 22:37:29.548874,533459,3179432182,3179434057,-0.903776,0.144448,0.037088,-178.745,43.7675,117.69625,13.64,0.632,57.928,inter_set_rest,7,5.0,17663.0,403431.0,218995.0,71833.0,5424.0
2026-04-09 22:37:29.551415,533460,3179441182,3179442805,-0.903776,0.144448,0.037088,-165.54124,40.232502,107.87875,13.64,0.632,57.928,inter_set_rest,7,5.0,17663.0,403431.0,218995.0,71833.0,5424.0
2026-04-09 22:37:29.553854,533461,3179450181,3179451602,-0.905728,0.15616,0.05856,-147.0875,36.82875,98.16625,13.52,2.464,58.104004,inter_set_rest,7,5.0,17663.0,403431.0,218995.0,71833.0,5424.0
2026-04-09 22:37:29.557754,533462,3179464748,3179466579,-0.905728,0.15616,0.05856,-124.565,32.6375,88.4625,13.52,2.464,58.104004,inter_set_rest,7,5.0,17663.0,403431.0,218995.0,71833.0,5424.0
2026-04-09 22:37:29.586994,533463,3179473698,3179475300,-0.890112,0.173728,0.056608,-98.93625,28.93625,79.9575,13.712001,2.576,57.072002,inter_set_rest,7,5.0,17663.0,403431.0,218995.0,71833.0,5424.0
2026-04-09 22:37:29.590411,533464,3179482712,3179483996,-0.890112,0.173728,0.056608,-72.625,25.2875,73.6225,13.712001,2.576,57.072002,inter_set_rest,7,5.0,17663.0,403431.0,218995.0,71833.0,5424.0
2026-04-09 22:37:29.592973,533465,3179497190,3179498928,-0.909632,0.208864,0.02928,-47.0575,23.3625,66.31625,15.488001,2.48,55.712,inter_set_rest,7,5.0,17663.0,403431.0,218995.0,71833.0,5424.0
2026-04-09 22:37:29.596721,533466,3179506102,3179507671,-0.94672,0.249856,-0.00976,-24.01,22.5925,57.37375,15.488001,1.6,55.688004,inter_set_rest,7,5.0,17663.0,403431.0,218995.0,71833.0,5424.0
2026-04-09 22:37:29.621589,533476,3179515187,3179516454,-0.94672,0.249856,-0.00976,-5.46,21.245,47.39,16.376001,1.6,55.688004,inter_set_rest,7,5.0,17814.0,403431.0,216636.0,70174.0,4913.0
2026-04-09 22:37:29.624015,533477,3179529753,3179531462,-0.940864,0.281088,-0.023424,8.4525,19.32,36.645,15.776001,1.368,56.640003,inter_set_rest,7,5.0,17814.0,403431.0,216636.0,70174.0,4913.0
2026-04-09 22:37:29.630494,533478,3179538686,3179540214,-0.940864,0.281088,-0.023424,15.925,17.5,26.55625,15.776001,1.368,56.640003,inter_set_rest,7,5.0,17814.0,403431.0,216636.0,70174.0,4913.0
2026-04-09 22:37:29.662038,533479,3179547623,3179548953,-0.972096,0.30256,-0.037088,18.17375,16.80875,17.0625,16.944,1.096,53.344,inter_set_rest,7,5.0,17814.0,403431.0,216636.0,70174.0,4913.0
2026-04-09 22:37:29.666054,533480,3179556550,3179557680,-0.972096,0.30256,-0.037088,17.71875,16.7125,7.3325,16.944,1.096,53.344,inter_set_rest,7,5.0,17814.0,403431.0,216636.0,70174.0,4913.0
2026-04-09 22:37:29.667823,533481,3179571042,3179572579,-0.999424,0.300608,-0.021472,15.75875,16.84375,-1.7325,16.856,1.48,55.768,inter_set_rest,7,5.0,17814.0,403431.0,216636.0,70174.0,4913.0
2026-04-09 22:37:29.673160,533482,3179579965,3179581292,-0.999424,0.300608,-0.021472,15.05,16.625,-11.20875,16.856,1.48,55.768,inter_set_rest,7,5.0,17814.0,403431.0,216636.0,70174.0,4913.0
2026-04-09 22:37:29.702068,533483,3179588886,3179589976,-1.003328,0.294752,-0.00976,15.1375,17.5,-19.7575,17.352001,1.8,56.392002,inter_set_rest,7,5.0,17814.0,403431.0,216636.0,70174.0,4913.0
2026-04-09 22:37:29.706364,533484,3179603418,3179604988,-1.003328,0.294752,-0.00976,15.05875,19.10125,-27.48375,17.352001,1.8,56.392002,inter_set_rest,7,5.0,17814.0,403431.0,216636.0,70174.0,4913.0
2026-04-09 22:37:29.778530,533495,3179612403,3179613773,-0.993568,0.30256,0.03904,15.7325,21.6825,-34.97375,17.392,1.688,54.448,inter_set_rest,7,5.0,17626.0,403431.0,219108.0,72030.0,5433.0
2026-04-09 22:37:29.780293,533496,3179621447,3179622556,-0.993568,0.30256,0.03904,16.09125,25.62,-41.48375,17.392,1.688,54.448,inter_set_rest,7,5.0,17626.0,403431.0,219108.0,72030.0,5433.0
2026-04-09 22:37:29.781739,533497,3179635951,3179637463,-0.993568,0.327936,0.081984,14.83125,30.178751,-47.6,16.536001,2.024,56.256004,inter_set_rest,7,5.0,17626.0,403431.0,219108.0,72030.0,5433.0
2026-04-09 22:37:29.785804,533498,3179644889,3179646185,-0.993568,0.327936,0.081984,13.41375,35.5075,-53.2175,16.536001,2.024,56.256004,inter_set_rest,7,5.0,17626.0,403431.0,219108.0,72030.0,5433.0
2026-04-09 22:37:29.787389,533499,3179653819,3179654958,-1.011136,0.368928,0.142496,9.12625,41.86875,-58.93125,17.232,2.536,55.944004,inter_set_rest,7,5.0,17626.0,403431.0,219108.0,72030.0,5433.0
2026-04-09 22:37:29.789041,533500,3179662761,3179663671,-1.011136,0.368928,0.142496,0.77,48.265,-64.4175,17.232,2.536,55.944004,inter_set_rest,7,5.0,17626.0,403431.0,219108.0,72030.0,5433.0
2026-04-09 22:37:29.793370,533501,3179677266,3179678580,-1.042368,0.421632,0.208864,-11.41875,54.99375,-70.0525,18.112001,2.632,54.112003,inter_set_rest,7,5.0,17626.0,403431.0,219108.0,72030.0,5433.0
2026-04-09 22:37:29.794966,533502,3179686163,3179687261,-1.042368,0.421632,0.257664,-27.2125,61.62625,-74.515,18.112001,2.632,54.112003,inter_set_rest,7,5.0,17626.0,403431.0,219108.0,72030.0,5433.0
2026-04-09 22:37:29.802139,533503,3179695159,3179696025,-1.100928,0.47824,0.257664,-46.75125,67.94375,-78.1725,18.368,4.224,53.152004,inter_set_rest,7,5.0,17626.0,403431.0,219108.0,72030.0,5433.0
2026-04-09 22:37:29.803793,533504,3179709698,3179710996,-1.23952,0.528992,0.306464,-68.55625,73.08875,-82.29375,18.800001,5.648,52.392002,inter_set_rest,7,5.0,17626.0,403431.0,219108.0,72030.0,5433.0
2026-04-09 22:37:29.828014,533514,3179718663,3179719727,-1.23952,0.528992,0.306464,-90.58875,77.665,-85.68,18.800001,5.648,52.392002,inter_set_rest,7,5.0,16853.0,403431.0,230781.0,80570.0,8542.0
2026-04-09 22:37:29.832041,533515,3179727620,3179728512,-1.428864,0.544608,0.355264,-113.54875,80.17625,-89.355,17.592001,8.200001,53.624004,inter_set_rest,7,5.0,16853.0,403431.0,230781.0,80570.0,8542.0
2026-04-09 22:37:29.837073,533516,3179742166,3179743406,-1.428864,0.544608,0.355264,-134.47,79.52,-93.7825,17.592001,8.200001,53.624004,inter_set_rest,7,5.0,16853.0,403431.0,230781.0,80570.0,8542.0
2026-04-09 22:37:29.865926,533517,3179751065,3179752101,-1.508896,0.519232,0.392352,-152.73125,77.76125,-98.41125,17.512001,9.944,51.544003,inter_set_rest,7,5.0,16853.0,403431.0,230781.0,80570.0,8542.0
2026-04-09 22:37:29.869135,533518,3179760070,3179760877,-1.508896,0.519232,0.392352,-164.92876,72.86125,-103.59125,17.512001,9.944,51.544003,inter_set_rest,7,5.0,16853.0,403431.0,230781.0,80570.0,8542.0
2026-04-09 22:37:29.873250,533519,3179774626,3179775766,-1.426912,0.456768,0.386496,-172.01625,66.0975,-107.68625,18.712002,11.944,48.640003,inter_set_rest,7,5.0,16853.0,403431.0,230781.0,80570.0,8542.0
2026-04-09 22:37:29.874863,533520,3179783575,3179784470,-1.426912,0.456768,0.386496,-172.27,56.2275,-110.01375,18.712002,11.944,48.640003,inter_set_rest,7,5.0,16853.0,403431.0,230781.0,80570.0,8542.0
2026-04-09 22:37:29.905485,533521,3179792527,3179793192,-1.290272,0.271328,0.304512,-162.0675,44.80875,-109.90875,17.84,13.936001,47.456,inter_set_rest,7,5.0,16853.0,403431.0,230781.0,80570.0,8542.0
2026-04-09 22:37:29.909689,533522,3179801856,3179804018,-1.290272,0.271328,0.304512,-148.70625,30.24875,-108.3075,17.84,13.936001,47.456,inter_set_rest,7,5.0,16853.0,403431.0,230781.0,80570.0,8542.0
2026-04-09 22:37:29.934658,533532,3179816476,3179816954,-1.079456,0.0,0.472384,-128.94875,12.46,-106.58375,16.776001,14.608001,46.664,inter_set_rest,7,5.0,16660.0,403431.0,235857.0,83760.0,10244.0
2026-04-09 22:37:29.936704,533533,3179826051,3179827744,-1.079456,0.0,0.472384,-80.33375,-4.64625,-100.415,16.776001,14.608001,46.664,inter_set_rest,7,5.0,16660.0,403431.0,235857.0,83760.0,10244.0
2026-04-09 22:37:29.937855,533534,3179835111,3179836490,-0.802272,0.162016,0.677344,14.30625,-30.56375,-77.21875,15.952001,14.528001,49.672,inter_set_rest,7,5.0,16660.0,403431.0,235857.0,83760.0,10244.0
2026-04-09 22:37:29.941955,533535,3179844067,3179845243,-0.802272,0.162016,0.677344,106.75,-51.00375,-49.1925,15.952001,14.528001,49.672,inter_set_rest,7,5.0,16660.0,403431.0,235857.0,83760.0,10244.0
2026-04-09 22:37:29.970857,533536,3179858591,3179860200,-0.573888,0.415776,0.489952,153.9825,-64.295,-29.522501,14.432001,14.096001,50.136,inter_set_rest,7,5.0,16660.0,403431.0,235857.0,83760.0,10244.0
2026-04-09 22:37:29.974119,533537,3179867617,3179868896,-0.583648,0.363072,0.388448,162.925,-75.34625,-14.21,14.432001,13.160001,51.008003,inter_set_rest,7,5.0,16660.0,403431.0,235857.0,83760.0,10244.0
2026-04-09 22:37:29.976570,533538,3179876530,3179877608,-0.583648,0.363072,0.388448,148.84625,-82.60875,-0.93625,15.232,13.160001,51.008003,inter_set_rest,7,5.0,16660.0,403431.0,235857.0,83760.0,10244.0
2026-04-09 22:37:29.981698,533539,3179891119,3179892559,-0.792512,0.228384,0.284992,126.27125,-86.94875,6.3875,14.424001,12.608001,52.952003,inter_set_rest,7,5.0,16660.0,403431.0,235857.0,83760.0,10244.0
2026-04-09 22:37:30.023661,533540,3179900063,3179901304,-0.792512,0.228384,0.284992,111.58,-91.48125,10.6925,14.424001,12.608001,52.952003,inter_set_rest,7,5.0,16660.0,403431.0,235857.0,83760.0,10244.0
2026-04-09 22:37:30.026712,533541,3179908986,3179910101,-0.997472,0.249856,0.191296,104.50125,-96.871254,14.4375,12.968,10.824,54.960003,inter_set_rest,7,5.0,16660.0,403431.0,235857.0,83760.0,10244.0
2026-04-09 22:37:30.086626,533552,3179923530,3179925033,-0.997472,0.249856,0.191296,100.86125,-102.1125,17.053751,12.968,10.824,54.960003,inter_set_rest,7,5.0,16668.0,403431.0,232286.0,81229.0,8847.0
2026-04-09 22:37:30.091513,533553,3179932470,3179933713,-1.214144,0.261568,0.083936,99.4875,-107.1175,17.815,12.568001,10.032001,54.696003,inter_set_rest,7,5.0,16668.0,403431.0,232286.0,81229.0,8847.0
2026-04-09 22:37:30.093961,533554,3179941419,3179942506,-1.214144,0.261568,0.083936,102.06875,-111.76375,18.4275,12.568001,10.032001,54.696003,inter_set_rest,7,5.0,16668.0,403431.0,232286.0,81229.0,8847.0
2026-04-09 22:37:30.096832,533555,3179950382,3179951257,-1.45424,0.249856,-0.025376,107.82625,-114.738754,19.76625,10.664001,8.992001,56.752003,inter_set_rest,7,5.0,16668.0,403431.0,232286.0,81229.0,8847.0
2026-04-09 22:37:30.098964,533556,3179964839,3179966160,-1.45424,0.249856,-0.025376,116.865,-118.238754,23.10875,10.664001,8.992001,56.752003,inter_set_rest,7,5.0,16668.0,403431.0,232286.0,81229.0,8847.0
2026-04-09 22:37:30.101392,533557,3179973755,3179974849,-1.579168,0.242048,-0.07808,128.7825,-124.635,27.34375,10.096001,7.832,57.120003,inter_set_rest,7,5.0,16668.0,403431.0,232286.0,81229.0,8847.0
2026-04-09 22:37:30.103883,533558,3179982693,3179983543,-1.579168,0.242048,-0.07808,145.53876,-130.41,30.37125,10.096001,7.832,57.120003,inter_set_rest,7,5.0,16668.0,403431.0,232286.0,81229.0,8847.0
2026-04-09 22:37:30.106547,533559,3179997207,3179998529,-1.553792,0.197152,-0.134688,166.32,-133.93625,33.075,7.904,5.936,60.184002,inter_set_rest,7,5.0,16668.0,403431.0,232286.0,81229.0,8847.0
2026-04-09 22:37:30.108874,533560,3180006179,3180007264,-1.553792,0.197152,-0.134688,190.04124,-138.25,34.39625,7.904,5.936,60.184002,inter_set_rest,7,5.0,16668.0,403431.0,232286.0,81229.0,8847.0
2026-04-09 22:37:30.133981,533570,3180015591,3180015997,-1.350784,0.11712,-0.132736,219.59875,-141.7675,36.8725,6.928001,2.88,63.192,inter_set_rest,7,5.0,17290.0,403431.0,220765.0,72557.0,5327.0
2026-04-09 22:37:30.136455,533571,3180030474,3180031083,-1.052128,0.111264,-0.128832,251.20375,-141.4175,45.28125,5.480001,-0.704,63.544003,inter_set_rest,7,5.0,17290.0,403431.0,220765.0,72557.0,5327.0
2026-04-09 22:37:30.138894,533572,3180039805,3180041871,-1.052128,0.111264,-0.128832,278.18875,-138.145,59.08875,5.480001,-0.704,63.544003,inter_set_rest,7,5.0,17290.0,403431.0,220765.0,72557.0,5327.0
2026-04-09 22:37:30.141392,533573,3180048830,3180050579,-0.79056,0.208864,-0.074176,284.89127,-130.7775,74.64625,3.136,-5.28,63.688004,inter_set_rest,7,5.0,17290.0,403431.0,220765.0,72557.0,5327.0
2026-04-09 22:37:30.147695,533574,3180057778,3180059299,-0.79056,0.208864,-0.074176,284.9,-120.5925,86.26625,3.136,-5.28,63.688004,inter_set_rest,7,5.0,17290.0,403431.0,220765.0,72557.0,5327.0
2026-04-09 22:37:30.178454,533575,3180072320,3180074216,-0.630496,0.357216,-0.031232,284.9,-107.47625,93.625,2.6,-9.576,62.864002,inter_set_rest,7,5.0,17290.0,403431.0,220765.0,72557.0,5327.0
2026-04-09 22:37:30.181673,533576,3180081193,3180082911,-0.630496,0.357216,-0.031232,284.9,-93.17875,96.25,2.6,-9.576,62.864002,inter_set_rest,7,5.0,17290.0,403431.0,220765.0,72557.0,5327.0
2026-04-09 22:37:30.184153,533577,3180090157,3180091616,-0.568032,0.472384,0.00976,284.9,-76.93875,95.7425,2.28,-14.144001,62.216003,inter_set_rest,7,5.0,17290.0,403431.0,220765.0,72557.0,5327.0
2026-04-09 22:37:30.215308,533578,3180104690,3180106589,-0.568032,0.472384,0.00976,284.9,-60.760002,92.3125,2.28,-14.144001,62.216003,inter_set_rest,7,5.0,17290.0,403431.0,220765.0,72557.0,5327.0
2026-04-09 22:37:30.240360,533588,3180113604,3180115332,-0.569984,0.548512,0.037088,281.17252,-45.07125,85.46125,1.712,-16.944,61.304005,inter_set_rest,7,5.0,18649.0,403431.0,204582.0,60655.0,2486.0
2026-04-09 22:37:30.242629,533589,3180122991,3180124138,-0.569984,0.548512,0.037088,242.5325,-31.185,75.355,1.712,-16.944,61.304005,inter_set_rest,7,5.0,18649.0,403431.0,204582.0,60655.0,2486.0
2026-04-09 22:37:30.245254,533590,3180131912,3180132827,-0.597312,0.562176,0.040992,180.99374,-19.38125,63.9625,1.032,-18.536001,61.480003,inter_set_rest,7,5.0,18649.0,403431.0,204582.0,60655.0,2486.0
2026-04-09 22:37:30.247679,533591,3180146468,3180147791,-0.597312,0.562176,0.040992,115.7975,-10.85875,53.76875,1.032,-18.536001,61.480003,inter_set_rest,7,5.0,18649.0,403431.0,204582.0,60655.0,2486.0
2026-04-09 22:37:30.250108,533592,3180155384,3180156499,-0.610976,0.505568,0.025376,52.1325,-4.8825,44.1525,0.688,-18.864,64.136,inter_set_rest,7,5.0,18649.0,403431.0,204582.0,60655.0,2486.0
2026-04-09 22:37:30.253968,533593,3180164288,3180165201,-0.610976,0.505568,0.025376,-3.91125,-0.2275,36.2775,0.688,-18.864,64.136,inter_set_rest,7,5.0,18649.0,403431.0,204582.0,60655.0,2486.0
2026-04-09 22:37:30.287884,533594,3180178737,3180180144,-0.651968,0.433344,-0.01952,-48.335,3.40375,26.635,0.864,-17.824001,63.008003,inter_set_rest,7,5.0,18649.0,403431.0,204582.0,60655.0,2486.0
2026-04-09 22:37:30.291461,533595,3180187650,3180188825,-0.651968,0.433344,-0.01952,-78.65375,6.86,12.9675,0.864,-17.824001,63.008003,inter_set_rest,7,5.0,18649.0,403431.0,204582.0,60655.0,2486.0
2026-04-09 22:37:30.293926,533596,3180196546,3180197540,-0.694912,0.398208,-0.0488,-94.94625,9.59875,-4.655,1.032,-16.648,62.968002,inter_set_rest,7,5.0,18649.0,403431.0,204582.0,60655.0,2486.0
2026-04-09 22:37:30.326690,533597,3180211108,3180212454,-0.745664,0.431392,-0.044896,-99.47875,11.92625,-24.955,0.312,-15.288001,62.784004,inter_set_rest,7,5.0,18649.0,403431.0,204582.0,60655.0,2486.0
2026-04-09 22:37:30.385158,533607,3180220209,3180221330,-0.745664,0.431392,-0.044896,-99.7675,14.971251,-44.94,0.312,-15.288001,62.784004,inter_set_rest,7,5.0,18066.0,403431.0,210875.0,65662.0,3541.0
2026-04-09 22:37:30.387658,533608,3180229106,3180230090,-0.827648,0.425536,0.0,-96.32,17.68375,-62.30875,0.312,-14.56,63.232002,inter_set_rest,7,5.0,18066.0,403431.0,210875.0,65662.0,3541.0
2026-04-09 22:37:30.390151,533609,3180238015,3180238794,-0.827648,0.425536,0.0,-81.445,21.3675,-73.683754,1.592,-14.56,63.232002,inter_set_rest,7,5.0,18066.0,403431.0,210875.0,65662.0,3541.0
2026-04-09 22:37:30.392619,533610,3180252555,3180253756,-0.866688,0.447008,0.035136,-51.79125,26.8275,-76.8425,1.112,-14.536,64.008,inter_set_rest,7,5.0,18066.0,403431.0,210875.0,65662.0,3541.0
2026-04-09 22:37:30.395176,533611,3180261441,3180262532,-0.866688,0.447008,0.035136,-10.5175,33.53875,-75.871254,1.112,-14.536,64.008,inter_set_rest,7,5.0,18066.0,403431.0,210875.0,65662.0,3541.0
2026-04-09 22:37:30.397633,533612,3180270380,3180271245,-0.851072,0.57584,0.00976,34.0025,38.68375,-74.558754,2.864,-15.016001,62.728004,inter_set_rest,7,5.0,18066.0,403431.0,210875.0,65662.0,3541.0
2026-04-09 22:37:30.400141,533613,3180284807,3180286232,-0.851072,0.57584,0.00976,76.55375,44.765,-73.47375,2.864,-15.016001,62.728004,inter_set_rest,7,5.0,18066.0,403431.0,210875.0,65662.0,3541.0
2026-04-09 22:37:30.402600,533614,3180293728,3180294957,-0.903776,0.79056,-0.035136,109.926254,50.26875,-70.88375,2.664,-16.560001,62.864002,inter_set_rest,7,5.0,18066.0,403431.0,210875.0,65662.0,3541.0
2026-04-09 22:37:30.405132,533615,3180302683,3180303725,-0.903776,0.79056,-0.035136,126.44625,54.7925,-65.1175,2.664,-16.560001,62.864002,inter_set_rest,7,5.0,18066.0,403431.0,210875.0,65662.0,3541.0
2026-04-09 22:37:30.437750,533626,3180317399,3180318780,-0.91744,0.968192,-0.060512,122.78,58.975,-55.88625,4.032,-17.136002,62.528004,inter_set_rest,7,5.0,17914.0,403431.0,213910.0,68178.0,4155.0
2026-04-09 22:37:30.440127,533627,3180326484,3180327496,-0.91744,0.968192,-0.060512,101.8325,61.7225,-45.36875,4.032,-17.136002,62.528004,inter_set_rest,7,5.0,17914.0,403431.0,213910.0,68178.0,4155.0
2026-04-09 22:37:30.442644,533628,3180335574,3180336237,-0.860832,1.048224,-0.027328,67.92625,62.947502,-37.91375,4.44,-17.6,62.4,inter_set_rest,7,5.0,17914.0,403431.0,213910.0,68178.0,4155.0
2026-04-09 22:37:30.445186,533629,3180344994,3180347067,-0.860832,1.048224,-0.027328,30.38875,62.30875,-34.81625,4.44,-17.6,62.4,inter_set_rest,7,5.0,17914.0,403431.0,213910.0,68178.0,4155.0
2026-04-09 22:37:30.448915,533630,3180359574,3180359915,-0.806176,0.942816,-0.005856,-2.8875,60.76875,-33.08375,5.264,-17.36,63.056004,inter_set_rest,7,5.0,17914.0,403431.0,213910.0,68178.0,4155.0
2026-04-09 22:37:30.481649,533631,3180368823,3180370731,-0.806176,0.942816,-0.052704,-25.147501,59.43,-29.960001,5.264,-17.36,63.056004,inter_set_rest,7,5.0,17914.0,403431.0,213910.0,68178.0,4155.0
2026-04-09 22:37:30.485159,533632,3180377848,3180379443,-0.749568,0.841312,-0.054656,-33.48625,58.17875,-25.2,7.76,-16.856,61.24,inter_set_rest,7,5.0,17914.0,403431.0,213910.0,68178.0,4155.0
2026-04-09 22:37:30.487610,533633,3180392348,3180394356,-0.706624,0.772992,0.0,-28.35875,57.40875,-20.93875,7.096,-17.352001,60.408005,inter_set_rest,7,5.0,17914.0,403431.0,213910.0,68178.0,4155.0
2026-04-09 22:37:30.492651,533634,3180401354,3180403068,-0.706624,0.772992,0.0,-7.945,54.635002,-17.59625,7.096,-17.352001,60.408005,inter_set_rest,7,5.0,17914.0,403431.0,213910.0,68178.0,4155.0
2026-04-09 22:37:30.522969,533635,3180410264,3180411758,-0.720288,1.013088,0.199104,25.9,49.6125,-12.55625,7.144001,-17.664001,61.432003,inter_set_rest,7,5.0,17914.0,403431.0,213910.0,68178.0,4155.0
2026-04-09 22:37:30.556441,533645,3180419466,3180420562,-0.720288,1.013088,0.199104,65.1175,44.40625,-4.235,7.144001,-17.664001,61.432003,inter_set_rest,7,5.0,18744.0,403431.0,205431.0,61707.0,2858.0
2026-04-09 22:37:30.558986,533646,3180433960,3180435462,-0.720288,1.325408,0.626592,94.885,35.8925,4.655,8.088,-19.672,59.848003,inter_set_rest,7,5.0,18744.0,403431.0,205431.0,61707.0,2858.0
2026-04-09 22:37:30.567825,533647,3180442913,3180444178,-0.720288,1.325408,0.626592,133.0175,14.11375,11.47125,8.088,-19.672,59.848003,inter_set_rest,7,5.0,18744.0,403431.0,205431.0,61707.0,2858.0
2026-04-09 22:37:30.570221,533648,3180451863,3180452968,-0.841312,1.350784,0.714432,189.245,-12.792501,17.36875,7.68,-21.624,59.360004,inter_set_rest,7,5.0,18744.0,403431.0,205431.0,61707.0,2858.0
2026-04-09 22:37:30.572744,533649,3180466342,3180467913,-0.841312,1.350784,0.714432,191.99251,-23.415,17.9375,7.68,-21.624,59.360004,inter_set_rest,7,5.0,18744.0,403431.0,205431.0,61707.0,2858.0
2026-04-09 22:37:30.575144,533650,3180475289,3180476697,-1.104832,1.491328,0.1464,151.75125,-23.16125,22.07625,7.336,-22.072,58.784004,inter_set_rest,7,5.0,18744.0,403431.0,205431.0,61707.0,2858.0
2026-04-09 22:37:30.581454,533651,3180484244,3180485400,-1.104832,1.491328,0.1464,103.62625,-31.5175,35.06125,7.336,-22.072,58.784004,inter_set_rest,7,5.0,18744.0,403431.0,205431.0,61707.0,2858.0
2026-04-09 22:37:30.611743,533652,3180498767,3180500305,-0.599264,1.360544,-0.179584,47.06625,-38.9025,54.04,5.968,-22.936,60.768,inter_set_rest,7,5.0,18744.0,403431.0,205431.0,61707.0,2858.0
2026-04-09 22:37:30.615195,533653,3180507700,3180509007,-0.599264,1.360544,-0.179584,-11.13875,-35.41125,66.94625,5.968,-22.936,60.768,inter_set_rest,7,5.0,18744.0,403431.0,205431.0,61707.0,2858.0
2026-04-09 22:37:30.673951,533663,3180517246,3180517718,-0.806176,1.241472,-0.122976,-55.48375,-24.92,71.68,6.08,-21.824001,59.944004,inter_set_rest,7,5.0,17976.0,403431.0,214622.0,69215.0,4742.0
2026-04-09 22:37:30.676861,533664,3180526604,3180528517,-0.806176,1.241472,-0.122976,-81.235,-4.75125,74.9,6.08,-21.824001,59.944004,inter_set_rest,7,5.0,17976.0,403431.0,214622.0,69215.0,4742.0
2026-04-09 22:37:30.678983,533665,3180541161,3180543432,-0.964288,1.098976,-0.066368,-96.3025,2.72125,81.43625,4.608,-21.024,62.168003,inter_set_rest,7,5.0,17976.0,403431.0,214622.0,69215.0,4742.0
2026-04-09 22:37:30.681434,533666,3180550121,3180552148,-0.747616,0.843264,-0.021472,-103.3375,7.53375,88.13,4.608,-21.024,63.816,inter_set_rest,7,5.0,17976.0,403431.0,214622.0,69215.0,4742.0
2026-04-09 22:37:30.683936,533667,3180559059,3180560854,-0.747616,0.843264,-0.021472,-94.82375,11.22625,99.4,4.264,-19.904001,63.816,inter_set_rest,7,5.0,17976.0,403431.0,214622.0,69215.0,4742.0
2026-04-09 22:37:30.686357,533668,3180573641,3180575726,-0.718336,1.071648,-0.042944,-88.59375,11.15625,107.8175,4.632,-19.168001,62.248,inter_set_rest,7,5.0,17976.0,403431.0,214622.0,69215.0,4742.0
2026-04-09 22:37:30.688905,533669,3180582584,3180584445,-0.718336,1.071648,-0.042944,-83.79,12.83625,116.051254,4.632,-19.168001,62.248,inter_set_rest,7,5.0,17976.0,403431.0,214622.0,69215.0,4742.0
2026-04-09 22:37:30.691423,533670,3180591589,3180593203,-0.675392,0.972096,-0.023424,-90.23,12.0225,120.30375,4.008,-18.04,63.160004,inter_set_rest,7,5.0,17976.0,403431.0,214622.0,69215.0,4742.0
2026-04-09 22:37:30.693910,533671,3180600634,3180601941,-0.675392,0.972096,-0.023424,-100.0825,14.07875,130.2525,4.008,-18.04,63.160004,inter_set_rest,7,5.0,17976.0,403431.0,214622.0,69215.0,4742.0
2026-04-09 22:37:30.754264,533682,3180615162,3180617168,-0.65392,0.856928,-0.025376,-86.9225,17.10625,150.5175,3.88,-17.744001,63.464005,inter_set_rest,7,5.0,17739.0,403431.0,219522.0,73067.0,5968.0
2026-04-09 22:37:30.760219,533683,3180624097,3180625859,-0.65392,0.856928,-0.025376,-63.35875,17.22,160.79875,3.88,-17.744001,63.464005,inter_set_rest,7,5.0,17739.0,403431.0,219522.0,73067.0,5968.0
2026-04-09 22:37:30.762650,533684,3180633062,3180634567,-0.681248,1.116544,-0.017568,-54.005,15.1375,162.35625,4.296,-17.064001,63.424004,inter_set_rest,7,5.0,17739.0,403431.0,219522.0,73067.0,5968.0
2026-04-09 22:37:30.765147,533685,3180647576,3180649528,-0.681248,1.116544,-0.017568,-54.71375,11.34,171.185,4.296,-17.064001,63.424004,inter_set_rest,7,5.0,17739.0,403431.0,219522.0,73067.0,5968.0
2026-04-09 22:37:30.767685,533686,3180656682,3180658243,-0.65392,1.13216,-0.027328,-79.905,5.9675,178.4475,3.456,-16.032001,64.04,inter_set_rest,7,5.0,17739.0,403431.0,219522.0,73067.0,5968.0
2026-04-09 22:37:30.770182,533687,3180665831,3180666994,-0.65392,1.13216,-0.027328,-108.22,3.91125,185.9725,3.456,-16.032001,64.04,inter_set_rest,7,5.0,17739.0,403431.0,219522.0,73067.0,5968.0
2026-04-09 22:37:30.772693,533688,3180674783,3180675701,-0.675392,0.88816,-0.054656,-119.9625,1.505,193.52376,2.312,-14.848001,66.624,inter_set_rest,7,5.0,17739.0,403431.0,219522.0,73067.0,5968.0
2026-04-09 22:37:30.802869,533689,3180689332,3180690635,-0.675392,0.88816,-0.054656,-119.27125,-2.49375,193.15625,2.312,-14.848001,66.624,inter_set_rest,7,5.0,17739.0,403431.0,219522.0,73067.0,5968.0
2026-04-09 22:37:30.806415,533690,3180698286,3180699410,-0.657824,0.835456,-0.08784,-103.31125,-2.5725,194.145,3.184,-14.136001,65.07201,inter_set_rest,7,5.0,17739.0,403431.0,219522.0,73067.0,5968.0
2026-04-09 22:37:30.808909,533691,3180707205,3180708092,-0.657824,0.835456,-0.08784,-80.12375,-2.6775,196.3325,3.184,-14.136001,65.07201,inter_set_rest,7,5.0,17739.0,403431.0,219522.0,73067.0,5968.0
2026-04-09 22:37:30.841500,533701,3180721894,3180723081,-0.650016,0.915488,0.007808,-57.995,-2.30125,198.4325,2.904,-13.728001,65.408005,inter_set_rest,7,5.0,17948.0,403431.0,217314.0,71359.0,5447.0
2026-04-09 22:37:30.843839,533702,3180730844,3180731871,-0.665632,0.98576,0.040992,-43.68875,-3.50875,196.665,2.904,-13.728001,65.792,inter_set_rest,7,5.0,17948.0,403431.0,217314.0,71359.0,5447.0
2026-04-09 22:37:30.846412,533703,3180739778,3180740657,-0.657824,0.98576,0.040992,-35.28875,-5.85375,192.35126,1.016,-13.64,65.792,inter_set_rest,7,5.0,17948.0,403431.0,217314.0,71359.0,5447.0
2026-04-09 22:37:30.848934,533704,3180749303,3180751565,-0.657824,0.98576,0.040992,-33.55625,-8.95125,185.3425,1.016,-13.64,65.792,inter_set_rest,7,5.0,17948.0,403431.0,217314.0,71359.0,5447.0
2026-04-09 22:37:30.854009,533705,3180763781,3180764403,-0.655872,1.018944,-0.035136,-34.08125,-13.18625,177.345,1.632,-13.304001,66.656006,inter_set_rest,7,5.0,17948.0,403431.0,217314.0,71359.0,5447.0
2026-04-09 22:37:30.888886,533706,3180773158,3180775176,-0.681248,1.036512,-0.109312,-29.93375,-17.14125,169.96,1.072,-13.096001,66.536,inter_set_rest,7,5.0,17948.0,403431.0,217314.0,71359.0,5447.0
2026-04-09 22:37:30.889284,533707,3180782114,3180783873,-0.681248,1.036512,-0.109312,-22.741251,-20.4925,162.1725,1.072,-13.096001,66.536,inter_set_rest,7,5.0,17948.0,403431.0,217314.0,71359.0,5447.0
2026-04-09 22:37:30.890140,533708,3180796656,3180798830,-0.718336,1.05408,-0.152256,-15.54875,-20.95625,152.61751,1.016,-13.208,65.648,inter_set_rest,7,5.0,17948.0,403431.0,217314.0,71359.0,5447.0
2026-04-09 22:37:30.896415,533709,3180805595,3180807563,-0.718336,1.05408,-0.152256,-10.66625,-21.69125,143.1325,1.016,-13.208,65.648,inter_set_rest,7,5.0,17948.0,403431.0,217314.0,71359.0,5447.0
2026-04-09 22:37:30.926566,533710,3180814523,3180816299,-0.70272,1.100928,-0.154208,-9.415,-22.60125,136.92,0.992,-13.920001,67.248,inter_set_rest,7,5.0,17948.0,403431.0,217314.0,71359.0,5447.0
2026-04-09 22:37:30.985150,533720,3180829112,3180831240,-0.70272,1.100928,-0.154208,-9.24,-24.00125,133.245,0.992,-13.920001,67.248,inter_set_rest,7,5.0,18043.0,403431.0,215746.0,70225.0,5054.0
2026-04-09 22:37:30.987693,533721,3180838078,3180839981,-0.638304,0.989664,-0.10736,-9.695,-24.5875,128.7825,0.376,-13.768001,66.632,inter_set_rest,7,5.0,18043.0,403431.0,215746.0,70225.0,5054.0
2026-04-09 22:37:30.990176,533722,3180847108,3180848773,-0.638304,0.989664,-0.10736,-9.625,-23.77375,121.4675,0.376,-13.768001,66.632,inter_set_rest,7,5.0,18043.0,403431.0,215746.0,70225.0,5054.0
2026-04-09 22:37:30.992643,533723,3180856086,3180857479,-0.558272,0.843264,-0.056608,-8.417501,-21.5425,116.5675,-1.296,-13.616,67.240005,inter_set_rest,7,5.0,18043.0,403431.0,215746.0,70225.0,5054.0
2026-04-09 22:37:30.995138,533724,3180870589,3180872369,-0.558272,0.843264,-0.056608,-3.29875,-19.5475,113.715004,-1.296,-13.616,67.240005,inter_set_rest,7,5.0,18043.0,403431.0,215746.0,70225.0,5054.0
2026-04-09 22:37:30.997676,533725,3180879528,3180881130,-0.464576,0.726144,-0.017568,4.96125,-16.24,111.3,-0.68,-13.664001,67.54401,inter_set_rest,7,5.0,18043.0,403431.0,215746.0,70225.0,5054.0
2026-04-09 22:37:31.000193,533726,3180888456,3180889844,-0.464576,0.726144,-0.017568,10.64875,-11.38375,109.17375,-0.68,-13.664001,67.54401,inter_set_rest,7,5.0,18043.0,403431.0,215746.0,70225.0,5054.0
2026-04-09 22:37:31.002666,533727,3180903062,3180904831,-0.366976,0.677344,-0.037088,13.9825,-5.145,107.65125,-1.872,-13.824,67.096,inter_set_rest,7,5.0,18043.0,403431.0,215746.0,70225.0,5054.0
2026-04-09 22:37:31.005169,533728,3180912103,3180913541,-0.31232,0.685152,-0.0488,11.4625,1.645,105.6825,-2.352,-14.232,65.944,inter_set_rest,7,5.0,18043.0,403431.0,215746.0,70225.0,5054.0
2026-04-09 22:37:31.037654,533739,3180921604,3180922318,-0.31232,0.685152,-0.0488,4.19125,8.9075,102.305,-2.352,-14.232,65.944,inter_set_rest,7,5.0,18441.0,403431.0,211072.0,67074.0,4246.0
2026-04-09 22:37:31.040192,533740,3180930977,3180933255,-0.31232,0.685152,-0.0488,-9.02125,15.91625,98.72625,-2.352,-14.232,65.944,inter_set_rest,7,5.0,18441.0,403431.0,211072.0,67074.0,4246.0
2026-04-09 22:37:31.042650,533741,3180945626,3180946148,-0.286944,0.714432,-0.056608,-28.88375,22.61875,94.246254,-1.304,-13.568001,68.088005,inter_set_rest,7,5.0,18441.0,403431.0,211072.0,67074.0,4246.0
2026-04-09 22:37:31.047679,533742,3180955096,3180956945,-0.267424,0.675392,-0.054656,-52.85875,29.61,89.285,-1.408,-12.984,68.048004,inter_set_rest,7,5.0,18441.0,403431.0,211072.0,67074.0,4246.0
2026-04-09 22:37:31.053909,533743,3180964044,3180965672,-0.267424,0.675392,-0.054656,-74.9,34.79,84.035,-1.408,-12.984,68.048004,inter_set_rest,7,5.0,18441.0,403431.0,211072.0,67074.0,4246.0
2026-04-09 22:37:31.084076,533744,3180978530,3180980590,-0.251808,0.51728,-0.040992,-89.652504,38.465,78.26,0.104,-11.648001,66.776,inter_set_rest,7,5.0,18441.0,403431.0,211072.0,67074.0,4246.0
2026-04-09 22:37:31.087651,533745,3180987436,3180989287,-0.251808,0.51728,-0.040992,-99.435,41.23875,70.63875,0.104,-11.648001,66.776,inter_set_rest,7,5.0,18441.0,403431.0,211072.0,67074.0,4246.0
2026-04-09 22:37:31.090162,533746,3180996366,3180997974,-0.228384,0.378688,-0.015616,-104.8425,44.415,60.52375,0.664,-9.928,66.872,inter_set_rest,7,5.0,18441.0,403431.0,211072.0,67074.0,4246.0
2026-04-09 22:37:31.095171,533747,3181005288,3181006702,-0.228384,0.378688,-0.015616,-100.765,45.6225,50.63625,0.664,-9.928,66.872,inter_set_rest,7,5.0,18441.0,403431.0,211072.0,67074.0,4246.0
2026-04-09 22:37:31.159001,533757,3181020232,3181021675,-0.247904,0.454816,0.095648,-77.25375,44.66,43.82,-0.704,-9.792001,68.656006,inter_set_rest,7,5.0,18326.0,403431.0,212136.0,67990.0,4449.0
2026-04-09 22:37:31.159284,533758,3181029259,3181030412,-0.247904,0.454816,0.095648,-35.86625,42.525,40.075,-0.704,-9.792001,68.656006,inter_set_rest,7,5.0,18326.0,403431.0,212136.0,67990.0,4449.0
2026-04-09 22:37:31.161510,533759,3181038146,3181039123,-0.271328,0.610976,0.122976,7.79625,40.15375,37.170002,1.392,-10.752001,65.984,inter_set_rest,7,5.0,18326.0,403431.0,212136.0,67990.0,4449.0
2026-04-09 22:37:31.164051,533760,3181052710,3181054067,-0.1952,0.650016,0.101504,41.02,36.05,32.55875,1.576,-10.712001,64.512,inter_set_rest,7,5.0,18326.0,403431.0,212136.0,67990.0,4449.0
2026-04-09 22:37:31.166351,533761,3181061634,3181062771,-0.1952,0.650016,0.101504,55.1775,31.255001,26.22375,1.576,-10.712001,64.512,inter_set_rest,7,5.0,18326.0,403431.0,212136.0,67990.0,4449.0
2026-04-09 22:37:31.168971,533762,3181070523,3181071466,-0.1952,0.650016,0.101504,57.041252,28.39375,19.04875,1.576,-10.712001,64.512,inter_set_rest,7,5.0,18326.0,403431.0,212136.0,67990.0,4449.0
2026-04-09 22:37:31.199381,533763,3181085058,3181086468,-0.154208,0.794464,0.064416,62.08125,25.69,15.26,1.624,-12.552001,66.896,inter_set_rest,7,5.0,18326.0,403431.0,212136.0,67990.0,4449.0
2026-04-09 22:37:31.202914,533764,3181093970,3181095194,-0.1952,1.038464,0.122976,71.9075,20.7025,12.4075,1.656,-13.056001,66.256004,inter_set_rest,7,5.0,18326.0,403431.0,212136.0,67990.0,4449.0
2026-04-09 22:37:31.205346,533765,3181102893,3181103946,-0.1952,1.038464,0.122976,81.1825,13.7725,9.6075,1.656,-13.056001,66.256004,inter_set_rest,7,5.0,18326.0,403431.0,212136.0,67990.0,4449.0
2026-04-09 22:37:31.210384,533766,3181111831,3181112652,-0.1952,1.038464,0.066368,94.21125,6.09,9.21375,1.656,-13.056001,66.256004,inter_set_rest,7,5.0,18326.0,403431.0,212136.0,67990.0,4449.0
2026-04-09 22:37:31.276609,533776,3181126418,3181127576,-0.173728,1.313696,0.066368,121.5025,-2.28375,13.9475,1.664,-15.080001,65.416,inter_set_rest,7,5.0,17831.0,403431.0,218991.0,72998.0,5868.0
2026-04-09 22:37:31.279148,533777,3181135379,3181136324,-0.060512,1.530368,-0.037088,163.8525,-9.02125,24.94625,0.448,-17.672,66.704,inter_set_rest,7,5.0,17831.0,403431.0,218991.0,72998.0,5868.0
2026-04-09 22:37:31.281644,533778,3181144413,3181145182,-0.060512,1.530368,-0.037088,211.81125,-14.455,37.84375,0.448,-17.672,66.704,inter_set_rest,7,5.0,17831.0,403431.0,218991.0,72998.0,5868.0
2026-04-09 22:37:31.283993,533779,3181159355,3181160224,0.267424,1.55184,0.212768,231.1925,-18.366251,42.5775,0.76,-20.632002,64.824005,inter_set_rest,7,5.0,17831.0,403431.0,218991.0,72998.0,5868.0
2026-04-09 22:37:31.286534,533780,3181168269,3181168945,0.267424,1.55184,0.212768,216.8075,-20.65875,43.1725,0.76,-20.632002,64.824005,inter_set_rest,7,5.0,17831.0,403431.0,218991.0,72998.0,5868.0
2026-04-09 22:37:31.289085,533781,3181177545,3181179711,0.589504,1.383968,0.281088,178.7975,-19.94125,49.18375,0.448,-22.504002,63.552002,inter_set_rest,7,5.0,17831.0,403431.0,218991.0,72998.0,5868.0
2026-04-09 22:37:31.291609,533782,3181186511,3181188440,0.589504,1.383968,0.281088,125.51875,-19.17125,52.42125,0.448,-22.504002,63.552002,inter_set_rest,7,5.0,17831.0,403431.0,218991.0,72998.0,5868.0
2026-04-09 22:37:31.294104,533783,3181201122,3181203441,0.755424,0.93696,0.26352,67.59375,-15.30375,47.04875,-1.024,-21.936,64.75201,inter_set_rest,7,5.0,17831.0,403431.0,218991.0,72998.0,5868.0
2026-04-09 22:37:31.324340,533784,3181210101,3181212160,0.755424,0.93696,0.26352,17.115,-6.13375,35.58625,-1.024,-21.936,64.75201,inter_set_rest,7,5.0,17831.0,403431.0,218991.0,72998.0,5868.0
2026-04-09 22:37:31.356627,533795,3181219019,3181220807,0.894016,0.657824,0.21472,-10.77125,8.25125,23.555,-0.216,-22.216002,63.856003,inter_set_rest,7,5.0,17721.0,403431.0,220553.0,74547.0,6390.0
2026-04-09 22:37:31.359187,533796,3181233719,3181235825,0.792512,0.474336,0.339648,-6.1075,28.875,15.75875,0.696,-22.528002,63.928,inter_set_rest,7,5.0,17721.0,403431.0,220553.0,74547.0,6390.0
