pc_time,serial_num,sensor_ts,host_ts,ax,ay,az,gx,gy,gz,mx,my,mz,phase,rpe,weight_kg,ppg_a,ppg_b,ppg_c,ppg_d,ppg_e
2026-04-07 17:49:21.837285,226096,1232209327,1232210460,-0.964288,-0.25376,-0.052704,-0.83125,3.5175,0.4375,32.280003,16.392,35.832,eccentric,4,3.0,21116.0,307561.0,277472.0,326739.0,287563.0
2026-04-07 17:49:21.839651,226097,1232218237,1232219175,-0.964288,-0.25376,-0.052704,-5.87125,4.06875,1.5925,32.280003,16.392,35.832,eccentric,4,3.0,21116.0,307561.0,277472.0,326739.0,287563.0
2026-04-07 17:49:21.881692,226107,1232232776,1232234127,-0.977952,-0.236192,-0.052704,-4.19125,3.98125,1.3475,32.424,16.800001,32.744003,eccentric,4,3.0,20994.0,306720.0,276862.0,326090.0,286891.0
2026-04-07 17:49:21.883494,226108,1232241721,1232242853,-0.977952,-0.236192,-0.052704,-0.41125,4.235,1.1725,32.424,16.800001,32.744003,eccentric,4,3.0,20994.0,306720.0,276862.0,326090.0,286891.0
2026-04-07 17:49:21.885005,226109,1232250660,1232251607,-0.938912,-0.152256,-0.054656,5.9675,4.71625,1.35625,32.888,16.240002,32.776,eccentric,4,3.0,20994.0,306720.0,276862.0,326090.0,286891.0
2026-04-07 17:49:21.889180,226110,1232265142,1232266517,-0.938912,-0.152256,-0.054656,10.64875,6.335,0.0,32.888,16.240002,32.776,eccentric,4,3.0,20994.0,306720.0,276862.0,326090.0,286891.0
2026-04-07 17:49:21.890910,226111,1232274070,1232275251,-1.00528,-0.199104,-0.085888,10.465,5.74,-2.2575,33.376003,16.832,34.136,eccentric,4,3.0,20994.0,306720.0,276862.0,326090.0,286891.0
2026-04-07 17:49:21.893405,226112,1232283039,1232283988,-1.00528,-0.199104,-0.085888,6.51875,4.095,-0.79625,33.376003,16.832,34.136,eccentric,4,3.0,20994.0,306720.0,276862.0,326090.0,286891.0
2026-04-07 17:49:21.894936,226113,1232292072,1232292715,-0.90768,-0.257664,-0.046848,3.5,1.925,0.32375,32.792,16.640001,34.088,eccentric,4,3.0,20994.0,306720.0,276862.0,326090.0,286891.0
2026-04-07 17:49:21.925968,226114,1232306912,1232307615,-0.90768,-0.257664,-0.046848,3.0275,1.3825,-0.04375,32.792,16.640001,34.088,eccentric,4,3.0,20994.0,306720.0,276862.0,326090.0,286891.0
2026-04-07 17:49:21.930489,226115,1232316224,1232318408,-0.968192,-0.191296,-0.001952,7.02625,2.275,0.035,32.800003,16.552,32.256,eccentric,4,3.0,20994.0,306720.0,276862.0,326090.0,286891.0
2026-04-07 17:49:21.967971,226126,1232325123,1232327173,-0.968192,-0.191296,-0.001952,11.585,4.3925,0.55125,32.800003,16.552,32.256,eccentric,4,3.0,20923.0,305872.0,276096.0,325189.0,286134.0
2026-04-07 17:49:21.969612,226127,1232334504,1232335910,-0.94672,-0.150304,-0.062464,11.1475,6.53625,0.76125,33.272003,16.504002,32.608,eccentric,4,3.0,20923.0,305872.0,276096.0,325189.0,286134.0
2026-04-07 17:49:21.971245,226128,1232349082,1232350877,-0.929152,-0.162016,-0.13664,5.73125,8.1375,-0.21875,32.584003,16.136002,34.432003,eccentric,4,3.0,20923.0,305872.0,276096.0,325189.0,286134.0
2026-04-07 17:49:21.975426,226129,1232358082,1232359597,-0.929152,-0.162016,-0.13664,1.19,10.6925,-0.83125,32.584003,16.136002,34.432003,eccentric,4,3.0,20923.0,305872.0,276096.0,325189.0,286134.0
2026-04-07 17:49:21.976965,226130,1232367085,1232368302,-0.929152,-0.162016,-0.13664,-0.6825,14.595,-1.21625,32.584003,16.136002,34.432003,eccentric,4,3.0,20923.0,305872.0,276096.0,325189.0,286134.0
2026-04-07 17:49:22.007276,226131,1232381613,1232383205,-1.016992,-0.171776,-0.083936,-1.7675,16.54625,-0.32375,33.176003,16.496,31.680002,eccentric,4,3.0,20923.0,305872.0,276096.0,325189.0,286134.0
2026-04-07 17:49:22.009522,226132,1232390561,1232391926,-1.0736,-0.167872,0.0,-1.085,16.21375,1.3125,33.488003,16.608002,32.688,eccentric,4,3.0,20923.0,305872.0,276096.0,325189.0,286134.0
2026-04-07 17:49:22.014145,226133,1232399472,1232400626,-1.0736,-0.167872,0.0,1.2075,15.16375,3.8675,33.488003,16.608002,32.688,eccentric,4,3.0,20923.0,305872.0,276096.0,325189.0,286134.0
2026-04-07 17:49:22.018165,226134,1232413978,1232415575,-1.067744,-0.099552,-0.050752,2.555,13.265,6.11625,34.464,16.056002,33.056,eccentric,4,3.0,20923.0,305872.0,276096.0,325189.0,286134.0
2026-04-07 17:49:22.048581,226135,1232422939,1232424286,-1.067744,-0.099552,-0.050752,5.5475,13.20375,6.5975,34.464,16.056002,33.056,eccentric,4,3.0,20923.0,305872.0,276096.0,325189.0,286134.0
2026-04-07 17:49:22.109568,226145,1232432019,1232433050,-1.018944,-0.083936,-0.091744,7.5075,14.49875,6.81625,34.448,16.560001,32.912003,eccentric,4,3.0,21108.0,307801.0,277770.0,327248.0,288077.0
2026-04-07 17:49:22.110912,226146,1232440953,1232441773,-1.018944,-0.083936,-0.091744,3.8325,16.02125,6.5975,34.448,16.560001,32.912003,eccentric,4,3.0,21108.0,307801.0,277770.0,327248.0,288077.0
2026-04-07 17:49:22.113116,226147,1232455478,1232456706,-1.040416,-0.171776,-0.050752,-3.675,18.0075,7.48125,34.344,16.240002,32.352,eccentric,4,3.0,21108.0,307801.0,277770.0,327248.0,288077.0
2026-04-07 17:49:22.116661,226148,1232464354,1232465395,-1.040416,-0.171776,-0.050752,-11.22625,19.17125,11.66375,34.344,16.240002,32.352,eccentric,4,3.0,21108.0,307801.0,277770.0,327248.0,288077.0
2026-04-07 17:49:22.118364,226149,1232473303,1232474087,-1.10288,-0.16592,-0.013664,-13.79,18.59375,15.54875,34.776,15.904,32.056,eccentric,4,3.0,21108.0,307801.0,277770.0,327248.0,288077.0
2026-04-07 17:49:22.119902,226150,1232487783,1232489022,-1.10288,-0.16592,-0.013664,-9.66875,18.375,19.53,34.776,15.904,32.056,eccentric,4,3.0,21108.0,307801.0,277770.0,327248.0,288077.0
2026-04-07 17:49:22.124255,226151,1232496718,1232497841,-1.06384,-0.070272,-0.089792,-6.0025,15.9775,21.79625,35.36,16.336,31.696001,eccentric,4,3.0,21108.0,307801.0,277770.0,327248.0,288077.0
2026-04-07 17:49:22.125889,226152,1232505678,1232506610,-1.06384,-0.070272,-0.089792,-3.08,14.3675,21.88375,35.36,16.336,31.696001,eccentric,4,3.0,21108.0,307801.0,277770.0,327248.0,288077.0
2026-04-07 17:49:22.127523,226153,1232520255,1232521528,-1.003328,-0.027328,-0.08784,-0.21875,14.93625,21.60375,34.696003,15.888001,33.168003,eccentric,4,3.0,21108.0,307801.0,277770.0,327248.0,288077.0
2026-04-07 17:49:22.153368,226163,1232529829,1232530658,-0.981856,-0.134688,-0.076128,-3.99875,15.225,20.6325,35.52,15.208001,32.864002,eccentric,4,3.0,21067.0,307216.0,277208.0,326584.0,287445.0
2026-04-07 17:49:22.155048,226164,1232539431,1232541455,-0.981856,-0.134688,-0.076128,-12.8625,14.77,19.45125,35.52,15.208001,32.864002,eccentric,4,3.0,21067.0,307216.0,277208.0,326584.0,287445.0
2026-04-07 17:49:22.159000,226165,1232548390,1232550202,-0.981856,-0.134688,-0.076128,-16.10875,14.533751,21.04375,35.52,15.208001,32.864002,eccentric,4,3.0,21067.0,307216.0,277208.0,326584.0,287445.0
2026-04-07 17:49:22.191082,226166,1232562933,1232565095,-1.013088,-0.16592,-0.0488,-14.44625,14.62125,24.3425,35.568,15.232,33.592003,eccentric,4,3.0,21067.0,307216.0,277208.0,326584.0,287445.0
2026-04-07 17:49:22.195423,226167,1232571868,1232573846,-1.01504,-0.06832,-0.060512,-10.22875,14.6125,27.3525,35.776,14.944,31.256002,eccentric,4,3.0,21067.0,307216.0,277208.0,326584.0,287445.0
2026-04-07 17:49:22.196997,226168,1232580803,1232582543,-1.01504,-0.06832,-0.060512,-4.76875,13.79875,29.33875,35.776,14.944,31.256002,eccentric,4,3.0,21067.0,307216.0,277208.0,326584.0,287445.0
2026-04-07 17:49:22.200758,226169,1232595301,1232597437,-0.962336,-0.037088,-0.093696,-1.33875,14.323751,30.178751,36.920002,15.360001,31.384,eccentric,4,3.0,21067.0,307216.0,277208.0,326584.0,287445.0
2026-04-07 17:49:22.234822,226170,1232604219,1232606122,-0.962336,-0.037088,-0.093696,-4.99625,13.895,28.62125,36.920002,15.360001,31.384,eccentric,4,3.0,21067.0,307216.0,277208.0,326584.0,287445.0
2026-04-07 17:49:22.237051,226171,1232613177,1232614823,-1.00528,-0.070272,-0.099552,-8.32125,12.69625,26.460001,36.672,14.288001,31.320002,eccentric,4,3.0,21067.0,307216.0,277208.0,326584.0,287445.0
2026-04-07 17:49:22.241732,226172,1232622141,1232623548,-1.00528,-0.070272,-0.099552,-8.365,12.04,25.69875,36.672,14.288001,31.320002,eccentric,4,3.0,21067.0,307216.0,277208.0,326584.0,287445.0
2026-04-07 17:49:22.267458,226183,1232636661,1232638494,-0.972096,-0.093696,-0.0976,-9.42375,11.13875,24.98125,37.936,14.376,31.208002,eccentric,4,3.0,21003.0,306373.0,276414.0,325592.0,286456.0
2026-04-07 17:49:22.270852,226184,1232645684,1232647242,-0.972096,-0.093696,-0.0976,-8.61,11.2,24.99875,37.936,14.376,31.208002,eccentric,4,3.0,21003.0,306373.0,276414.0,325592.0,286456.0
2026-04-07 17:49:22.272876,226185,1232654664,1232655946,-0.976,-0.064416,-0.124928,-6.79875,10.89375,25.0775,38.264,14.360001,30.808,eccentric,4,3.0,21003.0,306373.0,276414.0,325592.0,286456.0
2026-04-07 17:49:22.276591,226186,1232669162,1232670921,-0.976,-0.064416,-0.138592,-7.945,9.91375,24.85,38.264,14.360001,30.808,eccentric,4,3.0,21003.0,306373.0,276414.0,325592.0,286456.0
2026-04-07 17:49:22.282885,226187,1232678109,1232679637,-1.028704,-0.044896,-0.138592,-8.07625,8.995,24.70125,38.640003,14.296001,32.784,eccentric,4,3.0,21003.0,306373.0,276414.0,325592.0,286456.0
2026-04-07 17:49:22.311489,226188,1232687056,1232688337,-1.028704,-0.044896,-0.138592,-6.0725,7.53375,23.91375,38.640003,14.296001,32.784,eccentric,4,3.0,21003.0,306373.0,276414.0,325592.0,286456.0
2026-04-07 17:49:22.314852,226189,1232701546,1232703248,-1.036512,-0.013664,-0.101504,-4.66375,5.43375,21.866251,38.552002,13.976001,31.880001,eccentric,4,3.0,21003.0,306373.0,276414.0,325592.0,286456.0
2026-04-07 17:49:22.317319,226190,1232710514,1232711955,-1.08336,0.017568,-0.111264,-1.33,5.36375,19.95875,38.768,14.208001,30.784002,eccentric,4,3.0,21003.0,306373.0,276414.0,325592.0,286456.0
2026-04-07 17:49:22.322406,226191,1232719464,1232720729,-1.08336,0.017568,-0.111264,1.155,4.50625,17.07125,38.768,14.208001,30.784002,eccentric,4,3.0,21003.0,306373.0,276414.0,325592.0,286456.0
2026-04-07 17:49:22.408661,226201,1232734006,1232735750,-1.048224,-0.027328,-0.115168,1.79375,3.43875,15.1025,39.024002,13.816001,31.664001,eccentric,4,3.0,20820.0,304633.0,274922.0,323806.0,284912.0
2026-04-07 17:49:22.411146,226202,1232742946,1232744479,-1.048224,-0.027328,-0.115168,2.17,3.0975,13.71125,39.024002,13.816001,31.664001,eccentric,4,3.0,20820.0,304633.0,274922.0,323806.0,284912.0
2026-04-07 17:49:22.413617,226203,1232751885,1232753164,-1.009184,-0.054656,-0.142496,-0.7,3.07125,11.87375,39.896004,14.032001,28.880001,eccentric,4,3.0,20820.0,304633.0,274922.0,323806.0,284912.0
2026-04-07 17:49:22.416181,226204,1232760783,1232761857,-1.009184,-0.054656,-0.142496,-4.795,2.6075,10.14125,39.896004,14.032001,28.880001,eccentric,4,3.0,20820.0,304633.0,274922.0,323806.0,284912.0
2026-04-07 17:49:22.418608,226205,1232775272,1232776836,-1.030656,-0.005856,-0.0976,-3.36,4.69,9.37125,39.544003,13.544001,30.600002,eccentric,4,3.0,20820.0,304633.0,274922.0,323806.0,284912.0
2026-04-07 17:49:22.421179,226206,1232784194,1232785532,-1.030656,-0.005856,-0.0976,0.49,6.85125,8.00625,39.544003,13.544001,30.600002,eccentric,4,3.0,20820.0,304633.0,274922.0,323806.0,284912.0
2026-04-07 17:49:22.423735,226207,1232793157,1232794259,-1.134112,0.035136,-0.132736,1.79375,8.715,5.88875,39.176003,13.160001,32.176003,eccentric,4,3.0,20820.0,304633.0,274922.0,323806.0,284912.0
2026-04-07 17:49:22.426189,226208,1232807704,1232809221,-1.134112,0.035136,-0.132736,4.22625,11.480001,2.70375,39.176003,13.160001,32.176003,eccentric,4,3.0,20820.0,304633.0,274922.0,323806.0,284912.0
2026-04-07 17:49:22.428800,226209,1232816658,1232817919,-1.120448,-0.005856,-0.109312,5.55625,11.92625,1.75,39.480003,12.888001,32.256,eccentric,4,3.0,20820.0,304633.0,274922.0,323806.0,284912.0
2026-04-07 17:49:22.431199,226210,1232825614,1232826669,-1.120448,-0.005856,-0.109312,3.9725,10.98125,-0.88375,39.480003,12.888001,32.256,eccentric,4,3.0,20820.0,304633.0,274922.0,323806.0,284912.0
2026-04-07 17:49:22.456144,226220,1232840216,1232841620,-1.128256,-0.035136,-0.181536,4.375,10.12375,-2.19625,39.728,13.144001,32.016003,eccentric,4,3.0,20859.0,305076.0,275271.0,324230.0,285310.0
2026-04-07 17:49:22.458676,226221,1232849161,1232850345,-1.128256,-0.035136,-0.181536,5.29375,9.44125,-1.54,39.728,13.144001,32.016003,eccentric,4,3.0,20859.0,305076.0,275271.0,324230.0,285310.0
2026-04-07 17:49:22.461168,226222,1232858085,1232859064,-1.09312,-0.011712,-0.148352,5.74875,9.72125,-2.485,40.120003,13.168,32.376003,eccentric,4,3.0,20859.0,305076.0,275271.0,324230.0,285310.0
2026-04-07 17:49:22.489931,226223,1232872630,1232873986,-1.15168,0.05856,-0.109312,10.745,10.54375,-3.26375,40.008003,13.56,30.784002,eccentric,4,3.0,20859.0,305076.0,275271.0,324230.0,285310.0
2026-04-07 17:49:22.492369,226224,1232881565,1232882679,-1.15168,0.05856,-0.109312,15.65375,11.01625,-4.17375,40.008003,13.56,30.784002,eccentric,4,3.0,20859.0,305076.0,275271.0,324230.0,285310.0
2026-04-07 17:49:22.494841,226225,1232890618,1232891378,-1.16144,0.027328,-0.089792,17.5875,10.78875,-4.33125,40.008003,13.56,30.624,eccentric,4,3.0,20859.0,305076.0,275271.0,324230.0,285310.0
2026-04-07 17:49:22.525163,226226,1232900046,1232902181,-1.16144,0.027328,-0.089792,16.59,10.29,-2.8175,40.768,12.808001,30.624,eccentric,4,3.0,20859.0,305076.0,275271.0,324230.0,285310.0
2026-04-07 17:49:22.528714,226227,1232914541,1232915016,-1.1224,-0.007808,-0.115168,13.48375,8.51375,-2.72125,40.896004,12.976001,30.952002,eccentric,4,3.0,20859.0,305076.0,275271.0,324230.0,285310.0
2026-04-07 17:49:22.531204,226228,1232923870,1232925759,-1.1224,-0.007808,-0.115168,10.70125,7.72625,-2.40625,40.896004,12.976001,30.952002,eccentric,4,3.0,20859.0,305076.0,275271.0,324230.0,285310.0
2026-04-07 17:49:22.559684,226239,1232933016,1232934519,-1.120448,-0.013664,-0.134688,11.095,9.0125,-2.40625,40.896004,12.960001,31.144001,eccentric,4,3.0,21127.0,307460.0,277219.0,326310.0,287396.0
2026-04-07 17:49:22.561268,226240,1232942111,1232943270,-1.120448,-0.013664,-0.134688,12.005,9.205,-3.8325,40.896004,12.960001,31.144001,eccentric,4,3.0,21127.0,307460.0,277219.0,326310.0,287396.0
2026-04-07 17:49:22.567904,226241,1232956611,1232958216,-1.100928,-0.011712,-0.148352,11.34875,8.79375,-3.54375,41.144,13.184001,31.088001,eccentric,4,3.0,21127.0,307460.0,277219.0,326310.0,287396.0
2026-04-07 17:49:22.569498,226242,1232965572,1232966942,-1.100928,-0.011712,-0.148352,13.51875,9.19625,-2.54625,41.144,13.184001,31.088001,eccentric,4,3.0,21127.0,307460.0,277219.0,326310.0,287396.0
2026-04-07 17:49:22.599803,226243,1232974571,1232975643,-1.100928,-0.003904,-0.134688,17.5,9.625,-1.70625,40.896004,12.856001,31.144001,eccentric,4,3.0,21127.0,307460.0,277219.0,326310.0,287396.0
2026-04-07 17:49:22.604206,226244,1232989040,1232990539,-1.100928,-0.003904,-0.134688,17.40375,9.6775,-1.3825,40.896004,12.856001,31.144001,eccentric,4,3.0,21127.0,307460.0,277219.0,326310.0,287396.0
2026-04-07 17:49:22.605843,226245,1232997945,1232999205,-1.097024,0.017568,-0.101504,15.72375,9.35375,-2.8875,41.016003,12.904,30.976002,eccentric,4,3.0,21127.0,307460.0,277219.0,326310.0,287396.0
2026-04-07 17:49:22.611635,226246,1233006874,1233007993,-1.097024,0.017568,-0.101504,15.75875,9.625,-3.745,41.016003,12.904,30.976002,eccentric,4,3.0,21127.0,307460.0,277219.0,326310.0,287396.0
2026-04-07 17:49:22.640095,226247,1233021363,1233022910,-1.079456,0.02928,-0.132736,14.95375,9.73875,-5.5475,41.144,12.864,32.344,eccentric,4,3.0,21127.0,307460.0,277219.0,326310.0,287396.0
2026-04-07 17:49:22.699991,226257,1233030797,1233032142,-1.079456,0.02928,-0.132736,11.54125,10.78,-7.88375,41.144,12.864,32.344,eccentric,4,3.0,21153.0,307854.0,277584.0,326810.0,287745.0
2026-04-07 17:49:22.704215,226258,1233039838,1233040857,-1.089216,-0.015616,-0.103456,9.073751,10.49125,-7.4025,41.664,12.984,31.12,eccentric,4,3.0,21153.0,307854.0,277584.0,326810.0,287745.0
2026-04-07 17:49:22.705966,226259,1233048848,1233049561,-1.089216,-0.015616,-0.103456,9.975,10.185,-5.53,41.664,12.984,31.12,eccentric,4,3.0,21153.0,307854.0,277584.0,326810.0,287745.0
2026-04-07 17:49:22.707513,226260,1233063701,1233064496,-1.069696,-0.015616,-0.0976,10.96375,9.7125,-3.73625,41.496002,12.664001,30.392002,eccentric,4,3.0,21153.0,307854.0,277584.0,326810.0,287745.0
2026-04-07 17:49:22.711736,226261,1233072633,1233073221,-1.030656,0.001952,-0.109312,9.7475,9.1175,-3.2025,41.816,12.488001,29.080002,eccentric,4,3.0,21153.0,307854.0,277584.0,326810.0,287745.0
2026-04-07 17:49:22.713401,226262,1233081906,1233083969,-1.030656,0.001952,-0.109312,8.2425,9.24,-3.07125,41.816,12.488001,29.080002,eccentric,4,3.0,21153.0,307854.0,277584.0,326810.0,287745.0
2026-04-07 17:49:22.714966,226263,1233090805,1233092697,-1.030656,0.001952,-0.109312,7.84875,10.15875,-2.75625,41.816,12.488001,29.080002,eccentric,4,3.0,21153.0,307854.0,277584.0,326810.0,287745.0
2026-04-07 17:49:22.719150,226264,1233105442,1233107609,-1.06384,0.03904,-0.103456,6.4925,10.40375,-3.0275,41.440002,12.224001,35.096,eccentric,4,3.0,21153.0,307854.0,277584.0,326810.0,287745.0
2026-04-07 17:49:22.720773,226265,1233114437,1233116291,-1.11264,0.072224,-0.109312,5.25875,9.9225,-2.98375,40.976,12.168,32.544003,eccentric,4,3.0,21153.0,307854.0,277584.0,326810.0,287745.0
2026-04-07 17:49:22.753587,226266,1233123426,1233125021,-1.11264,0.072224,-0.109312,5.87125,9.93125,-2.7825,40.976,12.168,32.544003,eccentric,4,3.0,21153.0,307854.0,277584.0,326810.0,287745.0
2026-04-07 17:49:22.782443,226276,1233138009,1233139989,-1.087264,0.056608,-0.121024,8.2775,9.7125,-3.255,41.848003,12.440001,31.272001,eccentric,4,3.0,21335.0,309565.0,279121.0,328592.0,289213.0
2026-04-07 17:49:22.790490,226277,1233146871,1233148744,-1.087264,0.056608,-0.121024,9.26625,9.35375,-3.84125,41.848003,12.440001,31.272001,eccentric,4,3.0,21335.0,309565.0,279121.0,328592.0,289213.0
2026-04-07 17:49:22.792144,226278,1233155795,1233157469,-1.104832,0.042944,-0.105408,8.56625,8.2425,-4.55875,42.248,12.936001,30.992,eccentric,4,3.0,21335.0,309565.0,279121.0,328592.0,289213.0
2026-04-07 17:49:22.793756,226279,1233170357,1233172433,-1.104832,0.042944,-0.105408,6.50125,7.315,-4.54125,42.248,12.936001,30.992,eccentric,4,3.0,21335.0,309565.0,279121.0,328592.0,289213.0
2026-04-07 17:49:22.797899,226280,1233179305,1233181134,-1.126304,0.027328,-0.142496,3.815,6.4925,-4.305,41.608,12.088,31.576002,eccentric,4,3.0,21335.0,309565.0,279121.0,328592.0,289213.0
2026-04-07 17:49:22.800448,226281,1233188343,1233189855,-1.126304,0.027328,-0.142496,2.73875,5.64375,-3.71875,41.608,12.088,31.576002,eccentric,4,3.0,21335.0,309565.0,279121.0,328592.0,289213.0
2026-04-07 17:49:22.828889,226282,1233202875,1233204835,-1.159488,0.042944,-0.154208,3.5175,4.8825,-2.3625,41.184002,11.72,32.960003,eccentric,4,3.0,21335.0,309565.0,279121.0,328592.0,289213.0
2026-04-07 17:49:22.833277,226283,1233211802,1233213499,-1.175104,0.033184,-0.132736,8.225,5.01375,-1.1725,41.184002,11.72,30.912,eccentric,4,3.0,21335.0,309565.0,279121.0,328592.0,289213.0
2026-04-07 17:49:22.834889,226284,1233220756,1233222198,-1.177056,0.033184,-0.132736,12.0225,4.7075,0.00875,42.112003,11.752001,31.176,eccentric,4,3.0,21335.0,309565.0,279121.0,328592.0,289213.0
2026-04-07 17:49:22.872086,226295,1233229696,1233231079,-1.177056,0.033184,-0.132736,10.6225,2.73,1.68875,42.112003,11.752001,31.176,eccentric,4,3.0,21868.0,314818.0,283641.0,333795.0,293759.0
2026-04-07 17:49:22.873680,226296,1233244286,1233246065,-1.1712,0.017568,-0.11712,9.065,0.41125,3.75375,42.312,11.76,30.936,eccentric,4,3.0,21868.0,314818.0,283641.0,333795.0,293759.0
2026-04-07 17:49:22.877152,226297,1233253316,1233254831,-1.120448,0.02928,-0.160064,9.03,-1.54875,5.64375,42.480003,11.328,33.04,eccentric,4,3.0,21868.0,314818.0,283641.0,333795.0,293759.0
2026-04-07 17:49:22.879647,226298,1233262246,1233263540,-1.120448,0.02928,-0.160064,8.02375,-2.42375,5.74,42.480003,11.328,33.04,eccentric,4,3.0,21868.0,314818.0,283641.0,333795.0,293759.0
2026-04-07 17:49:22.881480,226299,1233276778,1233278468,-1.124352,0.040992,-0.138592,5.53875,-2.86125,5.41625,42.04,11.032001,34.416,eccentric,4,3.0,21868.0,314818.0,283641.0,333795.0,293759.0
2026-04-07 17:49:22.913114,226300,1233285739,1233287197,-1.124352,0.040992,-0.138592,6.41375,-3.5175,6.06375,42.04,11.032001,34.416,eccentric,4,3.0,21868.0,314818.0,283641.0,333795.0,293759.0
2026-04-07 17:49:22.914578,226301,1233294674,1233295885,-1.155584,0.046848,-0.124928,10.64875,-3.36875,6.51,42.52,11.672001,31.376001,eccentric,4,3.0,21868.0,314818.0,283641.0,333795.0,293759.0
2026-04-07 17:49:22.919125,226302,1233309178,1233310791,-1.155584,0.046848,-0.124928,12.20625,-4.27,7.6125,42.52,11.672001,31.376001,eccentric,4,3.0,21868.0,314818.0,283641.0,333795.0,293759.0
2026-04-07 17:49:22.923298,226303,1233318096,1233319480,-1.10288,0.025376,-0.121024,10.36,-5.13625,9.511251,42.84,11.352,31.336002,eccentric,4,3.0,21868.0,314818.0,283641.0,333795.0,293759.0
2026-04-07 17:49:22.983963,226304,1233327004,1233328214,-1.10288,0.025376,-0.121024,7.49875,-5.88,9.5375,42.84,11.352,31.336002,eccentric,4,3.0,21868.0,314818.0,283641.0,333795.0,293759.0
2026-04-07 17:49:23.010899,226314,1233336136,1233336979,-1.091168,0.007808,-0.111264,5.20625,-5.845,8.39125,43.064003,10.728001,31.264002,eccentric,4,3.0,22205.0,317992.0,286268.0,336792.0,296357.0
2026-04-07 17:49:23.012567,226315,1233350751,1233351884,-1.091168,0.007808,-0.111264,2.84375,-5.9325,8.5925,43.064003,10.728001,31.264002,eccentric,4,3.0,22205.0,317992.0,286268.0,336792.0,296357.0
2026-04-07 17:49:23.016721,226316,1233359661,1233360567,-1.138016,0.0488,-0.095648,3.19375,-5.4075,8.855001,43.064003,11.048,31.992,eccentric,4,3.0,22205.0,317992.0,286268.0,336792.0,296357.0
2026-04-07 17:49:23.018420,226317,1233368604,1233369262,-1.138016,0.0488,-0.095648,2.94,-5.18875,9.31875,43.064003,11.048,31.992,eccentric,4,3.0,22205.0,317992.0,286268.0,336792.0,296357.0
2026-04-07 17:49:23.020065,226318,1233383549,1233384133,-1.126304,0.027328,-0.093696,-0.3675,-6.0375,11.13,43.672,10.360001,31.440002,eccentric,4,3.0,22205.0,317992.0,286268.0,336792.0,296357.0
2026-04-07 17:49:23.024171,226319,1233392757,1233394917,-1.11264,0.011712,-0.099552,-4.445,-8.155,13.440001,43.672,10.360001,32.448,eccentric,4,3.0,22205.0,317992.0,286268.0,336792.0,296357.0
2026-04-07 17:49:23.025869,226320,1233401793,1233403665,-1.11264,0.011712,-0.099552,-6.0375,-9.44125,14.48125,43.776,10.400001,32.448,eccentric,4,3.0,22205.0,317992.0,286268.0,336792.0,296357.0
2026-04-07 17:49:23.027629,226321,1233410833,1233412415,-1.11264,0.011712,-0.099552,-4.7425,-10.17625,15.408751,43.776,10.400001,32.448,eccentric,4,3.0,22205.0,317992.0,286268.0,336792.0,296357.0
2026-04-07 17:49:23.031600,226322,1233425331,1233427310,-1.095072,0.003904,-0.121024,-3.91125,-10.68375,14.63,44.192,9.544001,33.56,eccentric,4,3.0,22205.0,317992.0,286268.0,336792.0,296357.0
2026-04-07 17:49:23.064720,226332,1233434829,1233436507,-1.085312,0.03904,-0.121024,-4.0075,-11.3575,12.97625,43.248,9.224,32.472,eccentric,4,3.0,22463.0,320615.0,288462.0,339289.0,298439.0
2026-04-07 17:49:23.066237,226333,1233443809,1233445249,-1.085312,0.03904,-0.121024,-3.2375,-11.34875,14.5075,43.248,9.224,32.472,eccentric,4,3.0,22463.0,320615.0,288462.0,339289.0,298439.0
2026-04-07 17:49:23.070469,226334,1233458318,1233460181,-1.095072,0.076128,-0.119072,-2.17,-11.33125,14.91,43.792004,9.328,33.288002,eccentric,4,3.0,22463.0,320615.0,288462.0,339289.0,298439.0
2026-04-07 17:49:23.072517,226335,1233467207,1233468879,-1.095072,0.076128,-0.119072,-2.44125,-11.22625,13.448751,43.792004,9.328,33.288002,eccentric,4,3.0,22463.0,320615.0,288462.0,339289.0,298439.0
2026-04-07 17:49:23.103826,226336,1233476164,1233477568,-1.10288,0.062464,-0.11712,-5.0225,-12.27625,12.215,44.016003,8.968,31.712002,eccentric,4,3.0,22463.0,320615.0,288462.0,339289.0,298439.0
2026-04-07 17:49:23.107479,226337,1233485096,1233486309,-1.10288,0.062464,-0.11712,-6.86875,-13.405,11.042501,44.016003,8.968,31.712002,eccentric,4,3.0,22463.0,320615.0,288462.0,339289.0,298439.0
2026-04-07 17:49:23.109947,226338,1233499571,1233501257,-1.136064,0.066368,-0.10736,-8.435,-14.02625,9.73875,44.552002,8.84,31.792002,eccentric,4,3.0,22463.0,320615.0,288462.0,339289.0,298439.0
2026-04-07 17:49:23.112416,226339,1233508513,1233509948,-1.136064,0.066368,-0.10736,-8.44375,-14.6825,8.505,44.552002,8.84,31.792002,eccentric,4,3.0,22463.0,320615.0,288462.0,339289.0,298439.0
2026-04-07 17:49:23.142768,226340,1233517429,1233518673,-1.139968,0.033184,-0.10736,-8.95125,-14.62125,7.23625,43.664,8.376,33.544003,eccentric,4,3.0,22463.0,320615.0,288462.0,339289.0,298439.0
2026-04-07 17:49:23.171206,226351,1233531914,1233533550,-1.139968,0.033184,-0.10736,-11.0075,-15.2775,6.55375,43.664,8.376,33.544003,eccentric,4,3.0,22404.0,320308.0,288292.0,339391.0,298303.0
2026-04-07 17:49:23.173697,226352,1233541299,1233542264,-1.138016,0.003904,-0.11712,-13.055,-16.12625,8.365,44.304,9.224,28.688002,eccentric,4,3.0,22404.0,320308.0,288292.0,339391.0,298303.0
2026-04-07 17:49:23.176130,226353,1233550221,1233550986,-1.138016,0.003904,-0.11712,-11.03375,-16.2925,10.745,44.304,9.224,28.688002,eccentric,4,3.0,22404.0,320308.0,288292.0,339391.0,298303.0
2026-04-07 17:49:23.178708,226354,1233559602,1233561795,-1.126304,0.005856,-0.13664,-9.45,-15.67125,11.3925,44.544003,8.712001,32.248,eccentric,4,3.0,22404.0,320308.0,288292.0,339391.0,298303.0
2026-04-07 17:49:23.181139,226355,1233574181,1233574688,-1.159488,0.025376,-0.085888,-8.295,-14.752501,12.8975,44.784,8.240001,32.640003,eccentric,4,3.0,22404.0,320308.0,288292.0,339391.0,298303.0
2026-04-07 17:49:23.187415,226356,1233583712,1233585462,-1.159488,0.025376,-0.085888,-7.98875,-13.895,15.79375,44.784,8.240001,32.640003,eccentric,4,3.0,22404.0,320308.0,288292.0,339391.0,298303.0
2026-04-07 17:49:23.217597,226357,1233592688,1233594202,-1.159488,0.025376,-0.085888,-8.9775,-14.42875,18.89125,44.784,8.240001,32.640003,eccentric,4,3.0,22404.0,320308.0,288292.0,339391.0,298303.0
2026-04-07 17:49:23.221151,226358,1233607167,1233609064,-1.16144,0.0488,-0.044896,-9.82625,-14.525,21.98,44.768,8.288,32.672,eccentric,4,3.0,22404.0,320308.0,288292.0,339391.0,298303.0
2026-04-07 17:49:23.223771,226359,1233616110,1233617805,-1.153632,0.056608,-0.054656,-10.84125,-14.035,23.7125,45.320004,7.976,32.304,eccentric,4,3.0,22404.0,320308.0,288292.0,339391.0,298303.0
2026-04-07 17:49:23.228727,226360,1233625037,1233626521,-1.153632,0.056608,-0.054656,-11.94375,-14.21,23.87875,45.320004,7.976,32.304,eccentric,4,3.0,22404.0,320308.0,288292.0,339391.0,298303.0
2026-04-07 17:49:23.306218,226370,1233639619,1233641817,-1.14192,0.054656,-0.081984,-14.595,-14.2275,24.33375,45.624,7.288001,32.232002,eccentric,4,3.0,22513.0,321367.0,289205.0,340565.0,299439.0
2026-04-07 17:49:23.308682,226371,1233648600,1233650532,-1.14192,0.054656,-0.081984,-15.81125,-14.323751,23.6075,45.624,7.288001,32.232002,eccentric,4,3.0,22513.0,321367.0,289205.0,340565.0,299439.0
2026-04-07 17:49:23.311794,226372,1233657517,1233659195,-1.134112,0.093696,-0.089792,-14.60375,-13.29125,21.2625,45.696003,7.048,32.648003,eccentric,4,3.0,22513.0,321367.0,289205.0,340565.0,299439.0
2026-04-07 17:49:23.314032,226373,1233666450,1233667875,-1.134112,0.093696,-0.089792,-13.886251,-12.08375,19.8275,45.696003,7.048,32.648003,eccentric,4,3.0,22513.0,321367.0,289205.0,340565.0,299439.0
2026-04-07 17:49:23.321249,226374,1233680932,1233682782,-1.126304,0.07808,-0.076128,-14.1225,-11.3225,19.50375,45.408,6.920001,32.992,eccentric,4,3.0,22513.0,321367.0,289205.0,340565.0,299439.0
2026-04-07 17:49:23.323679,226375,1233689986,1233691569,-1.126304,0.07808,-0.076128,-14.6475,-10.99875,18.94375,45.408,6.920001,32.992,eccentric,4,3.0,22513.0,321367.0,289205.0,340565.0,299439.0
2026-04-07 17:49:23.326163,226376,1233698967,1233700311,-1.130208,0.05856,-0.066368,-14.7,-11.3575,18.8125,45.568,6.936,34.352,eccentric,4,3.0,22513.0,321367.0,289205.0,340565.0,299439.0
2026-04-07 17:49:23.328794,226377,1233713520,1233715251,-1.130208,0.05856,-0.066368,-13.71125,-11.6375,18.26125,45.568,6.936,34.352,eccentric,4,3.0,22513.0,321367.0,289205.0,340565.0,299439.0
2026-04-07 17:49:23.331120,226378,1233722475,1233723949,-1.110688,0.081984,-0.052704,-10.9025,-11.36625,17.12375,45.480003,5.968,34.088,eccentric,4,3.0,22513.0,321367.0,289205.0,340565.0,299439.0
2026-04-07 17:49:23.334996,226379,1233731396,1233732648,-1.110688,0.081984,-0.052704,-7.28,-11.34875,16.1175,45.480003,5.968,34.088,eccentric,4,3.0,22513.0,321367.0,289205.0,340565.0,299439.0
2026-04-07 17:49:23.363747,226389,1233745945,1233747616,-1.100928,0.122976,-0.0488,-6.755,-11.1125,14.83125,45.320004,6.024,34.016003,eccentric,4,3.0,22536.0,321451.0,289245.0,340498.0,299366.0
2026-04-07 17:49:23.367880,226390,1233754873,1233756308,-1.091168,0.109312,-0.050752,-10.325,-11.305,13.965,46.376003,6.192,33.736,eccentric,4,3.0,22536.0,321451.0,289245.0,340498.0,299366.0
2026-04-07 17:49:23.370342,226391,1233763810,1233765039,-1.091168,0.109312,-0.050752,-13.18625,-11.4975,13.76375,46.376003,6.192,33.736,eccentric,4,3.0,22536.0,321451.0,289245.0,340498.0,299366.0
2026-04-07 17:49:23.398840,226392,1233772703,1233773774,-1.091168,0.109312,-0.050752,-13.15125,-10.57875,12.97625,46.376003,6.192,33.736,eccentric,4,3.0,22536.0,321451.0,289245.0,340498.0,299366.0
2026-04-07 17:49:23.403351,226393,1233787185,1233788666,-1.091168,0.124928,-0.040992,-12.46,-9.93125,11.47125,46.216003,5.832,33.136,eccentric,4,3.0,22536.0,321451.0,289245.0,340498.0,299366.0
2026-04-07 17:49:23.405969,226394,1233796058,1233797343,-1.087264,0.10736,-0.052704,-12.7225,-9.89625,10.33375,46.184002,6.08,32.704002,eccentric,4,3.0,22536.0,321451.0,289245.0,340498.0,299366.0
2026-04-07 17:49:23.407501,226395,1233804956,1233806091,-1.087264,0.10736,-0.052704,-12.7225,-9.70375,9.86125,46.184002,6.08,32.704002,eccentric,4,3.0,22536.0,321451.0,289245.0,340498.0,299366.0
2026-04-07 17:49:23.438556,226396,1233819461,1233821023,-1.0736,0.10736,-0.040992,-11.9875,-9.05625,9.7825,46.576004,5.304,34.920002,eccentric,4,3.0,22536.0,321451.0,289245.0,340498.0,299366.0
2026-04-07 17:49:23.440883,226397,1233828390,1233829717,-1.0736,0.10736,-0.040992,-9.8875,-9.33625,9.625,46.576004,5.304,34.920002,eccentric,4,3.0,22536.0,321451.0,289245.0,340498.0,299366.0
2026-04-07 17:49:23.469578,226408,1233837716,1233838769,-1.071648,0.12688,-0.050752,-7.49,-9.58125,9.17875,46.384003,5.528,33.576,eccentric,4,3.0,22520.0,321389.0,289200.0,340529.0,299351.0
2026-04-07 17:49:23.471505,226409,1233852316,1233853650,-1.071648,0.12688,-0.050752,-6.76375,-9.72125,8.35625,46.384003,5.528,33.576,eccentric,4,3.0,22520.0,321389.0,289200.0,340529.0,299351.0
2026-04-07 17:49:23.475375,226410,1233861258,1233862398,-1.05408,0.144448,-0.052704,-7.06125,-10.08,7.525,44.944,4.264,36.288002,eccentric,4,3.0,22520.0,321389.0,289200.0,340529.0,299351.0
2026-04-07 17:49:23.484052,226411,1233870166,1233871098,-1.05408,0.144448,-0.052704,-7.90125,-9.84375,7.16625,44.944,4.264,36.288002,eccentric,4,3.0,22520.0,321389.0,289200.0,340529.0,299351.0
2026-04-07 17:49:23.489089,226412,1233884669,1233885984,-1.065792,0.138592,-0.033184,-8.2425,-9.8875,6.7725,45.064003,4.704,35.168003,eccentric,4,3.0,22520.0,321389.0,289200.0,340529.0,299351.0
2026-04-07 17:49:23.517555,226413,1233893596,1233894709,-1.065792,0.138592,-0.033184,-7.56,-9.65125,6.32625,45.064003,4.704,35.168003,eccentric,4,3.0,22520.0,321389.0,289200.0,340529.0,299351.0
2026-04-07 17:49:23.522127,226414,1233902510,1233903408,-1.095072,0.132736,-0.02928,-6.7025,-9.42375,5.87125,46.128002,4.968,33.296,eccentric,4,3.0,22520.0,321389.0,289200.0,340529.0,299351.0
2026-04-07 17:49:23.523666,226415,1233911433,1233912117,-1.095072,0.132736,-0.02928,-4.45375,-9.1525,5.53,46.128002,4.968,33.296,eccentric,4,3.0,22520.0,321389.0,289200.0,340529.0,299351.0
2026-04-07 17:49:23.530321,226416,1233926273,1233927020,-1.087264,0.140544,-0.031232,-0.2625,-8.35625,4.375,46.192,4.952,33.656002,eccentric,4,3.0,22520.0,321389.0,289200.0,340529.0,299351.0
2026-04-07 17:49:23.609849,226426,1233935882,1233937850,-1.081408,0.142496,-0.05856,3.26375,-8.33875,3.3775,45.816,4.776,34.184002,eccentric,4,3.0,22542.0,321156.0,288795.0,339745.0,298529.0
2026-04-07 17:49:23.614204,226427,1233944903,1233946542,-1.081408,0.142496,-0.05856,4.31375,-7.32375,1.56625,45.816,4.776,34.184002,eccentric,4,3.0,22542.0,321156.0,288795.0,339745.0,298529.0
2026-04-07 17:49:23.617128,226428,1233953834,1233955245,-1.081408,0.142496,-0.05856,2.3975,-6.7375,-0.0175,45.816,4.776,34.184002,eccentric,4,3.0,22542.0,321156.0,288795.0,339745.0,298529.0
2026-04-07 17:49:23.623135,226429,1233968351,1233970220,-1.085312,0.142496,-0.050752,0.83125,-6.02,-1.14625,46.584003,5.032,33.928,eccentric,4,3.0,22542.0,321156.0,288795.0,339745.0,298529.0
2026-04-07 17:49:23.624625,226430,1233977277,1233978900,-1.118496,0.12688,-0.025376,-1.14625,-4.15625,-1.6625,46.096,4.528,36.136,eccentric,4,3.0,22542.0,321156.0,288795.0,339745.0,298529.0
2026-04-07 17:49:23.627125,226431,1233986180,1233987579,-1.118496,0.12688,-0.025376,-2.58125,-3.28125,-2.0475,46.096,4.528,36.136,eccentric,4,3.0,22542.0,321156.0,288795.0,339745.0,298529.0
2026-04-07 17:49:23.628765,226432,1234000739,1234002570,-1.1224,0.10736,-0.035136,-3.9725,-3.7275,-2.135,45.248,4.456,35.536003,eccentric,4,3.0,22542.0,321156.0,288795.0,339745.0,298529.0
2026-04-07 17:49:23.633134,226433,1234009678,1234011348,-1.1224,0.10736,-0.035136,-5.74875,-3.1325,-1.75875,45.248,4.456,35.536003,eccentric,4,3.0,22542.0,321156.0,288795.0,339745.0,298529.0
2026-04-07 17:49:23.635339,226434,1234018702,1234020098,-1.138016,0.101504,0.0,-5.48625,-2.28375,-0.91875,45.608,3.72,35.456,eccentric,4,3.0,22542.0,321156.0,288795.0,339745.0,298529.0
2026-04-07 17:49:23.639224,226435,1234033225,1234035044,-1.138016,0.101504,0.0,-3.15,-1.53125,0.51625,45.608,3.72,35.456,eccentric,4,3.0,22542.0,321156.0,288795.0,339745.0,298529.0
2026-04-07 17:49:23.663479,226445,1234042176,1234043806,-1.110688,0.070272,-0.023424,-0.35,-1.155,1.16375,46.760002,4.744,34.776,eccentric,4,3.0,22598.0,321417.0,288880.0,339632.0,298423.0
2026-04-07 17:49:23.665019,226446,1234051147,1234052546,-1.110688,0.070272,-0.023424,1.505,-0.67375,2.03,46.760002,4.744,34.776,eccentric,4,3.0,22598.0,321417.0,288880.0,339632.0,298423.0
2026-04-07 17:49:23.671519,226447,1234065667,1234067467,-1.128256,0.091744,-0.017568,1.98625,0.51625,1.93375,45.840004,4.344,35.984,eccentric,4,3.0,22598.0,321417.0,288880.0,339632.0,298423.0
2026-04-07 17:49:23.700074,226448,1234074589,1234076160,-1.128256,0.091744,-0.017568,0.76125,2.38,1.5925,45.840004,4.344,35.984,eccentric,4,3.0,22598.0,321417.0,288880.0,339632.0,298423.0
2026-04-07 17:49:23.704750,226449,1234083539,1234084867,-1.138016,0.109312,-0.013664,-2.345,4.0425,0.91875,46.352,4.464,35.488003,eccentric,4,3.0,22598.0,321417.0,288880.0,339632.0,298423.0
2026-04-07 17:49:23.706161,226450,1234092480,1234093544,-1.138016,0.109312,-0.013664,-4.45375,3.745,0.41125,46.352,4.464,35.488003,eccentric,4,3.0,22598.0,321417.0,288880.0,339632.0,298423.0
2026-04-07 17:49:23.714097,226451,1234106975,1234108433,-1.143872,0.113216,-0.015616,-4.83,3.8675,0.245,46.344,4.264,34.056,eccentric,4,3.0,22598.0,321417.0,288880.0,339632.0,298423.0
2026-04-07 17:49:23.742578,226452,1234115906,1234117129,-1.143872,0.083936,-0.013664,-4.865,4.62875,-0.105,46.344,4.264,36.856003,eccentric,4,3.0,22598.0,321417.0,288880.0,339632.0,298423.0
2026-04-07 17:49:23.747033,226453,1234124784,1234125847,-1.147776,0.083936,-0.013664,-5.80125,4.9175,0.02625,45.648003,3.768,36.856003,eccentric,4,3.0,22598.0,321417.0,288880.0,339632.0,298423.0
2026-04-07 17:49:23.807414,226464,1234139676,1234140822,-1.114592,0.060512,0.003904,-5.53875,5.41625,-0.0875,46.512,4.0,34.272003,eccentric,4,3.0,22436.0,319788.0,287458.0,337958.0,297109.0
2026-04-07 17:49:23.809909,226465,1234148644,1234149573,-1.114592,0.060512,0.003904,-4.43625,5.73125,-0.5425,46.512,4.0,34.272003,eccentric,4,3.0,22436.0,319788.0,287458.0,337958.0,297109.0
2026-04-07 17:49:23.812463,226466,1234157690,1234158290,-1.124352,0.066368,0.0,-3.05375,6.20375,-0.62125,46.112003,4.432,32.608,eccentric,4,3.0,22436.0,319788.0,287458.0,337958.0,297109.0
2026-04-07 17:49:23.814990,226467,1234166917,1234169054,-1.124352,0.066368,0.0,-1.8375,7.32375,-1.16375,46.112003,4.432,32.608,eccentric,4,3.0,22436.0,319788.0,287458.0,337958.0,297109.0
2026-04-07 17:49:23.819117,226468,1234181414,1234181883,-1.108736,0.083936,-0.027328,-1.19875,8.0675,-2.52,46.592003,4.736,33.808002,eccentric,4,3.0,22436.0,319788.0,287458.0,337958.0,297109.0
2026-04-07 17:49:23.820873,226469,1234190861,1234192643,-1.108736,0.083936,-0.027328,-1.6975,8.8375,-5.25875,46.592003,4.736,33.808002,eccentric,4,3.0,22436.0,319788.0,287458.0,337958.0,297109.0
2026-04-07 17:49:23.822577,226470,1234199841,1234201399,-1.11264,0.109312,-0.017568,-1.8725,9.3625,-7.83125,45.808002,4.072,34.84,eccentric,4,3.0,22436.0,319788.0,287458.0,337958.0,297109.0
2026-04-07 17:49:23.826668,226471,1234214558,1234216316,-1.11264,0.109312,-0.017568,-1.9425,9.8,-9.58125,45.808002,4.072,34.84,eccentric,4,3.0,22436.0,319788.0,287458.0,337958.0,297109.0
2026-04-07 17:49:23.828195,226472,1234223620,1234225016,-1.091168,0.060512,-0.023424,-2.9225,10.19375,-10.26375,45.744003,4.424,35.256,eccentric,4,3.0,22436.0,319788.0,287458.0,337958.0,297109.0
2026-04-07 17:49:23.891130,226473,1234232563,1234233709,-1.091168,0.060512,-0.023424,-4.06875,9.16125,-11.655,45.744003,4.424,35.256,eccentric,4,3.0,22436.0,319788.0,287458.0,337958.0,297109.0
2026-04-07 17:49:23.917104,226483,1234241597,1234242424,-1.077504,0.066368,-0.01952,-3.26375,9.30125,-13.0375,46.072002,4.12,34.752003,concentric,4,3.0,22208.0,317261.0,285213.0,335203.0,294739.0
2026-04-07 17:49:23.919593,226484,1234256064,1234257406,-1.077504,0.066368,-0.040992,0.44625,9.415,-14.35875,46.072002,4.12,34.752003,concentric,4,3.0,22208.0,317261.0,285213.0,335203.0,294739.0
2026-04-07 17:49:23.921119,226485,1234264986,1234266104,-1.057984,0.089792,-0.040992,2.0125,9.6775,-16.4325,46.112003,5.032,32.064003,concentric,4,3.0,22208.0,317261.0,285213.0,335203.0,294739.0
2026-04-07 17:49:23.925591,226486,1234273932,1234274792,-1.057984,0.089792,-0.040992,0.25375,10.4825,-18.62,46.112003,5.032,32.064003,concentric,4,3.0,22208.0,317261.0,285213.0,335203.0,294739.0
2026-04-07 17:49:23.927120,226487,1234288435,1234289683,-1.052128,0.095648,-0.025376,-1.30375,11.47125,-20.18625,45.544003,4.448,33.208,concentric,4,3.0,22208.0,317261.0,285213.0,335203.0,294739.0
2026-04-07 17:49:23.928637,226488,1234297444,1234298426,-1.042368,0.070272,-0.00976,-1.72375,12.43375,-22.12875,45.448,4.84,33.256,concentric,4,3.0,22208.0,317261.0,285213.0,335203.0,294739.0
2026-04-07 17:49:23.932886,226489,1234306435,1234307170,-1.042368,0.070272,-0.00976,-4.26125,12.76625,-22.7325,45.448,4.84,33.256,concentric,4,3.0,22208.0,317261.0,285213.0,335203.0,294739.0
2026-04-07 17:49:23.934620,226490,1234321499,1234322162,-1.061888,0.042944,-0.035136,-8.04125,13.15125,-23.1875,45.4,5.288,34.456,concentric,4,3.0,22208.0,317261.0,285213.0,335203.0,294739.0
2026-04-07 17:49:23.936149,226491,1234330837,1234332946,-1.061888,0.042944,-0.035136,-10.4125,13.16,-25.27875,45.4,5.288,34.456,concentric,4,3.0,22208.0,317261.0,285213.0,335203.0,294739.0
2026-04-07 17:49:23.961627,226501,1234340481,1234341888,-1.085312,0.05856,-0.064416,-9.8875,14.0,-26.4075,45.512,5.584,33.888,concentric,4,3.0,21861.0,313706.0,282139.0,331535.0,291597.0
2026-04-07 17:49:23.964441,226502,1234349575,1234350621,-1.085312,0.05856,-0.064416,-5.46,14.13125,-26.915,45.512,5.584,33.888,concentric,4,3.0,21861.0,313706.0,282139.0,331535.0,291597.0
2026-04-07 17:49:23.970243,226503,1234364154,1234365530,-1.089216,0.070272,-0.02928,-1.39125,15.6975,-26.81,45.600002,5.584,34.872,concentric,4,3.0,21861.0,313706.0,282139.0,331535.0,291597.0
2026-04-07 17:49:23.998863,226504,1234373063,1234374231,-1.089216,0.070272,-0.02928,0.58625,16.23125,-26.57375,45.600002,5.584,34.872,concentric,4,3.0,21861.0,313706.0,282139.0,331535.0,291597.0
2026-04-07 17:49:24.003305,226505,1234382004,1234382951,-1.120448,0.033184,-0.035136,0.49,15.9775,-25.2525,45.496002,5.92,33.888,concentric,4,3.0,21861.0,313706.0,282139.0,331535.0,291597.0
2026-04-07 17:49:24.004847,226506,1234390931,1234391651,-1.120448,0.033184,-0.035136,-0.30625,16.28375,-24.66625,45.496002,5.92,33.888,concentric,4,3.0,21861.0,313706.0,282139.0,331535.0,291597.0
2026-04-07 17:49:24.008684,226507,1234405803,1234406545,-1.110688,0.017568,-0.064416,-2.84375,16.275,-24.9725,45.664,6.496,32.184002,concentric,4,3.0,21861.0,313706.0,282139.0,331535.0,291597.0
2026-04-07 17:49:24.039833,226508,1234415202,1234417307,-1.110688,0.017568,-0.064416,-6.09875,16.49375,-26.62625,45.664,6.496,32.184002,concentric,4,3.0,21861.0,313706.0,282139.0,331535.0,291597.0
2026-04-07 17:49:24.044204,226509,1234424210,1234426035,-1.128256,0.027328,-0.076128,-5.005,17.15875,-28.04375,44.800003,6.408001,32.52,concentric,4,3.0,21861.0,313706.0,282139.0,331535.0,291597.0
2026-04-07 17:49:24.045997,226510,1234433125,1234434721,-1.128256,0.027328,-0.076128,-1.12875,17.87625,-28.88375,44.800003,6.408001,32.52,concentric,4,3.0,21861.0,313706.0,282139.0,331535.0,291597.0
2026-04-07 17:49:24.077210,226521,1234447944,1234449680,-1.128256,0.074176,-0.054656,1.81125,17.92,-29.68875,45.536003,7.536,31.840002,concentric,4,3.0,21524.0,310429.0,279300.0,328227.0,288802.0
2026-04-07 17:49:24.078891,226522,1234456902,1234458402,-1.128256,0.074176,-0.03904,2.33625,17.78875,-31.5525,45.536003,7.536,31.840002,concentric,4,3.0,21524.0,310429.0,279300.0,328227.0,288802.0
2026-04-07 17:49:24.082862,226523,1234465826,1234467119,-1.1224,0.099552,-0.042944,0.49875,17.885,-34.36125,45.328003,7.36,32.088,concentric,4,3.0,21524.0,310429.0,279300.0,328227.0,288802.0
2026-04-07 17:49:24.086488,226524,1234480527,1234482176,-1.14192,0.081984,-0.042944,-0.735,17.928751,-37.065,44.320004,7.728,33.224003,concentric,4,3.0,21524.0,310429.0,279300.0,328227.0,288802.0
2026-04-07 17:49:24.115714,226525,1234489502,1234490843,-1.14192,0.081984,-0.042944,-1.1375,18.4625,-39.80375,44.320004,7.728,33.224003,concentric,4,3.0,21524.0,310429.0,279300.0,328227.0,288802.0
2026-04-07 17:49:24.119964,226526,1234498422,1234499514,-1.163392,0.031232,-0.052704,-2.35375,19.31125,-42.28,45.216003,7.928001,32.0,concentric,4,3.0,21524.0,310429.0,279300.0,328227.0,288802.0
2026-04-07 17:49:24.121548,226527,1234512912,1234514429,-1.163392,0.031232,-0.052704,-3.64875,19.565,-44.00375,45.216003,7.928001,32.0,concentric,4,3.0,21524.0,310429.0,279300.0,328227.0,288802.0
2026-04-07 17:49:24.129110,226528,1234521859,1234523136,-1.167296,-0.027328,-0.062464,-4.6725,19.075,-44.02125,44.496002,8.376,31.232002,concentric,4,3.0,21524.0,310429.0,279300.0,328227.0,288802.0
2026-04-07 17:49:24.135244,226529,1234530803,1234531921,-1.167296,-0.027328,-0.062464,-3.80625,19.25875,-43.82875,44.496002,8.376,31.232002,concentric,4,3.0,21524.0,310429.0,279300.0,328227.0,288802.0
2026-04-07 17:49:24.230324,226539,1234540318,1234540961,-1.16144,-0.03904,-0.054656,-4.7775,19.915,-41.895,43.592003,8.792001,32.552002,concentric,4,3.0,21485.0,309808.0,278714.0,327332.0,288203.0
2026-04-07 17:49:24.236660,226540,1234555147,1234555942,-1.16144,-0.03904,-0.054656,-6.09,19.565,-41.0025,43.592003,8.792001,32.552002,concentric,4,3.0,21485.0,309808.0,278714.0,327332.0,288203.0
2026-04-07 17:49:24.238378,226541,1234564117,1234564688,-1.163392,0.001952,-0.076128,-4.06875,19.64375,-41.27375,44.464,9.328,30.448002,concentric,4,3.0,21485.0,309808.0,278714.0,327332.0,288203.0
2026-04-07 17:49:24.240127,226542,1234573288,1234575444,-1.163392,0.001952,-0.076128,-1.5925,20.116251,-41.83375,44.464,9.328,30.448002,concentric,4,3.0,21485.0,309808.0,278714.0,327332.0,288203.0
2026-04-07 17:49:24.244140,226543,1234587750,1234588285,-1.186816,0.021472,-0.081984,-0.455,19.5475,-41.25625,43.776,9.808001,30.664001,concentric,4,3.0,21485.0,309808.0,278714.0,327332.0,288203.0
2026-04-07 17:49:24.245802,226544,1234597343,1234599091,-1.186816,0.021472,-0.081984,0.315,19.2325,-39.62875,43.776,9.808001,30.664001,concentric,4,3.0,21485.0,309808.0,278714.0,327332.0,288203.0
2026-04-07 17:49:24.248317,226545,1234606295,1234607798,-1.202432,-0.007808,-0.085888,1.88125,18.97,-37.94875,43.736004,9.92,33.872,concentric,4,3.0,21485.0,309808.0,278714.0,327332.0,288203.0
2026-04-07 17:49:24.249899,226546,1234615218,1234616539,-1.202432,-0.007808,-0.085888,3.395,19.32,-35.67375,43.736004,9.92,33.872,concentric,4,3.0,21485.0,309808.0,278714.0,327332.0,288203.0
2026-04-07 17:49:24.253972,226547,1234629783,1234631533,-1.192672,-0.064416,-0.0488,3.77125,19.99375,-33.31125,43.528004,10.8,30.520002,concentric,4,3.0,21485.0,309808.0,278714.0,327332.0,288203.0
2026-04-07 17:49:24.283715,226557,1234639230,1234640276,-1.196576,-0.035136,-0.066368,1.46125,20.195,-31.96375,43.160004,10.704,32.440002,concentric,4,3.0,21085.0,306377.0,275981.0,324328.0,285494.0
2026-04-07 17:49:24.287753,226558,1234648268,1234649086,-1.196576,-0.035136,-0.066368,-1.46125,19.705,-30.9925,43.160004,10.704,32.440002,concentric,4,3.0,21085.0,306377.0,275981.0,324328.0,285494.0
2026-04-07 17:49:24.306791,226559,1234657197,1234657808,-1.196576,-0.035136,-0.066368,-0.60375,19.60875,-29.67125,43.160004,10.704,32.440002,concentric,4,3.0,21085.0,306377.0,275981.0,324328.0,285494.0
2026-04-07 17:49:24.308409,226560,1234672142,1234672793,-1.202432,0.037088,-0.093696,0.97125,19.94125,-28.8925,42.56,10.488001,31.864002,concentric,4,3.0,21085.0,306377.0,275981.0,324328.0,285494.0
2026-04-07 17:49:24.310017,226561,1234681405,1234683547,-1.237568,0.025376,-0.044896,0.77875,20.95625,-28.76125,42.856003,11.184001,30.176,concentric,4,3.0,21085.0,306377.0,275981.0,324328.0,285494.0
2026-04-07 17:49:24.314177,226562,1234690377,1234692260,-1.237568,0.025376,-0.044896,-1.8025,22.44375,-27.37,42.856003,11.184001,30.176,concentric,4,3.0,21085.0,306377.0,275981.0,324328.0,285494.0
2026-04-07 17:49:24.315860,226563,1234704862,1234707168,-1.233664,-0.007808,-0.054656,-4.62,21.7,-24.85875,42.248,11.408001,29.848001,concentric,4,3.0,21085.0,306377.0,275981.0,324328.0,285494.0
2026-04-07 17:49:24.319390,226564,1234713844,1234715858,-1.233664,-0.007808,-0.054656,-5.52125,20.8075,-24.3775,42.248,11.408001,29.848001,concentric,4,3.0,21085.0,306377.0,275981.0,324328.0,285494.0
2026-04-07 17:49:24.350072,226565,1234722826,1234724602,-1.22976,0.005856,-0.10736,-3.3775,20.76375,-23.75625,41.384003,10.84,31.832,concentric,4,3.0,21085.0,306377.0,275981.0,324328.0,285494.0
2026-04-07 17:49:24.354260,226566,1234731779,1234733283,-1.22976,0.005856,-0.10736,0.7875,21.32375,-22.015,41.384003,10.84,31.832,concentric,4,3.0,21085.0,306377.0,275981.0,324328.0,285494.0
2026-04-07 17:49:24.378393,226576,1234746333,1234748275,-1.208288,-0.005856,-0.111264,2.8525,22.3125,-20.991251,40.776,11.544001,32.760002,concentric,4,3.0,20493.0,301415.0,272106.0,320468.0,282167.0
2026-04-07 17:49:24.380143,226577,1234755295,1234756978,-1.208288,-0.005856,-0.111264,1.085,23.02125,-20.7025,40.776,11.544001,32.760002,concentric,4,3.0,20493.0,301415.0,272106.0,320468.0,282167.0
2026-04-07 17:49:24.384125,226578,1234764277,1234765686,-1.194624,0.035136,-0.07808,-0.37625,23.03,-20.41375,40.984,12.296001,30.44,concentric,4,3.0,20493.0,301415.0,272106.0,320468.0,282167.0
2026-04-07 17:49:24.385760,226579,1234778828,1234780666,-1.214144,0.033184,-0.081984,-0.69125,23.415,-20.04625,40.984,10.248,31.072002,concentric,4,3.0,20493.0,301415.0,272106.0,320468.0,282167.0
2026-04-07 17:49:24.392727,226580,1234787741,1234789405,-1.214144,0.033184,-0.081984,-1.28625,22.7675,-19.88,41.224003,12.200001,31.072002,concentric,4,3.0,20493.0,301415.0,272106.0,320468.0,282167.0
2026-04-07 17:49:24.422811,226581,1234796665,1234798115,-1.214144,0.033184,-0.081984,-2.09125,21.1925,-19.4775,41.224003,12.200001,31.072002,concentric,4,3.0,20493.0,301415.0,272106.0,320468.0,282167.0
2026-04-07 17:49:24.426189,226582,1234811123,1234812984,-1.159488,0.031232,-0.130784,-1.47,21.2275,-19.20625,40.936,12.240001,27.576002,concentric,4,3.0,20493.0,301415.0,272106.0,320468.0,282167.0
2026-04-07 17:49:24.428705,226583,1234820063,1234821694,-1.184864,0.03904,-0.138592,1.19,20.22125,-20.3175,41.24,12.632001,28.888,concentric,4,3.0,20493.0,301415.0,272106.0,320468.0,282167.0
2026-04-07 17:49:24.433055,226584,1234828985,1234830394,-1.184864,0.03904,-0.138592,4.33125,19.8625,-20.83375,41.24,12.632001,28.888,concentric,4,3.0,20493.0,301415.0,272106.0,320468.0,282167.0
2026-04-07 17:49:24.512922,226595,1234843850,1234845348,-1.130208,0.046848,-0.10736,5.425,19.1625,-19.92375,40.592003,12.776001,30.160002,concentric,4,3.0,20379.0,300642.0,271667.0,320241.0,282251.0
2026-04-07 17:49:24.514852,226596,1234852811,1234854028,-1.130208,0.046848,-0.10736,6.64125,19.15375,-21.0875,40.592003,12.776001,30.160002,concentric,4,3.0,20379.0,300642.0,271667.0,320241.0,282251.0
2026-04-07 17:49:24.517385,226597,1234861749,1234862731,-1.159488,0.033184,-0.111264,4.62,18.38375,-21.9975,39.768,12.744,31.984001,concentric,4,3.0,20379.0,300642.0,271667.0,320241.0,282251.0
2026-04-07 17:49:24.519887,226598,1234870688,1234871445,-1.159488,0.033184,-0.111264,2.7475,17.66625,-23.31,39.768,12.744,31.984001,concentric,4,3.0,20379.0,300642.0,271667.0,320241.0,282251.0
2026-04-07 17:49:24.522413,226599,1234885582,1234886323,-1.128256,0.074176,-0.16592,3.92,16.45,-24.2375,39.064003,13.176001,32.352,concentric,4,3.0,20379.0,300642.0,271667.0,320241.0,282251.0
2026-04-07 17:49:24.524966,226600,1234894940,1234897095,-1.128256,0.074176,-0.16592,6.90375,16.44125,-24.77125,39.064003,13.176001,32.352,concentric,4,3.0,20379.0,300642.0,271667.0,320241.0,282251.0
2026-04-07 17:49:24.527438,226601,1234904046,1234905878,-1.042368,0.05856,-0.158112,6.685,17.1325,-27.72,39.016003,14.144001,30.568,concentric,4,3.0,20379.0,300642.0,271667.0,320241.0,282251.0
2026-04-07 17:49:24.530152,226602,1234913059,1234914656,-1.042368,0.05856,-0.158112,5.81875,18.725,-30.42375,39.016003,14.144001,30.568,concentric,4,3.0,20379.0,300642.0,271667.0,320241.0,282251.0
2026-04-07 17:49:24.532394,226603,1234927586,1234929578,-1.155584,0.02928,-0.062464,5.81,20.553751,-31.89375,39.128002,13.848001,29.632002,concentric,4,3.0,20379.0,300642.0,271667.0,320241.0,282251.0
2026-04-07 17:49:24.562561,226604,1234936617,1234938266,-1.155584,0.02928,-0.062464,8.0325,20.685,-32.62,39.128002,13.848001,29.632002,concentric,4,3.0,20379.0,300642.0,271667.0,320241.0,282251.0
2026-04-07 17:49:24.588590,226614,1234945618,1234947521,-1.198528,-0.01952,-0.142496,7.46375,17.54375,-31.12375,38.824,14.480001,30.248001,concentric,4,3.0,20231.0,299597.0,271050.0,320076.0,282587.0
2026-04-07 17:49:24.591180,226615,1234960130,1234962458,-1.077504,0.00976,-0.210816,5.74,12.705,-29.12,37.496002,13.936001,31.080002,concentric,4,3.0,20231.0,299597.0,271050.0,320076.0,282587.0
2026-04-07 17:49:24.594302,226616,1234969042,1234971159,-1.077504,0.00976,-0.210816,8.75,10.10625,-27.8425,37.496002,13.936001,31.080002,concentric,4,3.0,20231.0,299597.0,271050.0,320076.0,282587.0
2026-04-07 17:49:24.596128,226617,1234978011,1234979864,-1.077504,0.00976,-0.210816,13.825,9.79125,-26.897501,37.496002,13.936001,31.080002,concentric,4,3.0,20231.0,299597.0,271050.0,320076.0,282587.0
2026-04-07 17:49:24.598670,226618,1234992586,1234994835,-1.071648,0.025376,-0.15616,14.7175,10.5525,-28.192501,38.232002,14.448001,31.528002,concentric,4,3.0,20231.0,299597.0,271050.0,320076.0,282587.0
2026-04-07 17:49:24.628882,226619,1235001530,1235003545,-1.157536,-0.001952,-0.060512,13.46625,10.15,-29.2425,37.504,14.672001,31.088001,concentric,4,3.0,20231.0,299597.0,271050.0,320076.0,282587.0
2026-04-07 17:49:24.632395,226620,1235010567,1235012246,-1.157536,-0.001952,-0.060512,13.62375,9.5375,-27.86875,37.504,14.672001,31.088001,concentric,4,3.0,20231.0,299597.0,271050.0,320076.0,282587.0
2026-04-07 17:49:24.635107,226621,1235019450,1235020946,-1.157536,0.044896,-0.173728,15.21625,8.40875,-26.76625,37.504,14.672001,31.088001,concentric,4,3.0,20231.0,299597.0,271050.0,320076.0,282587.0
2026-04-07 17:49:24.637433,226622,1235033944,1235035812,-1.139968,0.03904,-0.173728,14.69125,5.985,-26.27625,37.344,15.248001,32.352,concentric,4,3.0,20231.0,299597.0,271050.0,320076.0,282587.0
2026-04-07 17:49:24.669883,226632,1235044376,1235046670,-1.106784,-0.015616,-0.171776,12.66125,4.34875,-27.02,37.552002,15.376,28.320002,concentric,4,3.0,20031.0,297671.0,269493.0,318418.0,281230.0
2026-04-07 17:49:24.672837,226633,1235053385,1235055521,-1.106784,-0.015616,-0.171776,11.08625,2.56375,-28.8225,37.552002,15.376,28.320002,concentric,4,3.0,20031.0,297671.0,269493.0,318418.0,281230.0
2026-04-07 17:49:24.674812,226634,1235062336,1235064215,-1.143872,-0.046848,-0.101504,11.1475,1.785,-27.5975,37.992,15.736001,28.504002,concentric,4,3.0,20031.0,297671.0,269493.0,318418.0,281230.0
2026-04-07 17:49:24.681133,226635,1235076971,1235079160,-1.143872,-0.046848,-0.101504,13.69375,1.295,-24.12375,37.992,15.736001,28.504002,concentric,4,3.0,20031.0,297671.0,269493.0,318418.0,281230.0
2026-04-07 17:49:24.711353,226636,1235085903,1235087909,-1.15168,-0.025376,-0.001952,15.18125,3.045,-22.39125,37.208,15.848001,28.624,concentric,4,3.0,20031.0,297671.0,269493.0,318418.0,281230.0
2026-04-07 17:49:24.714984,226637,1235094864,1235096621,-1.15168,-0.025376,-0.001952,15.3125,5.87125,-21.4375,37.208,15.848001,28.624,concentric,4,3.0,20031.0,297671.0,269493.0,318418.0,281230.0
2026-04-07 17:49:24.717413,226638,1235109402,1235111486,-1.095072,0.011712,-0.074176,10.4125,7.245,-20.116251,36.864002,15.744,28.936,concentric,4,3.0,20031.0,297671.0,269493.0,318418.0,281230.0
2026-04-07 17:49:24.723669,226639,1235118433,1235120247,-1.095072,0.011712,-0.074176,2.93125,7.98875,-21.3675,36.864002,15.744,28.936,concentric,4,3.0,20031.0,297671.0,269493.0,318418.0,281230.0
2026-04-07 17:49:24.782623,226640,1235127454,1235128985,-1.10288,-0.05856,-0.138592,0.49,9.17,-23.14375,36.536003,15.496,30.104002,concentric,4,3.0,20031.0,297671.0,269493.0,318418.0,281230.0
2026-04-07 17:49:24.786116,226641,1235136419,1235137689,-1.10288,-0.05856,-0.138592,1.63625,9.0825,-22.9425,36.536003,15.496,30.104002,concentric,4,3.0,20031.0,297671.0,269493.0,318418.0,281230.0
2026-04-07 17:49:24.813619,226652,1235151134,1235152760,-1.056032,-0.080032,-0.113216,4.48,8.16375,-21.595,36.256,16.28,28.840002,concentric,4,3.0,19859.0,296334.0,268525.0,317801.0,281171.0
2026-04-07 17:49:24.816146,226653,1235160089,1235161475,-1.056032,-0.080032,-0.128832,10.0275,8.14625,-21.83125,36.256,16.28,28.840002,concentric,4,3.0,19859.0,296334.0,268525.0,317801.0,281171.0
2026-04-07 17:49:24.818609,226654,1235169064,1235170213,-1.01504,-0.01952,-0.128832,14.1925,7.83125,-23.89625,36.176003,15.928,28.2,concentric,4,3.0,19859.0,296334.0,268525.0,317801.0,281171.0
2026-04-07 17:49:24.821108,226655,1235183569,1235185091,-1.011136,-0.027328,-0.089792,12.39875,8.04125,-25.48,35.248,16.736,28.648,concentric,4,3.0,19859.0,296334.0,268525.0,317801.0,281171.0
2026-04-07 17:49:24.823863,226656,1235192674,1235193832,-1.011136,-0.027328,-0.089792,9.45,8.5575,-26.78375,35.248,16.736,28.648,concentric,4,3.0,19859.0,296334.0,268525.0,317801.0,281171.0
2026-04-07 17:49:24.828660,226657,1235201684,1235202549,-1.042368,-0.070272,-0.113216,4.54125,8.26875,-28.21875,35.696003,16.536001,28.552002,concentric,4,3.0,19859.0,296334.0,268525.0,317801.0,281171.0
2026-04-07 17:49:24.831166,226658,1235216201,1235217551,-1.042368,-0.070272,-0.113216,-0.7525,6.6675,-29.44375,35.696003,16.536001,28.552002,concentric,4,3.0,19859.0,296334.0,268525.0,317801.0,281171.0
2026-04-07 17:49:24.834549,226659,1235225136,1235226262,-0.960384,-0.093696,-0.218624,-2.07375,4.48,-31.0625,34.968002,16.936,28.384,concentric,4,3.0,19859.0,296334.0,268525.0,317801.0,281171.0
2026-04-07 17:49:24.837366,226660,1235234132,1235234984,-0.960384,-0.093696,-0.218624,1.72375,1.9775,-32.15625,34.968002,16.936,28.384,concentric,4,3.0,19859.0,296334.0,268525.0,317801.0,281171.0
2026-04-07 17:49:24.892081,226670,1235243522,1235245784,-0.925248,-0.113216,-0.22448,5.915,0.8925,-32.865,34.296,16.552,31.2,concentric,4,3.0,19945.0,297300.0,269452.0,319040.0,282366.0
2026-04-07 17:49:24.893658,226671,1235258060,1235258619,-0.925248,-0.113216,-0.22448,7.455,1.015,-33.4075,34.296,16.552,31.2,concentric,4,3.0,19945.0,297300.0,269452.0,319040.0,282366.0
2026-04-07 17:49:24.897895,226672,1235267221,1235269438,-0.96624,-0.105408,-0.1464,8.04125,0.09625,-34.09875,33.936,16.568,28.608002,concentric,4,3.0,19945.0,297300.0,269452.0,319040.0,282366.0
2026-04-07 17:49:24.899617,226673,1235276170,1235278137,-0.96624,-0.105408,-0.1464,8.295,-0.18375,-34.51,33.936,16.568,28.608002,concentric,4,3.0,19945.0,297300.0,269452.0,319040.0,282366.0
2026-04-07 17:49:24.901968,226674,1235290660,1235291022,-1.018944,-0.091744,-0.173728,9.58125,-1.7325,-33.41625,33.616,17.136002,28.768002,concentric,4,3.0,19945.0,297300.0,269452.0,319040.0,282366.0
2026-04-07 17:49:24.906685,226675,1235299923,1235301808,-1.018944,-0.091744,-0.173728,9.10875,-3.52625,-32.08625,33.616,17.136002,28.768002,concentric,4,3.0,19945.0,297300.0,269452.0,319040.0,282366.0
2026-04-07 17:49:24.935081,226676,1235308908,1235310573,-0.884256,-0.121024,-0.169824,7.07,-3.35125,-32.90875,33.04,16.904001,28.696001,concentric,4,3.0,19945.0,297300.0,269452.0,319040.0,282366.0
2026-04-07 17:49:24.939640,226677,1235317834,1235319280,-0.884256,-0.121024,-0.169824,5.78375,-2.79125,-34.71125,33.04,16.904001,28.696001,concentric,4,3.0,19945.0,297300.0,269452.0,319040.0,282366.0
2026-04-07 17:49:24.941093,226678,1235332409,1235334150,-0.970144,-0.109312,-0.13664,7.63,-0.8225,-35.46375,32.696003,17.192001,28.632002,concentric,4,3.0,19945.0,297300.0,269452.0,319040.0,282366.0
2026-04-07 17:49:24.947940,226679,1235341334,1235342878,-0.960384,-0.158112,-0.162016,9.65125,0.5775,-34.67625,32.696003,17.192001,28.664001,concentric,4,3.0,19945.0,297300.0,269452.0,319040.0,282366.0
2026-04-07 17:49:24.975908,226689,1235350333,1235351678,-0.960384,-0.158112,-0.162016,9.38875,0.79625,-33.635,33.0,17.432001,28.664001,concentric,4,3.0,20051.0,298188.0,270139.0,319833.0,283085.0
2026-04-07 17:49:24.977491,226690,1235364889,1235366634,-0.911584,-0.154208,-0.162016,6.06375,-0.20125,-32.24375,32.504,17.744001,28.800001,concentric,4,3.0,20051.0,298188.0,270139.0,319833.0,283085.0
2026-04-07 17:49:24.990526,226691,1235373854,1235375367,-0.911584,-0.154208,-0.162016,2.7475,-1.21625,-30.28375,32.504,17.744001,28.800001,concentric,4,3.0,20051.0,298188.0,270139.0,319833.0,283085.0
2026-04-07 17:49:24.992177,226692,1235382939,1235384087,-0.88816,-0.122976,-0.121024,6.01125,0.315,-28.34125,31.104002,17.632,33.024002,concentric,4,3.0,20051.0,298188.0,270139.0,319833.0,283085.0
2026-04-07 17:49:25.022240,226693,1235397475,1235399071,-0.88816,-0.122976,-0.121024,8.98625,2.16125,-28.385,31.104002,17.632,33.024002,concentric,4,3.0,20051.0,298188.0,270139.0,319833.0,283085.0
2026-04-07 17:49:25.024863,226694,1235406401,1235407751,-0.931104,-0.119072,-0.142496,9.9925,3.815,-28.210001,31.792002,16.976002,28.920002,concentric,4,3.0,20051.0,298188.0,270139.0,319833.0,283085.0
2026-04-07 17:49:25.066181,226695,1235415319,1235416484,-0.931104,-0.119072,-0.142496,11.52375,4.445,-28.37625,31.792002,16.976002,28.920002,concentric,4,3.0,20051.0,298188.0,270139.0,319833.0,283085.0
2026-04-07 17:49:25.095123,226696,1235424231,1235425198,-0.944768,-0.17568,-0.154208,13.74625,5.425,-27.8775,31.824001,17.688002,29.152002,concentric,4,3.0,20051.0,298188.0,270139.0,319833.0,283085.0
2026-04-07 17:49:25.099651,226697,1235438766,1235440154,-0.944768,-0.17568,-0.154208,13.685,5.04,-26.460001,31.824001,17.688002,29.152002,concentric,4,3.0,20051.0,298188.0,270139.0,319833.0,283085.0
2026-04-07 17:49:25.127962,226708,1235447793,1235448944,-0.915488,-0.208864,-0.18544,11.75125,3.54375,-24.38625,30.888002,17.752,29.056002,concentric,4,3.0,20254.0,300150.0,271693.0,321357.0,284136.0
2026-04-07 17:49:25.129632,226709,1235456728,1235457705,-0.915488,-0.208864,-0.18544,10.823751,2.3625,-21.72625,30.888002,17.752,29.056002,concentric,4,3.0,20254.0,300150.0,271693.0,321357.0,284136.0
2026-04-07 17:49:25.131177,226710,1235471234,1235472639,-0.895968,-0.169824,-0.16592,11.06,2.5375,-20.265,30.992,17.848001,29.016,concentric,4,3.0,20254.0,300150.0,271693.0,321357.0,284136.0
2026-04-07 17:49:25.134605,226711,1235480161,1235481333,-0.895968,-0.169824,-0.16592,11.17375,1.89,-20.39625,30.992,17.848001,29.016,concentric,4,3.0,20254.0,300150.0,271693.0,321357.0,284136.0
2026-04-07 17:49:25.136139,226712,1235489048,1235489997,-0.919392,-0.201056,-0.181536,10.33375,1.32125,-20.09875,31.088001,17.416,28.464,concentric,4,3.0,20254.0,300150.0,271693.0,321357.0,284136.0
2026-04-07 17:49:25.140548,226713,1235503582,1235504983,-0.872544,-0.277184,-0.050752,8.95125,0.65625,-18.24375,30.048002,18.624,30.136002,concentric,4,3.0,20254.0,300150.0,271693.0,321357.0,284136.0
2026-04-07 17:49:25.142191,226714,1235512614,1235513799,-0.872544,-0.277184,-0.050752,8.88125,1.68,-15.79375,30.048002,18.624,30.136002,concentric,4,3.0,20254.0,300150.0,271693.0,321357.0,284136.0
2026-04-07 17:49:25.143756,226715,1235521560,1235522536,-0.872544,-0.277184,-0.033184,6.58,2.6775,-12.99375,30.048002,18.624,30.136002,concentric,4,3.0,20254.0,300150.0,271693.0,321357.0,284136.0
2026-04-07 17:49:25.147988,226716,1235530508,1235531274,-0.921344,-0.216672,-0.033184,3.2025,2.23125,-10.5875,29.752,17.528002,31.608002,concentric,4,3.0,20254.0,300150.0,271693.0,321357.0,284136.0
2026-04-07 17:49:25.172114,226726,1235545644,1235546269,-0.823744,-0.181536,0.025376,-1.25125,3.01875,-8.715,29.656002,17.184,32.112003,concentric,4,3.0,20328.0,300887.0,272343.0,321990.0,284524.0
2026-04-07 17:49:25.173681,226727,1235554822,1235555167,-0.823744,-0.181536,0.025376,-7.49875,5.60875,-7.2625,29.656002,17.184,32.112003,concentric,4,3.0,20328.0,300887.0,272343.0,321990.0,284524.0
2026-04-07 17:49:25.177968,226728,1235564103,1235565949,-0.81984,-0.296704,0.023424,-15.7675,10.2725,-7.81375,29.672,17.6,31.232002,concentric,4,3.0,20328.0,300887.0,272343.0,321990.0,284524.0
2026-04-07 17:49:25.180417,226729,1235573133,1235574636,-0.81984,-0.296704,0.023424,-24.28125,13.58875,-8.26875,29.672,17.6,31.232002,concentric,4,3.0,20328.0,300887.0,272343.0,321990.0,284524.0
2026-04-07 17:49:25.208840,226730,1235587623,1235589570,-0.882304,-0.226432,-0.206912,-27.545,13.2125,-7.0,29.192001,17.456001,31.184002,concentric,4,3.0,20328.0,300887.0,272343.0,321990.0,284524.0
2026-04-07 17:49:25.213368,226731,1235596513,1235598269,-0.882304,-0.226432,-0.206912,-23.4675,9.03,-5.11875,29.192001,17.456001,31.184002,concentric,4,3.0,20328.0,300887.0,272343.0,321990.0,284524.0
2026-04-07 17:49:25.214920,226732,1235605416,1235606957,-0.804224,-0.199104,-0.230336,-17.710001,4.22625,-2.93125,30.080002,18.368,28.536001,concentric,4,3.0,20328.0,300887.0,272343.0,321990.0,284524.0
2026-04-07 17:49:25.246507,226733,1235619928,1235621851,-0.804224,-0.199104,-0.230336,-11.82125,-0.83125,-3.325,30.080002,18.368,28.536001,concentric,4,3.0,20328.0,300887.0,272343.0,321990.0,284524.0
2026-04-07 17:49:25.254249,226734,1235628843,1235630550,-0.856928,-0.232288,-0.05856,-5.25875,-3.19375,-5.2675,30.576002,18.12,28.688002,concentric,4,3.0,20328.0,300887.0,272343.0,321990.0,284524.0
2026-04-07 17:49:25.255939,226735,1235637749,1235639236,-0.856928,-0.232288,-0.05856,-0.98,-4.61125,-5.13625,30.576002,18.12,28.688002,concentric,4,3.0,20328.0,300887.0,272343.0,321990.0,284524.0
2026-04-07 17:49:25.284528,226745,1235652341,1235654191,-0.91744,-0.230336,-0.03904,-1.44375,-5.60875,-4.71625,31.216002,17.856,28.584002,concentric,4,3.0,20230.0,300232.0,271925.0,322051.0,285108.0
2026-04-07 17:49:25.286040,226746,1235661363,1235662935,-0.91744,-0.230336,-0.03904,-4.7775,-7.18375,-2.8,31.216002,17.856,28.584002,concentric,4,3.0,20230.0,300232.0,271925.0,322051.0,285108.0
2026-04-07 17:49:25.290418,226747,1235670349,1235671655,-0.886208,-0.238144,-0.119072,-7.16625,-6.81625,-1.2425,31.400002,17.832,27.776001,concentric,4,3.0,20230.0,300232.0,271925.0,322051.0,285108.0
2026-04-07 17:49:25.292839,226748,1235684874,1235686626,-0.909632,-0.249856,-0.101504,-8.53125,-5.04875,0.1575,30.192001,17.544,29.928001,concentric,4,3.0,20230.0,300232.0,271925.0,322051.0,285108.0
2026-04-07 17:49:25.299094,226749,1235693817,1235695325,-0.909632,-0.249856,-0.101504,-9.03875,-2.9225,0.41125,30.192001,17.544,29.928001,concentric,4,3.0,20230.0,300232.0,271925.0,322051.0,285108.0
2026-04-07 17:49:25.327725,226750,1235702781,1235704065,-0.940864,-0.236192,-0.11712,-10.03625,-0.875,1.14625,30.192001,17.544,30.264002,concentric,4,3.0,20230.0,300232.0,271925.0,322051.0,285108.0
2026-04-07 17:49:25.330747,226751,1235711783,1235712778,-0.940864,-0.236192,-0.11712,-10.77125,-1.3125,3.08,30.352001,17.032001,30.264002,concentric,4,3.0,20230.0,300232.0,271925.0,322051.0,285108.0
