pc_time,serial_num,sensor_ts,host_ts,ax,ay,az,gx,gy,gz,mx,my,mz,phase,rpe,weight_kg,ppg_a,ppg_b,ppg_c,ppg_d,ppg_e
2026-04-07 17:48:54.523284,221003,1204873674,1204875144,-0.933056,-0.169824,-0.021472,1.54875,6.37875,14.30625,31.760002,17.544,32.536003,eccentric,4,3.0,18639.0,285942.0,260912.0,310189.0,276413.0
2026-04-07 17:48:54.524966,221004,1204882685,1204883871,-0.933056,-0.169824,-0.021472,0.16625,5.81,15.26875,31.760002,17.544,32.536003,eccentric,4,3.0,18639.0,285942.0,260912.0,310189.0,276413.0
2026-04-07 17:48:54.526602,221005,1204891599,1204892609,-0.929152,-0.169824,-0.035136,-2.0825,5.18875,16.40625,32.528,17.808,30.184002,eccentric,4,3.0,18639.0,285942.0,260912.0,310189.0,276413.0
2026-04-07 17:48:54.530600,221006,1204906073,1204907607,-0.913536,-0.181536,-0.05856,-5.06625,4.0775,17.66625,32.528,17.808,32.232002,eccentric,4,3.0,18639.0,285942.0,260912.0,310189.0,276413.0
2026-04-07 17:48:54.532339,221007,1204914993,1204916347,-0.90768,-0.181536,-0.05856,-6.86,2.68625,17.61375,32.072002,17.12,32.272003,eccentric,4,3.0,18639.0,285942.0,260912.0,310189.0,276413.0
2026-04-07 17:48:54.534240,221008,1204924015,1204925056,-0.90768,-0.181536,-0.05856,-5.4425,2.555,17.885,32.072002,17.12,32.272003,eccentric,4,3.0,18639.0,285942.0,260912.0,310189.0,276413.0
2026-04-07 17:48:54.565024,221009,1204938537,1204939979,-0.9272,-0.18544,-0.025376,-3.22875,3.33375,17.99,32.576,16.656,31.472002,eccentric,4,3.0,18639.0,285942.0,260912.0,310189.0,276413.0
2026-04-07 17:48:54.567265,221010,1204947489,1204948792,-0.919392,-0.154208,-0.017568,-0.9275,4.27875,19.075,33.24,17.184,30.136002,eccentric,4,3.0,18639.0,285942.0,260912.0,310189.0,276413.0
2026-04-07 17:48:54.571860,221011,1204956401,1204957477,-0.919392,-0.154208,-0.017568,0.4025,3.6225,20.23875,33.24,17.184,30.136002,eccentric,4,3.0,18639.0,285942.0,260912.0,310189.0,276413.0
2026-04-07 17:48:54.575683,221012,1204970872,1204972421,-0.856928,-0.167872,-0.035136,-2.14375,3.24625,20.02875,33.344,17.672,29.776001,eccentric,4,3.0,18639.0,285942.0,260912.0,310189.0,276413.0
2026-04-07 17:48:54.607020,221022,1204979873,1204981135,-0.856928,-0.167872,-0.035136,-7.27125,2.3975,19.53875,33.344,17.672,29.776001,eccentric,4,3.0,18728.0,286596.0,261336.0,310495.0,276478.0
2026-04-07 17:48:54.608663,221023,1204989060,1204989866,-0.915488,-0.134688,-0.021472,-9.6775,2.345,18.26125,33.256,16.640001,29.768002,eccentric,4,3.0,18728.0,286596.0,261336.0,310495.0,276478.0
2026-04-07 17:48:54.610201,221024,1204998066,1204998597,-0.915488,-0.134688,-0.021472,-8.04125,2.56375,17.815,33.256,16.640001,29.768002,eccentric,4,3.0,18728.0,286596.0,261336.0,310495.0,276478.0
2026-04-07 17:48:54.616841,221025,1205013118,1205013594,-0.952576,-0.111264,-0.044896,-4.4625,1.645,19.50375,34.256,16.936,30.104002,eccentric,4,3.0,18728.0,286596.0,261336.0,310495.0,276478.0
2026-04-07 17:48:54.645344,221026,1205022468,1205024358,-0.952576,-0.111264,-0.044896,-2.91375,0.49875,20.09875,34.256,16.936,30.104002,eccentric,4,3.0,18728.0,286596.0,261336.0,310495.0,276478.0
2026-04-07 17:48:54.649725,221027,1205031397,1205033035,-0.962336,-0.140544,-0.080032,-1.4,-1.015,19.95,34.776,17.2,29.888,eccentric,4,3.0,18728.0,286596.0,261336.0,310495.0,276478.0
2026-04-07 17:48:54.656924,221028,1205045855,1205047928,-0.962336,-0.140544,-0.080032,0.805,-2.66,19.7575,34.776,17.2,29.888,eccentric,4,3.0,18728.0,286596.0,261336.0,310495.0,276478.0
2026-04-07 17:48:54.658476,221029,1205054763,1205056600,-0.942816,-0.163968,-0.128832,1.39125,-3.77125,17.92,34.864002,16.720001,30.28,eccentric,4,3.0,18728.0,286596.0,261336.0,310495.0,276478.0
2026-04-07 17:48:54.690864,221030,1205063687,1205065327,-0.942816,-0.163968,-0.128832,0.70875,-3.815,14.77,34.864002,16.720001,30.28,eccentric,4,3.0,18728.0,286596.0,261336.0,310495.0,276478.0
2026-04-07 17:48:54.716421,221041,1205072653,1205073997,-0.98576,-0.15616,-0.080032,2.695,-3.71,13.53625,35.064003,16.528,31.856,eccentric,4,3.0,18711.0,286487.0,261160.0,310079.0,275939.0
2026-04-07 17:48:54.720658,221042,1205087151,1205088903,-1.097024,-0.066368,0.011712,5.46,-3.43,13.4575,35.064003,16.264,29.552002,eccentric,4,3.0,18711.0,286487.0,261160.0,310079.0,275939.0
2026-04-07 17:48:54.722333,221043,1205096104,1205097605,-1.097024,-0.066368,0.011712,8.68,-1.715,13.48375,35.72,16.264,29.552002,eccentric,4,3.0,18711.0,286487.0,261160.0,310079.0,275939.0
2026-04-07 17:48:54.724832,221044,1205105074,1205106351,-1.097024,-0.066368,0.011712,13.0025,0.39375,13.55375,35.72,16.264,29.552002,eccentric,4,3.0,18711.0,286487.0,261160.0,310079.0,275939.0
2026-04-07 17:48:54.726358,221045,1205119597,1205121308,-1.071648,-0.076128,-0.037088,12.80125,1.82,12.03125,35.56,16.272001,30.880001,eccentric,4,3.0,18711.0,286487.0,261160.0,310079.0,275939.0
2026-04-07 17:48:54.732978,221046,1205128654,1205130103,-1.026752,-0.193248,-0.091744,4.87375,2.03875,8.61875,35.896,16.448,31.800001,eccentric,4,3.0,18711.0,286487.0,261160.0,310079.0,275939.0
2026-04-07 17:48:54.761625,221047,1205137580,1205138858,-1.026752,-0.193248,-0.091744,-1.21625,3.43,6.72875,35.896,16.448,31.800001,eccentric,4,3.0,18711.0,286487.0,261160.0,310079.0,275939.0
2026-04-07 17:48:54.765167,221048,1205152077,1205153774,-1.08336,-0.162016,-0.091744,-2.24,4.76,6.5975,35.896,16.584002,30.424002,eccentric,4,3.0,18711.0,286487.0,261160.0,310079.0,275939.0
2026-04-07 17:48:54.767585,221049,1205161047,1205162427,-1.08336,-0.162016,-0.091744,0.875,6.5275,6.755,35.896,16.584002,30.424002,eccentric,4,3.0,18711.0,286487.0,261160.0,310079.0,275939.0
2026-04-07 17:48:54.772572,221050,1205169963,1205171149,-1.120448,-0.076128,-0.031232,8.085,8.26,7.4725,36.176003,16.08,32.032,eccentric,4,3.0,18711.0,286487.0,261160.0,310079.0,275939.0
2026-04-07 17:48:54.800073,221060,1205179027,1205179898,-1.120448,-0.076128,-0.031232,11.15625,9.56375,7.4725,36.176003,16.08,32.032,eccentric,4,3.0,18685.0,286102.0,260796.0,309578.0,275459.0
2026-04-07 17:48:54.802621,221061,1205193584,1205194927,-1.057984,-0.08784,-0.015616,7.6125,10.0625,6.0025,36.4,16.44,31.936,eccentric,4,3.0,18685.0,286102.0,260796.0,309578.0,275459.0
2026-04-07 17:48:54.805077,221062,1205202535,1205203633,-1.057984,-0.08784,-0.015616,1.75,10.4825,4.20875,36.4,16.44,31.936,eccentric,4,3.0,18685.0,286102.0,260796.0,309578.0,275459.0
2026-04-07 17:48:54.835321,221063,1205211575,1205212357,-1.097024,-0.140544,-0.105408,-1.225,11.8475,2.40625,36.048,15.736001,31.984001,eccentric,4,3.0,18685.0,286102.0,260796.0,309578.0,275459.0
2026-04-07 17:48:54.838900,221064,1205226083,1205227309,-1.097024,-0.140544,-0.105408,-1.11125,11.75125,0.90125,36.048,15.736001,31.984001,eccentric,4,3.0,18685.0,286102.0,260796.0,309578.0,275459.0
2026-04-07 17:48:54.841356,221065,1205234958,1205236030,-1.10288,-0.08784,-0.105408,0.41125,10.64,-0.81375,36.856003,16.28,29.36,eccentric,4,3.0,18685.0,286102.0,260796.0,309578.0,275459.0
2026-04-07 17:48:54.846452,221066,1205243901,1205244730,-1.10288,-0.08784,-0.105408,8.05,11.19125,-2.89625,36.856003,16.28,29.36,eccentric,4,3.0,18685.0,286102.0,260796.0,309578.0,275459.0
2026-04-07 17:48:54.876567,221067,1205258392,1205259645,-1.085312,-0.072224,-0.0488,14.79625,11.55875,-3.5875,36.384003,15.736001,31.256002,eccentric,4,3.0,18685.0,286102.0,260796.0,309578.0,275459.0
2026-04-07 17:48:54.880170,221068,1205267268,1205268347,-1.085312,-0.072224,-0.076128,11.34875,9.765,-4.445,36.384003,15.736001,31.256002,eccentric,4,3.0,18685.0,286102.0,260796.0,309578.0,275459.0
2026-04-07 17:48:54.905262,221078,1205276862,1205277483,-1.007232,-0.128832,-0.076128,3.045,8.575,-5.99375,37.056004,16.12,30.44,eccentric,4,3.0,18749.0,286899.0,261597.0,310686.0,276526.0
2026-04-07 17:48:54.907685,221079,1205286290,1205288402,-1.007232,-0.128832,-0.076128,1.16375,7.7175,-7.42875,37.056004,16.12,30.44,eccentric,4,3.0,18749.0,286899.0,261597.0,310686.0,276526.0
2026-04-07 17:48:54.910111,221080,1205300887,1205301293,-1.09312,-0.070272,-0.05856,4.095,5.635,-8.505,36.696003,15.992001,29.840002,eccentric,4,3.0,18749.0,286899.0,261597.0,310686.0,276526.0
2026-04-07 17:48:54.914320,221081,1205310347,1205312096,-1.194624,0.042944,-0.111264,14.93625,4.52375,-7.34125,37.144,16.056002,31.048002,eccentric,4,3.0,18749.0,286899.0,261597.0,310686.0,276526.0
2026-04-07 17:48:54.944096,221082,1205319308,1205320820,-1.194624,0.042944,-0.111264,25.095,1.51375,-7.20125,37.144,16.056002,31.048002,eccentric,4,3.0,18749.0,286899.0,261597.0,310686.0,276526.0
2026-04-07 17:48:54.947654,221083,1205328241,1205329501,-1.030656,-0.091744,-0.081984,23.2925,-2.14375,-8.35625,37.144,16.224,32.424,eccentric,4,3.0,18749.0,286899.0,261597.0,310686.0,276526.0
2026-04-07 17:48:54.950066,221084,1205342712,1205344435,-1.030656,-0.091744,-0.081984,16.59875,-3.54375,-9.3975,37.648003,16.224,32.424,eccentric,4,3.0,18749.0,286899.0,261597.0,310686.0,276526.0
2026-04-07 17:48:54.955125,221085,1205351664,1205353139,-0.981856,-0.1952,-0.08784,12.0575,-3.29875,-10.98125,36.448,16.024,31.344002,eccentric,4,3.0,18749.0,286899.0,261597.0,310686.0,276526.0
2026-04-07 17:48:54.986353,221086,1205360596,1205361823,-0.981856,-0.1952,-0.08784,9.0475,-2.555,-12.145,36.448,16.024,31.344002,eccentric,4,3.0,18749.0,286899.0,261597.0,310686.0,276526.0
2026-04-07 17:48:55.014824,221097,1205375389,1205376718,-1.145824,-0.052704,0.025376,11.375,-0.105,-11.34875,37.536003,15.264001,31.632002,eccentric,4,3.0,18698.0,286264.0,260943.0,309785.0,275616.0
2026-04-07 17:48:55.016459,221098,1205384318,1205385441,-1.145824,-0.052704,0.025376,20.23875,2.52,-8.00625,37.536003,15.264001,31.632002,eccentric,4,3.0,18698.0,286264.0,260943.0,309785.0,275616.0
2026-04-07 17:48:55.020619,221099,1205393247,1205394170,-1.145824,0.035136,-0.003904,24.4475,3.64875,-4.55,37.432003,15.968,31.408,eccentric,4,3.0,18698.0,286264.0,260943.0,309785.0,275616.0
2026-04-07 17:48:55.022355,221100,1205407797,1205409092,-1.145824,0.035136,-0.050752,17.0625,4.2525,-2.73875,37.432003,15.968,31.408,eccentric,4,3.0,18698.0,286264.0,260943.0,309785.0,275616.0
2026-04-07 17:48:55.023978,221101,1205416749,1205417849,-1.124352,-0.06832,-0.052704,7.8925,5.25,-2.31875,36.224003,15.552001,33.992,eccentric,4,3.0,18698.0,286264.0,260943.0,309785.0,275616.0
2026-04-07 17:48:55.028451,221102,1205425700,1205426576,-1.124352,-0.06832,-0.052704,2.12625,5.29375,-3.9375,36.224003,15.552001,33.992,eccentric,4,3.0,18698.0,286264.0,260943.0,309785.0,275616.0
2026-04-07 17:48:55.058711,221103,1205434615,1205435276,-1.036512,-0.163968,-0.130784,-1.155,6.41375,-5.1625,36.752003,15.344001,33.048,eccentric,4,3.0,18698.0,286264.0,260943.0,309785.0,275616.0
2026-04-07 17:48:55.061016,221104,1205449465,1205450218,-1.1712,-0.083936,-0.074176,-0.455,6.51,-6.3175,37.640003,15.840001,31.232002,eccentric,4,3.0,18698.0,286264.0,260943.0,309785.0,275616.0
2026-04-07 17:48:55.066769,221105,1205458839,1205460975,-1.1712,-0.083936,-0.074176,4.1475,5.99375,-7.62125,37.640003,15.840001,31.232002,eccentric,4,3.0,18698.0,286264.0,260943.0,309785.0,275616.0
2026-04-07 17:48:55.096372,221106,1205467794,1205469673,-1.1712,-0.083936,-0.074176,12.62625,6.475,-4.83,37.640003,15.840001,31.232002,eccentric,4,3.0,18698.0,286264.0,260943.0,309785.0,275616.0
2026-04-07 17:48:55.121462,221116,1205482359,1205484688,-1.247328,0.007808,-0.050752,16.9925,6.79875,-0.0175,37.480003,16.248001,32.688,eccentric,4,3.0,18767.0,286829.0,261374.0,310068.0,275626.0
2026-04-07 17:48:55.125632,221117,1205491309,1205493414,-1.163392,-0.12688,-0.080032,11.24375,4.34875,1.68875,38.432003,15.472001,31.240002,eccentric,4,3.0,18767.0,286829.0,261374.0,310068.0,275626.0
2026-04-07 17:48:55.127347,221118,1205500214,1205502102,-1.163392,-0.12688,-0.080032,2.12625,2.51125,3.00125,38.432003,15.472001,31.240002,eccentric,4,3.0,18767.0,286829.0,261374.0,310068.0,275626.0
2026-04-07 17:48:55.128899,221119,1205509186,1205510848,-1.098976,-0.162016,-0.095648,1.75,2.66875,5.355,37.496002,14.896001,33.896,eccentric,4,3.0,18767.0,286829.0,261374.0,310068.0,275626.0
2026-04-07 17:48:55.131329,221120,1205523718,1205525768,-1.098976,-0.162016,-0.095648,5.18,4.06875,6.90375,37.496002,14.896001,33.896,eccentric,4,3.0,18767.0,286829.0,261374.0,310068.0,275626.0
2026-04-07 17:48:55.136768,221121,1205532742,1205534526,-1.091168,-0.076128,-0.062464,7.18375,5.04,6.55375,37.928,14.984001,31.808,eccentric,4,3.0,18767.0,286829.0,261374.0,310068.0,275626.0
2026-04-07 17:48:55.165388,221122,1205541713,1205543231,-1.091168,-0.076128,-0.062464,9.275,6.34375,4.19125,37.928,14.984001,31.808,eccentric,4,3.0,18767.0,286829.0,261374.0,310068.0,275626.0
2026-04-07 17:48:55.168911,221123,1205556192,1205558148,-1.19072,-0.046848,-0.089792,11.1475,7.4375,4.76,38.448,15.088,30.112001,eccentric,4,3.0,18767.0,286829.0,261374.0,310068.0,275626.0
2026-04-07 17:48:55.171408,221124,1205565109,1205566827,-1.19072,-0.046848,-0.089792,14.105001,7.5075,7.7,38.448,15.088,30.112001,eccentric,4,3.0,18767.0,286829.0,261374.0,310068.0,275626.0
2026-04-07 17:48:55.177700,221125,1205574042,1205575565,-1.214144,-0.091744,-0.062464,11.865,5.8625,11.13875,38.872,14.984001,31.688002,eccentric,4,3.0,18767.0,286829.0,261374.0,310068.0,275626.0
2026-04-07 17:48:55.206372,221135,1205588611,1205590526,-1.214144,-0.091744,-0.140544,8.3825,2.3275,12.99375,38.872,14.984001,31.688002,eccentric,4,3.0,19551.0,293915.0,266947.0,315390.0,279294.0
2026-04-07 17:48:55.208844,221136,1205597583,1205599233,-1.143872,-0.140544,-0.140544,7.9275,-1.015,14.30625,38.704002,14.416,32.168003,eccentric,4,3.0,19551.0,293915.0,266947.0,315390.0,279294.0
2026-04-07 17:48:55.211353,221137,1205606528,1205607945,-1.143872,-0.140544,-0.140544,7.455,-2.87875,15.015,38.704002,14.416,32.168003,eccentric,4,3.0,19551.0,293915.0,266947.0,315390.0,279294.0
2026-04-07 17:48:55.241634,221138,1205621100,1205622871,-1.085312,-0.095648,-0.121024,8.91625,-3.1675,12.59125,39.328003,14.792001,31.872002,eccentric,4,3.0,19551.0,293915.0,266947.0,315390.0,279294.0
2026-04-07 17:48:55.245240,221139,1205630054,1205631559,-1.139968,-0.044896,-0.074176,11.725,-1.44375,8.7675,39.552002,14.272,32.304,eccentric,4,3.0,19551.0,293915.0,266947.0,315390.0,279294.0
2026-04-07 17:48:55.247661,221140,1205638948,1205640259,-1.139968,-0.044896,-0.074176,14.0,0.7175,7.49,39.552002,14.272,32.304,eccentric,4,3.0,19551.0,293915.0,266947.0,315390.0,279294.0
2026-04-07 17:48:55.250064,221141,1205647860,1205648990,-1.139968,-0.044896,-0.074176,11.89125,1.89875,7.83125,39.552002,14.272,32.304,eccentric,4,3.0,19551.0,293915.0,266947.0,315390.0,279294.0
2026-04-07 17:48:55.280301,221142,1205662319,1205663988,-1.130208,-0.0976,-0.037088,4.85625,2.56375,8.40875,38.712,13.56,36.960003,eccentric,4,3.0,19551.0,293915.0,266947.0,315390.0,279294.0
2026-04-07 17:48:55.283848,221143,1205671251,1205672675,-1.153632,-0.152256,-0.085888,-4.01625,1.96,9.79125,39.88,13.72,32.216003,eccentric,4,3.0,19551.0,293915.0,266947.0,315390.0,279294.0
2026-04-07 17:48:55.312064,221154,1205680684,1205681737,-1.153632,-0.152256,-0.085888,-7.735,-0.07,11.042501,39.88,13.72,32.216003,eccentric,4,3.0,20315.0,301134.0,272751.0,321655.0,284724.0
2026-04-07 17:48:55.313989,221155,1205695213,1205696652,-1.104832,-0.138592,-0.193248,-3.89375,-1.47875,11.97875,39.656002,13.960001,32.280003,eccentric,4,3.0,20315.0,301134.0,272751.0,321655.0,284724.0
2026-04-07 17:48:55.316328,221156,1205704139,1205705517,-1.104832,-0.138592,-0.193248,1.25125,-2.1175,12.67,39.656002,13.960001,32.280003,eccentric,4,3.0,20315.0,301134.0,272751.0,321655.0,284724.0
2026-04-07 17:48:55.318850,221157,1205713071,1205714214,-1.116544,-0.070272,-0.154208,7.21875,-1.5925,12.59125,40.36,13.936001,32.632,eccentric,4,3.0,20315.0,301134.0,272751.0,321655.0,284724.0
2026-04-07 17:48:55.351480,221158,1205727546,1205729128,-1.116544,-0.070272,-0.154208,16.23125,0.28,11.9,40.36,13.936001,32.632,eccentric,4,3.0,20315.0,301134.0,272751.0,321655.0,284724.0
2026-04-07 17:48:55.355047,221159,1205736456,1205737823,-1.11264,-0.050752,-0.052704,22.51375,2.03875,12.10125,40.776,13.400001,32.536003,eccentric,4,3.0,20315.0,301134.0,272751.0,321655.0,284724.0
2026-04-07 17:48:55.357215,221160,1205745374,1205746521,-1.11264,-0.050752,-0.052704,21.37625,3.8675,11.99625,40.776,13.400001,32.536003,eccentric,4,3.0,20315.0,301134.0,272751.0,321655.0,284724.0
2026-04-07 17:48:55.358957,221161,1205754278,1205755230,-1.169248,-0.07808,-0.05856,15.04125,4.76,11.4275,41.064003,12.776001,31.984001,eccentric,4,3.0,20315.0,301134.0,272751.0,321655.0,284724.0
2026-04-07 17:48:55.380205,221162,1205768780,1205770197,-1.169248,-0.07808,-0.05856,9.7475,5.03125,11.6375,41.064003,12.776001,31.984001,eccentric,4,3.0,20315.0,301134.0,272751.0,321655.0,284724.0
2026-04-07 17:48:55.409846,221172,1205777821,1205778931,-1.114592,-0.119072,-0.113216,8.4,4.865,11.83875,41.04,13.072001,32.72,eccentric,4,3.0,20830.0,306046.0,276979.0,326578.0,289035.0
2026-04-07 17:48:55.411523,221173,1205786867,1205787731,-1.114592,-0.119072,-0.113216,8.33875,5.74,11.50625,41.04,13.072001,32.72,eccentric,4,3.0,20830.0,306046.0,276979.0,326578.0,289035.0
2026-04-07 17:48:55.419365,221174,1205801351,1205802747,-1.071648,-0.11712,-0.13664,7.735,7.21875,10.92,41.336002,12.176001,34.104,eccentric,4,3.0,20830.0,306046.0,276979.0,326578.0,289035.0
2026-04-07 17:48:55.421146,221175,1205810267,1205811452,-1.071648,-0.083936,-0.111264,6.72,7.28875,11.43625,41.336002,12.512001,33.504,eccentric,4,3.0,20830.0,306046.0,276979.0,326578.0,289035.0
2026-04-07 17:48:55.422964,221176,1205819189,1205820180,-1.071648,-0.083936,-0.111264,5.78375,6.46625,13.25625,41.136,12.512001,33.504,eccentric,4,3.0,20830.0,306046.0,276979.0,326578.0,289035.0
2026-04-07 17:48:55.453648,221177,1205833691,1205835068,-1.079456,-0.052704,-0.06832,5.92375,5.45125,14.6125,41.128002,11.8,32.2,eccentric,4,3.0,20830.0,306046.0,276979.0,326578.0,289035.0
2026-04-07 17:48:55.458140,221178,1205842606,1205843782,-1.079456,-0.052704,-0.06832,5.48625,4.27,15.30375,41.128002,11.8,32.2,eccentric,4,3.0,20830.0,306046.0,276979.0,326578.0,289035.0
2026-04-07 17:48:55.459650,221179,1205851523,1205852465,-1.071648,-0.037088,-0.083936,5.78375,3.42125,15.54,42.008003,12.040001,32.928,eccentric,4,3.0,20830.0,306046.0,276979.0,326578.0,289035.0
2026-04-07 17:48:55.490058,221180,1205865996,1205867361,-1.071648,-0.037088,-0.083936,6.44,2.72125,15.365,42.008003,12.040001,32.928,eccentric,4,3.0,20830.0,306046.0,276979.0,326578.0,289035.0
2026-04-07 17:48:55.492318,221181,1205874860,1205876059,-1.079456,-0.033184,-0.095648,4.9875,1.89,13.76375,41.936,11.920001,31.976002,eccentric,4,3.0,20830.0,306046.0,276979.0,326578.0,289035.0
2026-04-07 17:48:55.519362,221191,1205883956,1205884873,-1.079456,-0.033184,-0.095648,4.73375,1.9775,10.3075,41.936,11.920001,31.976002,eccentric,4,3.0,20899.0,306755.0,277572.0,327185.0,289398.0
2026-04-07 17:48:55.521157,221192,1205892939,1205893619,-1.09312,-0.023424,-0.070272,6.475,2.51125,7.13125,42.208,11.360001,32.256,eccentric,4,3.0,20899.0,306755.0,277572.0,327185.0,289398.0
2026-04-07 17:48:55.522661,221193,1205907859,1205908540,-1.09312,-0.023424,-0.070272,8.1025,2.7825,5.285,42.208,11.360001,32.256,eccentric,4,3.0,20899.0,306755.0,277572.0,327185.0,289398.0
2026-04-07 17:48:55.526715,221194,1205917160,1205919385,-1.108736,-0.025376,-0.064416,7.21,2.70375,3.9025,42.56,11.872001,32.152,eccentric,4,3.0,20899.0,306755.0,277572.0,327185.0,289398.0
2026-04-07 17:48:55.530467,221195,1205926075,1205928077,-1.108736,-0.025376,-0.064416,5.0575,2.625,3.24625,42.56,11.872001,32.152,eccentric,4,3.0,20899.0,306755.0,277572.0,327185.0,289398.0
2026-04-07 17:48:55.559092,221196,1205940576,1205940915,-1.15168,-0.070272,-0.093696,1.44375,2.42375,1.9075,42.52,10.552,32.176003,eccentric,4,3.0,20899.0,306755.0,277572.0,327185.0,289398.0
2026-04-07 17:48:55.563649,221197,1205949768,1205951652,-1.15168,-0.070272,-0.093696,0.35875,1.68,1.93375,42.52,10.552,32.176003,eccentric,4,3.0,20899.0,306755.0,277572.0,327185.0,289398.0
2026-04-07 17:48:55.565937,221198,1205958723,1205960375,-1.116544,-0.074176,-0.105408,1.75875,1.0675,2.56375,42.544003,10.92,31.416002,eccentric,4,3.0,20899.0,306755.0,277572.0,327185.0,289398.0
2026-04-07 17:48:55.572027,221199,1205967662,1205969093,-1.116544,-0.074176,-0.105408,4.165,1.6275,2.07375,42.544003,10.92,31.416002,eccentric,4,3.0,20899.0,306755.0,277572.0,327185.0,289398.0
2026-04-07 17:48:55.633714,221210,1205982744,1205983997,-1.114592,-0.046848,-0.072224,5.57375,1.8725,1.28625,42.304,10.952001,31.912,eccentric,4,3.0,21031.0,307819.0,278424.0,328105.0,290158.0
2026-04-07 17:48:55.636850,221211,1205991735,1205992812,-1.153632,-0.01952,-0.060512,6.86,1.88125,1.8725,42.568,10.904,32.280003,eccentric,4,3.0,21031.0,307819.0,278424.0,328105.0,290158.0
2026-04-07 17:48:55.638621,221212,1206000639,1206001518,-1.153632,-0.01952,-0.060512,6.1775,2.12625,2.8,42.568,10.904,32.280003,eccentric,4,3.0,21031.0,307819.0,278424.0,328105.0,290158.0
2026-04-07 17:48:55.640125,221213,1206015165,1206016465,-1.198528,-0.033184,-0.007808,3.955,2.24,3.6925,43.072002,10.88,32.280003,eccentric,4,3.0,21031.0,307819.0,278424.0,328105.0,290158.0
2026-04-07 17:48:55.643621,221214,1206024188,1206025174,-1.198528,-0.033184,-0.007808,1.35625,2.63375,4.80375,43.072002,10.88,32.280003,eccentric,4,3.0,21031.0,307819.0,278424.0,328105.0,290158.0
2026-04-07 17:48:55.645230,221215,1206033139,1206033911,-1.134112,-0.093696,-0.042944,-0.62125,2.47625,4.69,42.712,10.352,32.568,eccentric,4,3.0,21031.0,307819.0,278424.0,328105.0,290158.0
2026-04-07 17:48:55.649221,221216,1206042718,1206044741,-1.134112,-0.093696,-0.042944,-1.33,2.31,4.3225,42.712,10.352,32.568,eccentric,4,3.0,21031.0,307819.0,278424.0,328105.0,290158.0
2026-04-07 17:48:55.677835,221217,1206057246,1206057607,-1.095072,-0.052704,-0.10736,0.77875,2.21375,4.375,43.424004,11.080001,33.224003,eccentric,4,3.0,21031.0,307819.0,278424.0,328105.0,290158.0
2026-04-07 17:48:55.682298,221218,1206066469,1206068378,-1.095072,-0.052704,-0.10736,3.3075,3.7275,3.40375,43.424004,11.080001,33.224003,eccentric,4,3.0,21031.0,307819.0,278424.0,328105.0,290158.0
2026-04-07 17:48:55.683912,221219,1206075390,1206077068,-1.126304,-0.007808,-0.099552,3.71875,5.62625,1.715,43.68,10.648001,32.808002,eccentric,4,3.0,21031.0,307819.0,278424.0,328105.0,290158.0
2026-04-07 17:48:55.717348,221229,1206089978,1206090469,-1.126304,-0.007808,-0.099552,2.58125,6.43125,0.7875,43.68,10.648001,32.808002,eccentric,4,3.0,21178.0,309514.0,279897.0,329849.0,291608.0
2026-04-07 17:48:55.718919,221230,1206099503,1206101308,-1.124352,-0.007808,-0.07808,1.04125,6.0375,1.12,43.04,10.128,33.432003,eccentric,4,3.0,21178.0,309514.0,279897.0,329849.0,291608.0
2026-04-07 17:48:55.723227,221231,1206108459,1206110083,-1.124352,-0.007808,-0.07808,-2.03,5.215,0.6825,43.04,10.128,33.432003,eccentric,4,3.0,21178.0,309514.0,279897.0,329849.0,291608.0
2026-04-07 17:48:55.724728,221232,1206117450,1206118829,-1.1224,-0.02928,-0.070272,-3.9725,3.91125,-0.35875,42.744003,10.104,32.184002,eccentric,4,3.0,21178.0,309514.0,279897.0,329849.0,291608.0
2026-04-07 17:48:55.754945,221233,1206131966,1206133743,-1.114592,-0.0488,-0.05856,-3.14125,3.0975,-1.82875,43.600002,10.088,32.784,eccentric,4,3.0,21178.0,309514.0,279897.0,329849.0,291608.0
2026-04-07 17:48:55.765629,221234,1206141006,1206142459,-1.114592,-0.0488,-0.05856,-1.33875,2.8,-3.535,43.600002,10.088,32.784,eccentric,4,3.0,21178.0,309514.0,279897.0,329849.0,291608.0
2026-04-07 17:48:55.767341,221235,1206149949,1206151152,-1.114592,-0.0488,-0.05856,-0.2625,1.33,-3.8325,43.600002,10.088,32.784,eccentric,4,3.0,21178.0,309514.0,279897.0,329849.0,291608.0
2026-04-07 17:48:55.768917,221236,1206164449,1206166030,-1.11264,-0.072224,-0.08784,-1.84625,0.595,-2.31,43.448,10.512,31.688002,eccentric,4,3.0,21178.0,309514.0,279897.0,329849.0,291608.0
2026-04-07 17:48:55.776825,221237,1206173400,1206174798,-1.116544,-0.091744,-0.091744,-3.5525,-0.6125,-0.4025,43.008003,10.320001,32.192,eccentric,4,3.0,21178.0,309514.0,279897.0,329849.0,291608.0
2026-04-07 17:48:55.805620,221247,1206182501,1206183546,-1.116544,-0.091744,-0.091744,-2.12625,-0.20125,2.40625,43.008003,10.320001,32.192,eccentric,4,3.0,21357.0,311568.0,281771.0,332252.0,293635.0
2026-04-07 17:48:55.807404,221248,1206191536,1206192276,-1.116544,-0.091744,-0.066368,0.14,-0.27125,4.87375,43.008003,10.320001,32.192,eccentric,4,3.0,21357.0,311568.0,281771.0,332252.0,293635.0
2026-04-07 17:48:55.808939,221249,1206206610,1206207246,-1.116544,-0.08784,-0.066368,-0.0875,0.2625,5.32875,43.424004,10.032001,32.52,eccentric,4,3.0,21357.0,311568.0,281771.0,332252.0,293635.0
2026-04-07 17:48:55.840024,221250,1206215899,1206218023,-1.13216,-0.062464,-0.03904,-2.6775,0.81375,6.5625,43.480003,10.312,32.312,eccentric,4,3.0,21357.0,311568.0,281771.0,332252.0,293635.0
2026-04-07 17:48:55.842314,221251,1206224850,1206226725,-1.13216,-0.062464,-0.03904,-5.04875,-0.2625,8.198751,43.480003,10.312,32.312,eccentric,4,3.0,21357.0,311568.0,281771.0,332252.0,293635.0
2026-04-07 17:48:55.846801,221252,1206233773,1206235402,-1.110688,-0.02928,-0.037088,-5.11,-0.32375,7.98875,43.72,9.64,30.992,eccentric,4,3.0,21357.0,311568.0,281771.0,332252.0,293635.0
2026-04-07 17:48:55.851381,221253,1206248916,1206250712,-1.110688,-0.02928,-0.037088,-5.11875,-0.3675,7.175,43.72,9.64,30.992,eccentric,4,3.0,21357.0,311568.0,281771.0,332252.0,293635.0
2026-04-07 17:48:55.882543,221254,1206257882,1206259410,-1.098976,-0.007808,-0.064416,-4.935,-0.18375,5.55625,42.848003,9.232,32.024002,eccentric,4,3.0,21357.0,311568.0,281771.0,332252.0,293635.0
2026-04-07 17:48:55.884753,221255,1206266808,1206268092,-1.098976,-0.007808,-0.064416,-5.03125,-0.18375,3.98125,42.848003,9.232,32.024002,eccentric,4,3.0,21357.0,311568.0,281771.0,332252.0,293635.0
2026-04-07 17:48:55.913633,221266,1206281769,1206283471,-1.100928,0.001952,-0.07808,-5.6,-0.18375,3.01875,43.480003,9.328,32.24,eccentric,4,3.0,21608.0,313491.0,283223.0,333571.0,294668.0
2026-04-07 17:48:55.915190,221267,1206290873,1206292251,-1.100928,0.001952,-0.07808,-5.67,-0.51625,2.52,43.480003,9.328,32.24,eccentric,4,3.0,21608.0,313491.0,283223.0,333571.0,294668.0
2026-04-07 17:48:55.919350,221268,1206299935,1206301002,-1.10288,-0.011712,-0.07808,-7.48125,-0.77875,0.56875,43.632004,8.856,34.168003,eccentric,4,3.0,21608.0,313491.0,283223.0,333571.0,294668.0
2026-04-07 17:48:55.921051,221269,1206308896,1206309731,-1.10288,-0.011712,-0.07808,-10.43,-0.90125,-1.0325,43.632004,8.856,34.168003,eccentric,4,3.0,21608.0,313491.0,283223.0,333571.0,294668.0
2026-04-07 17:48:55.950482,221270,1206323368,1206324615,-1.11264,-0.027328,-0.083936,-10.955,-0.95375,-1.58375,43.336002,9.112,33.624,eccentric,4,3.0,21608.0,313491.0,283223.0,333571.0,294668.0
2026-04-07 17:48:55.955181,221271,1206332356,1206333358,-1.11264,-0.056608,-0.099552,-10.57,-1.51375,-1.8725,43.336002,9.112,33.624,eccentric,4,3.0,21608.0,313491.0,283223.0,333571.0,294668.0
2026-04-07 17:48:55.957281,221272,1206341277,1206342085,-1.095072,-0.056608,-0.099552,-9.730001,-2.21375,-1.89,44.24,9.248,33.328003,eccentric,4,3.0,21608.0,313491.0,283223.0,333571.0,294668.0
2026-04-07 17:48:55.958815,221273,1206355765,1206356976,-1.10288,-0.044896,-0.085888,-9.38875,-1.60125,-1.23375,43.960003,9.624001,31.808,eccentric,4,3.0,21608.0,313491.0,283223.0,333571.0,294668.0
2026-04-07 17:48:55.990023,221274,1206364739,1206365681,-1.10288,-0.044896,-0.085888,-9.2225,0.0,-1.05875,43.960003,9.624001,31.808,eccentric,4,3.0,21608.0,313491.0,283223.0,333571.0,294668.0
2026-04-07 17:48:55.992245,221275,1206373659,1206374459,-1.091168,-0.015616,-0.076128,-6.4225,0.4025,-2.8175,44.032,9.256001,32.664,eccentric,4,3.0,21608.0,313491.0,283223.0,333571.0,294668.0
2026-04-07 17:48:56.018634,221285,1206388231,1206389468,-1.091168,-0.015616,-0.076128,-3.7275,-0.07,-4.17375,44.032,9.256001,32.664,eccentric,4,3.0,22020.0,316659.0,285632.0,335859.0,296290.0
2026-04-07 17:48:56.020150,221286,1206397183,1206398242,-1.100928,-0.025376,-0.08784,-8.35625,0.5425,-4.26125,44.264004,9.456,31.544,eccentric,4,3.0,22020.0,316659.0,285632.0,335859.0,296290.0
2026-04-07 17:48:56.024630,221287,1206406195,1206406962,-1.100928,-0.025376,-0.08784,-13.69375,0.3675,-4.06875,44.264004,9.456,31.544,eccentric,4,3.0,22020.0,316659.0,285632.0,335859.0,296290.0
2026-04-07 17:48:56.026855,221288,1206415599,1206417704,-1.100928,-0.054656,-0.10736,-13.5975,0.07,-2.7475,44.08,9.496,31.832,eccentric,4,3.0,22020.0,316659.0,285632.0,335859.0,296290.0
2026-04-07 17:48:56.057060,221289,1206430086,1206430586,-1.100928,-0.054656,-0.10736,-10.325,0.4375,-2.2925,44.08,9.496,31.832,eccentric,4,3.0,22020.0,316659.0,285632.0,335859.0,296290.0
2026-04-07 17:48:56.062926,221290,1206439499,1206441362,-1.10288,-0.05856,-0.091744,-6.44875,-0.28,-2.84375,43.856003,9.56,32.224003,eccentric,4,3.0,22020.0,316659.0,285632.0,335859.0,296290.0
2026-04-07 17:48:56.067566,221291,1206448438,1206450109,-1.10288,-0.05856,-0.091744,-3.03625,0.35875,-2.345,43.856003,9.56,32.224003,eccentric,4,3.0,22020.0,316659.0,285632.0,335859.0,296290.0
2026-04-07 17:48:56.067628,221292,1206457342,1206458797,-1.106784,-0.033184,-0.076128,-2.1175,1.2775,-2.00375,43.992,9.72,31.848001,eccentric,4,3.0,22020.0,316659.0,285632.0,335859.0,296290.0
2026-04-07 17:48:56.094007,221293,1206471872,1206473741,-1.106784,-0.033184,-0.076128,-2.9575,1.37375,-1.72375,43.992,9.72,31.848001,eccentric,4,3.0,22020.0,316659.0,285632.0,335859.0,296290.0
2026-04-07 17:48:56.121179,221303,1206480808,1206482421,-1.11264,-0.056608,-0.07808,-4.34875,1.2075,-1.40875,43.992,9.304001,32.712,eccentric,4,3.0,22078.0,316927.0,285686.0,335691.0,296047.0
2026-04-07 17:48:56.122660,221304,1206489761,1206491159,-1.11264,-0.056608,-0.07808,-5.24125,2.10875,-2.33625,43.992,9.304001,32.712,eccentric,4,3.0,22078.0,316927.0,285686.0,335691.0,296047.0
2026-04-07 17:48:56.129474,221305,1206504325,1206506111,-1.114592,-0.06832,-0.08784,-5.7225,3.3775,-3.38625,44.256,9.344001,31.584002,eccentric,4,3.0,22078.0,316927.0,285686.0,335691.0,296047.0
2026-04-07 17:48:56.131197,221306,1206513296,1206514827,-1.130208,-0.060512,-0.083936,-6.2475,3.535,-3.85875,44.256,9.344001,31.112001,eccentric,4,3.0,22078.0,316927.0,285686.0,335691.0,296047.0
2026-04-07 17:48:56.132666,221307,1206522261,1206523514,-1.13216,-0.060512,-0.083936,-6.5275,4.06875,-4.15625,44.128002,8.968,31.112001,eccentric,4,3.0,22078.0,316927.0,285686.0,335691.0,296047.0
2026-04-07 17:48:56.163999,221308,1206536771,1206538479,-1.145824,-0.070272,-0.099552,-6.51875,4.515,-4.17375,43.992,9.072001,31.456001,eccentric,4,3.0,22078.0,316927.0,285686.0,335691.0,296047.0
2026-04-07 17:48:56.167601,221309,1206545670,1206547180,-1.145824,-0.070272,-0.099552,-5.565,5.3025,-3.64875,43.992,9.072001,31.456001,eccentric,4,3.0,22078.0,316927.0,285686.0,335691.0,296047.0
2026-04-07 17:48:56.170081,221310,1206554588,1206555883,-1.136064,-0.085888,-0.101504,-6.5275,5.565,-2.75625,44.336002,9.480001,33.696003,eccentric,4,3.0,22078.0,316927.0,285686.0,335691.0,296047.0
2026-04-07 17:48:56.172579,221311,1206569063,1206570796,-1.136064,-0.085888,-0.101504,-8.6625,5.31125,-2.24,44.336002,9.480001,33.696003,eccentric,4,3.0,22078.0,316927.0,285686.0,335691.0,296047.0
2026-04-07 17:48:56.202801,221312,1206578045,1206579574,-1.145824,-0.128832,-0.091744,-10.85,6.41375,-1.7675,44.192,8.952001,31.496002,eccentric,4,3.0,22078.0,316927.0,285686.0,335691.0,296047.0
2026-04-07 17:48:56.231346,221323,1206587271,1206588452,-1.145824,-0.128832,-0.091744,-11.17375,7.67375,-1.19,44.192,8.952001,31.496002,eccentric,4,3.0,21776.0,313783.0,282916.0,332316.0,293178.0
2026-04-07 17:48:56.233847,221324,1206596206,1206597172,-1.13216,-0.130784,-0.11712,-11.235,8.2425,-0.72625,43.352,9.120001,31.544,eccentric,4,3.0,21776.0,313783.0,282916.0,332316.0,293178.0
2026-04-07 17:48:56.236394,221325,1206610654,1206612067,-1.13216,-0.130784,-0.11712,-10.26375,8.8375,-0.91,43.352,9.120001,31.544,eccentric,4,3.0,21776.0,313783.0,282916.0,332316.0,293178.0
2026-04-07 17:48:56.242611,221326,1206619573,1206620802,-1.15168,-0.081984,-0.121024,-7.8225,9.5375,-0.98875,43.376003,8.496,33.032,eccentric,4,3.0,21776.0,313783.0,282916.0,332316.0,293178.0
2026-04-07 17:48:56.245092,221327,1206628691,1206629520,-1.15168,-0.081984,-0.121024,-4.50625,9.59,-0.28,43.376003,8.496,33.032,eccentric,4,3.0,21776.0,313783.0,282916.0,332316.0,293178.0
2026-04-07 17:48:56.262931,221328,1206643223,1206644525,-1.147776,-0.035136,-0.093696,-4.445,9.24,-0.0875,43.768,8.752001,32.936,eccentric,4,3.0,21776.0,313783.0,282916.0,332316.0,293178.0
2026-04-07 17:48:56.265287,221329,1206652133,1206653254,-1.147776,-0.035136,-0.093696,-5.55625,8.98625,-0.875,43.768,8.752001,32.936,eccentric,4,3.0,21776.0,313783.0,282916.0,332316.0,293178.0
2026-04-07 17:48:56.267798,221330,1206661043,1206661935,-1.163392,-0.042944,-0.066368,-6.69375,9.52875,-0.56875,43.784,9.584001,31.256002,concentric,4,3.0,21776.0,313783.0,282916.0,332316.0,293178.0
2026-04-07 17:48:56.297892,221331,1206675588,1206676841,-1.149728,-0.070272,-0.070272,-8.9075,9.02125,1.05,43.832,9.184,30.976002,concentric,4,3.0,21776.0,313783.0,282916.0,332316.0,293178.0
2026-04-07 17:48:56.326332,221341,1206685013,1206685647,-1.149728,-0.070272,-0.070272,-9.7125,8.68,2.765,43.832,9.184,30.976002,concentric,4,3.0,21331.0,309335.0,279076.0,327891.0,289581.0
2026-04-07 17:48:56.328834,221342,1206694261,1206694584,-1.108736,-0.07808,-0.101504,-9.9925,8.40875,4.8125,43.832,8.408,34.208,concentric,4,3.0,21331.0,309335.0,279076.0,327891.0,289581.0
2026-04-07 17:48:56.331320,221343,1206703403,1206705505,-1.108736,-0.07808,-0.101504,-10.3075,9.0475,6.37,43.08,8.408,34.208,concentric,4,3.0,21331.0,309335.0,279076.0,327891.0,289581.0
2026-04-07 17:48:56.333850,221344,1206717936,1206718381,-1.163392,-0.040992,-0.128832,-10.64875,10.255,6.99125,43.416,9.048,31.072002,concentric,4,3.0,21331.0,309335.0,279076.0,327891.0,289581.0
2026-04-07 17:48:56.336303,221345,1206727267,1206729149,-1.163392,-0.040992,-0.128832,-11.235,11.042501,7.42875,43.416,9.048,31.072002,concentric,4,3.0,21331.0,309335.0,279076.0,327891.0,289581.0
2026-04-07 17:48:56.340082,221346,1206736299,1206737874,-1.19072,-0.01952,-0.132736,-12.74,10.955,10.08875,43.808002,8.816,30.856,concentric,4,3.0,21331.0,309335.0,279076.0,327891.0,289581.0
2026-04-07 17:48:56.373270,221347,1206745294,1206746651,-1.19072,-0.01952,-0.132736,-14.28875,10.815,13.60625,43.808002,8.816,30.856,concentric,4,3.0,21331.0,309335.0,279076.0,327891.0,289581.0
2026-04-07 17:48:56.374844,221348,1206759781,1206761544,-1.182912,-0.023424,-0.103456,-15.79375,10.22,16.0125,44.08,8.280001,31.952002,concentric,4,3.0,21331.0,309335.0,279076.0,327891.0,289581.0
2026-04-07 17:48:56.376345,221349,1206768728,1206770265,-1.182912,-0.023424,-0.103456,-14.945,10.03625,15.636251,44.08,8.280001,31.952002,concentric,4,3.0,21331.0,309335.0,279076.0,327891.0,289581.0
2026-04-07 17:48:56.382964,221350,1206777660,1206779038,-1.202432,0.035136,-0.122976,-12.25875,9.8175,15.18125,43.896004,8.488001,31.336002,concentric,4,3.0,21331.0,309335.0,279076.0,327891.0,289581.0
2026-04-07 17:48:56.411376,221360,1206792657,1206794577,-1.202432,0.035136,-0.122976,-9.87,10.5175,14.18375,43.896004,8.488001,31.336002,concentric,4,3.0,20927.0,305737.0,276122.0,324572.0,286948.0
2026-04-07 17:48:56.415625,221361,1206801703,1206803331,-1.155584,0.027328,-0.16592,-8.30375,10.43875,11.96125,44.264004,8.624001,32.104,concentric,4,3.0,20927.0,305737.0,276122.0,324572.0,286948.0
2026-04-07 17:48:56.417197,221362,1206810661,1206812067,-1.155584,0.027328,-0.16592,-8.35625,11.2875,8.61,44.264004,8.624001,32.104,concentric,4,3.0,20927.0,305737.0,276122.0,324572.0,286948.0
2026-04-07 17:48:56.424422,221363,1206819637,1206820786,-1.182912,0.060512,-0.08784,-8.42625,12.04875,5.5125,44.056004,8.480001,31.352001,concentric,4,3.0,20927.0,305737.0,276122.0,324572.0,286948.0
2026-04-07 17:48:56.452788,221364,1206834582,1206835908,-1.182912,0.060512,-0.105408,-6.755,12.32,3.43,44.056004,8.480001,31.352001,concentric,4,3.0,20927.0,305737.0,276122.0,324572.0,286948.0
2026-04-07 17:48:56.457327,221365,1206843572,1206844785,-1.179008,0.085888,-0.105408,-6.4925,11.31375,1.54,43.432003,8.256001,32.152,concentric,4,3.0,20927.0,305737.0,276122.0,324572.0,286948.0
2026-04-07 17:48:56.459603,221366,1206852517,1206853493,-1.179008,0.085888,-0.105408,-7.6825,9.98375,-1.28625,43.432003,8.256001,32.152,concentric,4,3.0,20927.0,305737.0,276122.0,324572.0,286948.0
2026-04-07 17:48:56.489922,221367,1206867358,1206868575,-1.126304,0.07808,-0.134688,-8.417501,9.14375,-4.33125,43.288002,8.280001,30.968002,concentric,4,3.0,20927.0,305737.0,276122.0,324572.0,286948.0
2026-04-07 17:48:56.492223,221368,1206876285,1206877334,-1.124352,0.062464,-0.111264,-9.91375,9.730001,-7.525,43.752003,9.064,31.248001,concentric,4,3.0,20927.0,305737.0,276122.0,324572.0,286948.0
2026-04-07 17:48:56.522425,221378,1206885509,1206886140,-1.124352,0.062464,-0.111264,-10.6925,11.095,-10.45625,43.752003,9.064,31.248001,concentric,4,3.0,20532.0,301892.0,272876.0,320866.0,283748.0
2026-04-07 17:48:56.530710,221379,1206894951,1206896932,-1.124352,0.076128,-0.060512,-9.44125,11.76875,-13.09,43.752003,9.064,31.248001,concentric,4,3.0,20532.0,301892.0,272876.0,320866.0,283748.0
2026-04-07 17:48:56.532338,221380,1206909485,1206909810,-1.147776,0.076128,-0.060512,-8.5575,12.46875,-14.315001,43.840004,8.448,29.936,concentric,4,3.0,20532.0,301892.0,272876.0,320866.0,283748.0
2026-04-07 17:48:56.533900,221381,1206918716,1206920590,-1.089216,0.070272,-0.066368,-8.4525,12.17125,-15.53125,42.800003,9.256001,30.240002,concentric,4,3.0,20532.0,301892.0,272876.0,320866.0,283748.0
2026-04-07 17:48:56.537938,221382,1206927631,1206929280,-1.089216,0.070272,-0.066368,-11.2,11.655,-18.3925,42.800003,9.256001,30.240002,concentric,4,3.0,20532.0,301892.0,272876.0,320866.0,283748.0
2026-04-07 17:48:56.566499,221383,1206942247,1206944175,-1.095072,0.089792,-0.080032,-12.31125,12.39,-20.5625,43.664,9.312,30.616001,concentric,4,3.0,20532.0,301892.0,272876.0,320866.0,283748.0
2026-04-07 17:48:56.571027,221384,1206951206,1206952888,-1.095072,0.089792,-0.080032,-11.0075,14.56875,-21.35875,43.664,9.312,30.616001,concentric,4,3.0,20532.0,301892.0,272876.0,320866.0,283748.0
2026-04-07 17:48:56.572596,221385,1206960110,1206961581,-1.097024,0.083936,-0.054656,-12.46875,15.61875,-22.39125,42.912003,9.184,31.552002,concentric,4,3.0,20532.0,301892.0,272876.0,320866.0,283748.0
2026-04-07 17:48:56.576759,221386,1206969038,1206970315,-1.097024,0.083936,-0.054656,-15.995,16.59,-23.8,42.912003,9.184,31.552002,concentric,4,3.0,20532.0,301892.0,272876.0,320866.0,283748.0
2026-04-07 17:48:56.644856,221397,1206983578,1206985337,-1.106784,0.056608,-0.062464,-19.0575,17.325,-24.255,42.848003,9.56,28.480001,concentric,4,3.0,20125.0,298067.0,269617.0,317103.0,280438.0
2026-04-07 17:48:56.646541,221398,1206992572,1206994131,-1.106784,0.056608,-0.062464,-19.04,17.78875,-23.59875,42.848003,9.56,28.480001,concentric,4,3.0,20125.0,298067.0,269617.0,317103.0,280438.0
2026-04-07 17:48:56.650617,221399,1207001509,1207002851,-1.143872,0.025376,-0.095648,-16.73875,17.22875,-23.52875,42.904003,9.992001,29.640001,concentric,4,3.0,20125.0,298067.0,269617.0,317103.0,280438.0
2026-04-07 17:48:56.652327,221400,1207016155,1207017783,-1.124352,0.0488,-0.160064,-13.6325,15.8375,-23.9225,42.904003,10.136001,31.336002,concentric,4,3.0,20125.0,298067.0,269617.0,317103.0,280438.0
2026-04-07 17:48:56.653990,221401,1207025059,1207026540,-1.124352,0.0488,-0.160064,-11.22625,14.28875,-24.255,42.000004,10.136001,31.336002,concentric,4,3.0,20125.0,298067.0,269617.0,317103.0,280438.0
2026-04-07 17:48:56.658109,221402,1207034003,1207035259,-1.124352,0.0488,-0.160064,-6.965,13.13375,-25.66375,42.000004,10.136001,31.336002,concentric,4,3.0,20125.0,298067.0,269617.0,317103.0,280438.0
2026-04-07 17:48:56.659843,221403,1207048606,1207050315,-1.15168,0.0976,-0.119072,-1.04125,12.915,-26.7575,41.952003,10.752001,29.232002,concentric,4,3.0,20125.0,298067.0,269617.0,317103.0,280438.0
2026-04-07 17:48:56.661660,221404,1207057534,1207059067,-1.196576,0.111264,-0.128832,0.93625,12.0925,-27.36125,42.320004,10.864,29.456001,concentric,4,3.0,20125.0,298067.0,269617.0,317103.0,280438.0
2026-04-07 17:48:56.692477,221405,1207066520,1207067784,-1.196576,0.111264,-0.128832,-0.72625,11.57625,-28.16625,42.320004,10.864,29.456001,concentric,4,3.0,20125.0,298067.0,269617.0,317103.0,280438.0
2026-04-07 17:48:56.694713,221406,1207075531,1207076536,-1.196576,0.111264,-0.113216,-0.805,11.52375,-28.875,42.320004,10.864,29.456001,concentric,4,3.0,20125.0,298067.0,269617.0,317103.0,280438.0
2026-04-07 17:48:56.720095,221416,1207090158,1207092011,-1.235616,0.076128,-0.11712,-1.28625,10.47375,-30.30125,41.296,11.504001,31.216002,concentric,4,3.0,19771.0,294795.0,266889.0,314106.0,277732.0
2026-04-07 17:48:56.724357,221417,1207099114,1207100790,-1.383968,0.115168,-0.1464,2.8875,8.995,-30.6075,41.488003,11.808001,28.224,concentric,4,3.0,19771.0,294795.0,266889.0,314106.0,277732.0
2026-04-07 17:48:56.726041,221418,1207108157,1207109493,-1.383968,0.115168,-0.1464,10.87625,6.895,-29.3125,41.488003,11.808001,28.224,concentric,4,3.0,19771.0,294795.0,266889.0,314106.0,277732.0
2026-04-07 17:48:56.727629,221419,1207122712,1207124465,-1.186816,0.07808,-0.150304,16.66875,4.27,-30.397501,41.464,12.128,29.28,concentric,4,3.0,19771.0,294795.0,266889.0,314106.0,277732.0
2026-04-07 17:48:56.735472,221420,1207131750,1207133231,-1.186816,0.07808,-0.150304,14.175,3.63125,-34.44875,41.464,12.128,29.28,concentric,4,3.0,19771.0,294795.0,266889.0,314106.0,277732.0
2026-04-07 17:48:56.764121,221421,1207140702,1207141934,-1.177056,0.044896,-0.093696,6.2825,5.0575,-36.81125,41.064003,11.984,28.856,concentric,4,3.0,19771.0,294795.0,266889.0,314106.0,277732.0
2026-04-07 17:48:56.768574,221422,1207155144,1207156889,-1.177056,0.044896,-0.093696,1.33875,7.3325,-38.49125,41.064003,11.984,28.856,concentric,4,3.0,19771.0,294795.0,266889.0,314106.0,277732.0
2026-04-07 17:48:56.770045,221423,1207164103,1207165644,-1.116544,0.052704,-0.05856,-2.02125,8.75875,-38.045002,40.416,11.52,31.408,concentric,4,3.0,19771.0,294795.0,266889.0,314106.0,277732.0
2026-04-07 17:48:56.778217,221424,1207173090,1207174354,-1.116544,0.052704,-0.05856,-4.17375,8.5925,-36.67125,40.416,11.52,31.408,concentric,4,3.0,19771.0,294795.0,266889.0,314106.0,277732.0
2026-04-07 17:48:56.786889,221425,1207182027,1207183086,-1.087264,0.05856,-0.05856,-2.905,9.073751,-35.51625,40.960003,12.84,27.016,concentric,4,3.0,19771.0,294795.0,266889.0,314106.0,277732.0
2026-04-07 17:48:56.818069,221435,1207196689,1207198009,-1.069696,0.07808,-0.064416,0.62125,9.59,-33.4775,40.960003,12.84,27.928001,concentric,4,3.0,19620.0,293292.0,265625.0,312620.0,276366.0
2026-04-07 17:48:56.819800,221436,1207205654,1207206755,-1.069696,0.07808,-0.064416,3.15,9.87875,-31.61375,39.904003,13.184001,27.928001,concentric,4,3.0,19620.0,293292.0,265625.0,312620.0,276366.0
2026-04-07 17:48:56.821399,221437,1207214572,1207215448,-1.069696,0.07808,-0.064416,3.22875,10.21125,-30.82625,39.904003,13.184001,27.928001,concentric,4,3.0,19620.0,293292.0,265625.0,312620.0,276366.0
2026-04-07 17:48:56.852471,221438,1207229205,1207230370,-1.057984,0.060512,-0.07808,3.045,10.395,-31.73625,39.952003,13.72,26.912,concentric,4,3.0,19620.0,293292.0,265625.0,312620.0,276366.0
2026-04-07 17:48:56.854734,221439,1207238159,1207239078,-1.124352,0.046848,-0.12688,3.82375,10.115,-32.31375,39.624,13.904,26.824001,concentric,4,3.0,19620.0,293292.0,265625.0,312620.0,276366.0
2026-04-07 17:48:56.859377,221440,1207247053,1207247794,-1.124352,0.046848,-0.12688,6.88625,9.35375,-31.94625,39.624,13.904,26.824001,concentric,4,3.0,19620.0,293292.0,265625.0,312620.0,276366.0
2026-04-07 17:48:56.860983,221441,1207256446,1207258573,-1.124352,0.046848,-0.111264,9.625,7.07875,-31.12375,39.624,13.904,26.824001,concentric,4,3.0,19620.0,293292.0,265625.0,312620.0,276366.0
2026-04-07 17:48:56.889163,221442,1207270973,1207271428,-1.091168,0.013664,-0.111264,9.948751,5.24125,-29.8025,38.344,13.576,30.168001,concentric,4,3.0,19620.0,293292.0,265625.0,312620.0,276366.0
2026-04-07 17:48:56.893558,221443,1207280276,1207282167,-1.149728,-0.005856,-0.05856,9.695,4.41875,-28.411251,38.800003,14.400001,27.672,concentric,4,3.0,19620.0,293292.0,265625.0,312620.0,276366.0
2026-04-07 17:48:56.920089,221454,1207289793,1207291007,-1.149728,-0.005856,-0.05856,6.90375,1.30375,-26.04,38.800003,14.400001,27.672,concentric,4,3.0,19472.0,292196.0,264751.0,311719.0,275524.0
2026-04-07 17:48:56.924371,221455,1207304345,1207305949,-1.21024,0.072224,-0.093696,7.14,-2.2575,-23.8525,37.328003,14.032001,28.768002,concentric,4,3.0,19472.0,292196.0,264751.0,311719.0,275524.0
2026-04-07 17:48:56.926100,221456,1207313312,1207314649,-1.21024,0.072224,-0.093696,9.835,-6.1425,-22.88125,37.328003,14.032001,28.768002,concentric,4,3.0,19472.0,292196.0,264751.0,311719.0,275524.0
2026-04-07 17:48:56.927684,221457,1207322317,1207323385,-1.186816,0.121024,-0.15616,14.27125,-10.42125,-21.866251,37.176003,14.160001,29.2,concentric,4,3.0,19472.0,292196.0,264751.0,311719.0,275524.0
2026-04-07 17:48:56.958756,221458,1207331315,1207332078,-1.186816,0.121024,-0.15616,18.725,-13.78125,-21.65625,37.176003,14.160001,29.2,concentric,4,3.0,19472.0,292196.0,264751.0,311719.0,275524.0
2026-04-07 17:48:56.963136,221459,1207346338,1207347005,-1.011136,-0.007808,-0.154208,18.3575,-15.085,-22.18125,38.280003,14.272,27.904001,concentric,4,3.0,19472.0,292196.0,264751.0,311719.0,275524.0
2026-04-07 17:48:56.965591,221460,1207355657,1207357782,-1.011136,-0.007808,-0.154208,12.80125,-13.25625,-23.21375,38.280003,14.272,27.904001,concentric,4,3.0,19472.0,292196.0,264751.0,311719.0,275524.0
2026-04-07 17:48:56.969608,221461,1207364583,1207366516,-1.061888,-0.10736,-0.0488,5.31125,-10.56125,-24.89375,38.016003,14.616001,28.328001,concentric,4,3.0,19472.0,292196.0,264751.0,311719.0,275524.0
2026-04-07 17:48:57.001256,221462,1207373542,1207375204,-1.061888,-0.10736,-0.0488,2.5025,-8.53125,-24.115,38.016003,14.616001,28.328001,concentric,4,3.0,19472.0,292196.0,264751.0,311719.0,275524.0
2026-04-07 17:48:57.028177,221472,1207388137,1207390436,-1.036512,-0.033184,-0.02928,4.83,-7.60375,-21.245,38.088,14.936001,29.480001,concentric,4,3.0,19660.0,293674.0,265933.0,312899.0,276505.0
2026-04-07 17:48:57.029890,221473,1207397180,1207399152,-1.036512,-0.033184,-0.025376,5.87125,-6.79,-19.43375,38.088,14.936001,29.480001,concentric,4,3.0,19660.0,293674.0,265933.0,312899.0,276505.0
2026-04-07 17:48:57.031371,221474,1207406068,1207407965,-0.892064,0.007808,-0.025376,0.42875,-6.5625,-19.17125,37.752003,14.64,28.000002,concentric,4,3.0,19660.0,293674.0,265933.0,312899.0,276505.0
2026-04-07 17:48:57.035582,221475,1207420613,1207422880,-0.964288,-0.015616,-0.072224,-6.6675,-5.31125,-20.37875,36.496002,14.56,29.632002,concentric,4,3.0,19660.0,293674.0,265933.0,312899.0,276505.0
2026-04-07 17:48:57.038043,221476,1207429542,1207431566,-0.964288,-0.015616,-0.072224,-9.2575,-3.17625,-21.6125,36.496002,14.56,29.632002,concentric,4,3.0,19660.0,293674.0,265933.0,312899.0,276505.0
2026-04-07 17:48:57.042255,221477,1207438558,1207440330,-0.886208,-0.031232,-0.119072,-6.64125,-3.4475,-22.505,36.272003,14.488001,29.208002,concentric,4,3.0,19660.0,293674.0,265933.0,312899.0,276505.0
2026-04-07 17:48:57.073994,221478,1207453043,1207455266,-0.886208,-0.031232,-0.119072,-1.8375,-3.22,-22.67125,36.272003,14.488001,29.208002,concentric,4,3.0,19660.0,293674.0,265933.0,312899.0,276505.0
2026-04-07 17:48:57.083280,221479,1207461980,1207463954,-0.940864,-0.042944,-0.119072,2.82625,-2.70375,-25.26125,36.608,15.040001,27.768002,concentric,4,3.0,19660.0,293674.0,265933.0,312899.0,276505.0
2026-04-07 17:48:57.085522,221480,1207470889,1207472643,-0.940864,-0.042944,-0.119072,8.47875,-2.84375,-27.74625,36.608,15.040001,27.768002,concentric,4,3.0,19660.0,293674.0,265933.0,312899.0,276505.0
2026-04-07 17:48:57.113248,221490,1207485392,1207487968,-0.950624,-0.027328,-0.111264,14.07,-3.14125,-27.965,36.128002,15.472001,27.6,concentric,4,3.0,19643.0,293932.0,266336.0,313581.0,277085.0
2026-04-07 17:48:57.114886,221491,1207494303,1207494606,-0.950624,-0.027328,-0.111264,16.485,-3.84125,-27.93875,36.128002,15.472001,27.6,concentric,4,3.0,19643.0,293932.0,266336.0,313581.0,277085.0
2026-04-07 17:48:57.117251,221492,1207503562,1207505435,-0.90768,-0.111264,-0.070272,11.725,-4.2875,-28.32375,35.128002,15.416,30.264002,concentric,4,3.0,19643.0,293932.0,266336.0,313581.0,277085.0
2026-04-07 17:48:57.118863,221493,1207512560,1207514136,-0.90768,-0.111264,-0.070272,4.9175,-3.3075,-29.42625,35.128002,15.416,30.264002,concentric,4,3.0,19643.0,293932.0,266336.0,313581.0,277085.0
2026-04-07 17:48:57.150044,221494,1207527049,1207529049,-0.909632,-0.154208,-0.113216,-1.225,-1.8025,-30.7125,35.032,15.544001,30.656002,concentric,4,3.0,19643.0,293932.0,266336.0,313581.0,277085.0
2026-04-07 17:48:57.151940,221495,1207535973,1207537729,-0.909632,-0.154208,-0.113216,-3.57,-1.93375,-32.2525,35.032,15.544001,30.656002,concentric,4,3.0,19643.0,293932.0,266336.0,313581.0,277085.0
2026-04-07 17:48:57.155028,221496,1207544892,1207546415,-0.99552,-0.056608,-0.142496,5.2675,-1.77625,-33.81,35.320004,16.536001,27.152,concentric,4,3.0,19643.0,293932.0,266336.0,313581.0,277085.0
2026-04-07 17:48:57.185285,221497,1207559438,1207561323,-0.938912,-0.017568,-0.128832,20.06375,-1.3825,-32.795002,34.776,16.128,28.832,concentric,4,3.0,19643.0,293932.0,266336.0,313581.0,277085.0
2026-04-07 17:48:57.188790,221498,1207568349,1207570144,-0.938912,-0.017568,-0.128832,27.15125,-0.42,-32.83,34.776,16.128,28.832,concentric,4,3.0,19643.0,293932.0,266336.0,313581.0,277085.0
2026-04-07 17:48:57.191349,221499,1207577256,1207578816,-0.938912,-0.017568,-0.128832,21.88375,0.455,-34.55375,34.776,16.128,28.832,concentric,4,3.0,19643.0,293932.0,266336.0,313581.0,277085.0
2026-04-07 17:48:57.218788,221510,1207591867,1207593806,-0.919392,-0.099552,-0.066368,13.95625,0.9975,-35.46375,34.256,16.536001,28.176,concentric,4,3.0,19743.0,295176.0,267466.0,315246.0,278600.0
2026-04-07 17:48:57.221432,221511,1207600920,1207602515,-0.880352,-0.152256,-0.081984,8.37375,2.7825,-35.525,32.952,16.304,30.072,concentric,4,3.0,19743.0,295176.0,267466.0,315246.0,278600.0
2026-04-07 17:48:57.223936,221512,1207609925,1207611257,-0.880352,-0.152256,-0.081984,5.43375,5.5125,-36.60125,32.952,16.304,30.072,concentric,4,3.0,19743.0,295176.0,267466.0,315246.0,278600.0
2026-04-07 17:48:57.226314,221513,1207618838,1207620072,-0.925248,-0.15616,-0.099552,4.8475,8.085,-38.54375,33.184002,16.216002,31.448002,concentric,4,3.0,19743.0,295176.0,267466.0,315246.0,278600.0
2026-04-07 17:48:57.256578,221514,1207633364,1207635008,-0.925248,-0.15616,-0.099552,6.7025,9.77375,-38.3075,33.184002,16.216002,31.448002,concentric,4,3.0,19743.0,295176.0,267466.0,315246.0,278600.0
2026-04-07 17:48:57.260154,221515,1207642304,1207643763,-0.979904,-0.122976,-0.08784,9.79125,11.48875,-36.5925,33.432003,16.44,28.496002,concentric,4,3.0,19743.0,295176.0,267466.0,315246.0,278600.0
2026-04-07 17:48:57.262581,221516,1207651215,1207652467,-0.979904,-0.122976,-0.08784,15.46125,12.80125,-34.685,33.432003,16.44,28.496002,concentric,4,3.0,19743.0,295176.0,267466.0,315246.0,278600.0
2026-04-07 17:48:57.268832,221517,1207665764,1207667413,-0.935008,-0.113216,-0.066368,16.1175,12.9325,-31.68375,32.88,16.784,28.344002,concentric,4,3.0,19743.0,295176.0,267466.0,315246.0,278600.0
2026-04-07 17:48:57.299005,221518,1207674755,1207676086,-0.935008,-0.113216,-0.066368,12.18,12.11875,-31.4125,32.88,16.784,28.344002,concentric,4,3.0,19743.0,295176.0,267466.0,315246.0,278600.0
2026-04-07 17:48:57.302758,221519,1207683675,1207684755,-0.944768,-0.154208,-0.163968,10.31625,10.5875,-31.63125,33.480003,16.92,30.152002,concentric,4,3.0,19743.0,295176.0,267466.0,315246.0,278600.0
2026-04-07 17:48:57.327539,221529,1207698262,1207699699,-0.944768,-0.154208,-0.11712,8.7675,9.8875,-30.765,33.480003,16.92,30.152002,concentric,4,3.0,19625.0,294252.0,266765.0,314783.0,278342.0
2026-04-07 17:48:57.330120,221530,1207707177,1207708406,-0.954528,-0.222528,-0.111264,5.48625,9.82625,-30.12625,32.368,17.288,26.664001,concentric,4,3.0,19625.0,294252.0,266765.0,314783.0,278342.0
2026-04-07 17:48:57.332560,221531,1207716080,1207717120,-0.954528,-0.222528,-0.111264,7.035,10.255,-29.37375,32.368,17.288,26.664001,concentric,4,3.0,19625.0,294252.0,266765.0,314783.0,278342.0
2026-04-07 17:48:57.335077,221532,1207730615,1207732030,-1.042368,-0.134688,-0.101504,18.5325,8.72375,-28.14875,31.776001,16.608002,31.016,concentric,4,3.0,19625.0,294252.0,266765.0,314783.0,278342.0
2026-04-07 17:48:57.341342,221533,1207739549,1207740776,-1.028704,-0.095648,-0.124928,27.772501,5.145,-26.74875,31.840002,17.056002,30.44,concentric,4,3.0,19625.0,294252.0,266765.0,314783.0,278342.0
2026-04-07 17:48:57.374389,221534,1207748520,1207749512,-1.028704,-0.095648,-0.124928,29.47,0.1575,-25.20875,31.840002,17.056002,30.44,concentric,4,3.0,19625.0,294252.0,266765.0,314783.0,278342.0
2026-04-07 17:48:57.376074,221535,1207757456,1207758208,-1.028704,-0.095648,-0.124928,29.21625,-3.395,-23.2225,31.840002,17.056002,30.44,concentric,4,3.0,19625.0,294252.0,266765.0,314783.0,278342.0
2026-04-07 17:48:57.377627,221536,1207772385,1207773103,-0.942816,-0.230336,-0.121024,25.6725,-4.55,-21.14875,31.664001,17.368,30.712002,concentric,4,3.0,19625.0,294252.0,266765.0,314783.0,278342.0
2026-04-07 17:48:57.408791,221537,1207781731,1207783858,-0.954528,-0.245952,0.013664,16.345,-3.7275,-18.48,31.288002,17.28,32.16,concentric,4,3.0,19625.0,294252.0,266765.0,314783.0,278342.0
