pc_time,serial_num,sensor_ts,host_ts,ax,ay,az,gx,gy,gz,mx,my,mz,phase,rpe,weight_kg,ppg_a,ppg_b,ppg_c,ppg_d,ppg_e
2026-04-08 21:47:20.719679,213259,1609504012949344,1612915909,1.061888,0.169824,-0.023424,-2.82625,3.73625,1.9775,-27.168001,13.064001,3.48,eccentric,4,3.0,18600.0,138532.0,225614.0,277346.0,261752.0
2026-04-08 21:47:20.722131,213260,1609504012958348,1612924610,1.042368,0.179584,-0.027328,-0.105,4.03375,1.81125,-27.04,12.912001,3.088,eccentric,4,3.0,18600.0,138532.0,225614.0,277346.0,261752.0
2026-04-08 21:47:20.730654,213261,1609504012967273,1612933281,1.042368,0.179584,-0.027328,-0.16625,4.4275,1.3825,-27.04,12.912001,3.088,eccentric,4,3.0,18600.0,138532.0,225614.0,277346.0,261752.0
2026-04-08 21:47:20.758595,213262,1609504012981842,1612948137,0.983808,0.109312,-0.220576,-3.85875,4.5675,0.5775,-26.568,12.928,3.36,eccentric,4,3.0,18600.0,138532.0,225614.0,277346.0,261752.0
2026-04-08 21:47:20.762126,213263,1609504012990774,1612956868,0.983808,0.109312,-0.220576,-9.24,4.94375,0.60375,-26.568,12.928,3.36,eccentric,4,3.0,18600.0,138532.0,225614.0,277346.0,261752.0
2026-04-08 21:47:20.768370,213264,1609504013005195,1612971741,1.013088,0.095648,-0.12688,-9.47625,5.24125,0.91,-26.752,13.088,2.856,eccentric,4,3.0,18600.0,138532.0,225614.0,277346.0,261752.0
2026-04-08 21:47:20.774673,213265,1609504013014108,1612980407,1.013088,0.095648,-0.12688,-6.93875,5.80125,2.07375,-26.752,13.088,2.856,eccentric,4,3.0,18600.0,138532.0,225614.0,277346.0,261752.0
2026-04-08 21:47:20.804807,213266,1609504013028545,1612995263,0.93696,0.173728,-0.113216,-3.78,5.81,2.12625,-26.624,13.088,2.936,eccentric,4,3.0,18600.0,138532.0,225614.0,277346.0,261752.0
2026-04-08 21:47:20.839599,213278,1609504013037510,1613004051,0.93696,0.111264,-0.0976,-1.58375,5.36375,1.3125,-26.624,13.088,2.936,eccentric,4,3.0,18670.0,138749.0,225816.0,277459.0,261805.0
2026-04-08 21:47:20.842145,213279,1609504013046519,1613012715,1.042368,0.122976,-0.0976,-2.24875,5.45125,0.1225,-26.456001,12.976001,3.456,eccentric,4,3.0,18670.0,138749.0,225816.0,277459.0,261805.0
2026-04-08 21:47:20.844632,213280,1609504013060998,1613027714,0.997472,0.138592,-0.076128,-3.29,6.51,-1.18125,-26.552002,13.168,3.24,eccentric,4,3.0,18670.0,138749.0,225816.0,277459.0,261805.0
2026-04-08 21:47:20.847196,213281,1609504013069963,1613036406,0.997472,0.138592,-0.076128,-3.40375,7.11375,-0.6125,-26.552002,13.168,3.24,eccentric,4,3.0,18670.0,138749.0,225816.0,277459.0,261805.0
2026-04-08 21:47:20.849616,213282,1609504013084530,1613051306,1.089216,0.17568,-0.066368,-1.79375,7.60375,0.21,-26.52,13.064001,5.064,eccentric,4,3.0,18670.0,138749.0,225816.0,277459.0,261805.0
2026-04-08 21:47:20.856106,213283,1609504013093479,1613060032,1.089216,0.17568,-0.066368,0.455,7.62125,1.5225,-26.52,13.064001,5.064,eccentric,4,3.0,18670.0,138749.0,225816.0,277459.0,261805.0
2026-04-08 21:47:20.886098,213284,1609504013107992,1613074895,0.976,0.189344,-0.271328,-0.3325,8.435,2.1175,-26.248001,13.504001,4.552,eccentric,4,3.0,18670.0,138749.0,225816.0,277459.0,261805.0
2026-04-08 21:47:20.889620,213285,1609504013116960,1613083636,0.976,0.189344,-0.271328,-4.7425,7.77875,2.38875,-26.248001,13.504001,4.552,eccentric,4,3.0,18670.0,138749.0,225816.0,277459.0,261805.0
2026-04-08 21:47:20.892401,213286,1609504013125849,1613092336,1.020896,0.160064,-0.144448,-11.9875,7.42875,0.97125,-26.208002,13.280001,5.944,eccentric,4,3.0,18670.0,138749.0,225816.0,277459.0,261805.0
2026-04-08 21:47:20.927191,213297,1609504013140746,1613107705,1.065792,0.099552,-0.245952,-16.616251,7.5075,0.97125,-26.208002,13.472001,4.664,eccentric,4,3.0,18751.0,138868.0,225810.0,277295.0,261633.0
2026-04-08 21:47:20.929723,213298,1609504013149661,1613116392,1.065792,0.099552,-0.245952,-14.02625,7.77875,2.5375,-26.208002,13.472001,4.664,eccentric,4,3.0,18751.0,138868.0,225810.0,277295.0,261633.0
2026-04-08 21:47:20.932131,213299,1609504013164220,1613131272,1.020896,0.128832,-0.28304,-7.84875,7.37625,4.6375,-25.952002,13.048,4.568,eccentric,4,3.0,18751.0,138868.0,225810.0,277295.0,261633.0
2026-04-08 21:47:20.934650,213300,1609504013173226,1613139991,1.020896,0.128832,-0.28304,-5.04875,7.28,5.0575,-25.952002,13.048,4.568,eccentric,4,3.0,18751.0,138868.0,225810.0,277295.0,261633.0
2026-04-08 21:47:20.964843,213301,1609504013182136,1613148694,1.085312,0.128832,-0.02928,-4.2,6.81625,3.7275,-25.920002,13.576,4.824,eccentric,4,3.0,18751.0,138868.0,225810.0,277295.0,261633.0
2026-04-08 21:47:20.968402,213302,1609504013196636,1613163586,1.085312,0.128832,-0.02928,-5.64375,6.23875,2.51125,-25.920002,13.576,4.824,eccentric,4,3.0,18751.0,138868.0,225810.0,277295.0,261633.0
2026-04-08 21:47:20.970885,213303,1609504013205533,1613172251,1.114592,0.101504,-0.113216,-7.60375,5.78375,1.88125,-25.592001,13.688001,3.0,eccentric,4,3.0,18751.0,138868.0,225810.0,277295.0,261633.0
2026-04-08 21:47:21.002267,213304,1609504013220093,1613187179,0.99552,0.113216,-0.230336,-7.28875,5.705,2.485,-25.872002,14.128,3.736,eccentric,4,3.0,18751.0,138868.0,225810.0,277295.0,261633.0
2026-04-08 21:47:21.004712,213305,1609504013229067,1613195844,0.99552,0.113216,-0.230336,-5.565,6.04625,3.64875,-25.872002,14.128,3.736,eccentric,4,3.0,18751.0,138868.0,225810.0,277295.0,261633.0
2026-04-08 21:47:21.035909,213316,1609504013243610,1613210751,0.99552,0.148352,-0.296704,-3.78875,6.23,5.20625,-25.304,13.64,4.336,eccentric,4,3.0,18888.0,139262.0,226215.0,277542.0,261745.0
2026-04-08 21:47:21.038385,213317,1609504013252526,1613219427,0.99552,0.148352,-0.296704,-2.905,6.02,6.16,-25.304,13.64,4.336,eccentric,4,3.0,18888.0,139262.0,226215.0,277542.0,261745.0
2026-04-08 21:47:21.040901,213318,1609504013261558,1613228097,1.052128,0.15616,-0.050752,0.49875,6.58,6.22125,-25.056002,13.984,4.616,eccentric,4,3.0,18888.0,139262.0,226215.0,277542.0,261745.0
2026-04-08 21:47:21.043416,213319,1609504013276087,1613243008,1.052128,0.15616,-0.050752,1.3825,7.25375,7.55125,-25.056002,13.984,4.616,eccentric,4,3.0,18888.0,139262.0,226215.0,277542.0,261745.0
2026-04-08 21:47:21.045842,213320,1609504013285069,1613251685,1.01504,0.122976,-0.191296,-4.99625,7.07875,8.91625,-24.816002,14.248001,6.456,eccentric,4,3.0,18888.0,139262.0,226215.0,277542.0,261745.0
2026-04-08 21:47:21.076095,213321,1609504013299536,1613266552,0.95648,0.093696,-0.240096,-11.96125,6.85125,10.49125,-24.816002,14.248001,6.232,eccentric,4,3.0,18888.0,139262.0,226215.0,277542.0,261745.0
2026-04-08 21:47:21.079675,213322,1609504013308468,1613275264,0.95648,0.093696,-0.240096,-12.635,6.58875,12.7575,-24.416,14.240001,6.232,eccentric,4,3.0,18888.0,139262.0,226215.0,277542.0,261745.0
2026-04-08 21:47:21.082189,213323,1609504013322967,1613288104,1.036512,0.050752,-0.150304,-7.58625,6.58,13.475,-24.28,14.552001,4.88,eccentric,4,3.0,18888.0,139262.0,226215.0,277542.0,261745.0
2026-04-08 21:47:21.138380,213334,1609504013332078,1613298788,1.036512,0.050752,-0.150304,-4.85625,6.1775,13.04625,-24.28,14.552001,4.88,eccentric,4,3.0,18989.0,139666.0,226696.0,277900.0,261963.0
2026-04-08 21:47:21.140858,213335,1609504013341025,1613307489,0.933056,0.08784,-0.296704,-5.53,6.02,11.85625,-24.024002,14.448001,5.248,eccentric,4,3.0,18989.0,139666.0,226696.0,277900.0,261963.0
2026-04-08 21:47:21.143428,213336,1609504013355504,1613322344,0.933056,0.08784,-0.296704,-2.6425,6.36125,11.585,-24.024002,14.448001,5.248,eccentric,4,3.0,18989.0,139666.0,226696.0,277900.0,261963.0
2026-04-08 21:47:21.145947,213337,1609504013364654,1613331044,0.923296,0.128832,-0.10736,-0.48125,6.37,11.9,-23.952002,14.872001,5.664,eccentric,4,3.0,18989.0,139666.0,226696.0,277900.0,261963.0
2026-04-08 21:47:21.149937,213338,1609504013379235,1613345960,0.923296,0.128832,-0.10736,-2.555,6.475,11.445,-23.952002,14.872001,5.664,eccentric,4,3.0,18989.0,139666.0,226696.0,277900.0,261963.0
2026-04-08 21:47:21.155122,213339,1609504013388156,1613354638,0.886208,0.10736,-0.163968,-6.545,6.58875,10.84125,-23.376001,15.056001,7.76,eccentric,4,3.0,18989.0,139666.0,226696.0,277900.0,261963.0
2026-04-08 21:47:21.186033,213340,1609504013402633,1613369487,0.88816,0.060512,-0.255712,-9.31,6.30875,12.11,-23.264002,15.232,6.000001,eccentric,4,3.0,18989.0,139666.0,226696.0,277900.0,261963.0
2026-04-08 21:47:21.188422,213341,1609504013411562,1613378154,0.88816,0.060512,-0.255712,-8.81125,5.95,13.09875,-23.264002,15.232,6.000001,eccentric,4,3.0,18989.0,139666.0,226696.0,277900.0,261963.0
2026-04-08 21:47:21.190950,213342,1609504013420567,1613386841,0.872544,0.10736,-0.281088,-5.7575,6.43125,14.20125,-23.072,15.144001,3.856,eccentric,4,3.0,18989.0,139666.0,226696.0,277900.0,261963.0
2026-04-08 21:47:21.253509,213353,1609504013435109,1613401797,0.872544,0.10736,-0.281088,-2.93125,7.2625,15.2775,-23.072,15.144001,3.856,eccentric,4,3.0,19029.0,140072.0,227301.0,278544.0,262428.0
2026-04-08 21:47:21.255974,213354,1609504013444118,1613410488,0.960384,0.128832,-0.060512,0.55125,6.76375,15.30375,-22.648,15.392001,6.08,eccentric,4,3.0,19029.0,140072.0,227301.0,278544.0,262428.0
2026-04-08 21:47:21.258425,213355,1609504013458606,1613425481,0.960384,0.128832,-0.060512,-0.1925,5.88,14.8925,-22.648,15.392001,6.08,eccentric,4,3.0,19029.0,140072.0,227301.0,278544.0,262428.0
2026-04-08 21:47:21.260948,213356,1609504013467543,1613434162,0.853024,0.066368,-0.093696,-5.915,4.83875,13.7025,-22.464,15.240001,6.928001,eccentric,4,3.0,19029.0,140072.0,227301.0,278544.0,262428.0
2026-04-08 21:47:21.263469,213357,1609504013476471,1613442815,0.853024,0.066368,-0.093696,-15.28625,3.36875,12.32875,-22.464,15.240001,6.928001,eccentric,4,3.0,19029.0,140072.0,227301.0,278544.0,262428.0
2026-04-08 21:47:21.265954,213358,1609504013491010,1613457652,0.905728,0.023424,0.011712,-16.86125,3.1325,10.5,-22.512001,15.64,5.184,eccentric,4,3.0,19029.0,140072.0,227301.0,278544.0,262428.0
2026-04-08 21:47:21.268411,213359,1609504013499957,1613466359,0.905728,0.023424,0.011712,-9.415,2.7475,10.3425,-22.512001,15.64,5.184,eccentric,4,3.0,19029.0,140072.0,227301.0,278544.0,262428.0
2026-04-08 21:47:21.298641,213360,1609504013514458,1613481252,0.847168,0.042944,-0.20496,-3.3425,2.3625,11.92625,-22.192001,15.592001,4.136,eccentric,4,3.0,19029.0,140072.0,227301.0,278544.0,262428.0
2026-04-08 21:47:21.302169,213361,1609504013523364,1613489916,0.866688,0.06832,-0.271328,-0.84875,2.3625,12.5825,-22.272001,15.56,5.224001,eccentric,4,3.0,19029.0,140072.0,227301.0,278544.0,262428.0
2026-04-08 21:47:21.329663,213372,1609504013538070,1613504950,0.866688,0.06832,-0.271328,0.93625,2.61625,13.055,-22.272001,15.56,5.224001,eccentric,4,3.0,18968.0,140002.0,227342.0,278714.0,262619.0
2026-04-08 21:47:21.332141,213373,1609504013547010,1613513664,0.856928,0.027328,-0.093696,1.00625,3.115,12.81,-21.576,15.672001,5.504,eccentric,4,3.0,18968.0,140002.0,227342.0,278714.0,262619.0
2026-04-08 21:47:21.334667,213374,1609504013555937,1613522350,0.856928,0.027328,-0.093696,-3.1675,2.9225,12.34625,-21.576,15.672001,5.504,eccentric,4,3.0,18968.0,140002.0,227342.0,278714.0,262619.0
2026-04-08 21:47:21.337147,213375,1609504013570494,1613537276,0.804224,0.01952,-0.191296,-11.22625,2.10875,11.025,-21.448002,15.968,6.744,eccentric,4,3.0,18968.0,140002.0,227342.0,278714.0,262619.0
2026-04-08 21:47:21.342149,213376,1609504013579433,1613545974,0.804224,0.01952,-0.191296,-15.88125,1.7675,9.8,-21.448002,15.968,6.744,eccentric,4,3.0,18968.0,140002.0,227342.0,278714.0,262619.0
2026-04-08 21:47:21.372443,213377,1609504013593931,1613560817,0.909632,-0.005856,-0.220576,-15.18125,1.05,10.08,-21.52,15.960001,6.712,eccentric,4,3.0,18968.0,140002.0,227342.0,278714.0,262619.0
2026-04-08 21:47:21.389056,213378,1609504013602832,1613569497,0.808128,0.027328,-0.275232,-12.18,0.735,12.04875,-21.12,16.256,7.400001,eccentric,4,3.0,18968.0,140002.0,227342.0,278714.0,262619.0
2026-04-08 21:47:21.390603,213379,1609504013617314,1613584398,0.808128,0.027328,-0.275232,-8.12875,0.9275,13.95625,-21.12,16.256,7.400001,eccentric,4,3.0,18968.0,140002.0,227342.0,278714.0,262619.0
2026-04-08 21:47:21.392487,213380,1609504013626235,1613593056,0.804224,0.046848,0.00976,-7.02625,1.2075,14.93625,-20.792002,16.232,6.920001,eccentric,4,3.0,18968.0,140002.0,227342.0,278714.0,262619.0
2026-04-08 21:47:21.419732,213391,1609504013635199,1613602318,0.804224,0.046848,0.00976,-9.26625,0.21875,16.26625,-20.792002,16.232,6.920001,eccentric,4,3.0,19032.0,140392.0,227904.0,279165.0,262904.0
2026-04-08 21:47:21.422244,213392,1609504013649780,1613615224,0.847168,0.007808,-0.027328,-13.13375,-1.1725,16.56375,-20.416,16.344,5.4,eccentric,4,3.0,19032.0,140392.0,227904.0,279165.0,262904.0
2026-04-08 21:47:21.424736,213393,1609504013659300,1613626008,0.847168,0.007808,-0.027328,-14.49,-1.91625,16.0475,-20.416,16.344,5.4,eccentric,4,3.0,19032.0,140392.0,227904.0,279165.0,262904.0
2026-04-08 21:47:21.457399,213394,1609504013673857,1613640944,0.815936,-0.011712,-0.277184,-14.875,-2.415,15.435,-20.368,16.656,5.816001,eccentric,4,3.0,19032.0,140392.0,227904.0,279165.0,262904.0
2026-04-08 21:47:21.461017,213395,1609504013682791,1613649598,0.833504,0.007808,-0.050752,-14.58625,-2.75625,15.4,-20.048,16.800001,5.656,eccentric,4,3.0,19032.0,140392.0,227904.0,279165.0,262904.0
2026-04-08 21:47:21.463446,213396,1609504013691720,1613658317,0.833504,0.007808,-0.050752,-11.20875,-2.80875,16.695,-20.048,16.800001,5.656,eccentric,4,3.0,19032.0,140392.0,227904.0,279165.0,262904.0
2026-04-08 21:47:21.468651,213397,1609504013706203,1613673181,0.75152,0.025376,-0.06832,-9.24875,-2.7125,18.62875,-19.664001,17.048,5.512,eccentric,4,3.0,19032.0,140392.0,227904.0,279165.0,262904.0
2026-04-08 21:47:21.498763,213398,1609504013715108,1613681844,0.75152,0.025376,-0.06832,-7.4375,-1.79375,19.678751,-19.664001,17.048,5.512,eccentric,4,3.0,19032.0,140392.0,227904.0,279165.0,262904.0
2026-04-08 21:47:21.502224,213399,1609504013729568,1613696688,0.778848,-0.050752,-0.15616,-5.355,-2.8525,19.6,-19.472,16.712,5.352,eccentric,4,3.0,19032.0,140392.0,227904.0,279165.0,262904.0
2026-04-08 21:47:21.529711,213410,1609504013738944,1613705482,0.778848,-0.050752,-0.15616,-7.56875,-5.18,19.0575,-19.472,16.712,5.352,eccentric,4,3.0,19095.0,140823.0,228569.0,279753.0,263274.0
2026-04-08 21:47:21.532217,213411,1609504013753471,1613720479,0.7808,-0.046848,-0.206912,-10.2025,-7.7875,17.465,-19.12,17.024,5.464,eccentric,4,3.0,19095.0,140823.0,228569.0,279753.0,263274.0
2026-04-08 21:47:21.534702,213412,1609504013762400,1613729225,0.843264,-0.074176,-0.140544,-10.2725,-9.96625,14.55125,-19.12,17.024,6.376,eccentric,4,3.0,19095.0,140823.0,228569.0,279753.0,263274.0
2026-04-08 21:47:21.537173,213413,1609504013771355,1613737903,0.845216,-0.074176,-0.140544,-11.27,-10.395,11.917501,-19.256,17.352001,6.376,eccentric,4,3.0,19095.0,140823.0,228569.0,279753.0,263274.0
2026-04-08 21:47:21.569962,213414,1609504013785892,1613752773,0.80032,-0.070272,-0.103456,-11.4625,-9.31875,11.4275,-19.048,17.584002,6.496,eccentric,4,3.0,19095.0,140823.0,228569.0,279753.0,263274.0
2026-04-08 21:47:21.573503,213415,1609504013794790,1613761449,0.80032,-0.070272,-0.103456,-8.9075,-9.03,11.71625,-19.048,17.584002,6.496,eccentric,4,3.0,19095.0,140823.0,228569.0,279753.0,263274.0
2026-04-08 21:47:21.575943,213416,1609504013809254,1613776323,0.743712,-0.003904,-0.15616,-7.86625,-8.39125,11.94375,-18.656,17.264,4.48,eccentric,4,3.0,19095.0,140823.0,228569.0,279753.0,263274.0
2026-04-08 21:47:21.579725,213417,1609504013818104,1613785001,0.743712,-0.003904,-0.15616,-10.045,-8.32125,9.1525,-18.656,17.264,4.48,eccentric,4,3.0,19095.0,140823.0,228569.0,279753.0,263274.0
2026-04-08 21:47:21.609890,213418,1609504013832582,1613797843,0.812032,-0.03904,-0.210816,-12.1625,-8.89,5.53875,-18.456001,17.144001,5.416,eccentric,4,3.0,19095.0,140823.0,228569.0,279753.0,263274.0
2026-04-08 21:47:21.638443,213429,1609504013841967,1613808658,0.812032,-0.03904,-0.210816,-16.205,-8.75,3.85875,-18.456001,17.144001,5.416,eccentric,4,3.0,19160.0,141134.0,228966.0,280027.0,263449.0
2026-04-08 21:47:21.640959,213430,1609504013850913,1613817361,0.794464,-0.064416,-0.109312,-20.53625,-6.86875,4.03375,-18.384,17.544,6.352,eccentric,4,3.0,19160.0,141134.0,228966.0,280027.0,263449.0
2026-04-08 21:47:21.643438,213431,1609504013865543,1613832355,0.841312,-0.0976,-0.035136,-21.665,-5.25,4.34875,-18.152,17.488,4.968,eccentric,4,3.0,19160.0,141134.0,228966.0,280027.0,263449.0
2026-04-08 21:47:21.645950,213432,1609504013874498,1613841066,0.841312,-0.0976,-0.035136,-18.2525,-4.64625,6.0725,-18.152,17.488,4.968,eccentric,4,3.0,19160.0,141134.0,228966.0,280027.0,263449.0
2026-04-08 21:47:21.650921,213433,1609504013889010,1613856008,0.812032,-0.02928,0.03904,-13.97375,-4.82125,6.58,-18.056002,17.984001,4.984,eccentric,4,3.0,19160.0,141134.0,228966.0,280027.0,263449.0
2026-04-08 21:47:21.684614,213434,1609504013897922,1613864691,0.812032,-0.02928,0.03904,-9.275,-5.32,4.13,-18.056002,17.984001,4.984,eccentric,4,3.0,19160.0,141134.0,228966.0,280027.0,263449.0
2026-04-08 21:47:21.686927,213435,1609504013906864,1613873373,0.905728,-0.062464,-0.054656,-6.65,-5.5825,1.21625,-18.064001,17.432001,4.552,eccentric,4,3.0,19160.0,141134.0,228966.0,280027.0,263449.0
2026-04-08 21:47:21.691492,213436,1609504013921315,1613888256,0.905728,-0.062464,-0.054656,-5.7925,-5.7575,-0.30625,-18.064001,17.432001,4.552,eccentric,4,3.0,19160.0,141134.0,228966.0,280027.0,263449.0
2026-04-08 21:47:21.693118,213437,1609504013930218,1613896907,0.843264,-0.031232,0.101504,-5.9325,-5.2325,-0.4375,-18.560001,17.568,5.368,eccentric,4,3.0,19160.0,141134.0,228966.0,280027.0,263449.0
2026-04-08 21:47:21.725936,213448,1609504013945007,1613912026,0.804224,-0.089792,-0.162016,-5.52125,-4.66375,-0.5075,-18.352001,17.712,7.6,eccentric,4,3.0,19046.0,140743.0,228474.0,279684.0,263258.0
2026-04-08 21:47:21.730293,213449,1609504013953993,1613920725,0.804224,-0.089792,-0.162016,-5.27625,-3.8675,-0.44625,-18.352001,17.712,7.6,eccentric,4,3.0,19046.0,140743.0,228474.0,279684.0,263258.0
2026-04-08 21:47:21.732914,213450,1609504013968507,1613935619,0.933056,-0.040992,0.066368,-2.58125,-3.675,-0.25375,-18.112001,17.792002,5.856,eccentric,4,3.0,19046.0,140743.0,228474.0,279684.0,263258.0
2026-04-08 21:47:21.740056,213451,1609504013977443,1613944313,0.933056,-0.040992,0.066368,4.50625,-3.91125,-1.015,-18.112001,17.792002,5.856,eccentric,4,3.0,19046.0,140743.0,228474.0,279684.0,263258.0
2026-04-08 21:47:21.768671,213452,1609504013986399,1613952973,0.821792,-0.021472,-0.095648,12.792501,-2.45,-3.01,-18.208,17.6,5.992,eccentric,4,3.0,19046.0,140743.0,228474.0,279684.0,263258.0
2026-04-08 21:47:21.773125,213453,1609504014000859,1613967830,0.821792,-0.021472,-0.095648,16.26625,-0.79625,-3.99875,-18.208,17.6,5.992,eccentric,4,3.0,19046.0,140743.0,228474.0,279684.0,263258.0
2026-04-08 21:47:21.774710,213454,1609504014009788,1613976482,0.892064,-0.031232,0.122976,15.65375,1.04125,-2.555,-17.912,17.448,4.992,eccentric,4,3.0,19046.0,140743.0,228474.0,279684.0,263258.0
2026-04-08 21:47:21.805897,213455,1609504014024304,1613991373,0.808128,0.003904,-0.158112,14.385,2.4675,-0.6825,-17.912,17.408,7.736001,eccentric,4,3.0,19046.0,140743.0,228474.0,279684.0,263258.0
2026-04-08 21:47:21.808078,213456,1609504014033301,1614000124,0.808128,0.003904,-0.158112,13.886251,2.79125,0.7525,-18.0,17.408,7.736001,eccentric,4,3.0,19046.0,140743.0,228474.0,279684.0,263258.0
2026-04-08 21:47:21.836004,213467,1609504014047878,1614015010,0.931104,-0.037088,0.0,15.0675,3.675,1.1725,-18.168001,17.44,5.568,eccentric,4,3.0,19031.0,140582.0,228197.0,279465.0,263094.0
2026-04-08 21:47:21.840192,213468,1609504014056832,1614023710,0.931104,-0.037088,0.0,16.02125,4.6375,1.47875,-18.168001,17.44,5.568,eccentric,4,3.0,19031.0,140582.0,228197.0,279465.0,263094.0
2026-04-08 21:47:21.841939,213469,1609504014065805,1614032412,0.880352,-0.050752,-0.138592,16.695,5.78375,2.2925,-18.12,17.568,8.048,eccentric,4,3.0,19031.0,140582.0,228197.0,279465.0,263094.0
2026-04-08 21:47:21.843472,213470,1609504014080402,1614047286,0.880352,-0.050752,-0.138592,19.4425,6.6675,3.185,-18.12,17.568,8.048,eccentric,4,3.0,19031.0,140582.0,228197.0,279465.0,263094.0
2026-04-08 21:47:21.874620,213471,1609504014089347,1614055979,0.847168,-0.025376,0.105408,20.7025,8.49625,4.20875,-17.552,17.480001,7.848001,eccentric,4,3.0,19031.0,140582.0,228197.0,279465.0,263094.0
2026-04-08 21:47:21.876872,213472,1609504014103844,1614070860,0.847168,-0.025376,0.105408,18.83,9.70375,5.1975,-17.552,17.480001,7.848001,eccentric,4,3.0,19031.0,140582.0,228197.0,279465.0,263094.0
2026-04-08 21:47:21.881466,213473,1609504014112835,1614079509,0.874496,-0.037088,0.005856,16.16125,10.2375,6.7375,-17.512001,17.384,7.704001,eccentric,4,3.0,19031.0,140582.0,228197.0,279465.0,263094.0
2026-04-08 21:47:21.885561,213474,1609504014121753,1614088174,0.874496,-0.037088,0.005856,13.20375,9.65125,6.2825,-17.512001,17.384,7.704001,eccentric,4,3.0,19031.0,140582.0,228197.0,279465.0,263094.0
2026-04-08 21:47:21.945968,213485,1609504014136248,1614103011,0.892064,-0.035136,-0.042944,12.2675,8.81125,5.38125,-17.504002,17.152,6.312,eccentric,4,3.0,18965.0,140171.0,227575.0,279034.0,262868.0
2026-04-08 21:47:21.949940,213486,1609504014145224,1614111678,0.843264,-0.06832,-0.062464,11.78625,9.45,4.90875,-17.504002,17.256,7.072001,eccentric,4,3.0,18965.0,140171.0,227575.0,279034.0,262868.0
2026-04-08 21:47:21.952793,213487,1609504014159701,1614126574,0.843264,-0.06832,-0.062464,9.0475,9.948751,5.4075,-17.496,17.256,7.072001,eccentric,4,3.0,18965.0,140171.0,227575.0,279034.0,262868.0
2026-04-08 21:47:21.954037,213488,1609504014168630,1614135255,0.747616,-0.031232,-0.189344,5.50375,10.3775,6.335,-17.320002,17.712,7.048,eccentric,4,3.0,18965.0,140171.0,227575.0,279034.0,262868.0
2026-04-08 21:47:21.956859,213489,1609504014183139,1614150226,0.747616,-0.031232,-0.189344,2.7475,10.22,6.39625,-17.320002,17.712,7.048,eccentric,4,3.0,18965.0,140171.0,227575.0,279034.0,262868.0
2026-04-08 21:47:21.958464,213490,1609504014192131,1614158944,0.776896,0.056608,-0.140544,-1.855,9.415,4.375,-17.36,17.488,8.568001,eccentric,4,3.0,18965.0,140171.0,227575.0,279034.0,262868.0
2026-04-08 21:47:21.963112,213491,1609504014201070,1614167721,0.776896,0.056608,-0.140544,-5.215,8.65375,1.04125,-17.36,17.488,8.568001,eccentric,4,3.0,18965.0,140171.0,227575.0,279034.0,262868.0
2026-04-08 21:47:21.993466,213492,1609504014215571,1614182608,0.81984,-0.021472,0.064416,-1.96875,8.33,-3.15875,-16.976002,17.168001,6.568,eccentric,4,3.0,18965.0,140171.0,227575.0,279034.0,262868.0
2026-04-08 21:47:21.995607,213493,1609504014224477,1614191273,0.81984,-0.021472,0.064416,-1.68875,6.25625,-1.33875,-16.976002,17.168001,6.568,eccentric,4,3.0,18965.0,140171.0,227575.0,279034.0,262868.0
2026-04-08 21:47:22.024457,213504,1609504014239168,1614206203,0.856928,-0.02928,0.021472,-10.92875,4.2,0.81375,-17.408,17.608002,6.368001,eccentric,4,3.0,19040.0,140352.0,227732.0,279001.0,262797.0
2026-04-08 21:47:22.025985,213505,1609504014248278,1614214873,0.821792,-0.01952,-0.216672,-12.20625,1.91625,-3.2375,-17.36,17.28,6.368001,eccentric,4,3.0,19040.0,140352.0,227732.0,279001.0,262797.0
2026-04-08 21:47:22.030969,213506,1609504014262890,1614229772,0.821792,-0.01952,-0.216672,-8.5225,0.6125,-7.35875,-17.36,17.28,6.368001,eccentric,4,3.0,19040.0,140352.0,227732.0,279001.0,262797.0
2026-04-08 21:47:22.035069,213507,1609504014271826,1614238568,0.894016,-0.001952,0.003904,-8.04125,-0.385,-7.11375,-16.832,17.472,6.76,eccentric,4,3.0,19040.0,140352.0,227732.0,279001.0,262797.0
2026-04-08 21:47:22.063680,213508,1609504014280747,1614247271,0.894016,-0.001952,0.003904,-8.855001,-0.93625,-7.5425,-16.832,17.472,6.76,eccentric,4,3.0,19040.0,140352.0,227732.0,279001.0,262797.0
2026-04-08 21:47:22.068183,213509,1609504014295220,1614262104,0.860832,-0.035136,0.01952,-8.18125,-1.26875,-9.4675,-17.088001,17.152,6.632,eccentric,4,3.0,19040.0,140352.0,227732.0,279001.0,262797.0
2026-04-08 21:47:22.069706,213510,1609504014304175,1614270807,0.860832,-0.035136,0.01952,-9.415,-1.79375,-9.17,-17.088001,17.152,6.632,eccentric,4,3.0,19040.0,140352.0,227732.0,279001.0,262797.0
2026-04-08 21:47:22.100915,213511,1609504014318677,1614285699,0.931104,-0.044896,-0.062464,-9.59875,-1.96,-9.56375,-17.232,17.6,7.84,eccentric,4,3.0,19040.0,140352.0,227732.0,279001.0,262797.0
2026-04-08 21:47:22.103111,213512,1609504014327584,1614294337,0.905728,-0.05856,-0.105408,-10.15,-2.31875,-10.80625,-17.472,17.104,6.312,eccentric,4,3.0,19040.0,140352.0,227732.0,279001.0,262797.0
2026-04-08 21:47:22.134494,213523,1609504014342224,1614309357,0.905728,-0.05856,-0.105408,-12.41625,-2.44125,-11.1125,-17.472,17.104,6.312,eccentric,4,3.0,19049.0,140391.0,227749.0,279002.0,262818.0
2026-04-08 21:47:22.136073,213524,1609504014351177,1614318151,0.853024,-0.035136,0.001952,-13.41375,-2.9225,-10.21125,-18.04,17.368,6.784,eccentric,4,3.0,19049.0,140391.0,227749.0,279002.0,262818.0
2026-04-08 21:47:22.140208,213525,1609504014360110,1614326877,0.853024,-0.035136,0.001952,-12.73125,-3.5875,-9.6425,-18.04,17.368,6.784,eccentric,4,3.0,19049.0,140391.0,227749.0,279002.0,262818.0
2026-04-08 21:47:22.141886,213526,1609504014374630,1614339786,0.823744,-0.040992,-0.081984,-12.46,-4.54125,-9.1,-17.76,17.488,6.904,eccentric,4,3.0,19049.0,140391.0,227749.0,279002.0,262818.0
2026-04-08 21:47:22.147621,213527,1609504014383854,1614350557,0.823744,-0.040992,-0.081984,-13.57125,-5.355,-9.5025,-17.76,17.488,6.904,eccentric,4,3.0,19049.0,140391.0,227749.0,279002.0,262818.0
2026-04-08 21:47:22.176180,213528,1609504014398353,1614365446,0.8784,-0.060512,-0.16592,-16.89625,-5.69625,-10.33375,-18.112001,17.512001,6.624001,eccentric,4,3.0,19049.0,140391.0,227749.0,279002.0,262818.0
2026-04-08 21:47:22.180665,213529,1609504014407246,1614374098,0.876448,-0.046848,-0.093696,-21.28875,-6.06375,-11.725,-17.736,17.296001,3.784,eccentric,4,3.0,19049.0,140391.0,227749.0,279002.0,262818.0
2026-04-08 21:47:22.182174,213530,1609504014416156,1614382756,0.876448,-0.046848,-0.093696,-25.935,-6.4575,-11.9525,-17.736,17.296001,3.784,eccentric,4,3.0,19049.0,140391.0,227749.0,279002.0,262818.0
2026-04-08 21:47:22.213380,213531,1609504014430666,1614397624,0.817888,-0.056608,-0.076128,-25.87375,-6.1775,-11.38375,-18.144001,17.104,5.264,concentric,4,3.0,19049.0,140391.0,227749.0,279002.0,262818.0
2026-04-08 21:47:22.241961,213542,1609504014439986,1614406545,0.817888,-0.056608,-0.076128,-20.39625,-5.62625,-10.59625,-18.144001,17.104,5.264,concentric,4,3.0,19024.0,140307.0,227757.0,279008.0,262794.0
2026-04-08 21:47:22.243459,213543,1609504014454533,1614421458,0.808128,-0.050752,-0.119072,-14.096251,-5.85375,-10.43,-17.896,17.328001,5.024,concentric,4,3.0,19024.0,140307.0,227757.0,279008.0,262794.0
2026-04-08 21:47:22.247709,213544,1609504014463461,1614430174,0.808128,-0.050752,-0.119072,-11.71625,-6.58,-11.6725,-17.896,17.328001,5.024,concentric,4,3.0,19024.0,140307.0,227757.0,279008.0,262794.0
2026-04-08 21:47:22.249424,213545,1609504014478031,1614445039,0.847168,-0.023424,-0.277184,-12.73125,-7.41125,-13.055,-18.52,17.6,7.12,concentric,4,3.0,19024.0,140307.0,227757.0,279008.0,262794.0
2026-04-08 21:47:22.250955,213546,1609504014487050,1614453757,0.847168,0.021472,-0.15616,-15.21625,-7.665,-13.76375,-18.52,17.6,7.12,concentric,4,3.0,19024.0,140307.0,227757.0,279008.0,262794.0
2026-04-08 21:47:22.258848,213547,1609504014496018,1614462461,0.769088,0.021472,-0.15616,-16.7125,-7.9975,-12.46,-18.44,17.424002,7.032001,concentric,4,3.0,19024.0,140307.0,227757.0,279008.0,262794.0
2026-04-08 21:47:22.287423,213548,1609504014510512,1614477390,0.835456,-0.025376,0.03904,-15.9425,-9.38,-10.92875,-18.160002,17.384,4.728,concentric,4,3.0,19024.0,140307.0,227757.0,279008.0,262794.0
2026-04-08 21:47:22.291800,213549,1609504014519411,1614486068,0.835456,-0.025376,0.03904,-16.178751,-10.5525,-10.885,-18.160002,17.384,4.728,concentric,4,3.0,19024.0,140307.0,227757.0,279008.0,262794.0
2026-04-08 21:47:22.298879,213550,1609504014533938,1614500909,0.9272,-0.081984,-0.150304,-17.928751,-11.57625,-12.62625,-18.616001,17.552,4.016,concentric,4,3.0,19024.0,140307.0,227757.0,279008.0,262794.0
2026-04-08 21:47:22.327656,213561,1609504014543198,1614509671,0.9272,-0.081984,-0.150304,-18.8125,-12.1625,-14.035,-18.616001,17.552,4.016,concentric,4,3.0,19099.0,140581.0,228041.0,279208.0,262902.0
2026-04-08 21:47:22.334389,213562,1609504014552234,1614518407,0.890112,-0.00976,-0.013664,-16.44125,-12.64375,-14.88375,-18.712002,17.384,5.344,concentric,4,3.0,19099.0,140581.0,228041.0,279208.0,262902.0
2026-04-08 21:47:22.335934,213563,1609504014566767,1614533325,0.890112,-0.00976,-0.013664,-11.4275,-13.43125,-13.99125,-18.712002,17.384,5.344,concentric,4,3.0,19099.0,140581.0,228041.0,279208.0,262902.0
2026-04-08 21:47:22.340028,213564,1609504014575702,1614542044,0.8784,-0.005856,0.060512,-4.3225,-13.65,-11.7425,-19.016,17.312,4.544,concentric,4,3.0,19099.0,140581.0,228041.0,279208.0,262902.0
2026-04-08 21:47:22.368737,213565,1609504014590221,1614556979,0.85888,-0.013664,-0.257664,-1.65375,-13.92125,-11.7775,-19.36,17.264,4.432,concentric,4,3.0,19099.0,140581.0,228041.0,279208.0,262902.0
2026-04-08 21:47:22.373043,213566,1609504014599136,1614565651,0.85888,-0.013664,-0.257664,-5.0575,-13.3875,-13.685,-19.36,17.264,4.432,concentric,4,3.0,19099.0,140581.0,228041.0,279208.0,262902.0
2026-04-08 21:47:22.376822,213567,1609504014613631,1614580506,0.942816,0.00976,-0.06832,-10.823751,-12.7575,-14.63,-19.072,16.872002,3.984,concentric,4,3.0,19099.0,140581.0,228041.0,279208.0,262902.0
2026-04-08 21:47:22.386379,213568,1609504014622558,1614589182,0.942816,0.00976,-0.06832,-17.675,-12.845,-12.59125,-19.072,16.872002,3.984,concentric,4,3.0,19099.0,140581.0,228041.0,279208.0,262902.0
2026-04-08 21:47:22.414911,213569,1609504014631499,1614597884,0.845216,0.001952,-0.130784,-19.74,-12.43375,-9.65125,-19.216002,16.976002,3.968,concentric,4,3.0,19099.0,140581.0,228041.0,279208.0,262902.0
2026-04-08 21:47:22.444475,213580,1609504014646068,1614612805,0.845216,0.001952,-0.130784,-14.5075,-10.49125,-7.9625,-19.216002,16.976002,3.968,concentric,4,3.0,19012.0,140243.0,227639.0,278953.0,262818.0
2026-04-08 21:47:22.446017,213581,1609504014654990,1614621471,0.90768,-0.054656,-0.072224,-5.97625,-10.9025,-7.6475,-19.568,16.92,3.664,concentric,4,3.0,19012.0,140243.0,227639.0,278953.0,262818.0
2026-04-08 21:47:22.450237,213582,1609504014669576,1614636367,0.853024,0.040992,-0.281088,-0.0525,-11.865,-9.45875,-19.560001,17.016,5.128,concentric,4,3.0,19012.0,140243.0,227639.0,278953.0,262818.0
2026-04-08 21:47:22.451850,213583,1609504014678569,1614645045,0.853024,0.040992,-0.281088,0.2625,-12.53,-11.2175,-19.560001,17.016,5.128,concentric,4,3.0,19012.0,140243.0,227639.0,278953.0,262818.0
2026-04-08 21:47:22.456306,213584,1609504014693128,1614659967,0.880352,0.074176,-0.339648,-3.6225,-12.355001,-11.725,-19.512001,16.952002,3.248,concentric,4,3.0,19012.0,140243.0,227639.0,278953.0,262818.0
2026-04-08 21:47:22.487771,213585,1609504014702048,1614668673,0.880352,0.074176,-0.339648,-9.79125,-12.6875,-11.865,-19.512001,16.952002,3.248,concentric,4,3.0,19012.0,140243.0,227639.0,278953.0,262818.0
2026-04-08 21:47:22.490258,213586,1609504014710944,1614677324,0.837408,0.005856,-0.027328,-16.66,-11.80375,-12.0225,-19.856,16.960001,3.376,concentric,4,3.0,19012.0,140243.0,227639.0,278953.0,262818.0
2026-04-08 21:47:22.494294,213587,1609504014725428,1614692195,0.837408,0.005856,-0.027328,-22.505,-11.7075,-9.905,-19.856,16.960001,3.376,concentric,4,3.0,19012.0,140243.0,227639.0,278953.0,262818.0
2026-04-08 21:47:22.548424,213588,1609504014734407,1614700890,0.866688,-0.050752,-0.152256,-20.71125,-13.09875,-7.9625,-19.76,16.784,2.992,concentric,4,3.0,19012.0,140243.0,227639.0,278953.0,262818.0
2026-04-08 21:47:23.011407,213599,1609504014749204,1614716254,0.89792,0.001952,-0.169824,-11.2875,-13.64125,-9.12625,-20.080002,16.784,1.112,concentric,4,3.0,19014.0,140318.0,227839.0,279187.0,262961.0
2026-04-08 21:47:23.048789,213600,1609504014758112,1614724907,0.89792,0.001952,-0.169824,-0.02625,-14.595,-10.77125,-20.080002,16.784,1.112,concentric,4,3.0,19014.0,140318.0,227839.0,279187.0,262961.0
2026-04-08 21:47:23.089633,213601,1609504014767011,1614733560,0.89792,0.001952,-0.169824,7.11375,-14.4725,-9.975,-20.080002,16.784,1.112,concentric,4,3.0,19014.0,140318.0,227839.0,279187.0,262961.0
2026-04-08 21:47:23.127218,213602,1609504014781490,1614748411,0.851072,0.081984,-0.122976,3.59625,-13.9825,-8.65375,-20.272001,16.92,2.888,concentric,4,3.0,19014.0,140318.0,227839.0,279187.0,262961.0
2026-04-08 21:47:23.141658,213603,1609504014790389,1614757057,0.860832,0.040992,0.003904,-7.62125,-12.90625,-9.12625,-20.576,16.696001,2.552,concentric,4,3.0,19014.0,140318.0,227839.0,279187.0,262961.0
2026-04-08 21:47:23.144341,213604,1609504014804860,1614771936,0.860832,0.040992,0.003904,-17.955,-11.83875,-7.84,-20.576,16.696001,2.552,concentric,4,3.0,19014.0,140318.0,227839.0,279187.0,262961.0
2026-04-08 21:47:23.144759,213605,1609504014813801,1614780626,0.91744,0.001952,0.054656,-20.71125,-10.823751,-5.6525,-20.472,16.728,1.92,concentric,4,3.0,19014.0,140318.0,227839.0,279187.0,262961.0
2026-04-08 21:47:23.152558,213606,1609504014828294,1614793436,0.91744,0.001952,0.054656,-17.31625,-9.8875,-5.55625,-20.472,16.728,1.92,concentric,4,3.0,19014.0,140318.0,227839.0,279187.0,262961.0
2026-04-08 21:47:23.154760,213607,1609504014837446,1614804165,0.9272,-0.031232,-0.189344,-12.67875,-8.65375,-7.70875,-20.664001,16.592001,2.48,concentric,4,3.0,19014.0,140318.0,227839.0,279187.0,262961.0
2026-04-08 21:47:23.177286,213618,1609504014846527,1614812853,0.9272,-0.031232,-0.189344,-7.93625,-7.14,-9.59875,-20.664001,16.592001,2.48,concentric,4,3.0,18961.0,140249.0,227770.0,279195.0,263014.0
2026-04-08 21:47:23.181446,213619,1609504014861000,1614827719,0.940864,0.015616,-0.015616,-5.32875,-7.21875,-8.16375,-20.432001,16.504002,1.896,concentric,4,3.0,18961.0,140249.0,227770.0,279195.0,263014.0
2026-04-08 21:47:23.183186,213620,1609504014869883,1614836525,0.786656,0.027328,-0.226432,-4.73375,-8.2775,-6.72875,-21.056002,16.864,3.008,concentric,4,3.0,18961.0,140249.0,227770.0,279195.0,263014.0
2026-04-08 21:47:23.184742,213621,1609504014884411,1614851414,0.786656,0.027328,-0.226432,-4.1825,-8.3825,-6.65,-21.056002,16.864,3.008,concentric,4,3.0,18961.0,140249.0,227770.0,279195.0,263014.0
2026-04-08 21:47:23.188932,213622,1609504014893324,1614860112,0.813984,0.027328,-0.158112,-2.12625,-8.09375,-6.06375,-20.84,16.512001,1.864,concentric,4,3.0,18961.0,140249.0,227770.0,279195.0,263014.0
2026-04-08 21:47:23.190698,213623,1609504014907885,1614875022,0.813984,0.027328,-0.158112,-2.1875,-7.7875,-5.83625,-20.84,16.512001,1.864,concentric,4,3.0,18961.0,140249.0,227770.0,279195.0,263014.0
2026-04-08 21:47:23.192211,213624,1609504014916822,1614883677,0.952576,0.027328,-0.158112,-3.29,-6.1075,-8.42625,-21.224,16.632,2.192,concentric,4,3.0,18961.0,140249.0,227770.0,279195.0,263014.0
2026-04-08 21:47:23.196279,213625,1609504014925781,1614892422,0.952576,0.027328,-0.158112,-6.195,-5.34625,-10.91125,-21.224,16.632,2.192,concentric,4,3.0,18961.0,140249.0,227770.0,279195.0,263014.0
2026-04-08 21:47:23.222244,213636,1609504014940265,1614907253,0.987712,0.015616,-0.177632,-8.70625,-3.9025,-10.0975,-20.936,16.656,1.688,concentric,4,3.0,19024.0,140379.0,227875.0,279161.0,262940.0
2026-04-08 21:47:23.226570,213637,1609504014949191,1614915903,0.987712,0.015616,-0.177632,-4.69,-2.10875,-6.79,-20.936,16.656,1.688,concentric,4,3.0,19024.0,140379.0,227875.0,279161.0,262940.0
2026-04-08 21:47:23.264655,213638,1609504014963657,1614930802,0.915488,0.011712,-0.22448,2.80875,-1.575,-4.27875,-21.480001,16.408,2.12,concentric,4,3.0,19024.0,140379.0,227875.0,279161.0,262940.0
2026-04-08 21:47:23.266861,213639,1609504014972589,1614939455,0.880352,0.081984,-0.033184,6.22125,-3.03625,-5.0925,-21.224,16.752,1.688,concentric,4,3.0,19024.0,140379.0,227875.0,279161.0,262940.0
2026-04-08 21:47:23.271470,213640,1609504014987016,1614952248,0.880352,0.081984,-0.033184,9.3975,-3.9375,-7.0875,-21.224,16.752,1.688,concentric,4,3.0,19024.0,140379.0,227875.0,279161.0,262940.0
2026-04-08 21:47:23.273203,213641,1609504014996250,1614963010,0.962336,0.06832,-0.07808,13.92125,-3.89375,-8.46125,-21.640001,16.408,1.648,concentric,4,3.0,19024.0,140379.0,227875.0,279161.0,262940.0
2026-04-08 21:47:23.274775,213642,1609504015005215,1614971663,0.962336,0.06832,-0.07808,16.40625,-2.625,-8.6625,-21.640001,16.408,1.648,concentric,4,3.0,19024.0,140379.0,227875.0,279161.0,262940.0
2026-04-08 21:47:23.277250,213643,1609504015019730,1614986563,0.960384,0.0488,-0.160064,13.4575,-1.7675,-10.22875,-21.472,16.616001,1.624,concentric,4,3.0,19024.0,140379.0,227875.0,279161.0,262940.0
2026-04-08 21:47:23.279718,213644,1609504015028642,1614995219,0.960384,0.0488,-0.160064,7.76125,-0.28,-11.20875,-21.472,16.616001,1.624,concentric,4,3.0,19024.0,140379.0,227875.0,279161.0,262940.0
2026-04-08 21:47:23.311979,213655,1609504015043319,1615010118,0.827648,0.046848,-0.220576,5.9325,1.72375,-10.815,-21.968,16.688002,0.776,concentric,4,3.0,19004.0,140325.0,227806.0,279122.0,262936.0
2026-04-08 21:47:23.313995,213656,1609504015052343,1615018761,0.788608,0.037088,-0.191296,8.015,2.66875,-10.185,-21.936,16.472,2.2,concentric,4,3.0,19004.0,140325.0,227806.0,279122.0,262936.0
2026-04-08 21:47:23.317636,213657,1609504015066830,1615033661,0.788608,0.037088,-0.191296,10.675,2.6775,-10.885,-21.936,16.472,2.2,concentric,4,3.0,19004.0,140325.0,227806.0,279122.0,262936.0
2026-04-08 21:47:23.319415,213658,1609504015075767,1615042336,0.870592,0.025376,-0.249856,11.34875,2.625,-12.7575,-21.984001,16.448,1.696,concentric,4,3.0,19004.0,140325.0,227806.0,279122.0,262936.0
2026-04-08 21:47:23.321008,213659,1609504015084732,1615050996,0.870592,0.025376,-0.249856,10.7975,2.94875,-15.32125,-21.984001,16.448,1.696,concentric,4,3.0,19004.0,140325.0,227806.0,279122.0,262936.0
2026-04-08 21:47:23.325189,213660,1609504015099227,1615065839,0.99552,0.013664,-0.081984,7.62125,4.36625,-17.89375,-22.464,16.208,1.888,concentric,4,3.0,19004.0,140325.0,227806.0,279122.0,262936.0
2026-04-08 21:47:23.326905,213661,1609504015108133,1615074457,0.99552,0.013664,-0.081984,3.1325,5.83625,-17.78875,-22.464,16.208,1.888,concentric,4,3.0,19004.0,140325.0,227806.0,279122.0,262936.0
2026-04-08 21:47:23.328462,213662,1609504015122601,1615089352,0.851072,0.052704,-0.286944,-0.13125,7.245,-13.2125,-22.704,16.072,2.184,concentric,4,3.0,19004.0,140325.0,227806.0,279122.0,262936.0
2026-04-08 21:47:23.332528,213663,1609504015131492,1615097991,0.894016,0.080032,-0.23424,-1.155,7.9975,-9.38875,-22.704,16.232,0.752,concentric,4,3.0,19004.0,140325.0,227806.0,279122.0,262936.0
2026-04-08 21:47:23.359361,213674,1609504015146301,1615112895,0.894016,0.080032,-0.23424,1.12,6.8775,-8.86375,-22.704,16.232,0.752,concentric,4,3.0,19066.0,140508.0,227971.0,279243.0,262969.0
2026-04-08 21:47:23.360926,213675,1609504015155250,1615121551,0.882304,0.064416,-0.148352,2.51125,5.87125,-11.43625,-22.896002,15.704,2.144,concentric,4,3.0,19066.0,140508.0,227971.0,279243.0,262969.0
2026-04-08 21:47:23.365431,213676,1609504015164176,1615130287,0.882304,0.064416,-0.148352,3.77125,6.7025,-12.6175,-22.896002,15.704,2.144,concentric,4,3.0,19066.0,140508.0,227971.0,279243.0,262969.0
2026-04-08 21:47:23.371455,213677,1609504015178720,1615145127,0.8784,0.042944,-0.033184,6.30875,7.32375,-10.70125,-22.920002,15.744,2.0,concentric,4,3.0,19066.0,140508.0,227971.0,279243.0,262969.0
2026-04-08 21:47:23.373183,213678,1609504015187642,1615153803,0.8784,0.042944,-0.033184,5.705,7.77875,-7.65625,-22.920002,15.744,2.0,concentric,4,3.0,19066.0,140508.0,227971.0,279243.0,262969.0
2026-04-08 21:47:23.375615,213679,1609504015202116,1615168684,0.866688,0.042944,-0.245952,1.46125,8.6975,-6.60625,-22.888,15.744,2.136,concentric,4,3.0,19066.0,140508.0,227971.0,279243.0,262969.0
2026-04-08 21:47:23.377188,213680,1609504015211007,1615177355,0.866688,0.042944,-0.245952,-3.07125,9.42375,-8.6625,-22.888,15.744,2.136,concentric,4,3.0,19066.0,140508.0,227971.0,279243.0,262969.0
2026-04-08 21:47:23.381453,213681,1609504015220067,1615186031,0.882304,0.076128,-0.183488,-6.6675,10.36,-9.38,-23.016,15.960001,4.864,concentric,4,3.0,19066.0,140508.0,227971.0,279243.0,262969.0
2026-04-08 21:47:23.384021,213682,1609504015234513,1615200890,0.856928,0.060512,-0.124928,-6.29125,12.1975,-8.12875,-23.224,15.768001,2.456,concentric,4,3.0,19066.0,140508.0,227971.0,279243.0,262969.0
2026-04-08 21:47:23.411469,213693,1609504015243436,1615209563,0.856928,0.060512,-0.124928,-3.7275,13.1775,-7.06125,-23.224,15.768001,2.456,concentric,4,3.0,18967.0,140172.0,227622.0,279047.0,262907.0
2026-04-08 21:47:23.413202,213694,1609504015257918,1615224505,0.960384,0.025376,-0.037088,-4.92625,13.27375,-7.13125,-22.984001,15.920001,2.168,concentric,4,3.0,18967.0,140172.0,227622.0,279047.0,262907.0
2026-04-08 21:47:23.414751,213695,1609504015266910,1615233143,0.960384,0.025376,-0.037088,-9.00375,13.3175,-6.71125,-22.984001,15.920001,2.168,concentric,4,3.0,18967.0,140172.0,227622.0,279047.0,262907.0
2026-04-08 21:47:23.418817,213696,1609504015281369,1615247994,0.999424,0.003904,-0.132736,-11.795,12.95875,-6.125,-23.208,15.440001,2.248,concentric,4,3.0,18967.0,140172.0,227622.0,279047.0,262907.0
2026-04-08 21:47:23.425205,213697,1609504015290278,1615256650,0.999424,0.003904,-0.132736,-13.27375,12.9675,-5.11,-23.208,15.440001,2.248,concentric,4,3.0,18967.0,140172.0,227622.0,279047.0,262907.0
2026-04-08 21:47:23.426921,213698,1609504015299288,1615265332,0.981856,0.011712,-0.052704,-13.16,12.71375,-3.50875,-23.184002,15.6,1.0,concentric,4,3.0,18967.0,140172.0,227622.0,279047.0,262907.0
2026-04-08 21:47:23.428443,213699,1609504015313730,1615280229,0.976,0.060512,-0.007808,-9.72125,12.64375,-2.275,-23.312,15.816001,0.168,concentric,4,3.0,18967.0,140172.0,227622.0,279047.0,262907.0
2026-04-08 21:47:23.432856,213700,1609504015322630,1615288872,0.976,0.060512,-0.007808,-4.15625,12.565,-1.39125,-23.312,15.816001,0.168,concentric,4,3.0,18967.0,140172.0,227622.0,279047.0,262907.0
2026-04-08 21:47:23.436940,213701,1609504015337098,1615303776,0.979904,0.074176,-0.064416,0.7525,12.62625,-0.735,-23.376001,15.752001,2.368,concentric,4,3.0,18967.0,140172.0,227622.0,279047.0,262907.0
2026-04-08 21:47:23.464037,213712,1609504015346523,1615312467,0.979904,0.074176,-0.064416,-0.37625,12.67,0.735,-23.376001,15.752001,2.368,concentric,4,3.0,19065.0,140519.0,228057.0,279277.0,262955.0
2026-04-08 21:47:23.465889,213713,1609504015361019,1615327309,0.974048,0.052704,-0.22448,-7.20125,13.23875,1.925,-23.336,16.104,2.376,concentric,4,3.0,19065.0,140519.0,228057.0,279277.0,262955.0
2026-04-08 21:47:23.469479,213714,1609504015369910,1615335957,0.974048,0.052704,-0.22448,-12.3725,12.6875,1.63625,-23.336,16.104,2.376,concentric,4,3.0,19065.0,140519.0,228057.0,279277.0,262955.0
2026-04-08 21:47:23.472456,213715,1609504015378812,1615344620,0.894016,0.060512,-0.177632,-15.89,13.27375,2.79125,-23.736002,16.208,3.112,concentric,4,3.0,19065.0,140519.0,228057.0,279277.0,262955.0
2026-04-08 21:47:23.473388,213716,1609504015393329,1615359544,0.880352,0.072224,-0.152256,-15.14625,14.105001,5.3375,-23.928001,16.544,2.776,concentric,4,3.0,19065.0,140519.0,228057.0,279277.0,262955.0
2026-04-08 21:47:23.475873,213717,1609504015402236,1615368241,0.880352,0.072224,-0.152256,-10.87625,14.945,7.1225,-23.928001,16.544,2.776,concentric,4,3.0,19065.0,140519.0,228057.0,279277.0,262955.0
2026-04-08 21:47:23.478420,213718,1609504015416839,1615383170,0.974048,0.046848,-0.081984,-7.1225,15.09375,6.23,-23.504002,16.528,4.368,concentric,4,3.0,19065.0,140519.0,228057.0,279277.0,262955.0
2026-04-08 21:47:23.480904,213719,1609504015425819,1615391914,0.974048,0.046848,-0.081984,-4.62875,15.67125,4.78625,-23.504002,16.528,4.368,concentric,4,3.0,19065.0,140519.0,228057.0,279277.0,262955.0
2026-04-08 21:47:23.483359,213720,1609504015440311,1615406840,0.968192,0.072224,-0.122976,-4.62875,15.91625,5.27625,-24.136002,16.808,4.008,concentric,4,3.0,19065.0,140519.0,228057.0,279277.0,262955.0
2026-04-08 21:47:23.519707,213731,1609504015449365,1615415728,0.968192,0.072224,-0.122976,-5.0575,15.89,7.27125,-24.136002,16.808,4.008,concentric,4,3.0,19081.0,140502.0,228084.0,279257.0,262905.0
2026-04-08 21:47:23.522239,213732,1609504015458310,1615424409,0.944768,0.089792,0.00976,-4.75125,15.26,7.6125,-23.52,16.704,3.656,concentric,4,3.0,19081.0,140502.0,228084.0,279257.0,262905.0
2026-04-08 21:47:23.524671,213733,1609504015472808,1615439384,0.944768,0.089792,0.00976,-6.3175,14.3325,5.80125,-23.52,16.704,3.656,concentric,4,3.0,19081.0,140502.0,228084.0,279257.0,262905.0
2026-04-08 21:47:23.527174,213734,1609504015481701,1615448035,0.925248,0.074176,-0.089792,-9.66875,13.79,3.3425,-23.544,16.648,3.088,concentric,4,3.0,19081.0,140502.0,228084.0,279257.0,262905.0
2026-04-08 21:47:23.529687,213735,1609504015496143,1615462873,0.895968,0.083936,-0.22448,-10.70125,12.95875,1.9775,-23.392,16.648,2.832,concentric,4,3.0,19081.0,140502.0,228084.0,279257.0,262905.0
2026-04-08 21:47:23.532192,213736,1609504015505041,1615471531,0.895968,0.083936,-0.22448,-6.44875,12.775,2.87,-23.392,16.648,2.832,concentric,4,3.0,19081.0,140502.0,228084.0,279257.0,262905.0
2026-04-08 21:47:23.534723,213737,1609504015519538,1615486380,0.954528,0.044896,-0.201056,0.48125,13.011251,3.92,-23.984001,16.912,3.76,concentric,4,3.0,19081.0,140502.0,228084.0,279257.0,262905.0
2026-04-08 21:47:23.537175,213738,1609504015528593,1615495091,0.954528,0.044896,-0.201056,5.15375,12.27625,3.49125,-23.984001,16.912,3.76,concentric,4,3.0,19081.0,140502.0,228084.0,279257.0,262905.0
2026-04-08 21:47:23.539670,213739,1609504015537549,1615503807,0.915488,0.072224,-0.162016,8.67125,10.167501,1.84625,-23.504002,17.032001,3.736,concentric,4,3.0,19081.0,140502.0,228084.0,279257.0,262905.0
2026-04-08 21:47:23.570870,213750,1609504015552086,1615518748,0.915488,0.072224,-0.162016,12.27625,8.70625,-0.58625,-23.504002,17.032001,3.736,concentric,4,3.0,19079.0,140433.0,228005.0,279094.0,262752.0
2026-04-08 21:47:23.573398,213751,1609504015561084,1615527450,0.895968,0.076128,-0.171776,13.195,7.77,-2.3625,-23.736002,16.752,4.392,concentric,4,3.0,19079.0,140433.0,228005.0,279094.0,262752.0
2026-04-08 21:47:23.575868,213752,1609504015575599,1615542380,0.954528,0.046848,-0.193248,12.01375,7.035,-3.22,-24.024002,17.128,4.384,concentric,4,3.0,19079.0,140433.0,228005.0,279094.0,262752.0
2026-04-08 21:47:23.578380,213753,1609504015584543,1615551054,0.954528,0.046848,-0.193248,12.50375,5.87125,-3.89375,-24.024002,17.128,4.384,concentric,4,3.0,19079.0,140433.0,228005.0,279094.0,262752.0
2026-04-08 21:47:23.580907,213754,1609504015593465,1615559772,0.954528,0.046848,-0.193248,15.23375,4.48,-4.6025,-24.024002,17.128,4.384,concentric,4,3.0,19079.0,140433.0,228005.0,279094.0,262752.0
2026-04-08 21:47:23.583430,213755,1609504015608095,1615574717,0.921344,0.08784,-0.121024,19.985,3.38625,-5.32,-23.880001,16.512001,4.648,concentric,4,3.0,19079.0,140433.0,228005.0,279094.0,262752.0
2026-04-08 21:47:23.617369,213756,1609504015617032,1615583425,0.977952,0.046848,-0.220576,23.695,3.045,-7.46375,-24.064001,16.496,3.416,concentric,4,3.0,19079.0,140433.0,228005.0,279094.0,262752.0
2026-04-08 21:47:23.620911,213757,1609504015631642,1615598338,0.977952,0.046848,-0.220576,22.715,2.9225,-9.695,-24.064001,16.496,3.416,concentric,4,3.0,19079.0,140433.0,228005.0,279094.0,262752.0
2026-04-08 21:47:23.624466,213758,1609504015640553,1615607062,0.89792,0.119072,-0.177632,19.495,2.8875,-9.96625,-24.160002,16.616001,3.608,concentric,4,3.0,19079.0,140433.0,228005.0,279094.0,262752.0
2026-04-08 21:47:23.654645,213769,1609504015655196,1615621982,1.0248,0.056608,-0.138592,16.31875,1.47875,-8.26,-24.528002,16.424002,2.408,concentric,4,3.0,19014.0,140158.0,227741.0,278970.0,262689.0
2026-04-08 21:47:23.657135,213770,1609504015664145,1615630642,1.0248,0.056608,-0.138592,15.33,0.035,-7.93625,-24.528002,16.424002,2.408,concentric,4,3.0,19014.0,140158.0,227741.0,278970.0,262689.0
2026-04-08 21:47:23.659727,213771,1609504015673061,1615639346,1.0248,0.056608,-0.138592,16.63375,-0.5775,-8.417501,-24.528002,16.424002,2.408,concentric,4,3.0,19014.0,140158.0,227741.0,278970.0,262689.0
2026-04-08 21:47:23.662186,213772,1609504015687572,1615654277,1.05408,0.03904,-0.064416,19.20625,0.1925,-9.80875,-24.400002,16.432001,4.2,concentric,4,3.0,19014.0,140158.0,227741.0,278970.0,262689.0
2026-04-08 21:47:23.664664,213773,1609504015696569,1615662947,0.958432,0.05856,-0.199104,21.8575,1.19,-10.465,-24.624,16.144001,6.088,concentric,4,3.0,19014.0,140158.0,227741.0,278970.0,262689.0
2026-04-08 21:47:23.667128,213774,1609504015711080,1615677895,0.958432,0.05856,-0.199104,20.08125,1.015,-9.38,-24.624,16.144001,6.088,concentric,4,3.0,19014.0,140158.0,227741.0,278970.0,262689.0
2026-04-08 21:47:23.669679,213775,1609504015720029,1615686624,0.905728,0.111264,-0.23424,17.61375,0.14875,-8.12,-24.288002,16.176,4.824,concentric,4,3.0,19014.0,140158.0,227741.0,278970.0,262689.0
2026-04-08 21:47:23.672165,213776,1609504015734601,1615701599,0.905728,0.111264,-0.07808,19.10125,-0.41125,-7.21,-24.288002,16.176,4.824,concentric,4,3.0,19014.0,140158.0,227741.0,278970.0,262689.0
2026-04-08 21:47:23.674641,213777,1609504015743517,1615710325,0.950624,0.115168,-0.07808,21.34125,-0.69125,-7.805,-24.6,16.240002,6.512,concentric,4,3.0,19014.0,140158.0,227741.0,278970.0,262689.0
2026-04-08 21:47:23.702173,213788,1609504015752479,1615719024,0.950624,0.115168,-0.07808,22.18125,-0.93625,-8.5225,-24.6,16.240002,6.512,concentric,4,3.0,18827.0,139516.0,227049.0,278500.0,262453.0
2026-04-08 21:47:23.704659,213789,1609504015766987,1615733885,1.03456,0.0488,-0.220576,20.43125,0.46375,-9.59875,-24.896002,15.832001,5.168,concentric,4,3.0,18827.0,139516.0,227049.0,278500.0,262453.0
2026-04-08 21:47:23.707164,213790,1609504015776054,1615742598,0.95648,0.0976,-0.236192,15.5225,1.88125,-8.35625,-24.960001,16.232,5.632,concentric,4,3.0,18827.0,139516.0,227049.0,278500.0,262453.0
2026-04-08 21:47:23.711155,213791,1609504015790681,1615757559,0.95648,0.0976,-0.236192,9.3975,3.115,-7.13125,-24.960001,16.232,5.632,concentric,4,3.0,18827.0,139516.0,227049.0,278500.0,262453.0
2026-04-08 21:47:23.713215,213792,1609504015799618,1615766235,0.935008,0.142496,0.007808,6.13375,2.38875,-6.6675,-24.768002,15.824,6.392,concentric,4,3.0,18827.0,139516.0,227049.0,278500.0,262453.0
2026-04-08 21:47:23.714984,213793,1609504015808568,1615774904,0.935008,0.142496,0.007808,6.23875,1.11125,-8.39125,-24.768002,15.824,6.392,concentric,4,3.0,18827.0,139516.0,227049.0,278500.0,262453.0
2026-04-08 21:47:23.717143,213794,1609504015823077,1615789764,0.921344,0.072224,-0.085888,6.4575,0.18375,-10.59625,-25.344002,15.6,4.896,concentric,4,3.0,18827.0,139516.0,227049.0,278500.0,262453.0
2026-04-08 21:47:23.719701,213795,1609504015832059,1615798455,0.921344,0.072224,-0.085888,4.38375,0.3325,-11.095,-25.344002,15.6,4.896,concentric,4,3.0,18827.0,139516.0,227049.0,278500.0,262453.0
2026-04-08 21:47:23.747182,213806,1609504015846686,1615813914,0.977952,0.0488,-0.08784,5.3375,0.06125,-9.5375,-24.712002,15.744,4.632,concentric,4,3.0,18674.0,138983.0,226475.0,278300.0,262426.0
2026-04-08 21:47:23.749643,213807,1609504015855625,1615822562,0.977952,0.12688,-0.005856,8.33,0.035,-6.1075,-24.712002,15.744,4.632,concentric,4,3.0,18674.0,138983.0,226475.0,278300.0,262426.0
2026-04-08 21:47:23.752179,213808,1609504015870162,1615835379,0.948672,0.132736,-0.005856,10.73625,-0.34125,-4.4275,-25.224,15.656001,4.448,concentric,4,3.0,18674.0,138983.0,226475.0,278300.0,262426.0
2026-04-08 21:47:23.754690,213809,1609504015879542,1615846185,0.99552,0.066368,0.033184,13.9125,-2.31875,-5.32875,-25.032001,15.312,5.072,concentric,4,3.0,18674.0,138983.0,226475.0,278300.0,262426.0
2026-04-08 21:47:23.757104,213810,1609504015888505,1615854874,0.99552,0.066368,0.033184,15.54,-4.26125,-7.74375,-25.032001,15.312,5.072,concentric,4,3.0,18674.0,138983.0,226475.0,278300.0,262426.0
2026-04-08 21:47:23.759677,213811,1609504015903172,1615869798,0.976,0.085888,-0.056608,12.60875,-4.4975,-10.64875,-24.952002,15.064001,5.872,concentric,4,3.0,18674.0,138983.0,226475.0,278300.0,262426.0
2026-04-08 21:47:23.764696,213812,1609504015912092,1615878523,0.976,0.085888,-0.056608,12.50375,-2.96625,-11.82125,-24.952002,15.064001,5.872,concentric,4,3.0,18674.0,138983.0,226475.0,278300.0,262426.0
2026-04-08 21:47:23.767179,213813,1609504015926621,1615893442,0.952576,0.122976,-0.121024,13.9475,-2.0475,-10.4825,-25.528002,15.304001,4.856,concentric,4,3.0,18674.0,138983.0,226475.0,278300.0,262426.0
2026-04-08 21:47:23.769721,213814,1609504015935584,1615902121,0.952576,0.122976,-0.121024,11.92625,-1.04125,-7.11375,-25.528002,15.304001,4.856,concentric,4,3.0,18674.0,138983.0,226475.0,278300.0,262426.0
2026-04-08 21:47:23.772127,213815,1609504015944516,1615910823,0.929152,0.16592,-0.111264,8.51375,-0.4375,-5.80125,-25.408,15.344001,4.568,concentric,4,3.0,18674.0,138983.0,226475.0,278300.0,262426.0
