pc_time,serial_num,sensor_ts,host_ts,ax,ay,az,gx,gy,gz,mx,my,mz,phase,rpe,weight_kg,ppg_a,ppg_b,ppg_c,ppg_d,ppg_e
2026-04-08 21:47:24.193345,213826,1609504015959241,1615925809,1.00528,0.08784,-0.01952,4.17375,-0.98875,-6.9825,-25.368002,14.632001,4.952,eccentric,4,3.0,18527.0,138588.0,226072.0,277986.0,262258.0
2026-04-08 21:47:24.195961,213827,1609504015968300,1615934582,1.00528,0.08784,-0.01952,1.47,-0.91,-7.4375,-25.368002,14.632001,4.952,eccentric,4,3.0,18527.0,138588.0,226072.0,277986.0,262258.0
2026-04-08 21:47:24.198457,213828,1609504015982915,1615949475,0.958432,0.080032,-0.171776,0.7525,0.315,-6.5625,-25.400002,14.952001,5.128,eccentric,4,3.0,18527.0,138588.0,226072.0,277986.0,262258.0
2026-04-08 21:47:24.200875,213829,1609504015991826,1615958179,0.958432,0.080032,-0.171776,1.81125,0.8925,-4.55,-25.400002,14.952001,5.128,eccentric,4,3.0,18527.0,138588.0,226072.0,277986.0,262258.0
2026-04-08 21:47:24.203421,213830,1609504016006298,1615973078,1.00528,0.103456,-0.148352,2.09125,0.735,-3.15875,-25.424002,14.672001,4.96,eccentric,4,3.0,18527.0,138588.0,226072.0,277986.0,262258.0
2026-04-08 21:47:24.205942,213831,1609504016015474,1615981807,1.00528,0.103456,-0.148352,0.69125,0.49875,-2.94,-25.424002,14.672001,4.96,eccentric,4,3.0,18527.0,138588.0,226072.0,277986.0,262258.0
2026-04-08 21:47:24.208426,213832,1609504016024476,1615990493,0.952576,0.128832,-0.138592,-1.1375,0.42875,-3.78,-25.456001,15.048,5.576,eccentric,4,3.0,18527.0,138588.0,226072.0,277986.0,262258.0
2026-04-08 21:47:24.211001,213833,1609504016038978,1616005337,1.030656,0.044896,-0.148352,-2.135,0.02625,-4.05125,-25.384,14.888001,4.424,eccentric,4,3.0,18527.0,138588.0,226072.0,277986.0,262258.0
2026-04-08 21:47:24.238427,213844,1609504016048411,1616013955,1.030656,0.044896,-0.148352,0.11375,0.0,-3.465,-25.384,14.888001,4.424,eccentric,4,3.0,18451.0,138328.0,225757.0,277712.0,262062.0
2026-04-08 21:47:24.240946,213845,1609504016057707,1616024770,0.950624,0.101504,-0.171776,2.73,0.35875,-2.9225,-25.512001,14.912001,3.848,eccentric,4,3.0,18451.0,138328.0,225757.0,277712.0,262062.0
2026-04-08 21:47:24.243415,213846,1609504016072189,1616037612,0.950624,0.101504,-0.171776,2.7825,0.60375,-2.54625,-25.512001,14.912001,3.848,eccentric,4,3.0,18451.0,138328.0,225757.0,277712.0,262062.0
2026-04-08 21:47:24.245952,213847,1609504016081368,1616048340,0.981856,0.142496,-0.072224,4.9,-0.09625,-3.01,-25.456001,14.712001,4.856,eccentric,4,3.0,18451.0,138328.0,225757.0,277712.0,262062.0
2026-04-08 21:47:24.248419,213848,1609504016095816,1616061124,0.981856,0.142496,-0.072224,6.44875,-0.3675,-3.2025,-25.456001,14.712001,4.856,eccentric,4,3.0,18451.0,138328.0,225757.0,277712.0,262062.0
2026-04-08 21:47:24.250943,213849,1609504016105113,1616071846,1.01504,0.066368,-0.076128,5.0925,-0.93625,-3.70125,-25.648,14.656001,5.488,eccentric,4,3.0,18451.0,138328.0,225757.0,277712.0,262062.0
2026-04-08 21:47:24.253390,213850,1609504016119608,1616086761,1.009184,0.105408,-0.040992,-0.4025,-0.83125,-4.13,-25.632002,14.792001,5.096,eccentric,4,3.0,18451.0,138328.0,225757.0,277712.0,262062.0
2026-04-08 21:47:24.255883,213851,1609504016128522,1616095412,1.009184,0.105408,-0.040992,-4.52375,-0.105,-3.5525,-25.632002,14.792001,5.096,eccentric,4,3.0,18451.0,138328.0,225757.0,277712.0,262062.0
2026-04-08 21:47:24.258443,213852,1609504016137547,1616104074,1.009184,0.121024,-0.201056,-3.38625,0.72625,-2.21375,-25.632002,14.792001,5.096,eccentric,4,3.0,18451.0,138328.0,225757.0,277712.0,262062.0
2026-04-08 21:47:24.285891,213863,1609504016152197,1616118988,0.90768,0.121024,-0.201056,-3.045,0.98875,-1.18125,-25.216002,14.992001,5.072,eccentric,4,3.0,18392.0,138105.0,225489.0,277572.0,261980.0
2026-04-08 21:47:24.288396,213864,1609504016161113,1616127641,0.911584,0.095648,-0.191296,-4.73375,0.8225,-1.00625,-25.6,14.688001,4.552,eccentric,4,3.0,18392.0,138105.0,225489.0,277572.0,261980.0
2026-04-08 21:47:24.291012,213865,1609504016175590,1616142495,0.911584,0.095648,-0.191296,-4.2875,1.02375,-1.86375,-25.6,14.688001,4.552,eccentric,4,3.0,18392.0,138105.0,225489.0,277572.0,261980.0
2026-04-08 21:47:24.293401,213866,1609504016184476,1616151174,0.989664,0.091744,0.046848,-4.05125,1.12,-2.44125,-25.44,14.808001,4.912,eccentric,4,3.0,18392.0,138105.0,225489.0,277572.0,261980.0
2026-04-08 21:47:24.295973,213867,1609504016193399,1616159887,0.989664,0.091744,0.046848,-4.82125,1.30375,-2.21375,-25.44,14.808001,4.912,eccentric,4,3.0,18392.0,138105.0,225489.0,277572.0,261980.0
2026-04-08 21:47:24.298360,213868,1609504016207865,1616174787,0.913536,0.134688,-0.054656,-5.10125,2.485,-1.1375,-25.28,15.016001,4.824,eccentric,4,3.0,18392.0,138105.0,225489.0,277572.0,261980.0
2026-04-08 21:47:24.300859,213869,1609504016216793,1616183442,0.913536,0.134688,-0.054656,-5.565,3.08,-0.86625,-25.28,15.016001,4.824,eccentric,4,3.0,18392.0,138105.0,225489.0,277572.0,261980.0
2026-04-08 21:47:24.303356,213870,1609504016231302,1616198398,0.890112,0.115168,-0.17568,-6.88625,3.63125,-1.05875,-24.944,14.728001,2.0,eccentric,4,3.0,18392.0,138105.0,225489.0,277572.0,261980.0
2026-04-08 21:47:24.305913,213871,1609504016240240,1616207048,1.001376,0.070272,-0.12688,-9.1875,3.33375,-1.54,-25.400002,14.744,4.744,eccentric,4,3.0,18392.0,138105.0,225489.0,277572.0,261980.0
2026-04-08 21:47:24.333386,213882,1609504016254755,1616220102,1.001376,0.070272,-0.12688,-10.6925,3.45625,-2.49375,-25.400002,14.744,4.744,eccentric,4,3.0,18477.0,138364.0,225789.0,277627.0,261916.0
2026-04-08 21:47:24.335910,213883,1609504016264069,1616230817,1.022848,0.056608,-0.08784,-9.80875,3.325,-3.395,-25.112001,14.664001,4.856,eccentric,4,3.0,18477.0,138364.0,225789.0,277627.0,261916.0
2026-04-08 21:47:24.338442,213884,1609504016272954,1616239451,1.022848,0.056608,-0.08784,-9.6775,3.7975,-2.75625,-25.112001,14.664001,4.856,eccentric,4,3.0,18477.0,138364.0,225789.0,277627.0,261916.0
2026-04-08 21:47:24.341060,213885,1609504016287424,1616254299,0.970144,0.07808,-0.12688,-11.261251,3.75375,-1.9425,-24.896002,15.144001,4.808,eccentric,4,3.0,18477.0,138364.0,225789.0,277627.0,261916.0
2026-04-08 21:47:24.343455,213886,1609504016296368,1616262965,0.970144,0.07808,-0.12688,-9.03,3.50875,-1.49625,-24.896002,15.144001,4.808,eccentric,4,3.0,18477.0,138364.0,225789.0,277627.0,261916.0
2026-04-08 21:47:24.345919,213887,1609504016310862,1616277876,1.003328,0.10736,0.060512,-5.32,2.5725,-1.785,-25.288002,14.856001,4.816001,eccentric,4,3.0,18477.0,138364.0,225789.0,277627.0,261916.0
2026-04-08 21:47:24.379816,213888,1609504016319788,1616286599,0.95648,0.083936,-0.1464,-3.36,2.52,-2.38,-24.856,14.920001,4.136,eccentric,4,3.0,18477.0,138364.0,225789.0,277627.0,261916.0
2026-04-08 21:47:24.383358,213889,1609504016334245,1616299420,0.95648,0.083936,-0.1464,-0.5075,3.05375,-2.87875,-24.856,14.920001,4.136,eccentric,4,3.0,18477.0,138364.0,225789.0,277627.0,261916.0
2026-04-08 21:47:24.389669,213890,1609504016343436,1616310175,0.964288,0.109312,-0.089792,0.84,2.5025,-2.84375,-25.008001,15.120001,4.856,eccentric,4,3.0,18477.0,138364.0,225789.0,277627.0,261916.0
2026-04-08 21:47:24.417124,213901,1609504016352715,1616318842,0.964288,0.109312,-0.089792,0.5075,2.40625,-2.91375,-25.008001,15.120001,4.856,eccentric,4,3.0,18583.0,138705.0,226095.0,277738.0,261927.0
2026-04-08 21:47:24.419564,213902,1609504016367146,1616333711,0.96624,0.122976,-0.132736,1.3125,3.2025,-1.54875,-25.008001,15.032001,5.4,eccentric,4,3.0,18583.0,138705.0,226095.0,277738.0,261927.0
2026-04-08 21:47:24.422125,213903,1609504016376109,1616342383,0.96624,0.122976,-0.132736,2.42375,3.52625,-0.32375,-25.008001,15.032001,5.4,eccentric,4,3.0,18583.0,138705.0,226095.0,277738.0,261927.0
2026-04-08 21:47:24.424657,213904,1609504016390658,1616357274,1.011136,0.0976,-0.212768,4.06875,3.57,0.42,-24.992,14.512001,5.04,eccentric,4,3.0,18583.0,138705.0,226095.0,277738.0,261927.0
2026-04-08 21:47:24.428833,213905,1609504016399601,1616365948,1.06384,0.056608,-0.130784,3.73625,3.54375,0.2975,-24.992,14.792001,5.656,eccentric,4,3.0,18583.0,138705.0,226095.0,277738.0,261927.0
2026-04-08 21:47:24.429633,213906,1609504016408587,1616374584,1.06384,0.056608,-0.130784,2.07375,3.3075,-0.74375,-24.848001,14.792001,5.656,eccentric,4,3.0,18583.0,138705.0,226095.0,277738.0,261927.0
2026-04-08 21:47:24.432065,213907,1609504016423070,1616389419,1.036512,0.083936,-0.238144,0.21875,2.8525,-0.21,-24.624,14.936001,5.256,eccentric,4,3.0,18583.0,138705.0,226095.0,277738.0,261927.0
2026-04-08 21:47:24.434702,213908,1609504016431993,1616398088,1.036512,0.083936,-0.238144,-1.8725,3.0275,0.83125,-24.624,14.936001,5.256,eccentric,4,3.0,18583.0,138705.0,226095.0,277738.0,261927.0
2026-04-08 21:47:24.437140,213909,1609504016446516,1616412973,1.118496,0.103456,-0.089792,-0.385,3.00125,1.58375,-24.920002,14.76,6.4,eccentric,4,3.0,18583.0,138705.0,226095.0,277738.0,261927.0
2026-04-08 21:47:24.468373,213920,1609504016455484,1616421755,1.118496,0.103456,-0.089792,1.4175,2.65125,2.68625,-24.920002,14.76,6.4,eccentric,4,3.0,18773.0,139223.0,226604.0,278024.0,262066.0
2026-04-08 21:47:24.470841,213921,1609504016470012,1616436691,1.036512,0.13664,-0.0488,2.765,2.52,4.5325,-24.632002,15.064001,6.408001,eccentric,4,3.0,18773.0,139223.0,226604.0,278024.0,262066.0
2026-04-08 21:47:24.473350,213922,1609504016478978,1616445412,1.036512,0.13664,-0.0488,4.1475,2.05625,5.565,-24.632002,15.064001,6.408001,eccentric,4,3.0,18773.0,139223.0,226604.0,278024.0,262066.0
2026-04-08 21:47:24.475862,213923,1609504016487987,1616454156,1.071648,0.072224,-0.113216,2.8175,1.23375,5.7225,-24.336,14.952001,6.808,eccentric,4,3.0,18773.0,139223.0,226604.0,278024.0,262066.0
2026-04-08 21:47:24.478381,213924,1609504016502507,1616469165,1.0248,0.072224,-0.152256,-0.39375,0.41125,5.5125,-24.264002,15.152,5.496,eccentric,4,3.0,18773.0,139223.0,226604.0,278024.0,262066.0
2026-04-08 21:47:24.480872,213925,1609504016511440,1616477912,1.0248,0.072224,-0.152256,-2.89625,0.315,5.67,-24.264002,15.152,5.496,eccentric,4,3.0,18773.0,139223.0,226604.0,278024.0,262066.0
2026-04-08 21:47:24.483386,213926,1609504016525947,1616492850,1.069696,0.074176,-0.076128,-2.09125,0.0,7.91875,-24.216002,15.120001,5.712,eccentric,4,3.0,18773.0,139223.0,226604.0,278024.0,262066.0
2026-04-08 21:47:24.485849,213927,1609504016535011,1616501589,1.069696,0.074176,-0.076128,1.39125,-1.12875,9.58125,-24.216002,15.120001,5.712,eccentric,4,3.0,18773.0,139223.0,226604.0,278024.0,262066.0
2026-04-08 21:47:24.513315,213938,1609504016549535,1616516571,1.067744,0.056608,0.050752,8.93375,-3.01,9.0475,-23.728,15.304001,5.616,eccentric,4,3.0,18778.0,139284.0,226650.0,278043.0,262053.0
2026-04-08 21:47:24.515885,213939,1609504016559049,1616525398,1.067744,0.056608,0.050752,16.91375,-4.655,8.47,-23.728,15.304001,5.616,eccentric,4,3.0,18778.0,139284.0,226650.0,278043.0,262053.0
2026-04-08 21:47:24.518382,213940,1609504016568020,1616534109,0.987712,0.050752,-0.199104,17.045,-5.97625,8.12,-23.880001,15.136001,6.376,eccentric,4,3.0,18778.0,139284.0,226650.0,278043.0,262053.0
2026-04-08 21:47:24.520852,213941,1609504016582510,1616549115,0.987712,0.062464,-0.288896,14.875,-7.48125,7.98,-23.368002,15.416,3.984,eccentric,4,3.0,18778.0,139284.0,226650.0,278043.0,262053.0
2026-04-08 21:47:24.523344,213942,1609504016591539,1616557856,0.987712,0.062464,-0.288896,15.26875,-8.65375,8.417501,-23.368002,15.416,3.984,eccentric,4,3.0,18778.0,139284.0,226650.0,278043.0,262053.0
2026-04-08 21:47:24.525853,213943,1609504016606017,1616572703,0.976,0.05856,-0.25376,18.78625,-9.52875,9.765,-23.472002,15.128,6.216,eccentric,4,3.0,18778.0,139284.0,226650.0,278043.0,262053.0
2026-04-08 21:47:24.528424,213944,1609504016614948,1616581370,0.976,0.05856,-0.25376,23.616251,-10.36,10.14125,-23.472002,15.128,6.216,eccentric,4,3.0,18778.0,139284.0,226650.0,278043.0,262053.0
2026-04-08 21:47:24.531007,213945,1609504016623892,1616590039,0.925248,0.062464,-0.199104,21.69125,-11.03375,9.02125,-23.464,15.112,6.192,eccentric,4,3.0,18778.0,139284.0,226650.0,278043.0,262053.0
2026-04-08 21:47:24.533383,213946,1609504016638382,1616604986,0.925248,0.062464,-0.199104,16.75625,-11.34,7.875,-23.464,15.112,6.192,eccentric,4,3.0,18778.0,139284.0,226650.0,278043.0,262053.0
2026-04-08 21:47:24.535911,213947,1609504016647318,1616613679,1.009184,0.060512,-0.06832,8.715,-11.38375,6.9125,-23.512001,15.464001,6.736001,eccentric,4,3.0,18778.0,139284.0,226650.0,278043.0,262053.0
2026-04-08 21:47:24.563500,213958,1609504016661928,1616628618,0.901824,0.080032,-0.085888,1.42625,-10.6225,6.30875,-23.272001,15.56,5.544,eccentric,4,3.0,18796.0,139563.0,227112.0,278543.0,262447.0
2026-04-08 21:47:24.568441,213959,1609504016671023,1616637357,0.901824,0.080032,-0.085888,-0.56,-10.22875,7.06125,-23.272001,15.56,5.544,eccentric,4,3.0,18796.0,139563.0,227112.0,278543.0,262447.0
2026-04-08 21:47:24.570867,213960,1609504016685495,1616652240,0.892064,0.054656,-0.203008,1.12875,-10.05375,7.49,-22.904001,15.504001,5.912,eccentric,4,3.0,18796.0,139563.0,227112.0,278543.0,262447.0
2026-04-08 21:47:24.573378,213961,1609504016694459,1616660940,0.892064,0.054656,-0.203008,2.31875,-9.6775,7.0175,-22.904001,15.504001,5.912,eccentric,4,3.0,18796.0,139563.0,227112.0,278543.0,262447.0
2026-04-08 21:47:24.575943,213962,1609504016703386,1616669643,0.870592,0.08784,-0.076128,2.21375,-9.10875,6.1775,-22.864,16.0,6.776001,eccentric,4,3.0,18796.0,139563.0,227112.0,278543.0,262447.0
2026-04-08 21:47:24.578432,213963,1609504016717945,1616684568,0.870592,0.08784,-0.076128,0.88375,-8.33875,6.06375,-22.864,16.0,6.776001,eccentric,4,3.0,18796.0,139563.0,227112.0,278543.0,262447.0
2026-04-08 21:47:24.580897,213964,1609504016727013,1616693276,0.983808,0.023424,-0.148352,-4.025,-8.47,6.18625,-22.432001,15.256001,6.816001,eccentric,4,3.0,18796.0,139563.0,227112.0,278543.0,262447.0
2026-04-08 21:47:24.583365,213965,1609504016741543,1616708185,0.983808,0.003904,-0.044896,-9.695,-8.58375,5.48625,-22.432001,15.256001,6.816001,eccentric,4,3.0,18796.0,139563.0,227112.0,278543.0,262447.0
2026-04-08 21:47:24.611008,213976,1609504016750518,1616716876,0.997472,0.003904,-0.044896,-11.585,-10.77125,6.02,-22.6,15.632001,8.328,eccentric,4,3.0,18914.0,139946.0,227548.0,278778.0,262553.0
2026-04-08 21:47:24.613428,213977,1609504016760145,1616725956,0.997472,0.003904,-0.044896,-6.09,-13.97375,7.04375,-22.6,15.632001,8.328,eccentric,4,3.0,18914.0,139946.0,227548.0,278778.0,262553.0
2026-04-08 21:47:24.615862,213978,1609504016774770,1616740924,0.895968,0.005856,-0.23424,9.975,-15.575,7.56875,-22.752,15.856001,8.016001,eccentric,4,3.0,18914.0,139946.0,227548.0,278778.0,262553.0
2026-04-08 21:47:24.618382,213979,1609504016783707,1616749641,0.854976,0.072224,-0.119072,27.44875,-16.1875,8.07625,-22.904001,15.888001,7.096,eccentric,4,3.0,18914.0,139946.0,227548.0,278778.0,262553.0
2026-04-08 21:47:24.620882,213980,1609504016798196,1616764549,0.854976,0.072224,-0.119072,28.5075,-17.045,8.68,-22.904001,15.888001,7.096,eccentric,4,3.0,18914.0,139946.0,227548.0,278778.0,262553.0
2026-04-08 21:47:24.623435,213981,1609504016807297,1616773275,0.921344,0.060512,-0.271328,18.803751,-17.08875,7.245,-22.28,15.688001,6.792,eccentric,4,3.0,18914.0,139946.0,227548.0,278778.0,262553.0
2026-04-08 21:47:24.625905,213982,1609504016816320,1616781985,0.921344,0.060512,-0.271328,8.75875,-15.28625,6.475,-22.28,15.688001,6.792,eccentric,4,3.0,18914.0,139946.0,227548.0,278778.0,262553.0
2026-04-08 21:47:24.628375,213983,1609504016830820,1616796932,0.94672,0.02928,-0.206912,-2.94,-13.04625,7.83125,-21.776001,15.696001,6.624001,eccentric,4,3.0,18914.0,139946.0,227548.0,278778.0,262553.0
2026-04-08 21:47:24.630941,213984,1609504016839830,1616805680,0.94672,0.02928,-0.206912,-10.167501,-11.41875,10.14125,-21.776001,15.696001,6.624001,eccentric,4,3.0,18914.0,139946.0,227548.0,278778.0,262553.0
2026-04-08 21:47:24.662159,213995,1609504016854897,1616820581,0.915488,0.025376,-0.042944,-12.62625,-8.9775,11.41,-21.52,15.896001,6.472,eccentric,4,3.0,18860.0,140022.0,227799.0,279195.0,262919.0
2026-04-08 21:47:24.671116,213996,1609504016863946,1616829313,0.817888,0.050752,-0.021472,-12.08375,-6.30875,12.3025,-21.76,15.904,7.904,eccentric,4,3.0,18860.0,140022.0,227799.0,279195.0,262919.0
2026-04-08 21:47:24.674015,213997,1609504016873301,1616840141,0.817888,0.050752,-0.021472,-11.3925,-4.48875,12.8275,-21.76,15.904,7.904,eccentric,4,3.0,18860.0,140022.0,227799.0,279195.0,262919.0
2026-04-08 21:47:24.676370,213998,1609504016887896,1616855044,0.79056,0.007808,-0.199104,-12.792501,-4.3575,13.32625,-21.576,16.168001,6.776001,eccentric,4,3.0,18860.0,140022.0,227799.0,279195.0,262919.0
2026-04-08 21:47:24.678455,213999,1609504016896868,1616863723,0.79056,0.007808,-0.199104,-15.8025,-5.215,13.34375,-21.576,16.168001,6.776001,eccentric,4,3.0,18860.0,140022.0,227799.0,279195.0,262919.0
2026-04-08 21:47:24.680942,214000,1609504016911368,1616876586,0.905728,-0.00976,0.00976,-19.18875,-5.7925,12.69625,-21.184002,16.152,6.144,eccentric,4,3.0,18860.0,140022.0,227799.0,279195.0,262919.0
2026-04-08 21:47:24.683419,214001,1609504016920648,1616887356,0.905728,-0.00976,0.00976,-21.69125,-5.215,11.73375,-21.184002,16.152,6.144,eccentric,4,3.0,18860.0,140022.0,227799.0,279195.0,262919.0
2026-04-08 21:47:24.713705,214002,1609504016929623,1616896031,0.813984,-0.007808,-0.005856,-23.38,-4.3225,11.47125,-20.68,16.136002,5.12,eccentric,4,3.0,18860.0,140022.0,227799.0,279195.0,262919.0
2026-04-08 21:47:24.717215,214003,1609504016944142,1616910933,0.7808,0.003904,-0.037088,-25.41875,-4.27875,13.27375,-20.464,16.112001,4.504,eccentric,4,3.0,18860.0,140022.0,227799.0,279195.0,262919.0
2026-04-08 21:47:24.744934,214014,1609504016953517,1616919896,0.7808,0.003904,-0.037088,-24.928751,-4.515,13.57125,-20.464,16.112001,4.504,eccentric,4,3.0,18845.0,140044.0,227870.0,279376.0,263089.0
2026-04-08 21:47:24.747134,214015,1609504016968142,1616934929,0.81984,0.0,0.011712,-22.3825,-5.1625,12.88875,-20.552,16.728,6.824,eccentric,4,3.0,18845.0,140044.0,227870.0,279376.0,263089.0
2026-04-08 21:47:24.751085,214016,1609504016977087,1616943598,0.81984,0.0,0.011712,-17.77125,-5.7225,12.25,-20.552,16.728,6.824,eccentric,4,3.0,18845.0,140044.0,227870.0,279376.0,263089.0
2026-04-08 21:47:24.753394,214017,1609504016986024,1616952403,0.821792,-0.015616,0.013664,-14.4375,-6.62375,10.9025,-20.496,16.776001,5.888001,eccentric,4,3.0,18845.0,140044.0,227870.0,279376.0,263089.0
2026-04-08 21:47:24.786124,214018,1609504017000533,1616967276,0.821792,-0.015616,0.013664,-17.22875,-7.23625,9.28375,-20.496,16.776001,5.888001,eccentric,4,3.0,18845.0,140044.0,227870.0,279376.0,263089.0
2026-04-08 21:47:24.789683,214019,1609504017009452,1616975934,0.804224,-0.070272,-0.189344,-23.1875,-7.3675,7.48125,-20.112001,16.864,4.984,eccentric,4,3.0,18845.0,140044.0,227870.0,279376.0,263089.0
2026-04-08 21:47:24.792354,214020,1609504017023939,1616990805,0.837408,-0.050752,-0.031232,-27.9475,-7.3675,7.69125,-20.088001,16.744001,6.256001,eccentric,4,3.0,18845.0,140044.0,227870.0,279376.0,263089.0
2026-04-08 21:47:24.794720,214021,1609504017032859,1616999490,0.837408,-0.050752,-0.031232,-28.25375,-6.90375,8.25125,-20.088001,16.744001,6.256001,eccentric,4,3.0,18845.0,140044.0,227870.0,279376.0,263089.0
2026-04-08 21:47:24.824942,214022,1609504017047327,1617014380,0.847168,-0.046848,-0.210816,-23.96625,-6.44875,9.23125,-19.6,17.024,5.568,eccentric,4,3.0,18845.0,140044.0,227870.0,279376.0,263089.0
2026-04-08 21:47:24.853425,214033,1609504017056754,1617023169,0.847168,-0.046848,-0.210816,-17.8325,-6.23,9.2225,-19.6,17.024,5.568,eccentric,4,3.0,18957.0,140422.0,228248.0,279538.0,263149.0
2026-04-08 21:47:24.855972,214034,1609504017065770,1617031887,0.895968,-0.035136,-0.060512,-11.2175,-6.6675,8.82,-19.848001,17.072,4.936,eccentric,4,3.0,18957.0,140422.0,228248.0,279538.0,263149.0
2026-04-08 21:47:24.858437,214035,1609504017080274,1617046838,0.895968,-0.035136,-0.060512,-10.8325,-5.99375,9.16125,-19.848001,17.072,4.936,eccentric,4,3.0,18957.0,140422.0,228248.0,279538.0,263149.0
2026-04-08 21:47:24.860974,214036,1609504017089197,1617055534,0.85888,-0.056608,-0.199104,-13.15125,-5.20625,8.645,-19.6,17.144001,5.824,eccentric,4,3.0,18957.0,140422.0,228248.0,279538.0,263149.0
2026-04-08 21:47:24.865929,214037,1609504017103752,1617070413,0.85888,-0.040992,-0.072224,-17.31625,-3.73625,7.76125,-19.6,17.144001,5.824,eccentric,4,3.0,18957.0,140422.0,228248.0,279538.0,263149.0
2026-04-08 21:47:24.896194,214038,1609504017112754,1617079084,0.821792,-0.040992,-0.072224,-23.2225,-2.59,8.575,-19.52,17.608002,5.136,eccentric,4,3.0,18957.0,140422.0,228248.0,279538.0,263149.0
2026-04-08 21:47:24.899703,214039,1609504017121709,1617087767,0.821792,-0.040992,-0.072224,-28.3675,-2.5725,10.36,-19.52,17.608002,5.136,eccentric,4,3.0,18957.0,140422.0,228248.0,279538.0,263149.0
2026-04-08 21:47:24.902188,214040,1609504017136147,1617102692,0.798368,-0.056608,-0.132736,-27.3875,-2.63375,11.41875,-19.448002,17.344002,4.328,eccentric,4,3.0,18957.0,140422.0,228248.0,279538.0,263149.0
2026-04-08 21:47:24.910900,214041,1609504017145035,1617111347,0.88816,-0.035136,0.044896,-21.74375,-2.66,12.53,-19.288,17.28,4.216,eccentric,4,3.0,18957.0,140422.0,228248.0,279538.0,263149.0
2026-04-08 21:47:24.944696,214053,1609504017159635,1617126297,0.88816,-0.035136,0.044896,-14.5075,-2.73875,13.4575,-19.288,17.28,4.216,eccentric,4,3.0,19082.0,140824.0,228686.0,279748.0,263205.0
2026-04-08 21:47:24.947206,214054,1609504017168593,1617135098,0.823744,-0.02928,-0.083936,-7.14,-1.42625,14.04375,-19.096,18.008001,6.048,eccentric,4,3.0,19082.0,140824.0,228686.0,279748.0,263205.0
2026-04-08 21:47:24.952194,214055,1609504017183140,1617150028,0.823744,-0.02928,-0.083936,-4.75125,-0.665,14.02625,-19.096,18.008001,6.048,eccentric,4,3.0,19082.0,140824.0,228686.0,279748.0,263205.0
2026-04-08 21:47:24.954677,214056,1609504017192103,1617158711,0.890112,-0.072224,-0.119072,-9.00375,-0.06125,14.0525,-18.792002,18.208,4.728,eccentric,4,3.0,19082.0,140824.0,228686.0,279748.0,263205.0
2026-04-08 21:47:24.986113,214057,1609504017201038,1617167376,0.890112,-0.072224,-0.119072,-15.95125,0.14,13.48375,-18.792002,18.208,4.728,eccentric,4,3.0,19082.0,140824.0,228686.0,279748.0,263205.0
2026-04-08 21:47:24.988561,214058,1609504017215537,1617182210,0.882304,-0.085888,-0.179584,-22.085001,0.9275,11.9875,-18.752,18.056002,4.328,eccentric,4,3.0,19082.0,140824.0,228686.0,279748.0,263205.0
2026-04-08 21:47:24.992307,214059,1609504017224468,1617190919,0.882304,-0.085888,-0.121024,-24.5875,2.5725,10.49125,-18.752,18.056002,4.328,eccentric,4,3.0,19082.0,140824.0,228686.0,279748.0,263205.0
2026-04-08 21:47:25.025348,214060,1609504017238969,1617205794,0.813984,-0.08784,-0.121024,-24.85875,3.9025,9.9925,-18.144001,18.208,4.768,eccentric,4,3.0,19082.0,140824.0,228686.0,279748.0,263205.0
2026-04-08 21:47:25.027061,214061,1609504017247869,1617214459,0.882304,-0.122976,-0.128832,-22.522501,4.1475,9.3975,-18.152,17.936,4.032,eccentric,4,3.0,19082.0,140824.0,228686.0,279748.0,263205.0
2026-04-08 21:47:25.055350,214072,1609504017262757,1617229757,0.882304,-0.122976,-0.128832,-16.37125,4.36625,8.12,-18.152,17.936,4.032,eccentric,4,3.0,19090.0,140785.0,228508.0,279538.0,263035.0
2026-04-08 21:47:25.089574,214073,1609504017271688,1617238486,0.86864,-0.052704,-0.05856,-6.99125,4.3575,5.73125,-18.016,18.304,4.216,eccentric,4,3.0,19090.0,140785.0,228508.0,279538.0,263035.0
2026-04-08 21:47:25.094049,214074,1609504017280705,1617247196,0.86864,-0.052704,-0.05856,0.1575,4.92625,3.56125,-18.016,18.304,4.216,eccentric,4,3.0,19090.0,140785.0,228508.0,279538.0,263035.0
2026-04-08 21:47:25.095626,214075,1609504017295308,1617262130,0.864736,-0.011712,-0.054656,2.1875,5.32875,1.9425,-18.248001,18.224,4.416,eccentric,4,3.0,19090.0,140785.0,228508.0,279538.0,263035.0
2026-04-08 21:47:25.097485,214076,1609504017304228,1617270814,0.864736,-0.011712,-0.054656,0.98875,4.9525,1.295,-18.248001,18.224,4.416,eccentric,4,3.0,19090.0,140785.0,228508.0,279538.0,263035.0
2026-04-08 21:47:25.109114,214077,1609504017318696,1617285694,0.948672,-0.080032,0.064416,-2.44125,4.73375,2.1875,-17.832,18.136002,3.936,eccentric,4,3.0,19090.0,140785.0,228508.0,279538.0,263035.0
2026-04-08 21:47:25.110683,214078,1609504017327607,1617294339,0.890112,-0.121024,-0.210816,-4.6375,4.06875,2.9925,-18.168001,18.264,4.464,eccentric,4,3.0,19090.0,140785.0,228508.0,279538.0,263035.0
2026-04-08 21:47:25.112438,214079,1609504017342126,1617309208,0.890112,-0.121024,-0.210816,-1.9425,3.0975,2.17875,-18.168001,18.264,4.464,eccentric,4,3.0,19090.0,140785.0,228508.0,279538.0,263035.0
2026-04-08 21:47:25.116325,214080,1609504017351083,1617317929,0.968192,-0.070272,-0.001952,4.935,1.6975,1.47875,-18.096,18.096,4.68,eccentric,4,3.0,19090.0,140785.0,228508.0,279538.0,263035.0
2026-04-08 21:47:25.146439,214091,1609504017360159,1617326669,0.968192,-0.070272,-0.001952,14.35,1.19875,0.63875,-18.096,18.096,4.68,eccentric,4,3.0,19263.0,141139.0,228618.0,279505.0,262975.0
2026-04-08 21:47:25.150128,214092,1609504017374679,1617341580,0.90768,-0.046848,-0.017568,19.60875,1.14625,0.34125,-17.768002,18.400002,5.432,eccentric,4,3.0,19263.0,141139.0,228618.0,279505.0,262975.0
2026-04-08 21:47:25.153031,214093,1609504017383718,1617350275,0.90768,-0.046848,-0.017568,17.68375,1.8725,1.0675,-17.768002,18.400002,5.432,eccentric,4,3.0,19263.0,141139.0,228618.0,279505.0,262975.0
2026-04-08 21:47:25.180937,214094,1609504017398273,1617365164,0.86864,-0.021472,-0.035136,11.83875,2.63375,2.12625,-18.152,18.240002,3.568,eccentric,4,3.0,19263.0,141139.0,228618.0,279505.0,262975.0
2026-04-08 21:47:25.185275,214095,1609504017407196,1617373831,0.9272,-0.060512,-0.095648,7.98875,2.8525,2.7125,-17.696001,17.776001,3.72,eccentric,4,3.0,19263.0,141139.0,228618.0,279505.0,262975.0
2026-04-08 21:47:25.188204,214096,1609504017416144,1617382489,0.9272,-0.060512,-0.095648,6.1425,3.29,4.235,-17.696001,17.776001,3.72,eccentric,4,3.0,19263.0,141139.0,228618.0,279505.0,262975.0
2026-04-08 21:47:25.195146,214097,1609504017430656,1617397365,0.876448,-0.080032,0.011712,4.76,4.24375,4.55875,-17.416,18.264,5.784,eccentric,4,3.0,19263.0,141139.0,228618.0,279505.0,262975.0
2026-04-08 21:47:25.225173,214098,1609504017439576,1617406120,0.876448,-0.080032,0.011712,2.14375,5.1975,4.75125,-17.416,18.264,5.784,eccentric,4,3.0,19263.0,141139.0,228618.0,279505.0,262975.0
2026-04-08 21:47:25.252298,214109,1609504017454073,1617420900,0.876448,-0.10736,-0.15616,1.02375,6.0025,4.41,-17.552,18.04,5.104,eccentric,4,3.0,19296.0,141184.0,228600.0,279522.0,262996.0
2026-04-08 21:47:25.256473,214110,1609504017463021,1617429592,0.876448,-0.10736,-0.15616,1.3825,5.775,3.5875,-17.552,18.04,5.104,eccentric,4,3.0,19296.0,141184.0,228600.0,279522.0,262996.0
2026-04-08 21:47:25.258114,214111,1609504017477534,1617444499,0.854976,-0.044896,-0.10736,0.9275,5.4775,2.73875,-17.576,18.352001,4.76,eccentric,4,3.0,19296.0,141184.0,228600.0,279522.0,262996.0
2026-04-08 21:47:25.259697,214112,1609504017486501,1617453200,0.823744,-0.0488,-0.031232,1.995,6.16875,2.9925,-17.576,18.352001,5.192,eccentric,4,3.0,19296.0,141184.0,228600.0,279522.0,262996.0
2026-04-08 21:47:25.263818,214113,1609504017495439,1617461902,0.815936,-0.0488,-0.031232,1.82,6.11625,4.1125,-17.288,18.568,5.192,eccentric,4,3.0,19296.0,141184.0,228600.0,279522.0,262996.0
2026-04-08 21:47:25.292379,214114,1609504017509930,1617476818,0.745664,-0.099552,-0.261568,0.84875,5.48625,4.24375,-17.320002,18.504002,5.224001,eccentric,4,3.0,19296.0,141184.0,228600.0,279522.0,262996.0
2026-04-08 21:47:25.296915,214115,1609504017518858,1617485476,0.745664,-0.099552,-0.261568,-2.40625,5.4425,3.1325,-17.320002,18.504002,5.224001,eccentric,4,3.0,19296.0,141184.0,228600.0,279522.0,262996.0
2026-04-08 21:47:25.298445,214116,1609504017533326,1617500329,0.7808,-0.089792,-0.298656,-5.8975,5.94125,1.77625,-17.240002,18.488,3.16,eccentric,4,3.0,19296.0,141184.0,228600.0,279522.0,262996.0
2026-04-08 21:47:25.305082,214117,1609504017542268,1617508995,0.7808,-0.089792,-0.298656,-7.0,5.88,0.62125,-17.240002,18.488,3.16,eccentric,4,3.0,19296.0,141184.0,228600.0,279522.0,262996.0
2026-04-08 21:47:25.359816,214128,1609504017556903,1617523928,0.753472,-0.035136,-0.177632,-5.25,4.73375,0.5075,-17.152,18.792002,5.272,eccentric,4,3.0,19287.0,141277.0,228737.0,279636.0,263089.0
2026-04-08 21:47:25.364473,214129,1609504017565921,1617532585,0.753472,-0.035136,-0.177632,-1.5225,4.305,0.1575,-17.152,18.792002,5.272,eccentric,4,3.0,19287.0,141277.0,228737.0,279636.0,263089.0
2026-04-08 21:47:25.366952,214130,1609504017574871,1617541239,0.802272,-0.085888,-0.0976,0.13125,3.36,-0.86625,-17.152,18.504002,5.152,eccentric,4,3.0,19287.0,141277.0,228737.0,279636.0,263089.0
2026-04-08 21:47:25.368488,214131,1609504017589473,1617556148,0.821792,-0.113216,-0.220576,-1.155,2.555,-2.10875,-17.776001,18.744001,6.12,eccentric,4,3.0,19287.0,141277.0,228737.0,279636.0,263089.0
2026-04-08 21:47:25.372787,214132,1609504017598417,1617564823,0.821792,-0.113216,-0.220576,-5.64375,1.30375,-3.31625,-17.776001,18.744001,6.12,eccentric,4,3.0,19287.0,141277.0,228737.0,279636.0,263089.0
2026-04-08 21:47:25.375203,214133,1609504017613041,1617579743,0.804224,-0.0488,-0.021472,-8.33,0.5775,-5.18875,-17.184,18.512001,6.272,eccentric,4,3.0,19287.0,141277.0,228737.0,279636.0,263089.0
2026-04-08 21:47:25.403668,214134,1609504017622007,1617588411,0.804224,-0.0488,-0.021472,-8.37375,-0.3325,-7.13125,-17.184,18.512001,6.272,eccentric,4,3.0,19287.0,141277.0,228737.0,279636.0,263089.0
2026-04-08 21:47:25.407489,214135,1609504017636505,1617603269,0.808128,-0.080032,-0.210816,-8.28625,-0.65625,-8.47,-17.36,18.224,5.296001,eccentric,4,3.0,19287.0,141277.0,228737.0,279636.0,263089.0
2026-04-08 21:47:25.409656,214136,1609504017645404,1617611938,0.808128,-0.080032,-0.210816,-8.12875,-1.77625,-9.87875,-17.36,18.224,5.296001,eccentric,4,3.0,19287.0,141277.0,228737.0,279636.0,263089.0
2026-04-08 21:47:25.459752,214137,1609504017654402,1617620641,0.815936,-0.056608,-0.052704,-7.9975,-2.70375,-11.1125,-17.536001,18.160002,6.480001,eccentric,4,3.0,19287.0,141277.0,228737.0,279636.0,263089.0
2026-04-08 21:47:25.472755,214148,1609504017668937,1617635541,0.765184,-0.050752,-0.152256,-8.72375,-3.2725,-11.76875,-17.560001,18.288,2.52,eccentric,4,3.0,19291.0,141217.0,228703.0,279633.0,263085.0
2026-04-08 21:47:25.474800,214149,1609504017677847,1617644181,0.765184,-0.050752,-0.152256,-10.50875,-3.115,-12.11,-17.560001,18.288,2.52,eccentric,4,3.0,19291.0,141217.0,228703.0,279633.0,263085.0
2026-04-08 21:47:25.477154,214150,1609504017692364,1617659121,0.806176,-0.080032,-0.23424,-11.0075,-3.64,-12.4775,-17.44,18.288,4.96,eccentric,4,3.0,19291.0,141217.0,228703.0,279633.0,263085.0
2026-04-08 21:47:25.479657,214151,1609504017701417,1617667843,0.806176,-0.080032,-0.23424,-10.10625,-4.48,-13.475,-17.44,18.288,4.96,eccentric,4,3.0,19291.0,141217.0,228703.0,279633.0,263085.0
2026-04-08 21:47:25.482131,214152,1609504017710427,1617676538,0.804224,-0.052704,-0.212768,-9.485,-4.57625,-14.46375,-17.848001,18.096,4.864,eccentric,4,3.0,19291.0,141217.0,228703.0,279633.0,263085.0
2026-04-08 21:47:25.487119,214153,1609504017724889,1617691425,0.804224,-0.052704,-0.212768,-8.72375,-5.13625,-15.1025,-17.848001,18.096,4.864,eccentric,4,3.0,19291.0,141217.0,228703.0,279633.0,263085.0
2026-04-08 21:47:25.517340,214154,1609504017733895,1617700190,0.89792,-0.060512,-0.128832,-7.88375,-5.6175,-15.3125,-18.448,18.224,6.496,concentric,4,3.0,19291.0,141217.0,228703.0,279633.0,263085.0
2026-04-08 21:47:25.522295,214155,1609504017748363,1617715044,0.854976,-0.054656,-0.193248,-6.545,-5.18875,-15.32125,-18.448,18.304,3.576,concentric,4,3.0,19291.0,141217.0,228703.0,279633.0,263085.0
2026-04-08 21:47:25.549038,214166,1609504017757689,1617724146,0.854976,-0.054656,-0.193248,-6.6325,-4.52375,-14.93625,-17.824001,18.304,3.576,concentric,4,3.0,19271.0,141183.0,228686.0,279624.0,263078.0
2026-04-08 21:47:25.550867,214167,1609504017772307,1617739101,0.812032,0.015616,-0.150304,-9.6075,-4.1475,-13.83375,-18.0,17.84,4.28,concentric,4,3.0,19271.0,141183.0,228686.0,279624.0,263078.0
2026-04-08 21:47:25.553440,214168,1609504017781273,1617747836,0.812032,0.015616,-0.150304,-11.0775,-4.68125,-13.74625,-18.0,17.84,4.28,concentric,4,3.0,19271.0,141183.0,228686.0,279624.0,263078.0
2026-04-08 21:47:25.555892,214169,1609504017790240,1617756519,0.950624,-0.05856,-0.105408,-9.40625,-4.6725,-14.665,-18.224,18.048,4.968,concentric,4,3.0,19271.0,141183.0,228686.0,279624.0,263078.0
2026-04-08 21:47:25.586051,214170,1609504017804779,1617771406,0.950624,-0.05856,-0.105408,-8.25125,-4.34,-15.60125,-18.224,18.048,4.968,concentric,4,3.0,19271.0,141183.0,228686.0,279624.0,263078.0
2026-04-08 21:47:25.589641,214171,1609504017813703,1617780112,0.866688,-0.02928,-0.033184,-9.02125,-3.0275,-15.2075,-18.464,17.768002,4.544,concentric,4,3.0,19271.0,141183.0,228686.0,279624.0,263078.0
2026-04-08 21:47:25.592149,214172,1609504017828180,1617794977,0.866688,-0.02928,-0.28304,-11.69,-2.10875,-14.1225,-18.464,17.768002,4.544,concentric,4,3.0,19271.0,141183.0,228686.0,279624.0,263078.0
2026-04-08 21:47:25.598411,214173,1609504017837138,1617803766,0.85888,-0.023424,-0.286944,-13.71125,-1.79375,-12.78375,-18.304,17.648,3.432,concentric,4,3.0,19271.0,141183.0,228686.0,279624.0,263078.0
2026-04-08 21:47:25.632297,214174,1609504017851635,1617818632,0.944768,-0.007808,0.025376,-15.11125,-2.07375,-12.71375,-18.488,17.592001,4.04,concentric,4,3.0,19271.0,141183.0,228686.0,279624.0,263078.0
2026-04-08 21:47:25.660922,214185,1609504017860995,1617827374,0.944768,-0.007808,0.025376,-10.605001,-2.9225,-11.97875,-18.488,17.592001,4.04,concentric,4,3.0,19279.0,141233.0,228717.0,279607.0,263020.0
2026-04-08 21:47:25.663456,214186,1609504017869927,1617836067,0.90768,-0.046848,-0.181536,-4.13,-5.17125,-9.89625,-18.608002,17.736,3.832,concentric,4,3.0,19279.0,141233.0,228717.0,279607.0,263020.0
2026-04-08 21:47:25.665917,214187,1609504017884484,1617850990,0.90768,-0.046848,-0.181536,0.4025,-6.4575,-9.3625,-18.608002,17.736,3.832,concentric,4,3.0,19279.0,141233.0,228717.0,279607.0,263020.0
2026-04-08 21:47:25.668445,214188,1609504017893459,1617859724,0.794464,0.003904,-0.201056,-1.04125,-6.9125,-9.17,-18.816,17.736,5.768,concentric,4,3.0,19279.0,141233.0,228717.0,279607.0,263020.0
2026-04-08 21:47:25.670847,214189,1609504017908026,1617874617,0.794464,0.003904,-0.201056,-2.84375,-7.46375,-8.77625,-18.816,17.736,5.768,concentric,4,3.0,19279.0,141233.0,228717.0,279607.0,263020.0
2026-04-08 21:47:25.701086,214190,1609504017916960,1617883377,0.835456,-0.03904,-0.284992,-4.15625,-8.47,-7.76125,-19.048,17.832,3.712,concentric,4,3.0,19279.0,141233.0,228717.0,279607.0,263020.0
2026-04-08 21:47:25.704659,214191,1609504017925902,1617892051,0.835456,-0.03904,-0.284992,-7.7875,-8.96,-7.13125,-19.048,17.832,3.712,concentric,4,3.0,19279.0,141233.0,228717.0,279607.0,263020.0
2026-04-08 21:47:25.707579,214192,1609504017940374,1617906960,0.831552,-0.007808,0.003904,-9.94,-9.415,-7.91875,-18.784,17.336,3.68,concentric,4,3.0,19279.0,141233.0,228717.0,279607.0,263020.0
2026-04-08 21:47:25.710956,214193,1609504017949267,1617915629,0.831552,-0.085888,-0.085888,-7.665,-9.485,-9.625,-18.784,17.336,3.68,concentric,4,3.0,19279.0,141233.0,228717.0,279607.0,263020.0
2026-04-08 21:47:25.772203,214204,1609504017963868,1617930536,0.854976,-0.089792,-0.085888,-4.31375,-8.575,-11.4975,-19.224,17.84,3.784,concentric,4,3.0,19209.0,141075.0,228627.0,279604.0,263083.0
2026-04-08 21:47:25.778428,214205,1609504017972790,1617939254,0.874496,-0.02928,-0.017568,-4.55,-8.14625,-12.45125,-19.096,17.648,3.792,concentric,4,3.0,19209.0,141075.0,228627.0,279604.0,263083.0
2026-04-08 21:47:25.780903,214206,1609504017987261,1617954094,0.874496,-0.02928,-0.017568,-6.58,-7.11375,-14.21875,-19.096,17.648,3.792,concentric,4,3.0,19209.0,141075.0,228627.0,279604.0,263083.0
2026-04-08 21:47:25.783693,214207,1609504017996276,1617962771,0.872544,-0.033184,-0.290848,-8.35625,-6.79,-17.3425,-19.616001,17.448,4.488,concentric,4,3.0,19209.0,141075.0,228627.0,279604.0,263083.0
2026-04-08 21:47:25.785904,214208,1609504018005247,1617971524,0.872544,-0.033184,-0.290848,-10.73625,-6.5275,-19.6175,-19.616001,17.448,4.488,concentric,4,3.0,19209.0,141075.0,228627.0,279604.0,263083.0
2026-04-08 21:47:25.788538,214209,1609504018019752,1617986429,0.856928,-0.035136,-0.115168,-12.1275,-5.69625,-19.215,-19.560001,17.536001,4.36,concentric,4,3.0,19209.0,141075.0,228627.0,279604.0,263083.0
2026-04-08 21:47:25.791411,214210,1609504018028715,1617995112,0.856928,-0.035136,-0.115168,-9.9575,-5.01375,-17.54375,-19.560001,17.536001,4.36,concentric,4,3.0,19209.0,141075.0,228627.0,279604.0,263083.0
2026-04-08 21:47:25.821127,214211,1609504018043204,1618009993,0.909632,-0.021472,0.03904,-9.8,-5.425,-15.67125,-19.928001,17.264,4.88,concentric,4,3.0,19209.0,141075.0,228627.0,279604.0,263083.0
2026-04-08 21:47:25.824710,214212,1609504018052115,1618018716,0.952576,-0.056608,-0.296704,-11.480001,-5.565,-16.5025,-19.904001,17.392,2.112,concentric,4,3.0,19209.0,141075.0,228627.0,279604.0,263083.0
2026-04-08 21:47:25.852192,214223,1609504018066985,1618034003,0.952576,-0.056608,-0.296704,-9.292501,-5.3725,-17.10625,-19.904001,17.392,2.112,concentric,4,3.0,19357.0,141452.0,228894.0,279697.0,263042.0
2026-04-08 21:47:25.854700,214224,1609504018075972,1618042709,0.958432,-0.025376,-0.167872,-6.16875,-5.20625,-15.89,-20.104,17.168001,4.384,concentric,4,3.0,19357.0,141452.0,228894.0,279697.0,263042.0
2026-04-08 21:47:25.857181,214225,1609504018084924,1618051394,0.958432,-0.025376,-0.167872,-2.5025,-5.18875,-13.2125,-20.104,17.168001,4.384,concentric,4,3.0,19357.0,141452.0,228894.0,279697.0,263042.0
2026-04-08 21:47:25.860996,214226,1609504018099438,1618066288,0.806176,0.003904,-0.121024,1.30375,-5.005,-10.31625,-19.824001,17.008001,4.912,concentric,4,3.0,19357.0,141452.0,228894.0,279697.0,263042.0
2026-04-08 21:47:25.891176,214227,1609504018108368,1618074956,0.806176,0.003904,-0.121024,2.35375,-5.6,-8.51375,-19.824001,17.008001,4.912,concentric,4,3.0,19357.0,141452.0,228894.0,279697.0,263042.0
2026-04-08 21:47:25.894684,214228,1609504018122813,1618089802,0.929152,-0.013664,-0.187392,1.1025,-5.90625,-7.5775,-20.496,17.336,3.16,concentric,4,3.0,19357.0,141452.0,228894.0,279697.0,263042.0
2026-04-08 21:47:25.897179,214229,1609504018131725,1618098449,0.95648,-0.03904,-0.245952,-0.32375,-4.62875,-7.4375,-20.096,16.960001,1.776,concentric,4,3.0,19357.0,141452.0,228894.0,279697.0,263042.0
2026-04-08 21:47:25.902176,214230,1609504018140689,1618107159,0.95648,-0.03904,-0.245952,-2.33625,-3.24625,-6.895,-20.096,16.960001,1.776,concentric,4,3.0,19357.0,141452.0,228894.0,279697.0,263042.0
2026-04-08 21:47:25.932399,214231,1609504018155133,1618122066,0.833504,0.021472,-0.17568,-6.25625,-1.93375,-5.1625,-20.432001,17.184,2.856,concentric,4,3.0,19357.0,141452.0,228894.0,279697.0,263042.0
2026-04-08 21:47:25.960954,214242,1609504018164147,1618130771,0.833504,0.021472,-0.17568,-9.275,-1.40875,-4.83875,-20.432001,17.184,2.856,concentric,4,3.0,19236.0,141073.0,228529.0,279531.0,263031.0
2026-04-08 21:47:25.963419,214243,1609504018178657,1618145686,0.806176,-0.007808,-0.154208,-8.00625,-0.56,-5.53,-20.472,16.848001,2.712,concentric,4,3.0,19236.0,141073.0,228529.0,279531.0,263031.0
2026-04-08 21:47:25.965973,214244,1609504018187556,1618154404,0.806176,-0.007808,-0.154208,-4.55,-0.1575,-4.89125,-20.472,16.848001,2.712,concentric,4,3.0,19236.0,141073.0,228529.0,279531.0,263031.0
2026-04-08 21:47:25.968407,214245,1609504018202068,1618167268,0.853024,-0.01952,-0.23424,-4.13,0.4025,-4.6725,-20.144001,17.04,3.728,concentric,4,3.0,19236.0,141073.0,228529.0,279531.0,263031.0
2026-04-08 21:47:25.973411,214246,1609504018211314,1618178016,0.870592,0.035136,-0.169824,-4.73375,0.7875,-5.4775,-20.144001,17.04,3.64,concentric,4,3.0,19236.0,141073.0,228529.0,279531.0,263031.0
2026-04-08 21:47:26.006197,214247,1609504018220221,1618186696,0.870592,0.035136,-0.169824,-5.24125,1.18125,-6.36125,-20.888,16.960001,3.64,concentric,4,3.0,19236.0,141073.0,228529.0,279531.0,263031.0
2026-04-08 21:47:26.009666,214248,1609504018234715,1618201545,0.86864,0.040992,-0.228384,-9.555,3.00125,-7.37625,-20.880001,16.84,2.424,concentric,4,3.0,19236.0,141073.0,228529.0,279531.0,263031.0
2026-04-08 21:47:26.012211,214249,1609504018243716,1618210235,0.86864,0.040992,-0.228384,-16.03,5.32,-8.1375,-20.880001,16.84,2.424,concentric,4,3.0,19236.0,141073.0,228529.0,279531.0,263031.0
2026-04-08 21:47:26.044712,214260,1609504018258227,1618225062,0.823744,0.0488,-0.22448,-21.2275,7.2275,-7.23625,-21.136002,16.952002,2.024,concentric,4,3.0,19235.0,141157.0,228667.0,279681.0,263114.0
2026-04-08 21:47:26.051008,214261,1609504018267172,1618233823,0.823744,0.0488,-0.22448,-22.4175,7.875,-5.76625,-21.136002,16.952002,2.024,concentric,4,3.0,19235.0,141157.0,228667.0,279681.0,263114.0
2026-04-08 21:47:26.053433,214262,1609504018281789,1618248770,0.913536,0.035136,0.054656,-19.81875,6.65875,-6.0025,-20.968,16.6,2.344,concentric,4,3.0,19235.0,141157.0,228667.0,279681.0,263114.0
2026-04-08 21:47:26.055934,214263,1609504018290700,1618257451,0.913536,0.035136,0.054656,-14.00875,5.145,-7.9975,-20.968,16.6,2.344,concentric,4,3.0,19235.0,141157.0,228667.0,279681.0,263114.0
2026-04-08 21:47:26.062288,214264,1609504018299689,1618266147,0.976,-0.013664,-0.044896,-4.4975,4.20875,-9.80875,-21.144001,16.880001,0.792,concentric,4,3.0,19235.0,141157.0,228667.0,279681.0,263114.0
2026-04-08 21:47:26.096158,214265,1609504018314154,1618280966,0.899872,-0.001952,-0.286944,0.0175,4.40125,-11.68125,-21.072,16.936,2.488,concentric,4,3.0,19235.0,141157.0,228667.0,279681.0,263114.0
2026-04-08 21:47:26.099726,214266,1609504018323063,1618289627,0.899872,-0.001952,-0.286944,-2.63375,4.6725,-12.25875,-21.072,16.936,2.488,concentric,4,3.0,19235.0,141157.0,228667.0,279681.0,263114.0
2026-04-08 21:47:26.102186,214267,1609504018337564,1618304452,0.823744,0.089792,-0.1464,-3.5175,5.4075,-10.52625,-21.52,16.720001,2.552,concentric,4,3.0,19235.0,141157.0,228667.0,279681.0,263114.0
2026-04-08 21:47:26.109868,214268,1609504018346497,1618313118,0.823744,0.089792,-0.1464,2.03875,6.6675,-8.14625,-21.52,16.720001,2.552,concentric,4,3.0,19235.0,141157.0,228667.0,279681.0,263114.0
2026-04-08 21:47:26.164641,214279,1609504018361238,1618328199,0.915488,0.011712,-0.089792,4.71625,6.81625,-8.2425,-21.272001,17.056002,2.36,concentric,4,3.0,19241.0,141270.0,228903.0,279897.0,263307.0
2026-04-08 21:47:26.167168,214280,1609504018370243,1618336843,0.915488,0.011712,-0.089792,4.17375,7.49,-10.675,-21.272001,17.056002,2.36,concentric,4,3.0,19241.0,141270.0,228903.0,279897.0,263307.0
2026-04-08 21:47:26.169728,214281,1609504018379149,1618345483,0.962336,0.015616,-0.076128,0.02625,8.96,-12.55625,-21.432001,16.664001,2.384,concentric,4,3.0,19241.0,141270.0,228903.0,279897.0,263307.0
2026-04-08 21:47:26.172206,214282,1609504018393680,1618360354,0.866688,0.05856,-0.119072,-7.65625,9.948751,-13.230001,-21.880001,17.232,4.304,concentric,4,3.0,19241.0,141270.0,228903.0,279897.0,263307.0
2026-04-08 21:47:26.174708,214283,1609504018402612,1618369114,0.866688,0.05856,-0.119072,-11.17375,11.655,-13.448751,-21.880001,17.232,4.304,concentric,4,3.0,19241.0,141270.0,228903.0,279897.0,263307.0
2026-04-08 21:47:26.179759,214284,1609504018417143,1618383992,0.909632,0.0,-0.095648,-9.37125,12.215,-10.24625,-21.976002,16.984001,3.328,concentric,4,3.0,19241.0,141270.0,228903.0,279897.0,263307.0
2026-04-08 21:47:26.209921,214285,1609504018426149,1618392662,0.909632,0.0,-0.095648,-7.93625,12.5475,-7.07,-21.976002,16.984001,3.328,concentric,4,3.0,19241.0,141270.0,228903.0,279897.0,263307.0
2026-04-08 21:47:26.213489,214286,1609504018435064,1618401333,0.942816,0.023424,-0.044896,-7.44625,12.355001,-7.27125,-22.04,16.808,2.464,concentric,4,3.0,19241.0,141270.0,228903.0,279897.0,263307.0
2026-04-08 21:47:26.215953,214287,1609504018449576,1618416210,0.942816,0.023424,-0.044896,-7.14,12.355001,-11.20875,-22.04,16.808,2.464,concentric,4,3.0,19241.0,141270.0,228903.0,279897.0,263307.0
2026-04-08 21:47:26.219696,214288,1609504018458494,1618424972,1.03456,0.003904,-0.015616,-10.71,12.4075,-14.63875,-21.744001,16.704,2.128,concentric,4,3.0,19241.0,141270.0,228903.0,279897.0,263307.0
2026-04-08 21:47:26.247144,214299,1609504018473076,1618439942,0.933056,0.003904,-0.033184,-12.88,12.565,-13.5275,-21.744001,16.752,4.464,concentric,4,3.0,19194.0,141068.0,228610.0,279719.0,263183.0
2026-04-08 21:47:26.249692,214300,1609504018482014,1618448685,0.933056,0.003904,-0.033184,-12.39875,12.0575,-11.5325,-22.016,16.752,4.464,concentric,4,3.0,19194.0,141068.0,228610.0,279719.0,263183.0
2026-04-08 21:47:26.279932,214301,1609504018496610,1618463562,0.989664,-0.015616,0.0488,-12.495,11.12125,-12.38125,-22.232,16.688002,4.344,concentric,4,3.0,19194.0,141068.0,228610.0,279719.0,263183.0
2026-04-08 21:47:26.283428,214302,1609504018505560,1618472215,0.989664,-0.015616,0.0488,-11.90875,9.72125,-14.11375,-22.232,16.688002,4.344,concentric,4,3.0,19194.0,141068.0,228610.0,279719.0,263183.0
2026-04-08 21:47:26.285957,214303,1609504018514536,1618480984,1.0736,-0.001952,-0.128832,-10.167501,7.91,-15.9075,-22.384,16.496,2.048,concentric,4,3.0,19194.0,141068.0,228610.0,279719.0,263183.0
2026-04-08 21:47:26.292247,214304,1609504018529023,1618495878,1.0736,-0.001952,-0.128832,-4.55875,8.225,-19.92375,-22.384,16.496,2.048,concentric,4,3.0,19194.0,141068.0,228610.0,279719.0,263183.0
2026-04-08 21:47:26.322502,214305,1609504018537973,1618504604,1.06384,0.072224,0.007808,-0.1225,9.7125,-21.9975,-22.720001,16.44,2.424,concentric,4,3.0,19194.0,141068.0,228610.0,279719.0,263183.0
2026-04-08 21:47:26.326023,214306,1609504018552522,1618519466,1.06384,0.072224,0.007808,-3.1325,11.13,-20.6325,-22.720001,16.44,2.424,concentric,4,3.0,19194.0,141068.0,228610.0,279719.0,263183.0
2026-04-08 21:47:26.394724,214317,1609504018561443,1618528411,1.059936,0.056608,-0.066368,-4.83,11.99625,-16.5025,-22.672,16.424002,3.096,concentric,4,3.0,19141.0,140925.0,228588.0,279842.0,263322.0
2026-04-08 21:47:26.397226,214318,1609504018576041,1618541252,0.938912,0.099552,-0.177632,-6.5975,11.83,-11.17375,-22.952002,16.240002,3.392,concentric,4,3.0,19141.0,140925.0,228588.0,279842.0,263322.0
2026-04-08 21:47:26.399686,214319,1609504018585286,1618551987,0.938912,0.099552,-0.177632,-10.92,11.80375,-9.7825,-22.952002,16.240002,3.392,concentric,4,3.0,19141.0,140925.0,228588.0,279842.0,263322.0
2026-04-08 21:47:26.402200,214320,1609504018594223,1618560656,0.925248,0.076128,-0.158112,-9.21375,11.27,-8.9425,-22.744001,16.272001,3.064,concentric,4,3.0,19141.0,140925.0,228588.0,279842.0,263322.0
2026-04-08 21:47:26.404718,214321,1609504018608693,1618575497,0.925248,0.076128,-0.158112,-10.03625,10.78,-6.37875,-22.744001,16.272001,3.064,concentric,4,3.0,19141.0,140925.0,228588.0,279842.0,263322.0
2026-04-08 21:47:26.407166,214322,1609504018617605,1618584161,0.970144,0.070272,0.0,-12.60875,11.6025,-2.8875,-22.880001,16.16,2.912,concentric,4,3.0,19141.0,140925.0,228588.0,279842.0,263322.0
2026-04-08 21:47:26.409715,214323,1609504018632081,1618599033,0.970144,0.070272,0.0,-7.49,13.1425,-0.07,-22.880001,16.16,2.912,concentric,4,3.0,19141.0,140925.0,228588.0,279842.0,263322.0
2026-04-08 21:47:26.412171,214324,1609504018641027,1618607792,0.944768,0.062464,-0.081984,-1.16375,12.8625,2.10875,-22.832,16.616001,2.472,concentric,4,3.0,19141.0,140925.0,228588.0,279842.0,263322.0
2026-04-08 21:47:26.414656,214325,1609504018649953,1618616538,0.944768,0.062464,-0.081984,-1.9775,13.0725,1.88125,-22.832,16.616001,2.472,concentric,4,3.0,19141.0,140925.0,228588.0,279842.0,263322.0
2026-04-08 21:47:26.473411,214336,1609504018665050,1618631453,0.954528,0.07808,0.03904,-3.73625,14.105001,2.94,-22.912,16.432001,3.16,concentric,4,3.0,19044.0,140605.0,228426.0,279774.0,263304.0
2026-04-08 21:47:26.475910,214337,1609504018674018,1618640163,0.954528,0.115168,-0.0488,-6.9475,15.1025,3.66625,-22.912,16.432001,3.16,concentric,4,3.0,19044.0,140605.0,228426.0,279774.0,263304.0
2026-04-08 21:47:26.478429,214338,1609504018688494,1618655037,0.90768,0.115168,-0.0488,-10.35125,15.96875,5.03125,-22.592001,16.408,2.896,concentric,4,3.0,19044.0,140605.0,228426.0,279774.0,263304.0
2026-04-08 21:47:26.480850,214339,1609504018697483,1618663740,0.987712,0.07808,-0.056608,-11.36625,15.53125,6.90375,-22.800001,16.544,4.872,concentric,4,3.0,19044.0,140605.0,228426.0,279774.0,263304.0
2026-04-08 21:47:26.483387,214340,1609504018712030,1618678649,0.987712,0.07808,-0.056608,-10.54375,15.505,8.32125,-22.800001,16.544,4.872,concentric,4,3.0,19044.0,140605.0,228426.0,279774.0,263304.0
2026-04-08 21:47:26.485879,214341,1609504018720963,1618687322,0.923296,0.105408,0.017568,-9.80875,15.015,9.8875,-23.12,16.984001,3.8,concentric,4,3.0,19044.0,140605.0,228426.0,279774.0,263304.0
2026-04-08 21:47:26.490946,214342,1609504018729891,1618696031,0.923296,0.105408,0.017568,-9.8,14.8575,9.89625,-23.12,16.984001,3.8,concentric,4,3.0,19044.0,140605.0,228426.0,279774.0,263304.0
2026-04-08 21:47:26.521161,214343,1609504018744343,1618710946,0.929152,0.054656,-0.007808,-9.948751,14.7875,9.77375,-22.712002,16.992,3.192,concentric,4,3.0,19044.0,140605.0,228426.0,279774.0,263304.0
2026-04-08 21:47:26.524939,214344,1609504018753232,1618719600,0.929152,0.054656,-0.007808,-10.29,14.37625,11.47125,-22.712002,16.992,3.192,concentric,4,3.0,19044.0,140605.0,228426.0,279774.0,263304.0
2026-04-08 21:47:26.552161,214355,1609504018767843,1618734527,0.894016,0.08784,-0.011712,-11.305,13.4225,12.2675,-22.608002,17.272001,5.424,concentric,4,3.0,19025.0,140674.0,228554.0,279787.0,263271.0
2026-04-08 21:47:26.554682,214356,1609504018776900,1618743227,0.882304,0.103456,-0.031232,-12.04875,12.31125,11.698751,-22.296001,17.064001,4.816001,concentric,4,3.0,19025.0,140674.0,228554.0,279787.0,263271.0
2026-04-08 21:47:26.557151,214357,1609504018785965,1618751982,0.882304,0.103456,-0.031232,-9.33625,11.62875,11.042501,-22.296001,17.064001,4.816001,concentric,4,3.0,19025.0,140674.0,228554.0,279787.0,263271.0
2026-04-08 21:47:26.562226,214358,1609504018800492,1618766864,0.8784,0.0976,-0.001952,-4.0775,11.31375,11.45375,-22.448002,17.864,4.168,concentric,4,3.0,19025.0,140674.0,228554.0,279787.0,263271.0
2026-04-08 21:47:26.592858,214359,1609504018809399,1618775534,0.8784,0.0976,-0.001952,-1.98625,10.59625,11.6725,-22.448002,17.864,4.168,concentric,4,3.0,19025.0,140674.0,228554.0,279787.0,263271.0
2026-04-08 21:47:26.595920,214360,1609504018823846,1618790410,0.977952,0.037088,-0.037088,-2.1525,9.47625,10.167501,-22.456001,17.512001,3.256,concentric,4,3.0,19025.0,140674.0,228554.0,279787.0,263271.0
2026-04-08 21:47:26.598505,214361,1609504018832757,1618799069,0.977952,0.037088,-0.037088,-2.44125,8.995,8.39125,-22.456001,17.512001,3.256,concentric,4,3.0,19025.0,140674.0,228554.0,279787.0,263271.0
2026-04-08 21:47:26.628658,214362,1609504018847244,1618813953,0.970144,0.050752,0.052704,-1.8725,8.68,7.20125,-22.368002,17.904001,3.432,concentric,4,3.0,19025.0,140674.0,228554.0,279787.0,263271.0
2026-04-08 21:47:26.632186,214363,1609504018856182,1618822635,0.886208,0.085888,-0.02928,0.30625,8.7675,7.91875,-22.264002,17.720001,3.648,concentric,4,3.0,19025.0,140674.0,228554.0,279787.0,263271.0
2026-04-08 21:47:26.662136,214374,1609504018865569,1618831385,0.886208,0.085888,-0.02928,1.9775,8.05875,8.9425,-22.264002,17.720001,3.648,concentric,4,3.0,19010.0,140612.0,228609.0,279822.0,263291.0
2026-04-08 21:47:26.664653,214375,1609504018880138,1618846262,0.940864,0.037088,-0.15616,2.26625,6.90375,8.9075,-22.464,17.960001,5.264,concentric,4,3.0,19010.0,140612.0,228609.0,279822.0,263291.0
2026-04-08 21:47:26.670347,214376,1609504018889148,1618854965,0.940864,0.037088,-0.15616,3.57,5.74,6.195,-22.464,17.960001,5.264,concentric,4,3.0,19010.0,140612.0,228609.0,279822.0,263291.0
2026-04-08 21:47:26.673485,214377,1609504018903641,1618869879,0.977952,0.042944,0.052704,5.4775,4.66375,3.605,-21.936,17.92,5.448,concentric,4,3.0,19010.0,140612.0,228609.0,279822.0,263291.0
2026-04-08 21:47:26.673574,214378,1609504018912556,1618878591,0.977952,0.042944,0.052704,5.43375,4.24375,1.96,-21.936,17.92,5.448,concentric,4,3.0,19010.0,140612.0,228609.0,279822.0,263291.0
2026-04-08 21:47:26.703671,214379,1609504018927029,1618893455,0.913536,0.013664,-0.17568,6.92125,3.7625,1.295,-22.488,18.008001,4.688,concentric,4,3.0,19010.0,140612.0,228609.0,279822.0,263291.0
2026-04-08 21:47:26.707230,214380,1609504018936035,1618902211,0.853024,0.064416,-0.11712,7.44625,3.22,1.11125,-22.488,18.008001,3.208,concentric,4,3.0,19010.0,140612.0,228609.0,279822.0,263291.0
2026-04-08 21:47:26.709714,214381,1609504018944934,1618910870,0.853024,0.064416,-0.11712,5.7575,2.14375,-0.035,-22.312,18.2,3.208,concentric,4,3.0,19010.0,140612.0,228609.0,279822.0,263291.0
2026-04-08 21:47:26.739961,214382,1609504018959422,1618925802,0.977952,0.005856,-0.13664,7.48125,0.41125,-2.63375,-22.800001,17.944,4.752,concentric,4,3.0,19010.0,140612.0,228609.0,279822.0,263291.0
2026-04-08 21:47:26.768417,214393,1609504018968487,1618934710,0.977952,0.005856,-0.13664,9.765,-1.015,-5.4075,-22.800001,17.944,4.752,concentric,4,3.0,18879.0,140238.0,228249.0,279568.0,263123.0
2026-04-08 21:47:26.770896,214394,1609504018982975,1618949592,0.884256,0.035136,-0.160064,10.5175,-1.8725,-7.88375,-22.816002,17.744001,3.952,concentric,4,3.0,18879.0,140238.0,228249.0,279568.0,263123.0
2026-04-08 21:47:26.773421,214395,1609504018991938,1618958273,0.884256,0.035136,-0.160064,11.3925,-2.0825,-9.9575,-22.816002,17.744001,3.952,concentric,4,3.0,18879.0,140238.0,228249.0,279568.0,263123.0
2026-04-08 21:47:26.775965,214396,1609504019006470,1618973129,0.954528,0.001952,-0.101504,11.7425,-3.03625,-10.5175,-22.568,17.816,4.824,concentric,4,3.0,18879.0,140238.0,228249.0,279568.0,263123.0
2026-04-08 21:47:26.778490,214397,1609504019015435,1618981839,0.954528,0.001952,-0.101504,10.84125,-4.1125,-10.28125,-22.568,17.816,4.824,concentric,4,3.0,18879.0,140238.0,228249.0,279568.0,263123.0
2026-04-08 21:47:26.808656,214398,1609504019024393,1618990522,0.952576,0.017568,-0.189344,13.886251,-5.04,-12.04,-23.12,17.480001,3.944,concentric,4,3.0,18879.0,140238.0,228249.0,279568.0,263123.0
2026-04-08 21:47:26.812194,214399,1609504019038878,1619005417,0.872544,0.052704,-0.144448,19.9675,-5.62625,-15.11125,-23.000002,17.28,3.992,concentric,4,3.0,18879.0,140238.0,228249.0,279568.0,263123.0
2026-04-08 21:47:26.814635,214400,1609504019047821,1619014096,0.872544,0.052704,-0.144448,21.58625,-5.88,-16.9575,-23.000002,17.28,3.992,concentric,4,3.0,18879.0,140238.0,228249.0,279568.0,263123.0
2026-04-08 21:47:26.874617,214411,1609504019062310,1619028920,0.987712,0.042944,0.003904,19.95,-6.125,-17.22875,-22.976002,16.752,4.016,concentric,4,3.0,18665.0,139587.0,227579.0,279206.0,262954.0
2026-04-08 21:47:26.880865,214412,1609504019071320,1619037591,0.987712,0.042944,0.003904,20.39625,-6.9825,-17.325,-22.976002,16.752,4.016,concentric,4,3.0,18665.0,139587.0,227579.0,279206.0,262954.0
2026-04-08 21:47:26.883372,214413,1609504019080232,1619046247,0.940864,0.07808,-0.1952,20.18625,-7.56,-17.66625,-23.096,16.888,3.96,concentric,4,3.0,18665.0,139587.0,227579.0,279206.0,262954.0
2026-04-08 21:47:26.885870,214414,1609504019094704,1619061182,0.940864,0.07808,-0.1952,19.145,-6.65,-18.06,-23.096,16.888,3.96,concentric,4,3.0,18665.0,139587.0,227579.0,279206.0,262954.0
2026-04-08 21:47:26.888367,214415,1609504019103660,1619069911,0.942816,0.140544,-0.00976,17.955,-5.50375,-18.2875,-23.688002,16.632,5.888001,concentric,4,3.0,18665.0,139587.0,227579.0,279206.0,262954.0
2026-04-08 21:47:26.890876,214416,1609504019118230,1619084909,0.876448,0.122976,-0.056608,13.9825,-4.97,-16.87,-23.544,16.296001,3.456,concentric,4,3.0,18665.0,139587.0,227579.0,279206.0,262954.0
2026-04-08 21:47:26.893459,214417,1609504019127159,1619093619,0.876448,0.122976,-0.056608,7.07875,-4.61125,-15.12,-23.544,16.296001,3.456,concentric,4,3.0,18665.0,139587.0,227579.0,279206.0,262954.0
2026-04-08 21:47:26.923583,214418,1609504019141702,1619108496,1.036512,0.050752,0.054656,0.58625,-5.43375,-14.84,-23.944,16.512001,5.344,concentric,4,3.0,18665.0,139587.0,227579.0,279206.0,262954.0
2026-04-08 21:47:26.927182,214419,1609504019150593,1619117146,1.036512,0.050752,0.054656,-4.7775,-6.3,-16.12625,-23.944,16.512001,5.344,concentric,4,3.0,18665.0,139587.0,227579.0,279206.0,262954.0
2026-04-08 21:47:26.929710,214420,1609504019159493,1619125804,1.00528,0.062464,0.050752,-4.61125,-5.71375,-16.68625,-24.112001,16.144001,4.176,concentric,4,3.0,18665.0,139587.0,227579.0,279206.0,262954.0
2026-04-08 21:47:26.957118,214431,1609504019174047,1619140838,1.00528,0.062464,0.050752,2.3625,-4.5325,-16.16125,-24.112001,16.144001,4.176,concentric,4,3.0,18551.0,139289.0,227263.0,279021.0,262868.0
2026-04-08 21:47:26.959663,214432,1609504019183075,1619149538,0.940864,0.11712,0.042944,7.2275,-4.3225,-14.0175,-24.088001,16.056002,4.672,concentric,4,3.0,18551.0,139289.0,227263.0,279021.0,262868.0
2026-04-08 21:47:26.962151,214433,1609504019198030,1619164599,1.003328,0.081984,0.046848,8.33875,-5.39,-14.42875,-24.256,15.904,5.936,concentric,4,3.0,18551.0,139289.0,227263.0,279021.0,262868.0
2026-04-08 21:47:26.972949,214434,1609504019207111,1619173482,1.003328,0.081984,0.046848,8.6625,-6.72875,-16.63375,-24.256,15.904,5.936,concentric,4,3.0,18551.0,139289.0,227263.0,279021.0,262868.0
2026-04-08 21:47:26.998583,214435,1609504019216129,1619182237,1.003328,0.081984,0.046848,8.23375,-7.53375,-18.40125,-24.256,15.904,5.936,concentric,4,3.0,18551.0,139289.0,227263.0,279021.0,262868.0
2026-04-08 21:47:27.002160,214436,1609504019230638,1619197098,0.999424,0.054656,0.074176,11.0075,-7.49875,-18.2875,-24.504002,15.776001,2.28,concentric,4,3.0,18551.0,139289.0,227263.0,279021.0,262868.0
2026-04-08 21:47:27.004626,214437,1609504019239514,1619205747,0.913536,0.085888,-0.08784,16.26625,-7.00875,-16.73,-24.832,15.512001,4.016,concentric,4,3.0,18551.0,139289.0,227263.0,279021.0,262868.0
2026-04-08 21:47:27.034861,214438,1609504019253994,1619220643,0.913536,0.085888,-0.08784,20.895,-7.315,-16.695,-24.832,15.512001,4.016,concentric,4,3.0,18551.0,139289.0,227263.0,279021.0,262868.0
2026-04-08 21:47:27.067959,214449,1609504019262900,1619229836,0.925248,0.13664,-0.005856,23.93125,-7.42875,-17.28125,-25.064001,15.136001,4.416,concentric,4,3.0,18462.0,138866.0,226862.0,278882.0,262743.0
2026-04-08 21:47:27.070420,214450,1609504019277430,1619242644,0.925248,0.13664,-0.005856,25.71625,-7.13125,-16.79125,-25.064001,15.136001,4.416,concentric,4,3.0,18462.0,138866.0,226862.0,278882.0,262743.0
2026-04-08 21:47:27.072112,214451,1609504019286657,1619253388,0.905728,0.113216,-0.193248,26.13625,-7.2975,-15.2425,-25.064001,14.936001,4.944,concentric,4,3.0,18462.0,138866.0,226862.0,278882.0,262743.0
