pc_time,serial_num,sensor_ts,host_ts,ax,ay,az,gx,gy,gz,mx,my,mz,phase,rpe,weight_kg,ppg_a,ppg_b,ppg_c,ppg_d,ppg_e
2026-04-08 21:47:34.139795,215779,1609504026370706,1626336583,1.126304,0.072224,-0.206912,15.2425,-2.98375,-6.04625,-25.464,14.120001,5.8,eccentric,4,3.0,19001.0,139535.0,226718.0,278508.0,262343.0
2026-04-08 21:47:34.169824,215780,1609504026385196,1626351431,1.116544,0.105408,-0.18544,13.93875,-2.94875,-5.8975,-25.656002,14.192,5.584,eccentric,4,3.0,19001.0,139535.0,226718.0,278508.0,262343.0
2026-04-08 21:47:34.173327,215781,1609504026394096,1626360112,1.116544,0.105408,-0.18544,11.38375,-1.96,-5.3725,-25.656002,14.192,5.584,eccentric,4,3.0,19001.0,139535.0,226718.0,278508.0,262343.0
2026-04-08 21:47:34.234646,215792,1609504026408669,1626375087,1.0736,0.105408,-0.154208,10.19375,-0.84,-3.57875,-25.392002,14.168,5.688,eccentric,4,3.0,18999.0,139577.0,226719.0,278507.0,262314.0
2026-04-08 21:47:34.237155,215793,1609504026417596,1626383798,1.0736,0.105408,-0.154208,10.66625,-0.39375,-1.39125,-25.392002,14.168,5.688,eccentric,4,3.0,18999.0,139577.0,226719.0,278507.0,262314.0
2026-04-08 21:47:34.239618,215794,1609504026432175,1626398757,1.067744,0.113216,-0.021472,10.10625,-0.21,-0.48125,-25.368002,14.312,6.104,eccentric,4,3.0,18999.0,139577.0,226719.0,278507.0,262314.0
2026-04-08 21:47:34.242263,215795,1609504026441083,1626407414,1.067744,0.113216,-0.021472,8.855001,-0.2625,0.2275,-25.368002,14.312,6.104,eccentric,4,3.0,18999.0,139577.0,226719.0,278507.0,262314.0
2026-04-08 21:47:34.244623,215796,1609504026450008,1626416064,1.048224,0.101504,-0.08784,9.073751,-0.0175,0.385,-25.264002,13.832001,5.624,eccentric,4,3.0,18999.0,139577.0,226719.0,278507.0,262314.0
2026-04-08 21:47:34.247145,215797,1609504026464453,1626430999,1.048224,0.11712,0.033184,10.15,0.4725,1.84625,-25.264002,13.832001,5.624,eccentric,4,3.0,18999.0,139577.0,226719.0,278507.0,262314.0
2026-04-08 21:47:34.249606,215798,1609504026473395,1626439696,1.100928,0.113216,0.033184,10.4825,1.435,4.01625,-25.128,14.208001,6.656,eccentric,4,3.0,18999.0,139577.0,226719.0,278507.0,262314.0
2026-04-08 21:47:34.252102,215799,1609504026487899,1626454600,1.048224,0.103456,-0.101504,9.765,2.56375,5.88875,-25.256,13.952001,7.456,eccentric,4,3.0,18999.0,139577.0,226719.0,278507.0,262314.0
2026-04-08 21:47:34.282307,215800,1609504026496863,1626463284,1.048224,0.103456,-0.101504,10.3075,3.8675,7.49875,-25.256,13.952001,7.456,eccentric,4,3.0,18999.0,139577.0,226719.0,278507.0,262314.0
2026-04-08 21:47:34.310869,215811,1609504026511858,1626478573,1.067744,0.074176,-0.076128,10.19375,4.0775,8.417501,-24.608002,14.456,6.16,eccentric,4,3.0,19024.0,139713.0,226822.0,278460.0,262264.0
2026-04-08 21:47:34.315857,215812,1609504026520872,1626487219,1.067744,0.074176,-0.076128,9.37125,3.26375,8.58375,-24.608002,14.456,6.16,eccentric,4,3.0,19024.0,139713.0,226822.0,278460.0,262264.0
2026-04-08 21:47:34.322152,215813,1609504026529802,1626495900,1.120448,0.062464,0.005856,7.175,2.66,8.225,-24.648,14.016001,6.224001,eccentric,4,3.0,19024.0,139713.0,226822.0,278460.0,262264.0
2026-04-08 21:47:34.329612,215814,1609504026544432,1626510870,1.120448,0.062464,0.005856,4.94375,3.5,7.77,-24.648,14.016001,6.224001,eccentric,4,3.0,19024.0,139713.0,226822.0,278460.0,262264.0
2026-04-08 21:47:34.332096,215815,1609504026553346,1626519550,1.065792,0.091744,-0.023424,4.29625,4.24375,8.09375,-24.328001,14.240001,6.920001,eccentric,4,3.0,19024.0,139713.0,226822.0,278460.0,262264.0
2026-04-08 21:47:34.336220,215816,1609504026567886,1626534411,0.99552,0.095648,-0.208864,4.4625,4.655,9.24875,-24.296001,14.232,6.592001,eccentric,4,3.0,19024.0,139713.0,226822.0,278460.0,262264.0
2026-04-08 21:47:34.341288,215817,1609504026576843,1626543115,0.99552,0.095648,-0.208864,4.47125,5.18875,10.10625,-24.296001,14.232,6.592001,eccentric,4,3.0,19024.0,139713.0,226822.0,278460.0,262264.0
2026-04-08 21:47:34.369801,215818,1609504026585773,1626551787,1.075552,0.054656,-0.076128,3.29,5.3025,10.6925,-24.296001,14.608001,10.144,eccentric,4,3.0,19024.0,139713.0,226822.0,278460.0,262264.0
2026-04-08 21:47:34.374421,215819,1609504026600289,1626566700,1.075552,0.054656,-0.076128,0.0875,5.74875,11.06,-24.216002,14.608001,10.144,eccentric,4,3.0,19024.0,139713.0,226822.0,278460.0,262264.0
2026-04-08 21:47:34.402641,215830,1609504026609381,1626575412,1.042368,0.05856,-0.023424,-3.08,5.67875,11.96125,-23.792002,14.696001,7.08,eccentric,4,3.0,19074.0,139769.0,226790.0,278385.0,262212.0
2026-04-08 21:47:34.404356,215831,1609504026623908,1626590282,1.042368,0.05856,-0.023424,-4.9875,5.59125,11.55875,-23.792002,14.696001,7.08,eccentric,4,3.0,19074.0,139769.0,226790.0,278385.0,262212.0
2026-04-08 21:47:34.405970,215832,1609504026632898,1626598996,1.03456,0.046848,-0.007808,-5.11875,6.16,11.61125,-23.568,15.112,7.992001,eccentric,4,3.0,19074.0,139769.0,226790.0,278385.0,262212.0
2026-04-08 21:47:34.410005,215833,1609504026647538,1626613950,0.98576,0.031232,-0.1952,-3.675,7.6125,11.57625,-23.208,14.912001,8.360001,eccentric,4,3.0,19074.0,139769.0,226790.0,278385.0,262212.0
2026-04-08 21:47:34.438503,215834,1609504026656534,1626622626,0.98576,0.031232,-0.1952,-2.65125,7.6125,11.9875,-23.208,14.912001,8.360001,eccentric,4,3.0,19074.0,139769.0,226790.0,278385.0,262212.0
2026-04-08 21:47:34.443093,215835,1609504026665381,1626631311,0.98576,0.031232,-0.1952,-1.8725,6.67625,11.8475,-23.208,14.912001,8.360001,eccentric,4,3.0,19074.0,139769.0,226790.0,278385.0,262212.0
2026-04-08 21:47:34.445470,215836,1609504026679857,1626646152,1.013088,0.02928,-0.128832,-2.02125,5.36375,11.31375,-23.344002,14.848001,5.936,eccentric,4,3.0,19074.0,139769.0,226790.0,278385.0,262212.0
2026-04-08 21:47:34.451258,215837,1609504026688802,1626654845,1.030656,0.035136,-0.06832,-3.5875,3.77125,10.5175,-22.344002,15.104001,7.16,eccentric,4,3.0,19074.0,139769.0,226790.0,278385.0,262212.0
2026-04-08 21:47:34.540847,215848,1609504026703291,1626669699,1.030656,0.035136,-0.06832,-6.265,3.2375,10.78,-22.344002,15.104001,7.16,eccentric,4,3.0,19228.0,140261.0,227257.0,278694.0,262366.0
2026-04-08 21:47:34.543423,215849,1609504026712601,1626678360,1.011136,0.054656,0.017568,-8.0675,3.52625,11.2525,-22.872002,15.336,7.064,eccentric,4,3.0,19228.0,140261.0,227257.0,278694.0,262366.0
2026-04-08 21:47:34.545880,215850,1609504026727089,1626693255,0.960384,0.042944,-0.206912,-8.05,4.15625,12.4425,-22.728,15.544001,8.928,eccentric,4,3.0,19228.0,140261.0,227257.0,278694.0,262366.0
2026-04-08 21:47:34.548335,215851,1609504026735988,1626701912,0.960384,0.042944,-0.206912,-8.60125,3.675,13.65,-22.728,15.544001,8.928,eccentric,4,3.0,19228.0,140261.0,227257.0,278694.0,262366.0
2026-04-08 21:47:34.550898,215852,1609504026744875,1626710554,0.960384,0.042944,-0.206912,-9.9575,3.64,13.53625,-22.728,15.544001,8.928,eccentric,4,3.0,19228.0,140261.0,227257.0,278694.0,262366.0
2026-04-08 21:47:34.553345,215853,1609504026759388,1626725382,0.983808,0.013664,-0.121024,-13.02,2.75625,12.64375,-22.024,15.936001,7.848001,eccentric,4,3.0,19228.0,140261.0,227257.0,278694.0,262366.0
2026-04-08 21:47:34.555889,215854,1609504026768301,1626734149,1.016992,-0.007808,-0.13664,-15.8025,2.66875,12.46875,-21.84,16.04,8.480001,eccentric,4,3.0,19228.0,140261.0,227257.0,278694.0,262366.0
2026-04-08 21:47:34.558399,215855,1609504026782886,1626749083,1.016992,-0.007808,-0.13664,-15.05875,3.4825,13.335,-21.84,16.04,8.480001,eccentric,4,3.0,19228.0,140261.0,227257.0,278694.0,262366.0
2026-04-08 21:47:34.560981,215856,1609504026791952,1626757834,0.915488,0.06832,-0.085888,-11.61125,3.255,14.77875,-21.384,15.872001,8.528001,eccentric,4,3.0,19228.0,140261.0,227257.0,278694.0,262366.0
2026-04-08 21:47:34.563588,215857,1609504026800939,1626766510,0.915488,0.06832,-0.085888,-6.60625,3.2025,15.627501,-21.384,15.872001,8.528001,eccentric,4,3.0,19228.0,140261.0,227257.0,278694.0,262366.0
2026-04-08 21:47:34.590949,215868,1609504026815889,1626781455,0.94672,0.031232,0.013664,-3.94625,2.555,14.88375,-21.36,15.912001,8.616,eccentric,4,3.0,19257.0,140433.0,227479.0,278893.0,262524.0
2026-04-08 21:47:34.597156,215869,1609504026825216,1626792266,0.94672,0.031232,0.013664,-9.02125,1.9775,14.06125,-21.36,15.912001,8.616,eccentric,4,3.0,19257.0,140433.0,227479.0,278893.0,262524.0
2026-04-08 21:47:34.599654,215870,1609504026839701,1626805107,0.93696,0.033184,0.005856,-15.575,1.7325,12.6875,-21.12,16.112001,7.536,eccentric,4,3.0,19257.0,140433.0,227479.0,278893.0,262524.0
2026-04-08 21:47:34.632457,215871,1609504026848910,1626815869,0.981856,-0.013664,-0.103456,-15.575,1.54,12.04,-20.800001,16.320002,7.776001,eccentric,4,3.0,19257.0,140433.0,227479.0,278893.0,262524.0
2026-04-08 21:47:34.635931,215872,1609504026857840,1626824527,0.981856,-0.013664,-0.103456,-13.265,1.96875,13.02875,-20.800001,16.320002,7.776001,eccentric,4,3.0,19257.0,140433.0,227479.0,278893.0,262524.0
2026-04-08 21:47:34.638405,215873,1609504026872311,1626839405,0.899872,0.056608,-0.037088,-12.3025,2.24,14.25375,-20.464,16.144001,7.344,eccentric,4,3.0,19257.0,140433.0,227479.0,278893.0,262524.0
2026-04-08 21:47:34.643383,215874,1609504026881236,1626848103,0.899872,0.056608,-0.037088,-9.10875,1.8025,14.58625,-20.464,16.144001,7.344,eccentric,4,3.0,19257.0,140433.0,227479.0,278893.0,262524.0
2026-04-08 21:47:34.674848,215875,1609504026895707,1626860945,0.950624,0.015616,-0.015616,-6.335,1.37375,14.44625,-20.160002,16.52,7.72,eccentric,4,3.0,19257.0,140433.0,227479.0,278893.0,262524.0
2026-04-08 21:47:34.706460,215886,1609504026905268,1626871720,0.950624,0.015616,-0.015616,-8.82875,1.33875,14.44625,-20.160002,16.52,7.72,eccentric,4,3.0,19318.0,140696.0,227745.0,279101.0,262643.0
2026-04-08 21:47:34.708194,215887,1609504026914220,1626880479,0.901824,0.02928,0.031232,-12.83625,1.225,14.16625,-19.800001,16.528,7.664001,eccentric,4,3.0,19318.0,140696.0,227745.0,279101.0,262643.0
2026-04-08 21:47:34.709830,215888,1609504026928759,1626895394,0.895968,-0.035136,-0.122976,-14.7,1.04125,13.15125,-19.824001,16.856,9.736,eccentric,4,3.0,19318.0,140696.0,227745.0,279101.0,262643.0
2026-04-08 21:47:34.713974,215889,1609504026937692,1626904134,0.895968,-0.035136,-0.122976,-17.29875,0.93625,12.04875,-19.824001,16.856,9.736,eccentric,4,3.0,19318.0,140696.0,227745.0,279101.0,262643.0
2026-04-08 21:47:34.716411,215890,1609504026952193,1626919005,0.837408,-0.023424,-0.183488,-19.9325,0.8575,10.92875,-19.568,16.872002,8.376,eccentric,4,3.0,19318.0,140696.0,227745.0,279101.0,262643.0
2026-04-08 21:47:34.745041,215891,1609504026961151,1626927680,0.837408,-0.023424,-0.183488,-19.7225,0.98875,10.73625,-19.568,16.872002,8.376,eccentric,4,3.0,19318.0,140696.0,227745.0,279101.0,262643.0
2026-04-08 21:47:34.749988,215892,1609504026975616,1626942523,0.899872,-0.017568,0.070272,-17.7625,1.11125,10.92,-19.080002,16.76,6.488,eccentric,4,3.0,19318.0,140696.0,227745.0,279101.0,262643.0
2026-04-08 21:47:34.753398,215893,1609504026984530,1626951197,0.899872,-0.017568,0.070272,-17.045,1.84625,12.04875,-19.080002,16.76,6.488,eccentric,4,3.0,19318.0,140696.0,227745.0,279101.0,262643.0
2026-04-08 21:47:34.755603,215894,1609504026993462,1626959856,0.823744,-0.027328,-0.093696,-16.1,2.42375,13.3875,-19.056002,17.264,7.568,eccentric,4,3.0,19318.0,140696.0,227745.0,279101.0,262643.0
2026-04-08 21:47:34.843201,215905,1609504027008500,1626975090,0.804224,0.007808,-0.1464,-14.98875,1.60125,14.95375,-19.056002,17.264,8.232,eccentric,4,3.0,19366.0,140878.0,227926.0,279209.0,262695.0
2026-04-08 21:47:34.844774,215906,1609504027017490,1626983768,0.804224,0.007808,-0.1464,-12.88,0.385,14.86625,-18.552,17.624,8.232,eccentric,4,3.0,19366.0,140878.0,227926.0,279209.0,262695.0
2026-04-08 21:47:34.848951,215907,1609504027031978,1626998610,0.813984,-0.017568,-0.10736,-10.4825,-0.42875,13.4575,-18.6,17.104,7.384,eccentric,4,3.0,19366.0,140878.0,227926.0,279209.0,262695.0
2026-04-08 21:47:34.850706,215908,1609504027040919,1627007291,0.813984,-0.017568,-0.10736,-11.69,0.175,12.3025,-18.6,17.104,7.384,eccentric,4,3.0,19366.0,140878.0,227926.0,279209.0,262695.0
2026-04-08 21:47:34.852184,215909,1609504027055422,1627022168,0.753472,-0.025376,0.013664,-16.63375,1.1725,12.6,-18.016,17.416,7.592001,eccentric,4,3.0,19366.0,140878.0,227926.0,279209.0,262695.0
2026-04-08 21:47:34.856471,215910,1609504027064342,1627030831,0.753472,-0.025376,0.013664,-21.07,1.54,14.0,-18.016,17.416,7.592001,eccentric,4,3.0,19366.0,140878.0,227926.0,279209.0,262695.0
2026-04-08 21:47:34.858146,215911,1609504027073316,1627039590,0.821792,-0.105408,-0.035136,-23.7125,2.0825,14.83125,-17.584002,17.536001,7.504,eccentric,4,3.0,19366.0,140878.0,227926.0,279209.0,262695.0
2026-04-08 21:47:34.859687,215912,1609504027087916,1627054546,0.821792,-0.105408,-0.035136,-23.37125,3.36875,15.35625,-17.584002,17.536001,7.504,eccentric,4,3.0,19366.0,140878.0,227926.0,279209.0,262695.0
2026-04-08 21:47:34.863826,215913,1609504027096867,1627063221,0.7808,-0.033184,0.066368,-20.44,3.45625,14.805,-17.648,17.752,7.664001,eccentric,4,3.0,19366.0,140878.0,227926.0,279209.0,262695.0
2026-04-08 21:47:34.902673,215924,1609504027111531,1627078195,0.862784,-0.037088,0.081984,-16.7475,2.9225,14.2275,-17.04,18.240002,7.384,eccentric,4,3.0,19509.0,141184.0,228152.0,279184.0,262609.0
2026-04-08 21:47:34.904964,215925,1609504027120538,1627086911,0.862784,-0.037088,0.081984,-11.865,2.98375,12.18,-17.04,18.240002,7.384,eccentric,4,3.0,19509.0,141184.0,228152.0,279184.0,262609.0
2026-04-08 21:47:34.905948,215926,1609504027129466,1627095583,0.806176,-0.064416,-0.113216,-8.49625,3.96375,9.7825,-17.792002,18.168001,9.616,eccentric,4,3.0,19509.0,141184.0,228152.0,279184.0,262609.0
2026-04-08 21:47:34.910926,215927,1609504027144024,1627110548,0.806176,-0.064416,-0.113216,-12.48625,4.585,7.79625,-17.792002,18.168001,9.616,eccentric,4,3.0,19509.0,141184.0,228152.0,279184.0,262609.0
2026-04-08 21:47:34.916295,215928,1609504027152974,1627119210,0.804224,-0.066368,0.148352,-19.53,5.38125,6.79875,-17.240002,18.408,7.936,eccentric,4,3.0,19509.0,141184.0,228152.0,279184.0,262609.0
2026-04-08 21:47:34.945101,215929,1609504027167467,1627134063,0.804224,-0.066368,0.148352,-23.79125,6.18625,7.62125,-17.240002,18.408,7.936,eccentric,4,3.0,19509.0,141184.0,228152.0,279184.0,262609.0
2026-04-08 21:47:34.949258,215930,1609504027176415,1627142735,0.774944,-0.11712,0.052704,-24.57875,6.93,7.5425,-16.872002,18.256,7.224001,eccentric,4,3.0,19509.0,141184.0,228152.0,279184.0,262609.0
2026-04-08 21:47:34.955035,215931,1609504027190874,1627157603,0.821792,-0.085888,0.040992,-24.31625,6.46625,6.04625,-16.640001,18.320002,7.6,eccentric,4,3.0,19509.0,141184.0,228152.0,279184.0,262609.0
2026-04-08 21:47:34.984027,215932,1609504027199825,1627166271,0.821792,-0.085888,0.040992,-23.765,5.6175,2.05625,-16.640001,18.320002,7.6,eccentric,4,3.0,19509.0,141184.0,228152.0,279184.0,262609.0
2026-04-08 21:47:35.013162,215943,1609504027208881,1627174998,0.821792,-0.085888,0.040992,-21.1225,5.4425,-2.51125,-16.640001,18.320002,7.6,eccentric,4,3.0,19589.0,141065.0,227585.0,278611.0,262169.0
2026-04-08 21:47:35.014639,215944,1609504027223414,1627189884,0.83936,-0.076128,0.007808,-20.055,6.65,-4.27,-16.448,18.376001,5.4,eccentric,4,3.0,19589.0,141065.0,227585.0,278611.0,262169.0
2026-04-08 21:47:35.018908,215945,1609504027232460,1627198590,0.755424,-0.066368,0.001952,-19.6,7.7875,-2.07375,-16.392,18.336,8.128,eccentric,4,3.0,19589.0,141065.0,227585.0,278611.0,262169.0
2026-04-08 21:47:35.020607,215946,1609504027246972,1627213529,0.755424,-0.066368,0.001952,-17.395,7.98,1.295,-16.392,18.336,8.128,eccentric,4,3.0,19589.0,141065.0,227585.0,278611.0,262169.0
2026-04-08 21:47:35.022972,215947,1609504027255913,1627222213,0.720288,-0.060512,0.0488,-14.0875,7.0,2.2575,-15.976001,18.576,7.56,eccentric,4,3.0,19589.0,141065.0,227585.0,278611.0,262169.0
2026-04-08 21:47:35.053257,215948,1609504027270441,1627237116,0.79056,-0.072224,-0.07808,-10.8325,6.13375,0.23625,-16.032001,18.896002,6.208,eccentric,4,3.0,19589.0,141065.0,227585.0,278611.0,262169.0
2026-04-08 21:47:35.057786,215949,1609504027279349,1627245788,0.79056,-0.072224,-0.07808,-10.92,5.25,-2.91375,-16.032001,18.896002,6.208,eccentric,4,3.0,19589.0,141065.0,227585.0,278611.0,262169.0
2026-04-08 21:47:35.060150,215950,1609504027288278,1627254443,0.79056,-0.072224,-0.07808,-11.90875,5.55625,-4.66375,-16.032001,18.896002,6.208,eccentric,4,3.0,19589.0,141065.0,227585.0,278611.0,262169.0
2026-04-08 21:47:35.117100,215951,1609504027302847,1627269321,0.853024,-0.083936,0.011712,-14.323751,5.99375,-2.79125,-16.176,18.560001,7.064,eccentric,4,3.0,19589.0,141065.0,227585.0,278611.0,262169.0
2026-04-08 21:47:35.146540,215962,1609504027312052,1627278057,0.833504,-0.033184,0.115168,-17.22,6.9475,-0.37625,-16.008001,18.752,8.456,eccentric,4,3.0,19806.0,141407.0,227581.0,278442.0,262001.0
2026-04-08 21:47:35.148224,215963,1609504027326541,1627292927,0.833504,-0.033184,0.115168,-16.05625,7.49875,1.295,-16.008001,18.752,8.456,eccentric,4,3.0,19806.0,141407.0,227581.0,278442.0,262001.0
2026-04-08 21:47:35.150550,215964,1609504027335472,1627301595,0.700768,-0.103456,-0.046848,-9.9575,7.9975,-0.35,-16.032001,18.296001,6.696,eccentric,4,3.0,19806.0,141407.0,227581.0,278442.0,262001.0
2026-04-08 21:47:35.157657,215965,1609504027344340,1627310258,0.700768,-0.103456,-0.046848,-8.9075,8.5925,-0.25375,-16.032001,18.296001,6.696,eccentric,4,3.0,19806.0,141407.0,227581.0,278442.0,262001.0
2026-04-08 21:47:35.160613,215966,1609504027358827,1627325118,0.759328,-0.062464,-0.001952,-13.265,6.90375,-0.7875,-15.832001,18.584002,6.856,eccentric,4,3.0,19806.0,141407.0,227581.0,278442.0,262001.0
2026-04-08 21:47:35.166455,215967,1609504027367917,1627333815,0.759328,-0.062464,-0.001952,-14.4375,5.46,-3.0625,-15.832001,18.584002,6.856,eccentric,4,3.0,19806.0,141407.0,227581.0,278442.0,262001.0
2026-04-08 21:47:35.168143,215968,1609504027382441,1627348733,0.817888,-0.101504,-0.130784,-11.64625,4.585,-5.11875,-15.824,18.76,7.904,eccentric,4,3.0,19806.0,141407.0,227581.0,278442.0,262001.0
2026-04-08 21:47:35.169751,215969,1609504027391393,1627357513,0.817888,-0.101504,-0.007808,-9.7825,4.82125,-4.90875,-16.128,18.808,9.080001,eccentric,4,3.0,19806.0,141407.0,227581.0,278442.0,262001.0
2026-04-08 21:47:35.198156,215980,1609504027405926,1627372864,0.817888,-0.101504,-0.007808,-8.96875,5.41625,-4.6025,-16.128,18.808,9.080001,eccentric,4,3.0,19922.0,141413.0,227217.0,278057.0,261710.0
2026-04-08 21:47:35.199709,215981,1609504027414929,1627381547,0.833504,-0.121024,-0.074176,-7.16625,5.8625,-5.4775,-15.768001,18.736,6.776001,eccentric,4,3.0,19922.0,141413.0,227217.0,278057.0,261710.0
2026-04-08 21:47:35.203962,215982,1609504027423886,1627390280,0.833504,-0.121024,-0.074176,-7.98,5.5475,-7.28,-15.768001,18.736,6.776001,eccentric,4,3.0,19922.0,141413.0,227217.0,278057.0,261710.0
2026-04-08 21:47:35.205563,215983,1609504027438408,1627405150,0.874496,-0.105408,0.0488,-9.5025,5.425,-7.58625,-16.36,18.76,7.392,eccentric,4,3.0,19922.0,141413.0,227217.0,278057.0,261710.0
2026-04-08 21:47:35.210078,215984,1609504027447331,1627413915,0.874496,-0.105408,0.0488,-6.88625,6.06375,-7.14,-16.36,18.76,7.392,eccentric,4,3.0,19922.0,141413.0,227217.0,278057.0,261710.0
2026-04-08 21:47:35.238644,215985,1609504027462753,1627429112,0.860832,-0.07808,0.083936,-3.4475,4.06875,-7.4025,-15.6,18.36,6.816001,eccentric,4,3.0,19922.0,141413.0,227217.0,278057.0,261710.0
2026-04-08 21:47:35.243124,215986,1609504027471687,1627437780,0.880352,-0.0976,-0.066368,-0.58625,3.6575,-7.93625,-15.960001,18.320002,4.448,eccentric,4,3.0,19922.0,141413.0,227217.0,278057.0,261710.0
2026-04-08 21:47:35.244651,215987,1609504027480581,1627446514,0.880352,-0.0976,-0.066368,1.58375,2.91375,-7.34125,-15.960001,18.320002,4.448,eccentric,4,3.0,19922.0,141413.0,227217.0,278057.0,261710.0
2026-04-08 21:47:35.275778,215988,1609504027495076,1627461419,0.817888,-0.050752,-0.109312,1.505,2.065,-6.13375,-15.872001,18.344002,7.152,eccentric,4,3.0,19922.0,141413.0,227217.0,278057.0,261710.0
2026-04-08 21:47:35.280352,215989,1609504027504011,1627470136,0.817888,-0.050752,-0.109312,-1.05,1.61,-4.83,-15.872001,18.344002,7.152,eccentric,4,3.0,19922.0,141413.0,227217.0,278057.0,261710.0
2026-04-08 21:47:35.341387,216000,1609504027518542,1627485038,0.890112,-0.089792,-0.005856,-4.2175,0.81375,-4.69,-16.064001,18.248001,6.04,eccentric,4,3.0,20125.0,141946.0,227666.0,278342.0,261865.0
2026-04-08 21:47:35.347732,216001,1609504027527498,1627493752,0.890112,-0.089792,-0.005856,-6.20375,0.62125,-5.425,-16.064001,18.248001,6.04,eccentric,4,3.0,20125.0,141946.0,227666.0,278342.0,261865.0
2026-04-08 21:47:35.349387,216002,1609504027541990,1627508702,0.835456,-0.072224,0.02928,-6.83375,0.98,-5.25,-16.352001,18.744001,7.936,eccentric,4,3.0,20125.0,141946.0,227666.0,278342.0,261865.0
2026-04-08 21:47:35.351070,216003,1609504027550939,1627517375,0.835456,-0.072224,0.02928,-7.245,1.44375,-4.33125,-16.352001,18.744001,7.936,eccentric,4,3.0,20125.0,141946.0,227666.0,278342.0,261865.0
2026-04-08 21:47:35.355210,216004,1609504027559858,1627526047,0.872544,-0.080032,-0.072224,-6.25625,1.19875,-4.2175,-16.304,18.736,8.544001,eccentric,4,3.0,20125.0,141946.0,227666.0,278342.0,261865.0
2026-04-08 21:47:35.356930,216005,1609504027574321,1627540913,0.942816,-0.07808,0.105408,-4.76,0.77,-5.66125,-16.04,18.648,6.984,eccentric,4,3.0,20125.0,141946.0,227666.0,278342.0,261865.0
2026-04-08 21:47:35.358570,216006,1609504027583297,1627549705,0.942816,-0.07808,0.105408,-3.10625,0.37625,-6.36125,-16.04,18.648,6.984,eccentric,4,3.0,20125.0,141946.0,227666.0,278342.0,261865.0
2026-04-08 21:47:35.362587,216007,1609504027597821,1627564613,0.884256,-0.060512,-0.046848,-2.77375,0.62125,-6.685,-16.320002,18.672,7.472,eccentric,4,3.0,20125.0,141946.0,227666.0,278342.0,261865.0
2026-04-08 21:47:35.417037,216008,1609504027606780,1627573290,0.884256,-0.060512,-0.046848,-3.52625,0.74375,-6.615,-16.320002,18.672,7.472,concentric,4,3.0,20125.0,141946.0,227666.0,278342.0,261865.0
2026-04-08 21:47:35.455676,216019,1609504027621314,1627588221,0.991616,-0.070272,0.001952,-5.075,0.44625,-7.41125,-16.400002,18.008001,7.024,concentric,4,3.0,20244.0,142161.0,227703.0,278344.0,261819.0
2026-04-08 21:47:35.458083,216020,1609504027630245,1627596907,0.991616,-0.070272,0.001952,-5.22375,-0.18375,-7.14,-16.400002,18.008001,7.024,concentric,4,3.0,20244.0,142161.0,227703.0,278344.0,261819.0
2026-04-08 21:47:35.459669,216021,1609504027639145,1627605561,0.925248,-0.089792,-0.134688,-3.35125,-0.525,-6.16,-16.528,18.376001,6.960001,concentric,4,3.0,20244.0,142161.0,227703.0,278344.0,261819.0
2026-04-08 21:47:35.463938,216022,1609504027653635,1627620430,0.86864,-0.076128,-0.122976,-2.2225,-0.665,-5.005,-16.624,18.416,6.656,concentric,4,3.0,20244.0,142161.0,227703.0,278344.0,261819.0
2026-04-08 21:47:35.466389,216023,1609504027662578,1627629087,0.86864,-0.076128,-0.122976,-0.25375,-0.8925,-4.83875,-16.624,18.416,6.656,concentric,4,3.0,20244.0,142161.0,227703.0,278344.0,261819.0
2026-04-08 21:47:35.472663,216024,1609504027677080,1627643949,0.950624,-0.05856,0.08784,2.80875,-1.54,-4.82125,-16.640001,18.656,9.144,concentric,4,3.0,20244.0,142161.0,227703.0,278344.0,261819.0
2026-04-08 21:47:35.474364,216025,1609504027686179,1627652737,0.950624,-0.05856,0.08784,3.82375,-2.205,-4.7425,-16.640001,18.656,9.144,concentric,4,3.0,20244.0,142161.0,227703.0,278344.0,261819.0
2026-04-08 21:47:35.475966,216026,1609504027700661,1627667667,0.856928,-0.054656,-0.16592,3.78,-2.91375,-4.2875,-16.712,18.648,9.104,concentric,4,3.0,20244.0,142161.0,227703.0,278344.0,261819.0
2026-04-08 21:47:35.517694,216037,1609504027709780,1627676768,0.856928,-0.054656,-0.16592,4.45375,-3.66625,-4.5675,-16.712,18.648,9.104,concentric,4,3.0,20223.0,142050.0,227470.0,278300.0,261827.0
2026-04-08 21:47:35.519433,216038,1609504027718845,1627685458,0.921344,-0.06832,0.060512,4.4625,-4.0775,-3.9025,-16.592001,18.096,7.008,concentric,4,3.0,20223.0,142050.0,227470.0,278300.0,261827.0
2026-04-08 21:47:35.520950,216039,1609504027733357,1627700329,0.862784,-0.035136,0.054656,4.08625,-4.33125,-3.5,-16.592001,18.400002,9.944,concentric,4,3.0,20223.0,142050.0,227470.0,278300.0,261827.0
2026-04-08 21:47:35.525144,216040,1609504027742299,1627709114,0.862784,-0.035136,0.054656,3.3775,-4.99625,-4.165,-16.632,18.400002,9.944,concentric,4,3.0,20223.0,142050.0,227470.0,278300.0,261827.0
2026-04-08 21:47:35.526899,216041,1609504027756911,1627724027,0.847168,-0.046848,-0.160064,1.5925,-5.81,-4.82125,-16.392,18.152,7.792,concentric,4,3.0,20223.0,142050.0,227470.0,278300.0,261827.0
2026-04-08 21:47:35.528449,216042,1609504027765867,1627732718,0.847168,-0.046848,-0.160064,0.245,-6.23875,-5.18,-16.392,18.152,7.792,concentric,4,3.0,20223.0,142050.0,227470.0,278300.0,261827.0
2026-04-08 21:47:35.559541,216043,1609504027774830,1627741391,0.81984,-0.031232,-0.089792,-0.13125,-6.335,-5.075,-16.224,18.2,8.68,concentric,4,3.0,20223.0,142050.0,227470.0,278300.0,261827.0
2026-04-08 21:47:35.563956,216044,1609504027789314,1627756297,0.81984,-0.031232,-0.089792,-0.735,-6.44875,-4.9525,-16.224,18.2,8.68,concentric,4,3.0,20223.0,142050.0,227470.0,278300.0,261827.0
2026-04-08 21:47:35.565497,216045,1609504027798218,1627764953,0.923296,-0.070272,0.072224,-1.39125,-6.48375,-4.61125,-16.872002,18.384,9.992001,concentric,4,3.0,20223.0,142050.0,227470.0,278300.0,261827.0
2026-04-08 21:47:35.594682,216056,1609504027813411,1627779925,0.923296,-0.054656,0.089792,-0.81375,-6.5275,-5.18,-16.872002,18.384,9.992001,concentric,4,3.0,20184.0,141970.0,227485.0,278363.0,261939.0
2026-04-08 21:47:35.598926,216057,1609504027822364,1627788652,0.940864,-0.054656,0.089792,-1.54,-6.965,-6.5625,-16.6,18.072,6.936,concentric,4,3.0,20184.0,141970.0,227485.0,278363.0,261939.0
2026-04-08 21:47:35.600522,216058,1609504027831348,1627797328,0.940864,-0.054656,0.089792,-2.8525,-7.30625,-7.00875,-16.6,18.072,6.936,concentric,4,3.0,20184.0,141970.0,227485.0,278363.0,261939.0
2026-04-08 21:47:35.631921,216059,1609504027845871,1627812243,0.872544,-0.027328,0.070272,-1.1375,-7.175,-5.705,-16.968,18.536001,7.968,concentric,4,3.0,20184.0,141970.0,227485.0,278363.0,261939.0
2026-04-08 21:47:35.633559,216060,1609504027854798,1627820923,0.911584,-0.023424,0.095648,2.51125,-6.4225,-3.5,-17.416,18.264,9.744,concentric,4,3.0,20184.0,141970.0,227485.0,278363.0,261939.0
2026-04-08 21:47:35.637683,216061,1609504027869242,1627835817,0.911584,-0.023424,0.095648,4.3925,-7.56875,-2.205,-17.416,18.264,9.744,concentric,4,3.0,20184.0,141970.0,227485.0,278363.0,261939.0
2026-04-08 21:47:35.641768,216062,1609504027878144,1627844446,0.86864,-0.040992,-0.111264,3.85,-8.89,-2.91375,-17.008001,18.624,9.416,concentric,4,3.0,20184.0,141970.0,227485.0,278363.0,261939.0
2026-04-08 21:47:35.673301,216063,1609504027892712,1627859309,0.86864,-0.040992,-0.111264,2.31875,-9.59875,-4.095,-17.008001,18.624,9.416,concentric,4,3.0,20184.0,141970.0,227485.0,278363.0,261939.0
2026-04-08 21:47:35.677850,216064,1609504027901633,1627868019,0.86864,-0.064416,-0.103456,0.9625,-10.03625,-3.85875,-16.888,18.36,10.76,concentric,4,3.0,20184.0,141970.0,227485.0,278363.0,261939.0
2026-04-08 21:47:35.739827,216075,1609504027910670,1627876708,0.86864,-0.064416,-0.103456,-0.21,-9.765,-3.36,-16.888,18.36,10.76,concentric,4,3.0,20072.0,141736.0,227469.0,278525.0,262130.0
2026-04-08 21:47:35.744118,216076,1609504027925382,1627891667,0.84912,-0.091744,-0.099552,-1.0675,-10.255,-3.815,-17.536001,18.432001,10.024,concentric,4,3.0,20072.0,141736.0,227469.0,278525.0,262130.0
2026-04-08 21:47:35.746088,216077,1609504027934379,1627900397,0.755424,-0.0488,-0.0976,-2.96625,-9.730001,-4.94375,-17.536001,18.432001,7.344,concentric,4,3.0,20072.0,141736.0,227469.0,278525.0,262130.0
2026-04-08 21:47:35.746185,216078,1609504027948870,1627915291,0.759328,-0.0488,-0.0976,-3.815,-9.65125,-5.005,-17.416,18.144001,7.344,concentric,4,3.0,20072.0,141736.0,227469.0,278525.0,262130.0
2026-04-08 21:47:35.751424,216079,1609504027957792,1627923936,0.874496,-0.042944,0.052704,-1.6625,-9.33625,-5.36375,-17.488,18.032001,6.624001,concentric,4,3.0,20072.0,141736.0,227469.0,278525.0,262130.0
2026-04-08 21:47:35.753113,216080,1609504027972343,1627938952,0.874496,-0.042944,0.052704,2.61625,-9.0475,-6.125,-17.488,18.032001,6.624001,concentric,4,3.0,20072.0,141736.0,227469.0,278525.0,262130.0
2026-04-08 21:47:35.754677,216081,1609504027981343,1627947659,0.759328,0.011712,0.017568,5.85375,-8.7675,-5.66125,-17.328001,18.104,8.928,concentric,4,3.0,20072.0,141736.0,227469.0,278525.0,262130.0
2026-04-08 21:47:35.758776,216082,1609504027990353,1627956407,0.759328,0.011712,0.017568,5.80125,-8.9425,-5.53875,-17.328001,18.104,8.928,concentric,4,3.0,20072.0,141736.0,227469.0,278525.0,262130.0
2026-04-08 21:47:35.788613,216083,1609504028005020,1627971393,0.769088,-0.013664,-0.085888,3.2725,-9.03,-5.775,-17.192001,18.12,7.704001,concentric,4,3.0,20072.0,141736.0,227469.0,278525.0,262130.0
2026-04-08 21:47:35.817771,216094,1609504028014395,1627980452,0.769088,-0.013664,-0.085888,0.385,-9.58125,-7.28,-17.192001,18.12,7.704001,concentric,4,3.0,19940.0,141534.0,227598.0,278798.0,262367.0
2026-04-08 21:47:35.819453,216095,1609504028028961,1627995347,0.894016,-0.035136,0.007808,-3.73625,-10.01875,-9.0125,-17.872002,18.216002,9.264001,concentric,4,3.0,19940.0,141534.0,227598.0,278798.0,262367.0
2026-04-08 21:47:35.821066,216096,1609504028038841,1628004060,0.815936,-0.042944,-0.122976,-5.88,-9.835,-10.61375,-17.456001,17.808,6.408001,concentric,4,3.0,19940.0,141534.0,227598.0,278798.0,262367.0
2026-04-08 21:47:35.825183,216097,1609504028048122,1628014821,0.815936,-0.042944,-0.122976,-4.76875,-8.785,-11.24375,-17.456001,17.808,6.408001,concentric,4,3.0,19940.0,141534.0,227598.0,278798.0,262367.0
2026-04-08 21:47:35.827684,216098,1609504028062684,1628029805,0.808128,-0.015616,-0.007808,-5.52125,-7.77,-12.8625,-17.92,17.960001,6.784,concentric,4,3.0,19940.0,141534.0,227598.0,278798.0,262367.0
2026-04-08 21:47:35.856199,216099,1609504028071607,1628038486,0.808128,-0.015616,-0.007808,-5.22375,-7.245,-13.4575,-17.92,17.960001,6.784,concentric,4,3.0,19940.0,141534.0,227598.0,278798.0,262367.0
2026-04-08 21:47:35.860657,216100,1609504028080543,1628047200,0.825696,-0.07808,-0.093696,-2.4325,-7.0875,-13.265,-18.088001,17.656,5.688,concentric,4,3.0,19940.0,141534.0,227598.0,278798.0,262367.0
2026-04-08 21:47:35.862151,216101,1609504028094963,1628062056,0.825696,-0.07808,0.0,-0.175,-8.5925,-13.4225,-18.088001,17.656,5.688,concentric,4,3.0,19940.0,141534.0,227598.0,278798.0,262367.0
2026-04-08 21:47:35.868807,216102,1609504028103891,1628070730,0.899872,-0.07808,0.00976,3.3075,-10.3775,-14.735,-18.152,17.592001,8.912001,concentric,4,3.0,19940.0,141534.0,227598.0,278798.0,262367.0
2026-04-08 21:47:35.898142,216113,1609504028118432,1628083698,0.83936,-0.027328,0.056608,8.9075,-11.66375,-17.82375,-18.496,17.384,5.872,concentric,4,3.0,19698.0,141002.0,227225.0,278641.0,262334.0
2026-04-08 21:47:35.899669,216114,1609504028127905,1628094573,0.83936,-0.027328,0.056608,14.44625,-11.095,-18.41,-18.496,17.384,5.872,concentric,4,3.0,19698.0,141002.0,227225.0,278641.0,262334.0
2026-04-08 21:47:35.903773,216115,1609504028136839,1628103252,0.792512,0.02928,-0.103456,17.0625,-10.3425,-16.59875,-18.664001,17.608002,8.568001,concentric,4,3.0,19698.0,141002.0,227225.0,278641.0,262334.0
2026-04-08 21:47:35.932399,216116,1609504028151438,1628118136,0.792512,0.02928,-0.103456,15.9775,-10.84125,-15.86375,-18.664001,17.608002,8.568001,concentric,4,3.0,19698.0,141002.0,227225.0,278641.0,262334.0
2026-04-08 21:47:35.936891,216117,1609504028160328,1628126790,0.929152,-0.011712,0.062464,13.335,-10.66625,-16.66875,-19.184,17.096,8.544001,concentric,4,3.0,19698.0,141002.0,227225.0,278641.0,262334.0
2026-04-08 21:47:35.938509,216118,1609504028174790,1628141626,0.929152,-0.011712,0.062464,9.9225,-9.4675,-16.765,-19.184,17.096,8.544001,concentric,4,3.0,19698.0,141002.0,227225.0,278641.0,262334.0
2026-04-08 21:47:35.969680,216119,1609504028183765,1628150306,0.923296,-0.072224,0.033184,6.09,-7.72625,-15.365,-19.032001,17.248001,8.232,concentric,4,3.0,19698.0,141002.0,227225.0,278641.0,262334.0
2026-04-08 21:47:35.971862,216120,1609504028198268,1628165171,0.88816,-0.06832,-0.111264,2.73875,-6.195,-13.65,-19.68,17.632,8.456,concentric,4,3.0,19698.0,141002.0,227225.0,278641.0,262334.0
2026-04-08 21:47:35.976918,216121,1609504028207187,1628173830,0.88816,-0.06832,-0.111264,3.35125,-5.4775,-12.285,-19.68,17.632,8.456,concentric,4,3.0,19698.0,141002.0,227225.0,278641.0,262334.0
2026-04-08 21:47:36.044413,216132,1609504028216270,1628182618,0.88816,0.013664,0.01952,8.3475,-5.4775,-11.75125,-19.68,17.632,8.608001,concentric,4,3.0,19624.0,140829.0,227130.0,278587.0,262326.0
2026-04-08 21:47:36.046886,216133,1609504028230852,1628197503,0.886208,0.013664,0.01952,16.0825,-5.67875,-11.917501,-19.072,16.584002,8.608001,concentric,4,3.0,19624.0,140829.0,227130.0,278587.0,262326.0
2026-04-08 21:47:36.048411,216134,1609504028239758,1628206190,0.979904,-0.035136,0.027328,20.125,-5.39875,-12.0575,-19.632002,16.736,6.168,concentric,4,3.0,19624.0,140829.0,227130.0,278587.0,262326.0
2026-04-08 21:47:36.051935,216135,1609504028254341,1628221068,0.979904,-0.035136,0.027328,15.89,-3.99,-12.69625,-19.632002,16.736,6.168,concentric,4,3.0,19624.0,140829.0,227130.0,278587.0,262326.0
2026-04-08 21:47:36.053538,216136,1609504028263278,1628229738,0.913536,-0.01952,0.040992,9.45875,-1.7675,-11.97,-19.912,16.76,6.04,concentric,4,3.0,19624.0,140829.0,227130.0,278587.0,262326.0
2026-04-08 21:47:36.056843,216137,1609504028277829,1628244660,0.866688,0.011712,-0.247904,3.35125,0.00875,-10.05375,-20.04,17.12,7.688,concentric,4,3.0,19624.0,140829.0,227130.0,278587.0,262326.0
2026-04-08 21:47:36.058430,216138,1609504028286913,1628253384,0.866688,0.011712,-0.247904,-1.6975,0.56875,-8.61,-20.04,17.12,7.688,concentric,4,3.0,19624.0,140829.0,227130.0,278587.0,262326.0
2026-04-08 21:47:36.062535,216139,1609504028295903,1628262071,0.866688,0.011712,-0.247904,-2.0475,0.58625,-9.345,-20.04,17.12,7.688,concentric,4,3.0,19624.0,140829.0,227130.0,278587.0,262326.0
2026-04-08 21:47:36.091171,216140,1609504028310380,1628276949,0.952576,-0.007808,-0.050752,0.55125,0.875,-10.03625,-20.352001,16.856,5.048,concentric,4,3.0,19624.0,140829.0,227130.0,278587.0,262326.0
2026-04-08 21:47:36.120580,216151,1609504028319344,1628285711,0.909632,-0.003904,0.025376,1.05,3.01,-9.79125,-20.216002,16.376001,5.992,concentric,4,3.0,19704.0,141251.0,227734.0,279004.0,262530.0
2026-04-08 21:47:36.122190,216152,1609504028333826,1628300612,0.909632,-0.003904,0.025376,-0.74375,4.43625,-7.98,-20.216002,16.376001,5.992,concentric,4,3.0,19704.0,141251.0,227734.0,279004.0,262530.0
2026-04-08 21:47:36.126463,216153,1609504028342914,1628309348,0.802272,0.035136,-0.06832,-3.87625,5.76625,-6.5275,-20.264002,16.784,6.904,concentric,4,3.0,19704.0,141251.0,227734.0,279004.0,262530.0
2026-04-08 21:47:36.128096,216154,1609504028351865,1628318090,0.802272,0.035136,-0.06832,-6.81625,6.85125,-4.92625,-20.264002,16.784,6.904,concentric,4,3.0,19704.0,141251.0,227734.0,279004.0,262530.0
2026-04-08 21:47:36.129689,216155,1609504028366552,1628333068,0.8784,-0.00976,-0.083936,-9.730001,6.5275,-3.71,-20.536001,17.032001,6.952,concentric,4,3.0,19704.0,141251.0,227734.0,279004.0,262530.0
2026-04-08 21:47:36.160815,216156,1609504028375566,1628341823,0.8784,-0.00976,-0.083936,-9.24,6.1775,-3.2725,-20.536001,17.032001,6.952,concentric,4,3.0,19704.0,141251.0,227734.0,279004.0,262530.0
2026-04-08 21:47:36.165206,216157,1609504028390061,1628356687,0.798368,0.035136,-0.02928,-6.0725,6.5625,-3.325,-20.528002,16.648,6.36,concentric,4,3.0,19704.0,141251.0,227734.0,279004.0,262530.0
2026-04-08 21:47:36.166842,216158,1609504028398996,1628365385,0.817888,0.001952,-0.138592,-4.33125,6.475,-3.63125,-20.432001,16.944,5.56,concentric,4,3.0,19704.0,141251.0,227734.0,279004.0,262530.0
2026-04-08 21:47:36.226408,216169,1609504028414065,1628380456,0.817888,0.001952,-0.138592,-5.41625,6.99125,-3.17625,-20.432001,16.944,5.56,concentric,4,3.0,19793.0,141722.0,228382.0,279553.0,262874.0
2026-04-08 21:47:36.228146,216170,1609504028423010,1628389122,0.911584,0.01952,0.044896,-8.89,6.1075,-2.9575,-20.176,16.808,6.296001,concentric,4,3.0,19793.0,141722.0,228382.0,279553.0,262874.0
2026-04-08 21:47:36.229692,216171,1609504028431998,1628397775,0.911584,0.01952,0.044896,-11.62875,5.4775,-3.70125,-20.176,16.808,6.296001,concentric,4,3.0,19793.0,141722.0,228382.0,279553.0,262874.0
2026-04-08 21:47:36.233926,216172,1609504028446612,1628412686,0.798368,0.00976,-0.05856,-11.69,4.655,-4.24375,-20.672,16.856,5.448,concentric,4,3.0,19793.0,141722.0,228382.0,279553.0,262874.0
2026-04-08 21:47:36.235679,216173,1609504028455622,1628421362,0.798368,0.00976,-0.05856,-10.70125,4.3575,-4.82125,-20.672,16.856,5.448,concentric,4,3.0,19793.0,141722.0,228382.0,279553.0,262874.0
2026-04-08 21:47:36.237215,216174,1609504028470111,1628436240,0.821792,-0.031232,-0.191296,-8.155,4.5675,-5.4425,-20.808,17.28,7.008,concentric,4,3.0,19793.0,141722.0,228382.0,279553.0,262874.0
2026-04-08 21:47:36.242537,216175,1609504028479028,1628444938,0.835456,0.037088,-0.085888,-3.4825,4.31375,-5.635,-21.28,17.112001,6.84,concentric,4,3.0,19793.0,141722.0,228382.0,279553.0,262874.0
2026-04-08 21:47:36.271955,216176,1609504028487986,1628453630,0.835456,0.037088,-0.085888,-0.0875,3.57,-5.845,-21.28,17.112001,6.84,concentric,4,3.0,19793.0,141722.0,228382.0,279553.0,262874.0
2026-04-08 21:47:36.274670,216177,1609504028502447,1628468502,0.958432,0.013664,0.005856,1.8375,2.485,-7.0175,-21.240002,16.744001,5.608,concentric,4,3.0,19793.0,141722.0,228382.0,279553.0,262874.0
2026-04-08 21:47:36.277208,216178,1609504028511328,1628477146,0.958432,0.013664,0.005856,0.6125,1.3475,-8.61,-21.240002,16.744001,5.608,concentric,4,3.0,19793.0,141722.0,228382.0,279553.0,262874.0
2026-04-08 21:47:36.338368,216189,1609504028525890,1628492110,0.812032,0.044896,-0.07808,-1.51375,0.98,-9.66,-21.44,16.664001,6.624001,concentric,4,3.0,19845.0,141931.0,228645.0,279673.0,262880.0
2026-04-08 21:47:36.340936,216190,1609504028534851,1628500833,0.812032,0.044896,-0.07808,-5.1275,1.23375,-9.1,-21.44,16.664001,6.624001,concentric,4,3.0,19845.0,141931.0,228645.0,279673.0,262880.0
2026-04-08 21:47:36.344545,216191,1609504028549354,1628515715,0.915488,0.00976,-0.074176,-6.76375,0.7525,-8.39125,-21.368002,17.0,5.304,concentric,4,3.0,19845.0,141931.0,228645.0,279673.0,262880.0
2026-04-08 21:47:36.345900,216192,1609504028558283,1628524412,0.915488,0.011712,-0.074176,-2.91375,-0.3675,-7.5075,-21.368002,17.0,5.304,concentric,4,3.0,19845.0,141931.0,228645.0,279673.0,262880.0
2026-04-08 21:47:36.350775,216193,1609504028567203,1628533103,0.94672,0.011712,-0.074176,3.395,-1.015,-7.35875,-21.384,16.928001,8.128,concentric,4,3.0,19845.0,141931.0,228645.0,279673.0,262880.0
2026-04-08 21:47:36.353837,216194,1609504028581710,1628548042,0.940864,0.02928,-0.132736,10.64875,-1.77625,-8.68,-22.368002,16.536001,6.264,concentric,4,3.0,19845.0,141931.0,228645.0,279673.0,262880.0
2026-04-08 21:47:36.354422,216195,1609504028590623,1628556728,0.940864,0.02928,-0.132736,15.05,-2.17875,-10.19375,-22.368002,16.536001,6.264,concentric,4,3.0,19845.0,141931.0,228645.0,279673.0,262880.0
2026-04-08 21:47:36.383821,216196,1609504028605114,1628571729,0.970144,0.050752,-0.124928,13.50125,-1.81125,-10.5525,-22.344002,17.112001,6.608,concentric,4,3.0,19845.0,141931.0,228645.0,279673.0,262880.0
2026-04-08 21:47:36.414542,216207,1609504028614328,1628580407,0.970144,0.050752,-0.124928,6.23875,-2.065,-9.05625,-22.344002,17.112001,6.608,concentric,4,3.0,19975.0,142106.0,228610.0,279490.0,262675.0
2026-04-08 21:47:36.417040,216208,1609504028628920,1628595351,0.987712,0.064416,-0.109312,1.6975,-2.2575,-8.37375,-22.216002,16.584002,5.376,concentric,4,3.0,19975.0,142106.0,228610.0,279490.0,262675.0
2026-04-08 21:47:36.419539,216209,1609504028637883,1628604037,0.987712,0.064416,-0.109312,0.30625,-1.56625,-9.1,-22.216002,16.584002,5.376,concentric,4,3.0,19975.0,142106.0,228610.0,279490.0,262675.0
2026-04-08 21:47:36.422072,216210,1609504028646880,1628612773,0.989664,0.083936,0.011712,-0.67375,-0.9275,-10.22875,-22.464,16.528,6.64,concentric,4,3.0,19975.0,142106.0,228610.0,279490.0,262675.0
2026-04-08 21:47:36.424628,216211,1609504028661403,1628627650,0.960384,0.062464,-0.11712,-1.54,-0.455,-9.59875,-22.920002,16.320002,5.456,concentric,4,3.0,19975.0,142106.0,228610.0,279490.0,262675.0
2026-04-08 21:47:36.454823,216212,1609504028670367,1628636359,0.960384,0.062464,-0.11712,-2.3275,0.42875,-8.6975,-22.920002,16.320002,5.456,concentric,4,3.0,19975.0,142106.0,228610.0,279490.0,262675.0
2026-04-08 21:47:36.458385,216213,1609504028684848,1628651273,0.921344,0.072224,-0.189344,-2.38,1.49625,-7.18375,-22.880001,16.304,5.376,concentric,4,3.0,19975.0,142106.0,228610.0,279490.0,262675.0
2026-04-08 21:47:36.460897,216214,1609504028693755,1628659941,0.921344,0.072224,-0.189344,-5.10125,2.31875,-5.9675,-22.880001,16.304,5.376,concentric,4,3.0,19975.0,142106.0,228610.0,279490.0,262675.0
2026-04-08 21:47:36.464564,216215,1609504028702665,1628668651,0.974048,0.07808,-0.015616,-5.145,1.715,-6.44,-23.160002,16.36,5.376,concentric,4,3.0,19975.0,142106.0,228610.0,279490.0,262675.0
2026-04-08 21:47:36.520970,216226,1609504028717819,1628684054,0.974048,0.07808,-0.015616,-1.715,-0.04375,-7.97125,-23.160002,16.36,5.376,concentric,4,3.0,19985.0,141992.0,228336.0,279220.0,262425.0
2026-04-08 21:47:36.528999,216227,1609504028726845,1628692761,1.095072,0.027328,0.046848,1.05,-1.225,-9.38,-22.936,16.416,5.12,concentric,4,3.0,19985.0,141992.0,228336.0,279220.0,262425.0
2026-04-08 21:47:36.530658,216228,1609504028741311,1628707648,1.01504,0.00976,-0.158112,5.03125,-2.38,-11.43625,-23.168001,16.264,6.4,concentric,4,3.0,19985.0,141992.0,228336.0,279220.0,262425.0
2026-04-08 21:47:36.532238,216229,1609504028750318,1628716327,1.01504,0.00976,-0.158112,11.41875,-2.485,-12.25875,-23.168001,16.264,6.4,concentric,4,3.0,19985.0,141992.0,228336.0,279220.0,262425.0
2026-04-08 21:47:36.540170,216230,1609504028759379,1628725068,1.01504,0.00976,-0.040992,15.12,-3.26375,-12.1625,-23.168001,16.264,6.4,concentric,4,3.0,19985.0,141992.0,228336.0,279220.0,262425.0
2026-04-08 21:47:36.541868,216231,1609504028773851,1628739952,0.933056,0.091744,-0.040992,16.7475,-4.3225,-11.47125,-23.456001,16.2,5.584,concentric,4,3.0,19985.0,141992.0,228336.0,279220.0,262425.0
2026-04-08 21:47:36.543403,216232,1609504028782774,1628748619,0.987712,0.054656,-0.220576,18.68125,-5.67,-11.71625,-23.632002,15.776001,6.2,concentric,4,3.0,19985.0,141992.0,228336.0,279220.0,262425.0
2026-04-08 21:47:36.614838,216233,1609504028797286,1628763494,0.987712,0.054656,-0.220576,22.00625,-7.3675,-13.055,-23.632002,15.776001,6.2,concentric,4,3.0,19985.0,141992.0,228336.0,279220.0,262425.0
2026-04-08 21:47:36.618414,216234,1609504028806207,1628772180,1.098976,0.037088,-0.091744,24.38625,-7.88375,-14.48125,-24.112001,15.792001,5.432,concentric,4,3.0,19985.0,141992.0,228336.0,279220.0,262425.0
2026-04-08 21:47:36.664665,216245,1609504028820754,1628787051,1.052128,0.054656,-0.037088,24.01875,-7.9275,-14.9275,-24.256,15.52,3.944,concentric,4,3.0,19984.0,141970.0,228309.0,279158.0,262383.0
2026-04-08 21:47:36.667643,216246,1609504028829638,1628795703,1.052128,0.054656,-0.037088,24.115,-6.335,-15.0325,-24.256,15.52,3.944,concentric,4,3.0,19984.0,141970.0,228309.0,279158.0,262383.0
2026-04-08 21:47:36.669638,216247,1609504028838532,1628804416,1.052128,0.054656,-0.037088,23.77375,-4.87375,-13.36125,-24.256,15.52,3.944,concentric,4,3.0,19984.0,141970.0,228309.0,279158.0,262383.0
2026-04-08 21:47:36.672103,216248,1609504028852999,1628819261,0.94672,0.111264,-0.093696,22.575,-4.2875,-11.55,-24.28,15.360001,5.608,concentric,4,3.0,19984.0,141970.0,228309.0,279158.0,262383.0
2026-04-08 21:47:36.674637,216249,1609504028861877,1628827920,1.069696,0.128832,-0.115168,21.2975,-4.8125,-12.635,-24.544,15.392001,5.536,concentric,4,3.0,19984.0,141970.0,228309.0,279158.0,262383.0
2026-04-08 21:47:36.677149,216250,1609504028876363,1628842776,1.069696,0.128832,-0.115168,17.710001,-5.10125,-15.23375,-24.544,15.392001,5.536,concentric,4,3.0,19984.0,141970.0,228309.0,279158.0,262383.0
2026-04-08 21:47:36.679545,216251,1609504028885416,1628851506,1.061888,0.0976,0.013664,14.06125,-3.63125,-15.8725,-24.216002,15.000001,5.192,concentric,4,3.0,19984.0,141970.0,228309.0,279158.0,262383.0
2026-04-08 21:47:36.682125,216252,1609504028900036,1628866434,1.061888,0.0976,0.013664,9.91375,-1.8025,-12.64375,-24.216002,15.000001,5.192,concentric,4,3.0,19984.0,141970.0,228309.0,279158.0,262383.0
2026-04-08 21:47:36.684630,216253,1609504028908964,1628875159,0.997472,0.062464,-0.15616,6.86875,-1.82,-8.89875,-24.744001,15.384001,6.544,concentric,4,3.0,19984.0,141970.0,228309.0,279158.0,262383.0
2026-04-08 21:47:36.712083,216264,1609504028918063,1628883873,0.997472,0.062464,-0.15616,6.965,-2.2575,-9.10875,-24.744001,15.384001,6.544,concentric,4,3.0,19870.0,141536.0,227874.0,278921.0,262291.0
2026-04-08 21:47:36.714613,216265,1609504028932588,1628898697,1.036512,0.099552,0.001952,8.295,-2.485,-8.37375,-24.880001,15.216001,5.608,concentric,4,3.0,19870.0,141536.0,227874.0,278921.0,262291.0
2026-04-08 21:47:36.717103,216266,1609504028941572,1628907459,1.056032,0.027328,-0.179584,7.1925,-3.29875,-9.975,-24.952002,14.384001,4.256,concentric,4,3.0,19870.0,141536.0,227874.0,278921.0,262291.0
2026-04-08 21:47:36.719594,216267,1609504028956173,1628922436,1.056032,0.027328,-0.179584,12.3725,-3.2725,-12.46,-24.952002,14.384001,4.256,concentric,4,3.0,19870.0,141536.0,227874.0,278921.0,262291.0
2026-04-08 21:47:36.749842,216268,1609504028965099,1628931128,1.124352,0.011712,-0.113216,16.5375,-3.185,-12.075,-24.856,14.320001,5.576,concentric,4,3.0,19870.0,141536.0,227874.0,278921.0,262291.0
2026-04-08 21:47:36.753475,216269,1609504028979601,1628945964,1.124352,0.011712,-0.113216,12.0925,-3.63125,-12.005,-24.856,14.320001,5.576,concentric,4,3.0,19870.0,141536.0,227874.0,278921.0,262291.0
2026-04-08 21:47:36.755875,216270,1609504028988539,1628954667,1.139968,0.060512,0.003904,9.31875,-3.71,-10.675,-25.024002,14.416,7.736001,concentric,4,3.0,19870.0,141536.0,227874.0,278921.0,262291.0
2026-04-08 21:47:36.758325,216271,1609504028997467,1628963421,1.139968,0.060512,0.003904,9.87,-4.0075,-9.73875,-25.024002,14.416,7.736001,concentric,4,3.0,19870.0,141536.0,227874.0,278921.0,262291.0
2026-04-08 21:47:36.789504,216272,1609504029011988,1628978277,1.079456,0.109312,-0.124928,11.97875,-3.36,-10.01875,-25.456001,14.584001,7.632,concentric,4,3.0,19870.0,141536.0,227874.0,278921.0,262291.0
2026-04-08 21:47:36.826332,216283,1609504029021031,1628987055,1.079456,0.109312,0.031232,15.30375,-2.44125,-9.49375,-25.456001,14.584001,7.632,concentric,4,3.0,19870.0,141424.0,227753.0,278800.0,262193.0
2026-04-08 21:47:36.828231,216284,1609504029035517,1629001973,1.145824,0.115168,0.033184,14.74375,-1.84625,-7.105,-25.160002,14.128,5.56,concentric,4,3.0,19870.0,141424.0,227753.0,278800.0,262193.0
2026-04-08 21:47:36.829122,216285,1609504029044444,1629010678,1.1224,0.08784,-0.220576,13.30875,-1.00625,-4.20875,-25.528002,14.088,5.648,concentric,4,3.0,19870.0,141424.0,227753.0,278800.0,262193.0
2026-04-08 21:47:36.833092,216286,1609504029059002,1629025546,1.1224,0.08784,-0.220576,10.59625,-1.42625,-2.6775,-25.528002,14.088,5.648,concentric,4,3.0,19870.0,141424.0,227753.0,278800.0,262193.0
2026-04-08 21:47:36.834661,216287,1609504029068097,1629034285,1.2688,0.085888,-0.091744,5.5125,-1.37375,-1.53125,-25.28,14.224001,5.688,concentric,4,3.0,19870.0,141424.0,227753.0,278800.0,262193.0
2026-04-08 21:47:36.838708,216288,1609504029077126,1629043026,1.2688,0.085888,-0.091744,2.56375,-1.26875,-1.44375,-25.28,14.224001,5.688,concentric,4,3.0,19870.0,141424.0,227753.0,278800.0,262193.0
2026-04-08 21:47:36.868921,216289,1609504029091599,1629057914,1.216096,0.042944,-0.245952,3.24625,-0.385,-0.72625,-25.344002,14.208001,6.368001,concentric,4,3.0,19870.0,141424.0,227753.0,278800.0,262193.0
2026-04-08 21:47:36.878110,216290,1609504029100521,1629066657,1.216096,0.042944,-0.245952,3.63125,0.42,1.02375,-25.344002,14.208001,6.368001,concentric,4,3.0,19870.0,141424.0,227753.0,278800.0,262193.0
2026-04-08 21:47:36.878890,216291,1609504029114951,1629081552,1.098976,0.070272,-0.189344,4.20875,0.56875,4.095,-25.144001,14.528001,4.216,concentric,4,3.0,19870.0,141424.0,227753.0,278800.0,262193.0
2026-04-08 21:47:36.937096,216302,1609504029123986,1629090364,1.134112,0.076128,-0.238144,7.9625,-0.23625,5.43375,-25.480001,14.432001,7.920001,concentric,4,3.0,20044.0,141838.0,227955.0,278768.0,262030.0
2026-04-08 21:47:36.939592,216303,1609504029132960,1629099022,1.134112,0.076128,-0.238144,12.20625,-0.09625,4.76,-25.480001,14.432001,7.920001,concentric,4,3.0,20044.0,141838.0,227955.0,278768.0,262030.0
2026-04-08 21:47:36.942097,216304,1609504029147429,1629113907,1.118496,0.1464,-0.037088,12.4425,0.0,4.5325,-25.104002,14.264001,5.896,concentric,4,3.0,20044.0,141838.0,227955.0,278768.0,262030.0
2026-04-08 21:47:36.944568,216305,1609504029156482,1629122666,1.118496,0.1464,-0.037088,8.46125,-0.2975,5.46,-25.104002,14.264001,5.896,concentric,4,3.0,20044.0,141838.0,227955.0,278768.0,262030.0
2026-04-08 21:47:36.947314,216306,1609504029170967,1629137545,1.138016,0.109312,-0.011712,1.40875,-0.1925,5.85375,-24.712002,14.224001,5.832,concentric,4,3.0,20044.0,141838.0,227955.0,278768.0,262030.0
2026-04-08 21:47:36.949576,216307,1609504029179923,1629146246,1.138016,0.109312,-0.011712,-4.865,1.1725,5.95,-24.712002,14.224001,5.832,concentric,4,3.0,20044.0,141838.0,227955.0,278768.0,262030.0
2026-04-08 21:47:36.979764,216308,1609504029194421,1629161138,1.04432,0.046848,-0.152256,-8.9075,1.63625,6.58875,-25.032001,14.64,7.528,concentric,4,3.0,20044.0,141838.0,227955.0,278768.0,262030.0
2026-04-08 21:47:36.983425,216309,1609504029203324,1629169736,1.0736,0.076128,-0.017568,-8.02375,2.1875,6.51,-24.52,15.112,7.128,concentric,4,3.0,20044.0,141838.0,227955.0,278768.0,262030.0
2026-04-08 21:47:36.986715,216310,1609504029212201,1629178383,1.0736,0.076128,-0.017568,-4.94375,2.1525,5.32875,-24.52,15.112,7.128,concentric,4,3.0,20044.0,141838.0,227955.0,278768.0,262030.0
