pc_time,serial_num,sensor_ts,host_ts,ax,ay,az,gx,gy,gz,mx,my,mz,phase,rpe,weight_kg,ppg_a,ppg_b,ppg_c,ppg_d,ppg_e
2026-04-08 21:42:51.054536,162544,1609503743279850,1343246947,1.169248,-0.011712,0.01952,-15.30375,-15.68,-7.245,-27.424002,-3.552,-12.176001,inter_set_rest,5,3.0,17718.0,135282.0,222199.0,274323.0,259264.0
2026-04-08 21:42:51.056937,162545,1609503743288781,1343255605,1.091168,-0.037088,0.0488,-17.28125,-15.295,-5.11,-27.248001,-3.264,-11.64,inter_set_rest,5,3.0,17718.0,135282.0,222199.0,274323.0,259264.0
2026-04-08 21:42:51.059439,162546,1609503743297716,1343264300,1.091168,-0.037088,0.0488,-20.50125,-17.17625,-5.73125,-27.248001,-3.264,-11.64,inter_set_rest,5,3.0,17718.0,135282.0,222199.0,274323.0,259264.0
2026-04-08 21:42:51.093148,162557,1609503743312299,1343279238,1.13216,-0.0976,0.08784,-20.8075,-18.15625,-8.155,-26.528002,-3.128,-12.696001,inter_set_rest,5,3.0,17864.0,135381.0,221807.0,273709.0,258627.0
2026-04-08 21:42:51.095733,162558,1609503743321338,1343287944,1.13216,-0.0976,0.08784,-17.64,-18.62,-8.93375,-26.528002,-3.128,-12.696001,inter_set_rest,5,3.0,17864.0,135381.0,221807.0,273709.0,258627.0
2026-04-08 21:42:51.098153,162559,1609503743335840,1343302843,1.118496,-0.064416,0.00976,-12.60875,-18.13,-9.54625,-26.232,-2.76,-12.056001,inter_set_rest,5,3.0,17864.0,135381.0,221807.0,273709.0,258627.0
2026-04-08 21:42:51.100675,162560,1609503743344752,1343311541,1.098976,-0.06832,-0.023424,-6.8075,-17.45625,-10.7625,-25.752,-2.888,-14.168,inter_set_rest,5,3.0,17864.0,135381.0,221807.0,273709.0,258627.0
2026-04-08 21:42:51.130915,162561,1609503743359232,1343324408,1.098976,-0.06832,-0.023424,-3.3075,-18.0775,-12.7225,-25.752,-2.888,-14.168,inter_set_rest,5,3.0,17864.0,135381.0,221807.0,273709.0,258627.0
2026-04-08 21:42:51.134486,162562,1609503743368450,1343335162,1.00528,-0.013664,-0.066368,-0.56,-19.15375,-15.190001,-25.240002,-2.64,-13.528001,inter_set_rest,5,3.0,17864.0,135381.0,221807.0,273709.0,258627.0
2026-04-08 21:42:51.172147,162563,1609503743377385,1343343845,1.00528,-0.013664,-0.066368,-1.26875,-19.355,-16.75625,-25.240002,-2.64,-13.528001,inter_set_rest,5,3.0,17864.0,135381.0,221807.0,273709.0,258627.0
2026-04-08 21:42:51.175702,162564,1609503743391889,1343358718,1.046272,0.003904,-0.033184,-1.645,-18.87375,-16.52,-24.920002,-2.84,-13.816001,inter_set_rest,5,3.0,17864.0,135381.0,221807.0,273709.0,258627.0
2026-04-08 21:42:51.203145,162575,1609503743401288,1343367764,1.046272,0.003904,-0.033184,-4.2175,-18.4275,-15.56625,-24.920002,-2.84,-13.816001,inter_set_rest,5,3.0,17830.0,135191.0,221329.0,273207.0,258304.0
2026-04-08 21:42:51.205868,162576,1609503743415890,1343382714,0.970144,0.015616,-0.060512,-10.0625,-17.82375,-15.42625,-24.656002,-2.496,-12.072001,inter_set_rest,5,3.0,17830.0,135191.0,221329.0,273207.0,258304.0
2026-04-08 21:42:51.208232,162577,1609503743424812,1343391354,0.95648,-0.040992,-0.236192,-18.165,-16.765,-17.33375,-24.36,-2.752,-13.888001,inter_set_rest,5,3.0,17830.0,135191.0,221329.0,273207.0,258304.0
2026-04-08 21:42:51.210823,162578,1609503743433772,1343400099,0.95648,-0.040992,-0.236192,-22.32125,-14.63875,-22.12,-24.36,-2.752,-13.888001,inter_set_rest,5,3.0,17830.0,135191.0,221329.0,273207.0,258304.0
2026-04-08 21:42:51.213176,162579,1609503743448352,1343415033,0.942816,-0.013664,-0.20496,-24.1675,-10.815,-27.65,-23.752,-2.672,-14.488001,inter_set_rest,5,3.0,17830.0,135191.0,221329.0,273207.0,258304.0
2026-04-08 21:42:51.248496,162580,1609503743457280,1343423708,0.942816,-0.013664,-0.20496,-24.98125,-6.02,-29.60125,-23.752,-2.672,-14.488001,inter_set_rest,5,3.0,17830.0,135191.0,221329.0,273207.0,258304.0
2026-04-08 21:42:51.250688,162581,1609503743471784,1343438593,0.93696,-0.037088,-0.1952,-24.61375,-1.9425,-29.42625,-23.728,-2.912,-13.840001,inter_set_rest,5,3.0,17830.0,135191.0,221329.0,273207.0,258304.0
2026-04-08 21:42:51.253207,162582,1609503743480688,1343447285,0.93696,-0.037088,-0.1952,-28.0,1.07625,-32.2525,-23.728,-2.912,-13.840001,inter_set_rest,5,3.0,17830.0,135191.0,221329.0,273207.0,258304.0
2026-04-08 21:42:51.258227,162583,1609503743495164,1343462153,0.933056,-0.037088,-0.103456,-35.9625,1.2075,-37.03,-23.056002,-3.056,-14.328001,inter_set_rest,5,3.0,17830.0,135191.0,221329.0,273207.0,258304.0
2026-04-08 21:42:51.285636,162594,1609503743504589,1343470907,0.860832,-0.070272,-0.191296,-47.11,1.68,-42.4025,-23.056002,-3.752,-12.528001,inter_set_rest,5,3.0,17695.0,134677.0,220448.0,272447.0,257808.0
2026-04-08 21:42:51.288187,162595,1609503743513521,1343479634,0.860832,-0.070272,-0.191296,-51.61625,3.36875,-47.9325,-22.792002,-3.752,-12.528001,inter_set_rest,5,3.0,17695.0,134677.0,220448.0,272447.0,257808.0
2026-04-08 21:42:51.290681,162596,1609503743528050,1343494572,0.952576,-0.11712,-0.10736,-51.905,4.3925,-53.978752,-22.608002,-4.216,-13.624001,inter_set_rest,5,3.0,17695.0,134677.0,220448.0,272447.0,257808.0
2026-04-08 21:42:51.293249,162597,1609503743536991,1343503317,0.952576,-0.11712,-0.10736,-50.37375,5.55625,-58.388752,-22.608002,-4.216,-13.624001,inter_set_rest,5,3.0,17695.0,134677.0,220448.0,272447.0,257808.0
2026-04-08 21:42:51.323376,162598,1609503743551570,1343518178,1.057984,-0.1464,0.005856,-45.28125,4.99625,-57.925,-22.2,-4.552,-11.56,inter_set_rest,5,3.0,17695.0,134677.0,220448.0,272447.0,257808.0
2026-04-08 21:42:51.326951,162599,1609503743560497,1343526830,1.057984,-0.1464,0.005856,-42.49,2.5375,-59.57875,-22.2,-4.552,-11.56,inter_set_rest,5,3.0,17695.0,134677.0,220448.0,272447.0,257808.0
2026-04-08 21:42:51.329764,162600,1609503743569425,1343535518,0.999424,-0.18544,-0.11712,-42.16625,-3.15,-68.46875,-21.984001,-5.048,-14.848001,inter_set_rest,5,3.0,17695.0,134677.0,220448.0,272447.0,257808.0
2026-04-08 21:42:51.359630,162601,1609503743583914,1343550452,0.999424,-0.18544,-0.11712,-40.25875,-7.65625,-77.735,-21.984001,-5.048,-14.848001,inter_set_rest,5,3.0,17695.0,134677.0,220448.0,272447.0,257808.0
2026-04-08 21:42:51.363225,162602,1609503743592839,1343559109,1.077504,-0.134688,0.003904,-33.85375,-9.14375,-82.495,-21.52,-5.76,-15.704,inter_set_rest,5,3.0,17695.0,134677.0,220448.0,272447.0,257808.0
2026-04-08 21:42:51.390927,162613,1609503743607389,1343574100,0.938912,-0.0488,-0.105408,-24.0975,-8.295,-84.402504,-21.2,-6.28,-14.840001,inter_set_rest,5,3.0,17873.0,135238.0,221028.0,272844.0,257991.0
2026-04-08 21:42:51.393174,162614,1609503743616320,1343582819,0.938912,-0.0488,-0.105408,-15.26,-5.6875,-84.98,-21.2,-6.28,-14.840001,inter_set_rest,5,3.0,17873.0,135238.0,221028.0,272844.0,257991.0
2026-04-08 21:42:51.395785,162615,1609503743630955,1343597755,0.989664,-0.076128,-0.074176,-13.74625,-6.04625,-82.04,-21.024,-6.752,-14.120001,inter_set_rest,5,3.0,17873.0,135238.0,221028.0,272844.0,257991.0
2026-04-08 21:42:51.398569,162616,1609503743639912,1343606444,0.989664,-0.076128,-0.074176,-22.715,-8.82,-80.94625,-21.024,-6.752,-14.120001,inter_set_rest,5,3.0,17873.0,135238.0,221028.0,272844.0,257991.0
2026-04-08 21:42:51.401975,162617,1609503743648861,1343615152,1.036512,-0.06832,0.07808,-30.5725,-11.78625,-84.6475,-20.296001,-7.248,-14.408001,inter_set_rest,5,3.0,17873.0,135238.0,221028.0,272844.0,257991.0
2026-04-08 21:42:51.432125,162618,1609503743663326,1343630040,1.036512,-0.06832,0.07808,-32.06,-12.7575,-85.5575,-20.296001,-7.248,-14.408001,inter_set_rest,5,3.0,17873.0,135238.0,221028.0,272844.0,257991.0
2026-04-08 21:42:51.435694,162619,1609503743672239,1343638652,0.93696,-0.064416,-0.011712,-28.09625,-9.63375,-81.66375,-19.944,-7.816001,-13.744,inter_set_rest,5,3.0,17873.0,135238.0,221028.0,272844.0,257991.0
2026-04-08 21:42:51.440772,162620,1609503743686735,1343653518,0.954528,-0.095648,-0.121024,-20.6675,-7.69125,-76.6675,-19.720001,-8.576,-14.880001,inter_set_rest,5,3.0,17873.0,135238.0,221028.0,272844.0,257991.0
2026-04-08 21:42:51.470919,162621,1609503743695648,1343662181,0.954528,-0.095648,-0.121024,-18.19125,-8.19,-73.28125,-19.720001,-8.576,-14.880001,inter_set_rest,5,3.0,17873.0,135238.0,221028.0,272844.0,257991.0
2026-04-08 21:42:51.499446,162632,1609503743710653,1343677570,0.938912,-0.015616,0.046848,-23.16125,-9.61625,-73.9375,-18.792002,-8.952001,-15.592001,inter_set_rest,5,3.0,17836.0,135285.0,221262.0,273122.0,258251.0
2026-04-08 21:42:51.502066,162633,1609503743719585,1343686261,0.938912,-0.015616,0.046848,-25.4975,-10.24625,-77.28,-18.792002,-8.952001,-15.592001,inter_set_rest,5,3.0,17836.0,135285.0,221262.0,273122.0,258251.0
2026-04-08 21:42:51.504445,162634,1609503743728539,1343694953,0.929152,0.02928,0.066368,-19.36375,-9.82625,-76.20375,-18.992,-9.008,-14.912001,inter_set_rest,5,3.0,17836.0,135285.0,221262.0,273122.0,258251.0
2026-04-08 21:42:51.507083,162635,1609503743743107,1343709881,0.929152,0.02928,0.066368,-12.03125,-9.61625,-69.4575,-18.992,-9.008,-14.912001,inter_set_rest,5,3.0,17836.0,135285.0,221262.0,273122.0,258251.0
2026-04-08 21:42:51.509484,162636,1609503743752028,1343718616,1.001376,0.062464,-0.033184,-11.92625,-10.61375,-63.02625,-18.44,-9.392,-14.752001,inter_set_rest,5,3.0,17836.0,135285.0,221262.0,273122.0,258251.0
2026-04-08 21:42:51.547817,162637,1609503743766532,1343733502,1.065792,0.066368,0.074176,-17.85875,-12.565,-60.50625,-17.768002,-9.8,-14.76,inter_set_rest,5,3.0,17836.0,135285.0,221262.0,273122.0,258251.0
2026-04-08 21:42:51.550637,162638,1609503743775447,1343742149,1.065792,0.066368,0.074176,-22.9075,-12.845,-60.85625,-17.768002,-9.8,-14.76,inter_set_rest,5,3.0,17836.0,135285.0,221262.0,273122.0,258251.0
2026-04-08 21:42:51.553203,162639,1609503743784374,1343750824,1.065792,0.066368,0.074176,-20.51,-9.6775,-60.55,-17.768002,-9.8,-14.76,inter_set_rest,5,3.0,17836.0,135285.0,221262.0,273122.0,258251.0
2026-04-08 21:42:51.555689,162640,1609503743798829,1343765669,0.843264,0.0976,-0.08784,-9.59875,-7.2275,-56.105,-17.744001,-10.032001,-16.384,inter_set_rest,5,3.0,17836.0,135285.0,221262.0,273122.0,258251.0
2026-04-08 21:42:51.583169,162651,1609503743807866,1343774467,0.876448,0.119072,0.119072,-0.7175,-7.035,-47.075,-17.064001,-9.976001,-16.28,inter_set_rest,5,3.0,17867.0,135367.0,221254.0,273039.0,258152.0
2026-04-08 21:42:51.585673,162652,1609503743822389,1343789398,0.876448,0.119072,0.119072,-2.89625,-9.0125,-41.982502,-17.064001,-9.976001,-16.28,inter_set_rest,5,3.0,17867.0,135367.0,221254.0,273039.0,258152.0
2026-04-08 21:42:51.588277,162653,1609503743831330,1343798127,0.79056,0.10736,-0.005856,-12.775,-12.4425,-45.56125,-16.928001,-10.192,-16.800001,inter_set_rest,5,3.0,17867.0,135367.0,221254.0,273039.0,258152.0
2026-04-08 21:42:51.618408,162654,1609503743845882,1343813001,0.79056,0.10736,-0.005856,-14.41125,-14.2975,-51.63375,-16.928001,-10.192,-16.800001,inter_set_rest,5,3.0,17867.0,135367.0,221254.0,273039.0,258152.0
2026-04-08 21:42:51.621946,162655,1609503743854804,1343821744,0.735904,0.08784,0.121024,-4.025,-14.7875,-51.19625,-16.720001,-10.432,-15.336,inter_set_rest,5,3.0,17867.0,135367.0,221254.0,273039.0,258152.0
2026-04-08 21:42:51.625089,162656,1609503743863702,1343830468,0.735904,0.08784,0.121024,5.32,-14.9975,-45.49125,-16.720001,-10.432,-15.336,inter_set_rest,5,3.0,17867.0,135367.0,221254.0,273039.0,258152.0
2026-04-08 21:42:51.654648,162657,1609503743878206,1343845352,0.720288,0.15616,-0.244,9.065,-12.1275,-44.1,-16.528,-10.440001,-17.128,inter_set_rest,5,3.0,17867.0,135367.0,221254.0,273039.0,258152.0
2026-04-08 21:42:51.658238,162658,1609503743887128,1343853992,0.607072,0.329888,-0.035136,14.16625,-7.86625,-45.80625,-16.528,-10.216001,-17.376001,inter_set_rest,5,3.0,17867.0,135367.0,221254.0,273039.0,258152.0
2026-04-08 21:42:51.660723,162659,1609503743901571,1343866803,0.607072,0.329888,-0.035136,13.09875,-6.18625,-43.076252,-15.832001,-10.216001,-17.376001,inter_set_rest,5,3.0,17867.0,135367.0,221254.0,273039.0,258152.0
2026-04-08 21:42:51.694531,162671,1609503743910877,1343877617,0.540704,0.259616,-0.023424,9.835,-7.315,-38.0625,-15.624001,-10.616,-17.032001,inter_set_rest,5,3.0,17728.0,135189.0,221191.0,273214.0,258448.0
2026-04-08 21:42:51.700757,162672,1609503743919882,1343886325,0.540704,0.259616,-0.023424,3.6575,-9.91375,-34.67625,-15.624001,-10.616,-17.032001,inter_set_rest,5,3.0,17728.0,135189.0,221191.0,273214.0,258448.0
2026-04-08 21:42:51.703223,162673,1609503743934376,1343901212,0.564128,0.191296,-0.062464,-6.4225,-10.87625,-35.86625,-15.312,-10.504001,-17.056002,inter_set_rest,5,3.0,17728.0,135189.0,221191.0,273214.0,258448.0
2026-04-08 21:42:51.706588,162674,1609503743943259,1343909902,0.564128,0.191296,-0.062464,-9.38,-8.636251,-36.96,-15.312,-10.504001,-17.056002,inter_set_rest,5,3.0,17728.0,135189.0,221191.0,273214.0,258448.0
2026-04-08 21:42:51.712662,162675,1609503743957835,1343924863,0.610976,0.203008,-0.238144,-5.67875,-5.95,-32.7775,-15.248001,-10.496,-17.336,inter_set_rest,5,3.0,17728.0,135189.0,221191.0,273214.0,258448.0
2026-04-08 21:42:51.742298,162676,1609503743966746,1343933548,0.610976,0.203008,-0.238144,-6.0725,-4.61125,-29.47875,-15.248001,-10.496,-17.336,inter_set_rest,5,3.0,17728.0,135189.0,221191.0,273214.0,258448.0
2026-04-08 21:42:51.745836,162677,1609503743981256,1343948394,0.597312,0.337696,-0.017568,-7.41125,-3.59625,-29.96875,-14.960001,-10.816001,-17.728,inter_set_rest,5,3.0,17728.0,135189.0,221191.0,273214.0,258448.0
2026-04-08 21:42:51.748196,162678,1609503743990232,1343957052,0.583648,0.271328,0.062464,-4.4975,-2.42375,-29.86375,-15.072001,-10.664001,-17.512001,inter_set_rest,5,3.0,17728.0,135189.0,221191.0,273214.0,258448.0
2026-04-08 21:42:51.753222,162679,1609503743999140,1343965724,0.583648,0.271328,0.062464,-4.8125,-0.6475,-26.29375,-15.072001,-10.664001,-17.512001,inter_set_rest,5,3.0,17728.0,135189.0,221191.0,273214.0,258448.0
2026-04-08 21:42:51.780748,162690,1609503744013719,1343980729,0.632448,0.226432,0.060512,-11.55,0.4725,-24.29875,-14.856001,-11.128,-16.304,inter_set_rest,5,3.0,17866.0,135603.0,221587.0,273473.0,258568.0
2026-04-08 21:42:51.783239,162691,1609503744022756,1343989408,0.632448,0.226432,0.060512,-16.555,1.6625,-26.04875,-14.856001,-11.128,-16.304,inter_set_rest,5,3.0,17866.0,135603.0,221587.0,273473.0,258568.0
2026-04-08 21:42:51.847235,162692,1609503744037273,1344004319,0.607072,0.308416,0.06832,-18.17375,1.25125,-27.09,-14.504001,-10.776001,-16.480001,inter_set_rest,5,3.0,17866.0,135603.0,221587.0,273473.0,258568.0
2026-04-08 21:42:51.850752,162693,1609503744046196,1344012991,0.607072,0.308416,0.06832,-12.92375,-0.805,-24.325,-14.504001,-10.776001,-16.480001,inter_set_rest,5,3.0,17866.0,135603.0,221587.0,273473.0,258568.0
2026-04-08 21:42:51.853277,162694,1609503744060689,1344025850,0.626592,0.324032,0.1952,0.56875,-3.78,-19.285,-14.736001,-10.632001,-17.792002,inter_set_rest,5,3.0,17866.0,135603.0,221587.0,273473.0,258568.0
2026-04-08 21:42:51.855671,162695,1609503744069829,1344036572,0.661728,0.25376,-0.150304,7.875,-6.53625,-15.7675,-14.568001,-10.856001,-17.672,inter_set_rest,5,3.0,17866.0,135603.0,221587.0,273473.0,258568.0
2026-04-08 21:42:51.858246,162696,1609503744078693,1344045237,0.661728,0.25376,-0.150304,3.35125,-6.265,-16.7125,-14.568001,-10.856001,-17.672,inter_set_rest,5,3.0,17866.0,135603.0,221587.0,273473.0,258568.0
2026-04-08 21:42:51.860781,162697,1609503744093173,1344060118,0.650016,0.3416,-0.093696,-3.9375,-2.26625,-19.6,-14.568001,-11.016001,-17.376001,inter_set_rest,5,3.0,17866.0,135603.0,221587.0,273473.0,258568.0
2026-04-08 21:42:51.863234,162698,1609503744102109,1344068819,0.650016,0.3416,-0.093696,-2.625,-0.77875,-17.35125,-14.568001,-11.016001,-17.376001,inter_set_rest,5,3.0,17866.0,135603.0,221587.0,273473.0,258568.0
2026-04-08 21:42:51.890648,162709,1609503744116660,1344083789,0.61488,0.392352,0.017568,3.64875,-1.4875,-9.17,-14.208001,-11.032001,-17.432001,inter_set_rest,5,3.0,18112.0,136470.0,222646.0,274299.0,259073.0
2026-04-08 21:42:51.893300,162710,1609503744125635,1344092458,0.61488,0.392352,0.017568,10.395,-1.49625,-1.44375,-14.208001,-11.032001,-17.432001,inter_set_rest,5,3.0,18112.0,136470.0,222646.0,274299.0,259073.0
2026-04-08 21:42:51.895697,162711,1609503744140130,1344105300,0.564128,0.304512,-0.163968,4.66375,-0.02625,-0.77,-14.224001,-10.984,-17.448,inter_set_rest,5,3.0,18112.0,136470.0,222646.0,274299.0,259073.0
2026-04-08 21:42:51.902005,162712,1609503744149340,1344116045,0.618784,0.335744,0.031232,-5.5825,2.2575,-5.06625,-14.128,-10.88,-17.568,inter_set_rest,5,3.0,18112.0,136470.0,222646.0,274299.0,259073.0
2026-04-08 21:42:51.933051,162713,1609503744158280,1344124702,0.618784,0.335744,0.031232,-3.535,4.94375,-5.775,-14.128,-10.88,-17.568,inter_set_rest,5,3.0,18112.0,136470.0,222646.0,274299.0,259073.0
2026-04-08 21:42:51.937506,162714,1609503744172742,1344139583,0.724192,0.357216,-0.044896,0.6125,6.2825,-0.0175,-14.64,-11.224001,-17.592001,inter_set_rest,5,3.0,18112.0,136470.0,222646.0,274299.0,259073.0
2026-04-08 21:42:51.939951,162715,1609503744181719,1344148243,0.724192,0.357216,-0.044896,-0.0525,7.67375,3.115,-14.64,-11.224001,-17.592001,inter_set_rest,5,3.0,18112.0,136470.0,222646.0,274299.0,259073.0
2026-04-08 21:42:51.968379,162716,1609503744196266,1344163136,0.552416,0.333792,-0.066368,4.12125,9.1525,4.2875,-14.624001,-10.888001,-18.2,inter_set_rest,5,3.0,18112.0,136470.0,222646.0,274299.0,259073.0
2026-04-08 21:42:52.002454,162727,1609503744205222,1344172280,0.552416,0.333792,-0.066368,3.45625,7.65625,7.90125,-14.624001,-10.888001,-18.2,inter_set_rest,5,3.0,18176.0,136869.0,223236.0,274827.0,259435.0
2026-04-08 21:42:52.004183,162728,1609503744214179,1344180978,0.694912,0.325984,0.208864,-3.03625,4.83,7.67375,-14.616001,-11.040001,-17.464,inter_set_rest,5,3.0,18176.0,136869.0,223236.0,274827.0,259435.0
2026-04-08 21:42:52.005860,162729,1609503744228717,1344195896,0.694912,0.325984,-0.015616,-2.3625,3.14125,4.50625,-14.616001,-11.040001,-17.464,inter_set_rest,5,3.0,18176.0,136869.0,223236.0,274827.0,259435.0
2026-04-08 21:42:52.010196,162730,1609503744237638,1344204634,0.759328,0.284992,-0.015616,5.22375,2.51125,6.3875,-15.104001,-10.616,-17.144001,inter_set_rest,5,3.0,18176.0,136869.0,223236.0,274827.0,259435.0
2026-04-08 21:42:52.014150,162731,1609503744252169,1344217530,0.794464,0.345504,-0.0488,10.815,2.65125,10.6225,-15.032001,-10.568001,-16.528,inter_set_rest,5,3.0,18176.0,136869.0,223236.0,274827.0,259435.0
2026-04-08 21:42:52.015769,162732,1609503744261536,1344228275,0.794464,0.345504,-0.0488,11.38375,4.64625,10.85875,-15.032001,-10.568001,-16.528,inter_set_rest,5,3.0,18176.0,136869.0,223236.0,274827.0,259435.0
2026-04-08 21:42:52.046875,162733,1609503744276019,1344243138,0.700768,0.411872,0.02928,12.355001,6.78125,11.025,-15.008,-10.792001,-14.752001,inter_set_rest,5,3.0,18176.0,136869.0,223236.0,274827.0,259435.0
2026-04-08 21:42:52.051305,162734,1609503744284915,1344251815,0.700768,0.411872,0.02928,9.56375,7.41125,13.6325,-15.008,-10.792001,-14.752001,inter_set_rest,5,3.0,18176.0,136869.0,223236.0,274827.0,259435.0
2026-04-08 21:42:52.053654,162735,1609503744293888,1344260487,0.745664,0.337696,0.03904,6.60625,5.43375,15.3125,-14.704,-10.68,-17.632,inter_set_rest,5,3.0,18176.0,136869.0,223236.0,274827.0,259435.0
2026-04-08 21:42:52.082975,162746,1609503744308975,1344275384,0.745664,0.337696,0.03904,6.46625,2.94875,17.07125,-14.704,-10.68,-17.632,inter_set_rest,5,3.0,18404.0,137502.0,223837.0,275109.0,259439.0
2026-04-08 21:42:52.084615,162747,1609503744317939,1344284176,0.759328,0.310368,-0.251808,6.09875,1.65375,19.0925,-15.296001,-10.312,-17.6,inter_set_rest,5,3.0,18404.0,137502.0,223837.0,275109.0,259439.0
2026-04-08 21:42:52.088594,162748,1609503744332508,1344299040,0.767136,0.38064,0.080032,6.23,1.2425,18.366251,-15.424001,-10.368,-17.248001,inter_set_rest,5,3.0,18404.0,137502.0,223837.0,275109.0,259439.0
2026-04-08 21:42:52.146934,162749,1609503744341572,1344307756,0.767136,0.38064,0.080032,8.9775,0.28875,16.135,-15.424001,-10.368,-17.248001,inter_set_rest,5,3.0,18404.0,137502.0,223837.0,275109.0,259439.0
2026-04-08 21:42:52.151294,162750,1609503744350560,1344316415,0.845216,0.33184,0.02928,13.93875,-0.5425,16.415,-15.416,-10.424001,-18.560001,inter_set_rest,5,3.0,18404.0,137502.0,223837.0,275109.0,259439.0
2026-04-08 21:42:52.152974,162751,1609503744365092,1344331296,0.845216,0.33184,0.02928,15.6975,-1.98625,18.76875,-15.416,-10.424001,-18.560001,inter_set_rest,5,3.0,18404.0,137502.0,223837.0,275109.0,259439.0
2026-04-08 21:42:52.154611,162752,1609503744374004,1344339930,0.817888,0.357216,-0.091744,14.51625,-2.555,20.15125,-15.736001,-10.032001,-17.576,inter_set_rest,5,3.0,18404.0,137502.0,223837.0,275109.0,259439.0
2026-04-08 21:42:52.158766,162753,1609503744388491,1344354830,0.817888,0.357216,-0.091744,15.4875,-1.12875,19.22375,-15.736001,-10.032001,-17.576,inter_set_rest,5,3.0,18404.0,137502.0,223837.0,275109.0,259439.0
2026-04-08 21:42:52.160522,162754,1609503744397425,1344363507,0.79056,0.366976,-0.101504,16.33625,-0.1925,20.8775,-15.368001,-9.944,-18.84,inter_set_rest,5,3.0,18404.0,137502.0,223837.0,275109.0,259439.0
2026-04-08 21:42:52.189229,162765,1609503744412060,1344378491,0.757376,0.355264,-0.021472,11.17375,-1.575,23.6425,-15.504001,-9.56,-16.0,inter_set_rest,5,3.0,18405.0,137582.0,223985.0,275274.0,259610.0
2026-04-08 21:42:52.195281,162766,1609503744421033,1344387235,0.757376,0.355264,-0.021472,8.60125,-2.44125,23.16125,-15.504001,-9.56,-16.0,inter_set_rest,5,3.0,18405.0,137582.0,223985.0,275274.0,259610.0
2026-04-08 21:42:52.198299,162767,1609503744429954,1344395907,0.757376,0.355264,-0.021472,13.16875,-2.415,23.73875,-15.504001,-9.56,-16.0,inter_set_rest,5,3.0,18405.0,137582.0,223985.0,275274.0,259610.0
2026-04-08 21:42:52.201528,162768,1609503744444446,1344410784,0.7808,0.27328,-0.173728,13.18625,-3.0275,26.9675,-15.744,-9.432,-16.464,inter_set_rest,5,3.0,18405.0,137582.0,223985.0,275274.0,259610.0
2026-04-08 21:42:52.207357,162769,1609503744453431,1344419478,0.841312,0.286944,-0.089792,8.05875,-3.26375,25.9525,-16.008001,-9.224,-17.960001,inter_set_rest,5,3.0,18405.0,137582.0,223985.0,275274.0,259610.0
2026-04-08 21:42:52.235958,162770,1609503744467914,1344434347,0.841312,0.286944,-0.089792,2.80875,-2.9225,21.56875,-16.008001,-9.224,-17.960001,inter_set_rest,5,3.0,18405.0,137582.0,223985.0,275274.0,259610.0
2026-04-08 21:42:52.239504,162771,1609503744476839,1344442999,0.753472,0.314272,-0.183488,2.03875,-2.45,21.27125,-16.048,-9.312,-17.608002,inter_set_rest,5,3.0,18405.0,137582.0,223985.0,275274.0,259610.0
2026-04-08 21:42:52.245791,162772,1609503744491291,1344457896,0.769088,0.261568,-0.08784,3.50875,-2.14375,25.5675,-18.096,-8.872001,-16.864,inter_set_rest,5,3.0,18405.0,137582.0,223985.0,275274.0,259610.0
2026-04-08 21:42:52.255656,162773,1609503744500189,1344466549,0.769088,0.261568,-0.08784,4.025,-2.61625,27.58875,-16.416,-8.872001,-16.864,inter_set_rest,5,3.0,18405.0,137582.0,223985.0,275274.0,259610.0
2026-04-08 21:42:52.282968,162784,1609503744509715,1344475294,0.769088,0.261568,-0.08784,4.2875,-3.5525,27.3,-16.416,-8.872001,-16.864,inter_set_rest,5,3.0,18420.0,137761.0,224326.0,275627.0,259858.0
2026-04-08 21:42:52.284458,162785,1609503744524748,1344490293,0.81984,0.218624,-0.150304,6.2125,-3.64,27.125,-16.44,-8.872001,-15.256001,inter_set_rest,5,3.0,18420.0,137761.0,224326.0,275627.0,259858.0
2026-04-08 21:42:52.289861,162786,1609503744534174,1344501080,0.872544,0.259616,-0.062464,9.5725,-3.63125,27.5275,-16.448,-8.504001,-16.592001,inter_set_rest,5,3.0,18420.0,137761.0,224326.0,275627.0,259858.0
2026-04-08 21:42:52.318453,162787,1609503744543183,1344509760,0.872544,0.259616,-0.062464,9.86125,-2.26625,27.6325,-16.448,-8.504001,-16.592001,inter_set_rest,5,3.0,18420.0,137761.0,224326.0,275627.0,259858.0
2026-04-08 21:42:52.322106,162788,1609503744557673,1344524623,0.886208,0.226432,-0.115168,11.095,0.77875,27.83375,-16.648,-8.424001,-17.464,inter_set_rest,5,3.0,18420.0,137761.0,224326.0,275627.0,259858.0
2026-04-08 21:42:52.324446,162789,1609503744566571,1344533271,0.886208,0.226432,-0.115168,11.48875,2.94875,30.02125,-16.648,-8.424001,-17.464,inter_set_rest,5,3.0,18420.0,137761.0,224326.0,275627.0,259858.0
2026-04-08 21:42:52.355182,162790,1609503744581053,1344548135,0.817888,0.257664,-0.144448,5.50375,3.9375,32.9875,-16.448,-8.480001,-17.632,inter_set_rest,5,3.0,18420.0,137761.0,224326.0,275627.0,259858.0
2026-04-08 21:42:52.358357,162791,1609503744589964,1344556785,0.817888,0.257664,-0.144448,0.105,3.91125,32.8825,-16.448,-8.480001,-17.632,inter_set_rest,5,3.0,18420.0,137761.0,224326.0,275627.0,259858.0
2026-04-08 21:42:52.360743,162792,1609503744604441,1344569607,0.86864,0.199104,-0.031232,1.65375,4.235,32.89125,-16.776001,-8.376,-17.904001,inter_set_rest,5,3.0,18420.0,137761.0,224326.0,275627.0,259858.0
2026-04-08 21:42:52.390764,162803,1609503744613778,1344580694,0.882304,0.173728,-0.130784,3.2725,4.48,35.81375,-17.480001,-8.160001,-17.08,inter_set_rest,5,3.0,18458.0,137983.0,224720.0,276030.0,260156.0
2026-04-08 21:42:52.393269,162804,1609503744622817,1344589368,0.882304,0.173728,-0.130784,4.2525,5.32,38.35125,-17.480001,-8.160001,-17.08,inter_set_rest,5,3.0,18458.0,137983.0,224720.0,276030.0,260156.0
2026-04-08 21:42:52.395792,162805,1609503744637378,1344604326,0.944768,0.169824,-0.076128,3.535,7.525,39.17375,-17.568,-7.712,-16.104,inter_set_rest,5,3.0,18458.0,137983.0,224720.0,276030.0,260156.0
2026-04-08 21:42:52.400758,162806,1609503744646309,1344613036,0.944768,0.169824,-0.076128,0.945,11.22625,39.4625,-17.568,-7.712,-16.104,inter_set_rest,5,3.0,18458.0,137983.0,224720.0,276030.0,260156.0
2026-04-08 21:42:52.468410,162807,1609503744660812,1344627938,0.833504,0.187392,-0.140544,-0.07875,15.07625,41.06375,-17.752,-7.664001,-17.104,inter_set_rest,5,3.0,18458.0,137983.0,224720.0,276030.0,260156.0
2026-04-08 21:42:52.472057,162808,1609503744669714,1344636608,0.833504,0.187392,-0.140544,-1.8025,17.6925,45.325,-17.752,-7.664001,-17.104,inter_set_rest,5,3.0,18458.0,137983.0,224720.0,276030.0,260156.0
2026-04-08 21:42:52.474486,162809,1609503744678624,1344645272,0.903776,0.0976,0.07808,-6.8425,18.34875,49.02625,-18.128,-7.336,-16.616001,inter_set_rest,5,3.0,18458.0,137983.0,224720.0,276030.0,260156.0
2026-04-08 21:42:52.477049,162810,1609503744693175,1344660157,0.802272,0.103456,0.113216,-11.4975,15.5925,48.58,-18.224,-7.016,-16.216002,inter_set_rest,5,3.0,18458.0,137983.0,224720.0,276030.0,260156.0
2026-04-08 21:42:52.479462,162811,1609503744702106,1344668837,0.802272,0.103456,0.113216,-15.30375,13.20375,46.9875,-18.224,-7.016,-16.216002,inter_set_rest,5,3.0,18458.0,137983.0,224720.0,276030.0,260156.0
2026-04-08 21:42:52.507027,162822,1609503744716706,1344683770,0.767136,0.056608,0.130784,-5.7925,12.1625,47.39875,-18.328001,-7.216001,-16.552,inter_set_rest,5,3.0,18280.0,137747.0,224795.0,276465.0,260740.0
2026-04-08 21:42:52.510493,162823,1609503744725615,1344692440,0.767136,0.056608,0.130784,3.5175,9.63375,53.75125,-18.328001,-7.216001,-16.552,inter_set_rest,5,3.0,18280.0,137747.0,224795.0,276465.0,260740.0
2026-04-08 21:42:52.513353,162824,1609503744740104,1344705270,0.6832,0.076128,0.031232,0.00875,5.55625,59.75375,-18.864,-6.352,-15.656001,inter_set_rest,5,3.0,18280.0,137747.0,224795.0,276465.0,260740.0
2026-04-08 21:42:52.514471,162825,1609503744749429,1344716041,0.6832,0.076128,0.031232,-3.745,3.70125,59.35125,-18.864,-6.352,-15.656001,inter_set_rest,5,3.0,18280.0,137747.0,224795.0,276465.0,260740.0
2026-04-08 21:42:52.516962,162826,1609503744758410,1344724774,0.67344,0.02928,-0.027328,-7.945,2.87875,56.735,-19.432001,-6.424,-16.176,inter_set_rest,5,3.0,18280.0,137747.0,224795.0,276465.0,260740.0
2026-04-08 21:42:52.547205,162827,1609503744772895,1344739650,0.720288,-0.054656,0.144448,-13.55375,2.275,53.85625,-19.432001,-6.424,-15.696001,inter_set_rest,5,3.0,18280.0,137747.0,224795.0,276465.0,260740.0
2026-04-08 21:42:52.550785,162828,1609503744781805,1344748299,0.718336,-0.054656,0.144448,-13.055,2.09125,49.37625,-19.464,-5.928001,-15.696001,inter_set_rest,5,3.0,18280.0,137747.0,224795.0,276465.0,260740.0
2026-04-08 21:42:52.553223,162829,1609503744796295,1344763145,0.685152,-0.12688,-0.054656,-5.22375,3.66625,42.72625,-19.68,-5.952,-16.176,inter_set_rest,5,3.0,18280.0,137747.0,224795.0,276465.0,260740.0
2026-04-08 21:42:52.558363,162830,1609503744805252,1344771884,0.685152,-0.12688,-0.054656,0.14875,3.9025,39.2875,-19.68,-5.952,-16.176,inter_set_rest,5,3.0,18280.0,137747.0,224795.0,276465.0,260740.0
2026-04-08 21:42:52.588171,162841,1609503744814246,1344780633,0.853024,-0.109312,-0.232288,6.2125,5.45125,38.98125,-20.264002,-5.792,-15.944001,inter_set_rest,5,3.0,18420.0,138278.0,225487.0,276903.0,260938.0
2026-04-08 21:42:52.591202,162842,1609503744828759,1344795563,0.853024,-0.109312,-0.232288,9.59875,8.00625,37.54625,-20.264002,-5.792,-15.944001,inter_set_rest,5,3.0,18420.0,138278.0,225487.0,276903.0,260938.0
2026-04-08 21:42:52.593708,162843,1609503744837736,1344804275,0.911584,-0.003904,-0.240096,9.93125,10.01,34.30875,-20.448002,-5.864,-15.52,inter_set_rest,5,3.0,18420.0,138278.0,225487.0,276903.0,260938.0
2026-04-08 21:42:52.623416,162844,1609503744852193,1344819151,0.911584,-0.003904,-0.240096,10.386251,12.43375,32.85625,-20.448002,-5.864,-15.52,inter_set_rest,5,3.0,18420.0,138278.0,225487.0,276903.0,260938.0
2026-04-08 21:42:52.626909,162845,1609503744861098,1344827804,1.007232,-0.089792,-0.06832,14.20125,16.31875,35.8225,-20.848001,-5.272,-14.952001,inter_set_rest,5,3.0,18420.0,138278.0,225487.0,276903.0,260938.0
2026-04-08 21:42:52.630653,162846,1609503744875554,1344842660,1.251232,-0.1464,-0.130784,15.89875,19.17125,44.77375,-21.336,-4.824,-15.52,inter_set_rest,5,3.0,18420.0,138278.0,225487.0,276903.0,260938.0
2026-04-08 21:42:52.660933,162847,1609503744884517,1344851354,1.251232,-0.1464,-0.130784,13.74625,17.0625,50.53125,-21.336,-4.824,-15.52,inter_set_rest,5,3.0,18420.0,138278.0,225487.0,276903.0,260938.0
2026-04-08 21:42:52.664485,162848,1609503744893438,1344860053,1.251232,-0.138592,-0.11712,7.11375,15.26875,50.785,-21.336,-4.824,-15.52,inter_set_rest,5,3.0,18420.0,138278.0,225487.0,276903.0,260938.0
2026-04-08 21:42:52.691978,162859,1609503744907924,1344874936,1.339072,-0.138592,-0.11712,2.23125,14.56,51.205,-21.368002,-4.848,-15.088,inter_set_rest,5,3.0,19109.0,140241.0,227459.0,278052.0,261334.0
2026-04-08 21:42:52.694563,162860,1609503744916874,1344883687,1.34688,-0.10736,0.101504,7.0875,13.93,56.04375,-21.608002,-4.448,-14.920001,inter_set_rest,5,3.0,19109.0,140241.0,227459.0,278052.0,261334.0
2026-04-08 21:42:52.697017,162861,1609503744931366,1344896557,1.34688,-0.10736,0.101504,17.255,13.79,65.975,-21.608002,-4.448,-14.920001,inter_set_rest,5,3.0,19109.0,140241.0,227459.0,278052.0,261334.0
2026-04-08 21:42:52.699452,162862,1609503744940648,1344907344,1.22976,-0.11712,-0.171776,26.6875,14.35875,76.090004,-22.320002,-3.424,-12.432,inter_set_rest,5,3.0,19109.0,140241.0,227459.0,278052.0,261334.0
2026-04-08 21:42:52.752180,162863,1609503744955170,1344922249,1.196576,-0.162016,-0.197152,28.09625,12.88875,83.43125,-22.76,-2.344,-13.448001,inter_set_rest,5,3.0,19109.0,140241.0,227459.0,278052.0,261334.0
2026-04-08 21:42:52.758254,162864,1609503744964131,1344930933,1.196576,-0.162016,-0.197152,26.69625,10.54375,86.625,-22.76,-2.344,-13.448001,inter_set_rest,5,3.0,19109.0,140241.0,227459.0,278052.0,261334.0
2026-04-08 21:42:52.760678,162865,1609503744973068,1344939622,1.196576,-0.162016,-0.197152,23.5725,7.65625,90.615,-22.76,-2.344,-13.448001,inter_set_rest,5,3.0,19109.0,140241.0,227459.0,278052.0,261334.0
2026-04-08 21:42:52.763235,162866,1609503744987539,1344954472,1.10288,-0.201056,-0.16592,28.2975,5.59125,96.285,-22.512001,-1.656,-16.288,inter_set_rest,5,3.0,19109.0,140241.0,227459.0,278052.0,261334.0
2026-04-08 21:42:52.765636,162867,1609503744996464,1344963120,1.179008,-0.210816,-0.113216,25.62,2.47625,105.7875,-22.920002,-1.104,-14.592001,inter_set_rest,5,3.0,19109.0,140241.0,227459.0,278052.0,261334.0
2026-04-08 21:42:52.793213,162878,1609503745011397,1344978023,1.179008,-0.210816,-0.113216,15.33875,-1.54,116.1825,-22.920002,-1.104,-14.592001,inter_set_rest,5,3.0,18750.0,139557.0,227198.0,278387.0,261901.0
2026-04-08 21:42:52.795715,162879,1609503745020391,1344986745,1.143872,-0.208864,-0.023424,3.52625,-4.54125,121.66,-23.104002,0.36,-13.6,inter_set_rest,5,3.0,18750.0,139557.0,227198.0,278387.0,261901.0
2026-04-08 21:42:52.798180,162880,1609503745029414,1344995417,1.143872,-0.208864,-0.023424,-0.77875,-4.515,124.81875,-23.104002,0.36,-13.6,inter_set_rest,5,3.0,18750.0,139557.0,227198.0,278387.0,261901.0
2026-04-08 21:42:52.804467,162881,1609503745043908,1345010300,1.007232,-0.261568,-0.050752,0.16625,-3.17625,123.83875,-23.064001,1.24,-13.8,inter_set_rest,5,3.0,18750.0,139557.0,227198.0,278387.0,261901.0
2026-04-08 21:42:52.806928,162882,1609503745052880,1345019026,1.007232,-0.261568,-0.050752,3.21125,-1.47875,116.935,-23.064001,1.24,-13.8,inter_set_rest,5,3.0,18750.0,139557.0,227198.0,278387.0,261901.0
2026-04-08 21:42:52.820741,162883,1609503745067354,1345033930,0.960384,-0.384544,-0.218624,13.0725,1.72375,110.34625,-23.320002,2.336,-12.616,inter_set_rest,5,3.0,18750.0,139557.0,227198.0,278387.0,261901.0
2026-04-08 21:42:52.850896,162884,1609503745076271,1345042598,0.91744,-0.294752,-0.187392,26.4075,2.82625,108.85,-23.448002,3.28,-13.336,inter_set_rest,5,3.0,18750.0,139557.0,227198.0,278387.0,261901.0
2026-04-08 21:42:52.854431,162885,1609503745090755,1345057470,0.91744,-0.294752,-0.187392,37.31875,2.63375,108.9375,-23.448002,3.28,-13.336,inter_set_rest,5,3.0,18750.0,139557.0,227198.0,278387.0,261901.0
2026-04-08 21:42:52.856947,162886,1609503745099651,1345066116,0.88816,-0.226432,-0.035136,45.6225,3.08875,107.23125,-23.416,4.232,-14.360001,inter_set_rest,5,3.0,18750.0,139557.0,227198.0,278387.0,261901.0
2026-04-08 21:42:52.886971,162897,1609503745108606,1345075201,0.88816,-0.226432,-0.035136,48.22125,2.03875,104.090004,-23.416,4.232,-14.360001,inter_set_rest,5,3.0,18298.0,137873.0,225128.0,277004.0,261235.0
2026-04-08 21:42:52.889438,162898,1609503745123173,1345090202,0.899872,-0.2928,0.021472,44.9575,-0.035,100.00375,-23.6,5.496,-14.176001,inter_set_rest,5,3.0,18298.0,137873.0,225128.0,277004.0,261235.0
2026-04-08 21:42:52.893471,162899,1609503745132091,1345098932,0.899872,-0.2928,0.021472,37.10875,-2.345,97.0725,-23.6,5.496,-14.176001,inter_set_rest,5,3.0,18298.0,137873.0,225128.0,277004.0,261235.0
2026-04-08 21:42:52.922192,162900,1609503745146582,1345111765,0.895968,-0.314272,-0.044896,30.380001,-3.78,95.48,-23.240002,6.048,-14.104001,inter_set_rest,5,3.0,18298.0,137873.0,225128.0,277004.0,261235.0
2026-04-08 21:42:52.925716,162901,1609503745155798,1345122482,0.921344,-0.38064,-0.154208,26.18875,-3.92875,94.9725,-23.144001,7.032001,-13.416,inter_set_rest,5,3.0,18298.0,137873.0,225128.0,277004.0,261235.0
2026-04-08 21:42:52.928249,162902,1609503745170265,1345137375,0.921344,-0.38064,-0.154208,16.52,-5.90625,96.8975,-23.144001,7.032001,-13.416,inter_set_rest,5,3.0,18298.0,137873.0,225128.0,277004.0,261235.0
2026-04-08 21:42:52.933263,162903,1609503745179174,1345146036,0.89792,-0.388448,-0.00976,6.335,-7.5075,98.07875,-23.320002,7.864,-13.896001,inter_set_rest,5,3.0,18298.0,137873.0,225128.0,277004.0,261235.0
2026-04-08 21:42:52.963330,162904,1609503745188165,1345154692,0.89792,-0.388448,-0.00976,2.59,-10.40375,98.70875,-23.320002,7.864,-13.896001,inter_set_rest,5,3.0,18298.0,137873.0,225128.0,277004.0,261235.0
2026-04-08 21:42:52.966977,162905,1609503745202617,1345169537,0.870592,-0.3904,-0.07808,10.52625,-11.515,95.80375,-23.432001,8.84,-14.472001,inter_set_rest,5,3.0,18298.0,137873.0,225128.0,277004.0,261235.0
2026-04-08 21:42:52.994407,162916,1609503745211694,1345178237,0.870592,-0.3904,-0.07808,26.52125,-7.70875,90.23,-23.432001,8.84,-14.472001,inter_set_rest,5,3.0,18047.0,137066.0,224269.0,276330.0,260829.0
2026-04-08 21:42:52.996983,162917,1609503745226289,1345193208,0.913536,-0.456768,-0.017568,36.63625,-5.11,83.97375,-23.176,9.472,-13.608001,inter_set_rest,5,3.0,18047.0,137066.0,224269.0,276330.0,260829.0
2026-04-08 21:42:52.999632,162918,1609503745235278,1345201897,0.913536,-0.456768,-0.017568,37.345,-3.19375,77.7175,-23.176,9.472,-13.608001,inter_set_rest,5,3.0,18047.0,137066.0,224269.0,276330.0,260829.0
2026-04-08 21:42:53.005646,162919,1609503745249768,1345216793,0.952576,-0.46848,-0.042944,33.60875,-2.8,73.64,-23.056002,10.304001,-13.200001,inter_set_rest,5,3.0,18047.0,137066.0,224269.0,276330.0,260829.0
2026-04-08 21:42:53.045907,162920,1609503745258680,1345225527,0.88816,-0.445056,-0.20496,25.935,-5.5825,70.2625,-23.056002,10.84,-13.688001,inter_set_rest,5,3.0,18047.0,137066.0,224269.0,276330.0,260829.0
2026-04-08 21:42:53.049393,162921,1609503745267633,1345234208,0.88816,-0.445056,-0.20496,21.98,-6.39625,65.7125,-23.056002,10.84,-13.688001,inter_set_rest,5,3.0,18047.0,137066.0,224269.0,276330.0,260829.0
2026-04-08 21:42:53.051943,162922,1609503745282087,1345249064,0.923296,-0.411872,0.037088,21.37625,-7.35,61.670002,-22.808,11.696,-14.016001,inter_set_rest,5,3.0,18047.0,137066.0,224269.0,276330.0,260829.0
2026-04-08 21:42:53.054442,162923,1609503745290993,1345257712,0.923296,-0.411872,0.037088,27.475,-7.7525,57.575,-22.808,11.696,-14.016001,inter_set_rest,5,3.0,18047.0,137066.0,224269.0,276330.0,260829.0
2026-04-08 21:42:53.059445,162924,1609503745305523,1345272611,0.899872,-0.415776,0.056608,36.19875,-7.42875,51.98375,-22.776001,12.096001,-13.352,inter_set_rest,5,3.0,18047.0,137066.0,224269.0,276330.0,260829.0
2026-04-08 21:42:53.090639,162935,1609503745314709,1345281366,0.899872,-0.415776,0.056608,38.29875,-8.04125,46.59375,-22.776001,12.096001,-13.352,inter_set_rest,5,3.0,17961.0,136749.0,223888.0,276068.0,260673.0
2026-04-08 21:42:53.093230,162936,1609503745323717,1345290131,0.80032,-0.417728,0.033184,33.232502,-8.8375,43.1725,-22.576,12.584001,-12.032001,inter_set_rest,5,3.0,17961.0,136749.0,223888.0,276068.0,260673.0
2026-04-08 21:42:53.095766,162937,1609503745338297,1345305142,0.823744,-0.433344,0.134688,24.82375,-10.535,42.41125,-22.872002,13.208,-12.880001,inter_set_rest,5,3.0,17961.0,136749.0,223888.0,276068.0,260673.0
2026-04-08 21:42:53.100706,162938,1609503745347227,1345313823,0.823744,-0.433344,0.134688,14.9625,-12.90625,42.8925,-22.872002,13.208,-12.880001,inter_set_rest,5,3.0,17961.0,136749.0,223888.0,276068.0,260673.0
2026-04-08 21:42:53.132125,162939,1609503745361706,1345328702,0.743712,-0.423584,0.02928,12.6875,-14.02625,40.2675,-22.624,13.392,-12.76,inter_set_rest,5,3.0,17961.0,136749.0,223888.0,276068.0,260673.0
2026-04-08 21:42:53.135708,162940,1609503745370598,1345337369,0.743712,-0.423584,0.02928,18.41875,-15.21625,36.7675,-22.624,13.392,-12.76,inter_set_rest,5,3.0,17961.0,136749.0,223888.0,276068.0,260673.0
2026-04-08 21:42:53.140700,162941,1609503745385088,1345352207,0.700768,-0.456768,-0.044896,24.0975,-16.35375,32.85625,-22.800001,13.688001,-13.448001,inter_set_rest,5,3.0,17961.0,136749.0,223888.0,276068.0,260673.0
2026-04-08 21:42:53.146997,162942,1609503745394019,1345360904,0.700768,-0.456768,-0.044896,27.39625,-16.80875,27.8775,-22.800001,13.688001,-13.448001,inter_set_rest,5,3.0,17961.0,136749.0,223888.0,276068.0,260673.0
2026-04-08 21:42:53.177145,162943,1609503745402948,1345369593,0.767136,-0.52704,0.074176,25.4625,-16.42375,23.0825,-22.36,14.000001,-13.352,inter_set_rest,5,3.0,17961.0,136749.0,223888.0,276068.0,260673.0
2026-04-08 21:42:53.205722,162954,1609503745417537,1345384563,0.747616,-0.47824,0.052704,22.60125,-15.846251,19.29375,-22.816002,14.256001,-12.048,inter_set_rest,5,3.0,17745.0,135946.0,222941.0,275382.0,260329.0
2026-04-08 21:42:53.208433,162955,1609503745426491,1345393219,0.747616,-0.47824,0.052704,20.02875,-15.155,15.60125,-22.816002,14.256001,-12.048,inter_set_rest,5,3.0,17745.0,135946.0,222941.0,275382.0,260329.0
2026-04-08 21:42:53.210702,162956,1609503745441000,1345408163,0.689056,-0.462624,-0.025376,17.68375,-15.25125,11.87375,-22.584002,14.76,-11.84,inter_set_rest,5,3.0,17745.0,135946.0,222941.0,275382.0,260329.0
2026-04-08 21:42:53.213591,162957,1609503745449969,1345416844,0.689056,-0.462624,-0.025376,16.59,-14.875,9.1,-22.584002,14.76,-11.84,inter_set_rest,5,3.0,17745.0,135946.0,222941.0,275382.0,260329.0
2026-04-08 21:42:53.217016,162958,1609503745464455,1345429725,0.671488,-0.519232,-0.095648,15.6975,-14.60375,7.51625,-22.944,14.960001,-11.464001,inter_set_rest,5,3.0,17745.0,135946.0,222941.0,275382.0,260329.0
2026-04-08 21:42:53.247197,162959,1609503745473784,1345440459,0.671488,-0.519232,-0.095648,13.5975,-15.4875,7.42875,-22.944,14.960001,-11.464001,inter_set_rest,5,3.0,17745.0,135946.0,222941.0,275382.0,260329.0
2026-04-08 21:42:53.250720,162960,1609503745482722,1345449174,0.696864,-0.503616,0.074176,12.1975,-16.45875,5.73125,-22.864,14.336,-13.856001,inter_set_rest,5,3.0,17745.0,135946.0,222941.0,275382.0,260329.0
2026-04-08 21:42:53.253209,162961,1609503745497197,1345464016,0.696864,-0.503616,0.02928,9.905,-16.96625,1.95125,-22.864,14.336,-13.856001,inter_set_rest,5,3.0,17745.0,135946.0,222941.0,275382.0,260329.0
2026-04-08 21:42:53.259471,162962,1609503745506194,1345472686,0.714432,-0.534848,0.02928,7.44625,-17.78,-0.06125,-22.904001,14.400001,-15.376,inter_set_rest,5,3.0,17745.0,135946.0,222941.0,275382.0,260329.0
2026-04-08 21:42:53.289528,162973,1609503745521249,1345487860,0.76128,-0.583648,-0.05856,8.5575,-18.5325,1.04125,-22.960001,14.848001,-13.352,inter_set_rest,5,3.0,17714.0,135763.0,222643.0,275204.0,260232.0
2026-04-08 21:42:53.295821,162974,1609503745530213,1345496537,0.76128,-0.583648,-0.05856,11.042501,-19.60875,2.17,-22.960001,14.848001,-13.352,inter_set_rest,5,3.0,17714.0,135763.0,222643.0,275204.0,260232.0
2026-04-08 21:42:53.298195,162975,1609503745539168,1345505285,0.747616,-0.583648,0.005856,15.2425,-19.81875,0.55125,-23.232,14.872001,-12.152,inter_set_rest,5,3.0,17714.0,135763.0,222643.0,275204.0,260232.0
2026-04-08 21:42:53.347252,162976,1609503745553645,1345520228,0.747616,-0.583648,0.005856,18.655,-20.06375,-3.56125,-23.232,14.872001,-12.152,inter_set_rest,5,3.0,17714.0,135763.0,222643.0,275204.0,260232.0
2026-04-08 21:42:53.350752,162977,1609503745562550,1345528916,0.75152,-0.581696,0.005856,17.45625,-20.1075,-5.74,-23.216002,14.800001,-14.136001,inter_set_rest,5,3.0,17714.0,135763.0,222643.0,275204.0,260232.0
2026-04-08 21:42:53.353225,162978,1609503745576985,1345543782,0.75152,-0.581696,0.005856,15.68875,-19.04,-7.0,-23.216002,14.800001,-14.136001,inter_set_rest,5,3.0,17714.0,135763.0,222643.0,275204.0,260232.0
2026-04-08 21:42:53.355751,162979,1609503745586022,1345552479,0.894016,-0.49776,0.080032,15.32125,-16.86125,-8.30375,-23.992,14.800001,-13.880001,inter_set_rest,5,3.0,17714.0,135763.0,222643.0,275204.0,260232.0
2026-04-08 21:42:53.361989,162980,1609503745600498,1345567318,0.88816,-0.495808,0.085888,19.3025,-13.895,-12.36375,-23.528002,14.56,-13.736001,inter_set_rest,5,3.0,17714.0,135763.0,222643.0,275204.0,260232.0
2026-04-08 21:42:53.364509,162981,1609503745609412,1345575985,0.88816,-0.495808,0.085888,22.77625,-9.19625,-15.0675,-23.528002,14.56,-13.736001,inter_set_rest,5,3.0,17714.0,135763.0,222643.0,275204.0,260232.0
2026-04-08 21:42:53.392510,162992,1609503745618408,1345584735,0.88816,-0.661728,-0.015616,20.22125,-5.88875,-13.50125,-23.528002,14.56,-11.688001,inter_set_rest,5,3.0,17688.0,135631.0,222486.0,275112.0,260177.0
2026-04-08 21:42:53.395296,162993,1609503745632913,1345599709,0.737856,-0.661728,-0.015616,13.877501,-7.65625,-9.3275,-23.984001,14.696001,-10.296001,inter_set_rest,5,3.0,17688.0,135631.0,222486.0,275112.0,260177.0
2026-04-08 21:42:53.397394,162994,1609503745641847,1345608385,1.042368,-0.714432,0.06832,3.29,-13.62375,0.25375,-24.304,15.312,-11.84,inter_set_rest,5,3.0,17688.0,135631.0,222486.0,275112.0,260177.0
2026-04-08 21:42:53.427228,162995,1609503745656426,1345623227,1.042368,-0.714432,0.06832,-1.19,-18.7075,8.785,-24.304,15.312,-11.84,inter_set_rest,5,3.0,17688.0,135631.0,222486.0,275112.0,260177.0
2026-04-08 21:42:53.430786,162996,1609503745665363,1345631905,1.28832,-0.542656,-0.023424,19.2325,-13.5975,7.1575,-24.336,15.352001,-12.704,inter_set_rest,5,3.0,17688.0,135631.0,222486.0,275112.0,260177.0
2026-04-08 21:42:53.433210,162997,1609503745679842,1345646783,0.650016,-0.603168,0.113216,55.1775,-8.9075,-5.355,-23.960001,15.224001,-15.656001,inter_set_rest,5,3.0,17688.0,135631.0,222486.0,275112.0,260177.0
2026-04-08 21:42:53.463441,162998,1609503745688839,1345655467,0.650016,-0.603168,0.113216,69.44875,-2.17875,-10.57,-23.960001,15.224001,-15.656001,inter_set_rest,5,3.0,17688.0,135631.0,222486.0,275112.0,260177.0
2026-04-08 21:42:53.466986,162999,1609503745697807,1345664136,0.650016,-0.603168,0.113216,65.16125,-1.9775,-8.5925,-23.960001,15.224001,-15.656001,inter_set_rest,5,3.0,17688.0,135631.0,222486.0,275112.0,260177.0
2026-04-08 21:42:53.494545,163010,1609503745712275,1345678901,0.17568,-0.534848,0.132736,50.65375,-8.855001,0.76125,-23.880001,16.016,-12.904,inter_set_rest,5,3.0,17126.0,133475.0,219778.0,273275.0,259251.0
2026-04-08 21:42:53.497027,163011,1609503745721744,1345687682,0.316224,-0.452864,0.003904,42.07,-13.06375,8.68,-23.952002,15.712001,-12.096001,inter_set_rest,5,3.0,17126.0,133475.0,219778.0,273275.0,259251.0
2026-04-08 21:42:53.499430,163012,1609503745736262,1345702659,0.316224,-0.452864,0.003904,37.4675,-18.27875,-0.13125,-23.952002,15.712001,-12.096001,inter_set_rest,5,3.0,17126.0,133475.0,219778.0,273275.0,259251.0
2026-04-08 21:42:53.504506,163013,1609503745745269,1345711366,0.698816,-0.609024,-0.12688,28.735,-24.535,-18.725,-24.064001,15.656001,-13.008,inter_set_rest,5,3.0,17126.0,133475.0,219778.0,273275.0,259251.0
2026-04-08 21:42:53.507008,163014,1609503745754184,1345720080,0.698816,-0.609024,-0.12688,24.57875,-28.525,-31.2375,-24.064001,15.656001,-13.008,inter_set_rest,5,3.0,17126.0,133475.0,219778.0,273275.0,259251.0
2026-04-08 21:42:53.537261,163015,1609503745768675,1345735002,1.056032,-0.622688,-0.042944,24.710001,-30.1175,-30.94875,-24.104002,15.488001,-13.824,inter_set_rest,5,3.0,17126.0,133475.0,219778.0,273275.0,259251.0
2026-04-08 21:42:53.541087,163016,1609503745777609,1345743672,1.056032,-0.622688,-0.042944,36.67125,-31.31625,-27.195,-24.104002,15.488001,-13.824,inter_set_rest,5,3.0,17126.0,133475.0,219778.0,273275.0,259251.0
2026-04-08 21:42:53.546067,163017,1609503745792082,1345758551,1.007232,-0.579744,-0.072224,53.6025,-30.82625,-25.865,-24.576,15.480001,-13.240001,inter_set_rest,5,3.0,17126.0,133475.0,219778.0,273275.0,259251.0
2026-04-08 21:42:53.576040,163018,1609503745801025,1345767213,0.657824,-0.55632,0.003904,68.11875,-28.90125,-25.147501,-24.416,15.888001,-13.008,inter_set_rest,5,3.0,17126.0,133475.0,219778.0,273275.0,259251.0
2026-04-08 21:42:53.604496,163029,1609503745815768,1345782134,0.657824,-0.55632,0.003904,78.61,-28.035,-26.022501,-24.416,15.888001,-13.008,inter_set_rest,5,3.0,17532.0,134772.0,221227.0,274194.0,259683.0
2026-04-08 21:42:53.607063,163030,1609503745824824,1345790833,0.609024,-0.482144,0.16592,80.43,-30.33625,-26.87125,-24.496,15.400001,-13.080001,inter_set_rest,5,3.0,17532.0,134772.0,221227.0,274194.0,259683.0
2026-04-08 21:42:53.609447,163031,1609503745833775,1345799508,0.609024,-0.482144,0.16592,72.12625,-32.62,-27.72875,-24.496,15.400001,-13.080001,inter_set_rest,5,3.0,17532.0,134772.0,221227.0,274194.0,259683.0
2026-04-08 21:42:53.612042,163032,1609503745848355,1345814477,0.806176,-0.406016,0.013664,60.75125,-37.56375,-29.53125,-24.504002,15.296001,-13.56,inter_set_rest,5,3.0,17532.0,134772.0,221227.0,274194.0,259683.0
2026-04-08 21:42:53.614542,163033,1609503745857345,1345823219,0.806176,-0.406016,0.013664,49.93625,-40.9675,-28.70875,-24.504002,15.296001,-13.56,inter_set_rest,5,3.0,17532.0,134772.0,221227.0,274194.0,259683.0
2026-04-08 21:42:53.650938,163034,1609503745871855,1345838089,0.938912,-0.482144,-0.037088,41.5625,-41.3,-24.675,-24.664001,15.688001,-13.288001,inter_set_rest,5,3.0,17532.0,134772.0,221227.0,274194.0,259683.0
2026-04-08 21:42:53.654457,163035,1609503745880744,1345846740,0.9272,-0.57584,0.187392,38.19375,-38.325,-19.285,-24.424002,15.296001,-14.136001,inter_set_rest,5,3.0,17532.0,134772.0,221227.0,274194.0,259683.0
2026-04-08 21:42:53.657009,163036,1609503745889651,1345855423,0.9272,-0.57584,0.187392,42.34125,-33.34625,-18.13,-24.424002,15.296001,-14.136001,inter_set_rest,5,3.0,17532.0,134772.0,221227.0,274194.0,259683.0
2026-04-08 21:42:53.659569,163037,1609503745904141,1345870304,0.74176,-0.569984,0.101504,50.12,-26.39,-18.585001,-24.840002,15.352001,-13.448001,inter_set_rest,5,3.0,17532.0,134772.0,221227.0,274194.0,259683.0
2026-04-08 21:42:53.725767,163048,1609503745913077,1345879364,0.74176,-0.569984,0.101504,44.31875,-22.2425,-14.95375,-24.840002,15.352001,-13.448001,inter_set_rest,5,3.0,17507.0,134533.0,220732.0,273778.0,259449.0
2026-04-08 21:42:53.728254,163049,1609503745927696,1345894292,0.753472,-0.493856,0.226432,28.4375,-19.06625,-13.125,-24.336,15.56,-13.192,inter_set_rest,5,3.0,17507.0,134533.0,220732.0,273778.0,259449.0
2026-04-08 21:42:53.730713,163050,1609503745936676,1345902968,0.753472,-0.493856,0.226432,17.24625,-15.2775,-13.48375,-24.336,15.56,-13.192,inter_set_rest,5,3.0,17507.0,134533.0,220732.0,273778.0,259449.0
2026-04-08 21:42:53.733199,163051,1609503745951195,1345917816,0.866688,-0.548512,0.183488,9.292501,-10.64,-10.24625,-24.776001,15.488001,-13.68,inter_set_rest,5,3.0,17507.0,134533.0,220732.0,273778.0,259449.0
2026-04-08 21:42:53.735674,163052,1609503745960093,1345926564,0.866688,-0.548512,0.183488,3.10625,-5.0925,-3.89375,-24.776001,15.488001,-13.68,inter_set_rest,5,3.0,17507.0,134533.0,220732.0,273778.0,259449.0
2026-04-08 21:42:53.738197,163053,1609503745968985,1345935214,0.872544,-0.589504,0.212768,-1.785,-0.16625,1.14625,-24.472002,15.496,-13.584001,inter_set_rest,5,3.0,17507.0,134533.0,220732.0,273778.0,259449.0
2026-04-08 21:42:53.740641,163054,1609503745983497,1345950162,0.80032,-0.577792,0.072224,-3.1325,3.01875,2.23125,-24.456001,15.472001,-13.472001,inter_set_rest,5,3.0,17507.0,134533.0,220732.0,273778.0,259449.0
2026-04-08 21:42:53.746912,163055,1609503745992469,1345958895,0.80032,-0.577792,0.072224,-0.84,4.66375,3.49125,-24.456001,15.472001,-13.472001,inter_set_rest,5,3.0,17507.0,134533.0,220732.0,273778.0,259449.0
2026-04-08 21:42:53.788431,163056,1609503746006965,1345973784,0.765184,-0.534848,0.07808,2.16125,4.24375,4.165,-24.664001,15.768001,-11.664001,inter_set_rest,5,3.0,17507.0,134533.0,220732.0,273778.0,259449.0
2026-04-08 21:42:53.805651,163067,1609503746015940,1345982568,0.765184,-0.534848,0.07808,3.92,3.43,3.08,-24.664001,15.768001,-11.664001,inter_set_rest,5,3.0,17420.0,134159.0,220243.0,273393.0,259196.0
2026-04-08 21:42:53.808206,163068,1609503746030487,1345997428,0.745664,-0.544608,0.076128,4.90875,2.47625,1.68,-24.456001,15.456,-13.384001,inter_set_rest,5,3.0,17420.0,134159.0,220243.0,273393.0,259196.0
2026-04-08 21:42:53.810648,163069,1609503746039661,1346006284,0.745664,-0.544608,0.076128,5.87125,0.95375,0.72625,-24.456001,15.456,-13.384001,inter_set_rest,5,3.0,17420.0,134159.0,220243.0,273393.0,259196.0
2026-04-08 21:42:53.813222,163070,1609503746048634,1346015037,0.739808,-0.569984,-0.02928,8.25125,-0.00875,1.155,-24.752,15.912001,-13.424001,inter_set_rest,5,3.0,17420.0,134159.0,220243.0,273393.0,259196.0
2026-04-08 21:42:53.816017,163071,1609503746063166,1346029982,0.739808,-0.554368,-0.031232,6.3525,-0.88375,3.33375,-24.52,15.624001,-13.616,inter_set_rest,5,3.0,17420.0,134159.0,220243.0,273393.0,259196.0
2026-04-08 21:42:53.846411,163072,1609503746072079,1346038682,0.739808,-0.554368,-0.031232,4.025,-1.96875,4.03375,-24.52,15.624001,-13.616,inter_set_rest,5,3.0,17420.0,134159.0,220243.0,273393.0,259196.0
2026-04-08 21:42:53.850037,163073,1609503746086562,1346053555,0.759328,-0.528992,0.109312,3.66625,-2.31875,3.5175,-24.392002,15.664001,-13.360001,inter_set_rest,5,3.0,17420.0,134159.0,220243.0,273393.0,259196.0
2026-04-08 21:42:53.852044,163074,1609503746095482,1346062230,0.759328,-0.528992,0.109312,2.3625,-1.9775,3.08,-24.392002,15.664001,-13.360001,inter_set_rest,5,3.0,17420.0,134159.0,220243.0,273393.0,259196.0
2026-04-08 21:42:53.882150,163075,1609503746109999,1346077128,0.753472,-0.542656,-0.007808,1.8025,-0.9975,3.4475,-24.04,15.616001,-13.488001,inter_set_rest,5,3.0,17420.0,134159.0,220243.0,273393.0,259196.0
2026-04-08 21:42:53.951005,163086,1609503746119163,1346085842,0.753472,-0.542656,-0.007808,1.7325,-0.1925,3.395,-24.04,15.616001,-13.488001,inter_set_rest,5,3.0,17423.0,134197.0,220256.0,273395.0,259193.0
2026-04-08 21:42:53.953268,163087,1609503746128118,1346094520,0.733952,-0.562176,-0.02928,1.18125,1.1375,3.85,-24.144001,16.096,-13.272,inter_set_rest,5,3.0,17423.0,134197.0,220256.0,273395.0,259193.0
2026-04-08 21:42:53.955677,163088,1609503746142731,1346109424,0.81008,-0.583648,0.115168,-0.20125,1.33,3.99875,-24.472002,15.984001,-12.296001,inter_set_rest,5,3.0,17423.0,134197.0,220256.0,273395.0,259193.0
2026-04-08 21:42:53.958076,163089,1609503746151738,1346118141,0.81008,-0.583648,0.115168,-1.77625,2.17875,3.22,-24.472002,15.984001,-12.296001,inter_set_rest,5,3.0,17423.0,134197.0,220256.0,273395.0,259193.0
2026-04-08 21:42:53.960691,163090,1609503746166218,1346133084,0.77104,-0.540704,0.128832,-2.93125,2.625,2.77375,-24.312,15.832001,-13.320001,inter_set_rest,5,3.0,17423.0,134197.0,220256.0,273395.0,259193.0
2026-04-08 21:42:53.963163,163091,1609503746175115,1346141741,0.77104,-0.540704,0.128832,-2.63375,3.115,1.81125,-24.312,15.832001,-13.320001,inter_set_rest,5,3.0,17423.0,134197.0,220256.0,273395.0,259193.0
2026-04-08 21:42:53.965650,163092,1609503746184018,1346150388,0.77104,-0.57584,0.091744,-0.8575,4.78625,1.19,-24.184002,16.128,-13.824,inter_set_rest,5,3.0,17423.0,134197.0,220256.0,273395.0,259193.0
2026-04-08 21:42:53.968192,163093,1609503746198500,1346165260,0.77104,-0.57584,0.091744,0.4375,6.11625,1.5925,-24.184002,16.128,-13.824,inter_set_rest,5,3.0,17423.0,134197.0,220256.0,273395.0,259193.0
2026-04-08 21:42:53.970672,163094,1609503746207460,1346173938,0.735904,-0.579744,0.017568,-0.56875,6.6675,2.70375,-24.248001,15.960001,-13.216001,inter_set_rest,5,3.0,17423.0,134197.0,220256.0,273395.0,259193.0
2026-04-08 21:42:53.998188,163105,1609503746222088,1346187338,0.735904,-0.579744,0.0488,-0.7175,7.3325,2.98375,-24.248001,15.960001,-13.216001,inter_set_rest,5,3.0,17413.0,134127.0,220119.0,273243.0,259104.0
2026-04-08 21:42:54.000625,163106,1609503746231377,1346198084,0.763232,-0.57584,0.052704,1.63625,8.417501,2.59875,-24.168001,16.28,-11.632001,inter_set_rest,5,3.0,17413.0,134127.0,220119.0,273243.0,259104.0
2026-04-08 21:42:54.003159,163107,1609503746245911,1346212944,0.7808,-0.589504,0.076128,4.9175,8.925,3.87625,-24.448002,16.2,-11.768001,inter_set_rest,5,3.0,17413.0,134127.0,220119.0,273243.0,259104.0
2026-04-08 21:42:54.009426,163108,1609503746254854,1346221645,0.7808,-0.589504,0.076128,5.18,9.1,5.005,-24.448002,16.2,-11.768001,inter_set_rest,5,3.0,17413.0,134127.0,220119.0,273243.0,259104.0
2026-04-08 21:42:54.039598,163109,1609503746263767,1346230369,0.689056,-0.5856,-0.001952,4.54125,9.03875,4.27875,-24.224,16.560001,-12.112,inter_set_rest,5,3.0,17413.0,134127.0,220119.0,273243.0,259104.0
2026-04-08 21:42:54.043212,163110,1609503746278280,1346245234,0.689056,-0.5856,-0.001952,3.08,8.47875,4.76,-24.224,16.560001,-12.112,inter_set_rest,5,3.0,17413.0,134127.0,220119.0,273243.0,259104.0
2026-04-08 21:42:54.045697,163111,1609503746287184,1346253909,0.784704,-0.593408,0.119072,2.51125,7.875,5.64375,-23.832,16.496,-12.888001,inter_set_rest,5,3.0,17413.0,134127.0,220119.0,273243.0,259104.0
2026-04-08 21:42:54.075801,163112,1609503746301684,1346268765,0.784704,-0.593408,0.119072,6.1075,8.28625,5.25,-23.832,16.496,-12.888001,inter_set_rest,5,3.0,17413.0,134127.0,220119.0,273243.0,259104.0
2026-04-08 21:42:54.079415,163113,1609503746310595,1346277513,0.691008,-0.568032,0.062464,10.78,8.96875,5.17125,-24.232,16.512001,-10.776001,inter_set_rest,5,3.0,17413.0,134127.0,220119.0,273243.0,259104.0
2026-04-08 21:42:54.106941,163124,1609503746319971,1346286287,0.691008,-0.568032,0.062464,10.61375,9.1,6.02875,-24.232,16.512001,-10.776001,inter_set_rest,5,3.0,17404.0,134008.0,219900.0,273070.0,259007.0
2026-04-08 21:42:54.109863,163125,1609503746334494,1346301199,0.757376,-0.548512,0.261568,6.7025,8.26,5.565,-23.832,16.776001,-12.896001,inter_set_rest,5,3.0,17404.0,134008.0,219900.0,273070.0,259007.0
2026-04-08 21:42:54.112111,163126,1609503746343407,1346309930,0.81984,-0.610976,0.18544,3.43875,8.12,4.26125,-23.832,16.776001,-9.328,inter_set_rest,5,3.0,17404.0,134008.0,219900.0,273070.0,259007.0
2026-04-08 21:42:54.114313,163127,1609503746357990,1346324841,0.81984,-0.610976,0.18544,5.1275,8.82875,3.87625,-24.048,16.960001,-9.328,inter_set_rest,5,3.0,17404.0,134008.0,219900.0,273070.0,259007.0
2026-04-08 21:42:54.119429,163128,1609503746366927,1346333544,0.698816,-0.626592,0.017568,8.53125,10.66625,5.5825,-24.016,17.136002,-10.144,inter_set_rest,5,3.0,17404.0,134008.0,219900.0,273070.0,259007.0
2026-04-08 21:42:54.152179,163129,1609503746381403,1346348412,0.698816,-0.626592,0.017568,11.38375,12.0575,7.86625,-24.016,17.136002,-10.144,inter_set_rest,5,3.0,17404.0,134008.0,219900.0,273070.0,259007.0
2026-04-08 21:42:54.155728,163130,1609503746390292,1346357064,0.776896,-0.59536,0.275232,13.74625,12.95875,5.985,-24.296001,16.68,-11.216001,inter_set_rest,5,3.0,17404.0,134008.0,219900.0,273070.0,259007.0
2026-04-08 21:42:54.158219,163131,1609503746399300,1346365731,0.776896,-0.59536,0.275232,13.7375,13.20375,3.78875,-24.296001,16.68,-11.216001,inter_set_rest,5,3.0,17404.0,134008.0,219900.0,273070.0,259007.0
2026-04-08 21:42:54.188435,163132,1609503746413827,1346380657,0.74176,-0.560224,0.220576,11.2175,13.8075,4.6025,-24.168001,17.048,-11.592001,inter_set_rest,5,3.0,17404.0,134008.0,219900.0,273070.0,259007.0
2026-04-08 21:42:54.250897,163143,1609503746422779,1346389325,0.74176,-0.560224,0.220576,11.6725,14.83125,6.5975,-24.168001,17.048,-11.592001,inter_set_rest,5,3.0,17412.0,133833.0,219467.0,272720.0,258804.0
2026-04-08 21:42:54.254430,163144,1609503746437237,1346404256,0.718336,-0.591456,0.236192,13.615,16.24,7.6825,-23.904001,17.624,-11.584001,inter_set_rest,5,3.0,17412.0,133833.0,219467.0,272720.0,258804.0
2026-04-08 21:42:54.256999,163145,1609503746446256,1346412958,0.776896,-0.642208,0.220576,11.480001,16.77375,9.3275,-24.240002,17.688002,-10.192,inter_set_rest,5,3.0,17412.0,133833.0,219467.0,272720.0,258804.0
2026-04-08 21:42:54.259441,163146,1609503746460819,1346427921,0.776896,-0.642208,0.220576,8.1025,16.77375,9.63375,-24.240002,17.688002,-10.192,inter_set_rest,5,3.0,17412.0,133833.0,219467.0,272720.0,258804.0
2026-04-08 21:42:54.261945,163147,1609503746469767,1346436604,0.739808,-0.640256,0.23424,5.32875,17.4125,6.88625,-23.928001,17.664001,-9.976001,inter_set_rest,5,3.0,17412.0,133833.0,219467.0,272720.0,258804.0
2026-04-08 21:42:54.264431,163148,1609503746478715,1346445267,0.739808,-0.640256,0.23424,5.45125,18.27,5.85375,-23.928001,17.664001,-9.976001,inter_set_rest,5,3.0,17412.0,133833.0,219467.0,272720.0,258804.0
2026-04-08 21:42:54.266918,163149,1609503746493184,1346460144,0.745664,-0.642208,0.15616,6.51875,18.8825,8.2425,-23.880001,17.696001,-10.896001,inter_set_rest,5,3.0,17412.0,133833.0,219467.0,272720.0,258804.0
2026-04-08 21:42:54.270287,163150,1609503746502107,1346468793,0.745664,-0.642208,0.15616,10.31625,20.09,8.26,-23.880001,17.696001,-10.896001,inter_set_rest,5,3.0,17412.0,133833.0,219467.0,272720.0,258804.0
2026-04-08 21:42:54.296923,163161,1609503746516644,1346483712,0.704672,-0.599264,0.197152,13.37875,20.79875,6.755,-23.824001,17.912,-10.440001,inter_set_rest,5,3.0,17463.0,133910.0,219383.0,272609.0,258706.0
2026-04-08 21:42:54.299429,163162,1609503746526090,1346492494,0.706624,-0.626592,0.220576,12.46,20.57125,5.985,-24.000002,17.640001,-11.848001,inter_set_rest,5,3.0,17463.0,133910.0,219383.0,272609.0,258706.0
2026-04-08 21:42:54.301983,163163,1609503746535016,1346501191,0.706624,-0.626592,0.220576,11.0775,20.0375,6.95625,-24.000002,17.640001,-11.848001,inter_set_rest,5,3.0,17463.0,133910.0,219383.0,272609.0,258706.0
2026-04-08 21:42:54.304459,163164,1609503746549529,1346516089,0.626592,-0.665632,0.201056,8.75875,19.74875,8.21625,-23.648,18.264,-9.68,inter_set_rest,5,3.0,17463.0,133910.0,219383.0,272609.0,258706.0
2026-04-08 21:42:54.334641,163165,1609503746558559,1346524794,0.626592,-0.665632,0.201056,8.75,20.125,10.7975,-23.648,18.264,-9.68,inter_set_rest,5,3.0,17463.0,133910.0,219383.0,272609.0,258706.0
2026-04-08 21:42:54.338183,163166,1609503746573072,1346539676,0.786656,-0.706624,0.275232,8.37375,18.62875,11.655,-23.880001,18.568,-9.472,inter_set_rest,5,3.0,17463.0,133910.0,219383.0,272609.0,258706.0
2026-04-08 21:42:54.340656,163167,1609503746581960,1346548340,0.786656,-0.706624,0.275232,6.44875,17.885,6.93,-23.880001,18.568,-9.472,inter_set_rest,5,3.0,17463.0,133910.0,219383.0,272609.0,258706.0
2026-04-08 21:42:54.370938,163168,1609503746596441,1346563192,0.808128,-0.60512,0.218624,5.775,17.70125,3.33375,-23.712002,18.728,-9.56,inter_set_rest,5,3.0,17463.0,133910.0,219383.0,272609.0,258706.0
2026-04-08 21:42:54.374417,163169,1609503746605409,1346571865,0.796416,-0.667584,0.404064,3.5525,16.42375,5.4775,-23.712002,18.640001,-7.216001,inter_set_rest,5,3.0,17463.0,133910.0,219383.0,272609.0,258706.0
2026-04-08 21:42:54.376974,163170,1609503746614343,1346580548,0.796416,-0.667584,0.404064,-0.77875,17.70125,11.7075,-23.568,18.640001,-7.216001,inter_set_rest,5,3.0,17463.0,133910.0,219383.0,272609.0,258706.0
2026-04-08 21:42:54.408236,163181,1609503746628988,1346595663,0.737856,-0.677344,0.298656,-7.77875,19.11875,17.54375,-23.432001,19.04,-8.208,inter_set_rest,5,3.0,17377.0,133727.0,219166.0,272525.0,258660.0
2026-04-08 21:42:54.410817,163182,1609503746638026,1346604352,0.737856,-0.677344,0.298656,-14.2975,21.67375,16.44125,-23.432001,19.04,-8.208,inter_set_rest,5,3.0,17377.0,133727.0,219166.0,272525.0,258660.0
2026-04-08 21:42:54.413239,163183,1609503746652541,1346619260,0.562176,-0.648064,0.0976,-13.37875,20.772501,14.3675,-23.424002,19.376001,-7.408001,inter_set_rest,5,3.0,17377.0,133727.0,219166.0,272525.0,258660.0
2026-04-08 21:42:54.415708,163184,1609503746661458,1346627932,0.562176,-0.648064,0.0976,-7.9275,18.095,16.065,-23.424002,19.376001,-7.408001,inter_set_rest,5,3.0,17377.0,133727.0,219166.0,272525.0,258660.0
2026-04-08 21:42:54.445994,163185,1609503746675930,1346642831,0.620736,-0.757376,0.163968,-3.3425,13.65,20.7025,-23.256,19.688002,-8.416,inter_set_rest,5,3.0,17377.0,133727.0,219166.0,272525.0,258660.0
2026-04-08 21:42:54.449459,163186,1609503746684835,1346651485,0.620736,-0.757376,0.163968,3.0625,10.24625,23.03875,-23.256,19.688002,-8.416,inter_set_rest,5,3.0,17377.0,133727.0,219166.0,272525.0,258660.0
2026-04-08 21:42:54.452006,163187,1609503746693740,1346660178,0.6832,-0.853024,0.232288,16.31875,10.91125,21.4025,-23.096,19.864,-7.6,inter_set_rest,5,3.0,17377.0,133727.0,219166.0,272525.0,258660.0
2026-04-08 21:42:54.484698,163188,1609503746708272,1346675061,0.548512,-0.681248,0.1464,29.19,12.425,23.26625,-23.12,20.704,-6.920001,inter_set_rest,5,3.0,17377.0,133727.0,219166.0,272525.0,258660.0
2026-04-08 21:42:54.513588,163199,1609503746717185,1346683679,0.548512,-0.681248,0.1464,29.54875,9.0125,24.14125,-23.12,20.704,-6.920001,inter_set_rest,5,3.0,17252.0,133418.0,218752.0,272255.0,258561.0
2026-04-08 21:42:54.547194,163200,1609503746731702,1346698538,0.550464,-0.733952,0.142496,29.015,4.99625,24.745,-23.136002,20.864,-7.8,inter_set_rest,5,3.0,17252.0,133418.0,218752.0,272255.0,258561.0
2026-04-08 21:42:54.550711,163201,1609503746740626,1346707252,0.550464,-0.733952,0.142496,31.78,-1.65375,26.705,-23.136002,20.864,-7.8,inter_set_rest,5,3.0,17252.0,133418.0,218752.0,272255.0,258561.0
2026-04-08 21:42:54.553212,163202,1609503746755198,1346722159,0.589504,-0.732,0.160064,34.43125,-6.3,28.411251,-22.464,21.288,-7.368001,inter_set_rest,5,3.0,17252.0,133418.0,218752.0,272255.0,258561.0
2026-04-08 21:42:54.555715,163203,1609503746764125,1346730846,0.589504,-0.732,0.160064,42.98,-7.84,26.88875,-22.464,21.288,-7.368001,inter_set_rest,5,3.0,17252.0,133418.0,218752.0,272255.0,258561.0
2026-04-08 21:42:54.558252,163204,1609503746773107,1346739512,0.511424,-0.714432,0.259616,48.7725,-9.1525,28.04375,-22.488,22.04,-6.76,inter_set_rest,5,3.0,17252.0,133418.0,218752.0,272255.0,258561.0
2026-04-08 21:42:54.560765,163205,1609503746787598,1346754352,0.460672,-0.687104,0.218624,48.25625,-11.48875,33.73125,-22.216002,22.504002,-7.016,inter_set_rest,5,3.0,17252.0,133418.0,218752.0,272255.0,258561.0
2026-04-08 21:42:54.563203,163206,1609503746796518,1346763026,0.460672,-0.687104,0.218624,48.79875,-14.30625,32.9,-22.216002,22.504002,-7.016,inter_set_rest,5,3.0,17252.0,133418.0,218752.0,272255.0,258561.0
2026-04-08 21:42:54.565773,163207,1609503746810989,1346777903,0.532896,-0.685152,0.357216,48.18625,-16.7475,26.775,-21.84,23.136002,-6.552001,inter_set_rest,5,3.0,17252.0,133418.0,218752.0,272255.0,258561.0
2026-04-08 21:42:54.595685,163218,1609503746820186,1346786674,0.532896,-0.685152,0.357216,50.05,-19.78375,26.38125,-21.84,23.136002,-6.552001,inter_set_rest,5,3.0,17402.0,133992.0,219411.0,272852.0,258987.0
2026-04-08 21:42:54.598224,163219,1609503746834822,1346801642,0.41968,-0.65392,0.160064,58.87,-21.28,26.1275,-21.960001,23.552002,-5.336,inter_set_rest,5,3.0,17402.0,133992.0,219411.0,272852.0,258987.0
2026-04-08 21:42:54.600694,163220,1609503746843756,1346810330,0.41968,-0.65392,0.160064,66.2375,-20.9125,22.995,-21.960001,23.552002,-5.336,inter_set_rest,5,3.0,17402.0,133992.0,219411.0,272852.0,258987.0
2026-04-08 21:42:54.605655,163221,1609503746852691,1346819086,0.433344,-0.720288,0.357216,68.48625,-21.51625,19.5475,-21.904001,24.256,-4.808,inter_set_rest,5,3.0,17402.0,133992.0,219411.0,272852.0,258987.0
2026-04-08 21:42:54.635966,163222,1609503746867185,1346833973,0.431392,-0.542656,0.0976,81.585,-23.52875,19.9325,-22.12,24.352001,-6.736001,inter_set_rest,5,3.0,17402.0,133992.0,219411.0,272852.0,258987.0
2026-04-08 21:42:54.639475,163223,1609503746876070,1346842643,0.431392,-0.542656,0.0976,75.652504,-22.51375,16.6775,-22.12,24.352001,-6.736001,inter_set_rest,5,3.0,17402.0,133992.0,219411.0,272852.0,258987.0
2026-04-08 21:42:54.645815,163224,1609503746890538,1346857507,0.489952,-0.474336,0.382592,74.45375,-24.272501,9.1175,-22.320002,24.752,-4.52,inter_set_rest,5,3.0,17402.0,133992.0,219411.0,272852.0,258987.0
2026-04-08 21:42:54.652070,163225,1609503746899524,1346866232,0.489952,-0.474336,0.382592,74.121254,-25.235,5.565,-22.320002,24.752,-4.52,inter_set_rest,5,3.0,17402.0,133992.0,219411.0,272852.0,258987.0
2026-04-08 21:42:54.682259,163226,1609503746914013,1346881093,0.51728,-0.544608,0.216672,67.34875,-24.35125,5.97625,-22.304,25.096,-4.672,inter_set_rest,5,3.0,17402.0,133992.0,219411.0,272852.0,258987.0
2026-04-08 21:42:54.710784,163237,1609503746923150,1346889819,0.51728,-0.544608,0.216672,45.185,-24.8675,8.855001,-22.304,25.096,-4.672,inter_set_rest,5,3.0,17607.0,134823.0,220440.0,273749.0,259614.0
2026-04-08 21:42:54.713238,163238,1609503746932089,1346898466,0.523136,-0.560224,0.2928,29.4525,-28.2975,11.3225,-22.496,25.264002,-4.472,inter_set_rest,5,3.0,17607.0,134823.0,220440.0,273749.0,259614.0
2026-04-08 21:42:54.715733,163239,1609503746946753,1346913512,0.523136,-0.560224,0.2928,26.73125,-31.1675,12.573751,-22.496,25.264002,-4.472,inter_set_rest,5,3.0,17607.0,134823.0,220440.0,273749.0,259614.0
2026-04-08 21:42:54.718266,163240,1609503746955687,1346922187,0.696864,-0.638304,0.335744,28.28875,-32.43625,9.63375,-22.664001,25.808,-2.304,inter_set_rest,5,3.0,17607.0,134823.0,220440.0,273749.0,259614.0
2026-04-08 21:42:54.724504,163241,1609503746970179,1346937044,0.61488,-0.616832,0.37088,39.725,-31.08,5.285,-23.088001,26.080002,-3.288,inter_set_rest,5,3.0,17607.0,134823.0,220440.0,273749.0,259614.0
2026-04-08 21:42:54.754696,163242,1609503746979105,1346945708,0.61488,-0.616832,0.37088,55.825,-29.91625,3.3075,-23.088001,26.080002,-3.288,inter_set_rest,5,3.0,17607.0,134823.0,220440.0,273749.0,259614.0
2026-04-08 21:42:54.758263,163243,1609503746988054,1346954422,0.630496,-0.571936,0.124928,63.166252,-29.960001,3.4475,-22.800001,26.192001,-6.888001,inter_set_rest,5,3.0,17607.0,134823.0,220440.0,273749.0,259614.0
2026-04-08 21:42:54.760819,163244,1609503747002520,1346969266,0.630496,-0.571936,0.124928,65.975,-31.745,1.19875,-22.800001,26.192001,-6.888001,inter_set_rest,5,3.0,17607.0,134823.0,220440.0,273749.0,259614.0
2026-04-08 21:42:54.765760,163245,1609503747011444,1346977930,0.763232,-0.544608,0.406016,62.825,-33.90625,0.0175,-23.44,26.216002,-3.744,inter_set_rest,5,3.0,17607.0,134823.0,220440.0,273749.0,259614.0
2026-04-08 21:42:54.797020,163256,1609503747026028,1346992884,0.763232,-0.544608,0.406016,57.4175,-35.6825,1.96,-23.44,26.216002,-3.744,inter_set_rest,5,3.0,17740.0,135202.0,220888.0,274062.0,259778.0
2026-04-08 21:42:54.799503,163257,1609503747035002,1347001597,0.833504,-0.5368,0.41968,51.09125,-34.65875,6.4925,-23.408,26.512001,-1.272,inter_set_rest,5,3.0,17740.0,135202.0,220888.0,274062.0,259778.0
2026-04-08 21:42:54.803210,163258,1609503747049501,1347016514,1.13216,-0.343552,0.398208,47.31125,-29.155,8.9425,-23.568,26.992,-3.672,inter_set_rest,5,3.0,17740.0,135202.0,220888.0,274062.0,259778.0
2026-04-08 21:42:54.844700,163259,1609503747058415,1347025197,1.13216,-0.343552,0.398208,50.6975,-21.88375,5.38125,-23.568,26.992,-3.672,inter_set_rest,5,3.0,17740.0,135202.0,220888.0,274062.0,259778.0
2026-04-08 21:42:54.849053,163260,1609503747067354,1347033876,1.13216,-0.343552,0.398208,53.82125,-19.53,-4.935,-23.568,26.992,-3.672,inter_set_rest,5,3.0,17740.0,135202.0,220888.0,274062.0,259778.0
2026-04-08 21:42:54.850690,163261,1609503747081820,1347048728,1.13216,-0.495808,0.4392,52.99875,-17.710001,-5.06625,-23.864,27.288002,-2.672,inter_set_rest,5,3.0,17740.0,135202.0,220888.0,274062.0,259778.0
2026-04-08 21:42:54.853562,163262,1609503747090752,1347057414,1.059936,-0.77104,0.201056,45.50875,-16.86125,11.08625,-23.480001,28.064001,-2.224,inter_set_rest,5,3.0,17740.0,135202.0,220888.0,274062.0,259778.0
2026-04-08 21:42:54.859545,163263,1609503747105260,1347072332,1.059936,-0.77104,0.201056,54.6,-14.665,27.85125,-23.480001,28.064001,-2.224,inter_set_rest,5,3.0,17740.0,135202.0,220888.0,274062.0,259778.0
2026-04-08 21:42:54.889769,163264,1609503747114164,1347081002,0.74176,-0.466528,0.066368,78.86375,-12.53,25.10375,-23.472002,28.024002,-1.216,inter_set_rest,5,3.0,17740.0,135202.0,220888.0,274062.0,259778.0
2026-04-08 21:42:54.918189,163275,1609503747129240,1347096258,0.402112,-0.236192,0.228384,85.98625,-8.77625,12.4775,-23.184002,28.376001,-1.168,inter_set_rest,5,3.0,18090.0,136655.0,222654.0,275274.0,260436.0
2026-04-08 21:42:54.920712,163276,1609503747138160,1347104938,0.402112,-0.236192,0.228384,83.9825,-12.5825,18.47125,-23.184002,28.376001,-1.168,inter_set_rest,5,3.0,18090.0,136655.0,222654.0,275274.0,260436.0
2026-04-08 21:42:54.923211,163277,1609503747147089,1347113651,0.402112,-0.236192,0.228384,63.665,-20.30875,12.2675,-23.184002,28.376001,-1.168,inter_set_rest,5,3.0,18090.0,136655.0,222654.0,275274.0,260436.0
2026-04-08 21:42:54.925696,163278,1609503747161604,1347128601,0.447008,-0.427488,0.480192,26.60875,-23.10875,-8.46125,-23.288002,28.080002,0.8,inter_set_rest,5,3.0,18090.0,136655.0,222654.0,275274.0,260436.0
2026-04-08 21:42:54.928206,163279,1609503747170568,1347137277,0.431392,-0.636352,0.103456,-4.26125,-21.945,-20.90375,-23.024,27.968,-1.872,inter_set_rest,5,3.0,18090.0,136655.0,222654.0,275274.0,260436.0
2026-04-08 21:42:54.944692,163280,1609503747185165,1347152159,0.431392,-0.636352,0.103456,-20.09,-23.05625,-11.89125,-23.024,27.968,-1.872,inter_set_rest,5,3.0,18090.0,136655.0,222654.0,275274.0,260436.0
2026-04-08 21:42:54.950800,163281,1609503747194085,1347160816,0.669536,-0.626592,0.134688,-34.83375,-26.73125,8.26,-23.52,28.232002,-1.6,inter_set_rest,5,3.0,18090.0,136655.0,222654.0,275274.0,260436.0
2026-04-08 21:42:54.955751,163282,1609503747203051,1347169491,0.669536,-0.626592,0.134688,-23.178751,-29.21625,12.11875,-23.52,28.232002,-1.6,inter_set_rest,5,3.0,18090.0,136655.0,222654.0,275274.0,260436.0
2026-04-08 21:42:54.997201,163283,1609503747217523,1347184389,0.757376,-0.718336,0.304512,-4.03375,-29.960001,6.51875,-23.056002,28.296001,-0.968,inter_set_rest,5,3.0,18090.0,136655.0,222654.0,275274.0,260436.0
2026-04-08 21:42:55.029430,163294,1609503747226547,1347193081,0.757376,-0.718336,0.304512,16.616251,-28.70875,1.51375,-23.056002,28.296001,-0.968,inter_set_rest,5,3.0,17594.0,135112.0,220946.0,274162.0,259882.0
2026-04-08 21:42:55.031965,163295,1609503747241022,1347207992,0.523136,-0.509472,-0.003904,35.32375,-30.2225,-3.7975,-23.608002,28.472002,-1.52,inter_set_rest,5,3.0,17594.0,135112.0,220946.0,274162.0,259882.0
2026-04-08 21:42:55.034488,163296,1609503747249951,1347216656,0.44896,-0.376736,0.259616,38.4475,-35.3675,-11.15625,-23.552002,28.568,-2.28,inter_set_rest,5,3.0,17594.0,135112.0,220946.0,274162.0,259882.0
2026-04-08 21:42:55.036978,163297,1609503747264441,1347231522,0.44896,-0.376736,0.259616,33.88,-40.9325,-19.5475,-23.552002,28.568,-2.28,inter_set_rest,5,3.0,17594.0,135112.0,220946.0,274162.0,259882.0
2026-04-08 21:42:55.039526,163298,1609503747273381,1347240320,0.548512,-0.544608,0.226432,16.26625,-44.8525,-22.6275,-24.448002,28.328001,-2.552,inter_set_rest,5,3.0,17594.0,135112.0,220946.0,274162.0,259882.0
2026-04-08 21:42:55.041989,163299,1609503747282356,1347249031,0.548512,-0.544608,0.226432,-16.86125,-47.34625,-16.616251,-24.448002,28.328001,-2.552,inter_set_rest,5,3.0,17594.0,135112.0,220946.0,274162.0,259882.0
2026-04-08 21:42:55.073080,163300,1609503747296899,1347263932,0.689056,-0.437248,0.062464,-39.1825,-50.575,-14.21,-24.752,28.400002,-4.528,inter_set_rest,5,3.0,17594.0,135112.0,220946.0,274162.0,259882.0
2026-04-08 21:42:55.075699,163301,1609503747305812,1347272588,0.689056,-0.437248,0.062464,-33.41625,-52.45625,-22.4525,-24.752,28.400002,-4.528,inter_set_rest,5,3.0,17594.0,135112.0,220946.0,274162.0,259882.0
2026-04-08 21:42:55.078274,163302,1609503747320306,1347285447,0.626592,-0.503616,0.286944,-15.190001,-54.04875,-30.2925,-25.072,28.432001,-3.576,inter_set_rest,5,3.0,17594.0,135112.0,220946.0,274162.0,259882.0
2026-04-08 21:42:55.105728,163313,1609503747329460,1347296381,0.626592,-0.503616,0.218624,-5.11,-55.51875,-26.8625,-25.072,28.432001,-3.576,inter_set_rest,5,3.0,17463.0,134748.0,220704.0,274137.0,259932.0
2026-04-08 21:42:55.108225,163314,1609503747343971,1347309300,1.106784,-0.618784,0.218624,-2.28375,-57.1725,-20.51,-25.648,28.768002,-0.808,inter_set_rest,5,3.0,17463.0,134748.0,220704.0,274137.0,259932.0
2026-04-08 21:42:55.110765,163315,1609503747353343,1347320137,1.202432,-0.03904,0.01952,9.0475,-57.085,-25.06875,-25.944002,28.224,-3.84,inter_set_rest,5,3.0,17463.0,134748.0,220704.0,274137.0,259932.0
2026-04-08 21:42:55.148372,163316,1609503747362415,1347328822,1.202432,-0.03904,0.01952,38.17625,-57.88125,-48.39625,-25.944002,28.224,-3.84,inter_set_rest,5,3.0,17463.0,134748.0,220704.0,274137.0,259932.0
2026-04-08 21:42:55.151311,163317,1609503747376897,1347343678,0.700768,-0.091744,0.290848,68.4775,-61.5825,-67.33125,-26.352001,27.656002,-4.528,inter_set_rest,5,3.0,17463.0,134748.0,220704.0,274137.0,259932.0
2026-04-08 21:42:55.154012,163318,1609503747385789,1347352339,0.700768,-0.091744,0.290848,76.1425,-65.40625,-56.2625,-26.352001,27.656002,-4.528,inter_set_rest,5,3.0,17463.0,134748.0,220704.0,274137.0,259932.0
2026-04-08 21:42:55.156479,163319,1609503747400252,1347367189,0.655872,-0.534848,0.601216,47.22375,-71.53125,-31.053751,-26.752,26.912,-5.28,inter_set_rest,5,3.0,17463.0,134748.0,220704.0,274137.0,259932.0
2026-04-08 21:42:55.162006,163320,1609503747409198,1347375948,0.655872,-0.534848,0.601216,4.73375,-75.46875,-22.12,-26.752,26.912,-5.28,inter_set_rest,5,3.0,17463.0,134748.0,220704.0,274137.0,259932.0
2026-04-08 21:42:55.192240,163321,1609503747418123,1347384617,1.071648,-0.80032,0.382592,-22.67125,-71.496254,-30.77375,-27.168001,26.824001,-4.976,inter_set_rest,5,3.0,17463.0,134748.0,220704.0,274137.0,259932.0
2026-04-08 21:42:55.220690,163332,1609503747432726,1347399805,0.774944,-0.628544,0.41968,-20.51875,-61.13625,-38.87625,-27.464,26.392002,-6.576,inter_set_rest,5,3.0,17695.0,135461.0,221472.0,274430.0,259991.0
2026-04-08 21:42:55.223251,163333,1609503747441656,1347408451,0.774944,-0.628544,0.41968,-2.485,-50.076252,-37.2225,-27.464,26.392002,-6.576,inter_set_rest,5,3.0,17695.0,135461.0,221472.0,274430.0,259991.0
2026-04-08 21:42:55.226067,163334,1609503747456177,1347423317,0.454816,-0.569984,0.392352,21.525,-43.3125,-33.32875,-27.624,26.256,-6.528,inter_set_rest,5,3.0,17695.0,135461.0,221472.0,274430.0,259991.0
2026-04-08 21:42:55.228283,163335,1609503747465194,1347432005,0.454816,-0.569984,0.392352,35.1925,-44.58125,-27.825,-27.624,26.256,-6.528,inter_set_rest,5,3.0,17695.0,135461.0,221472.0,274430.0,259991.0
2026-04-08 21:42:55.234818,163336,1609503747479642,1347444826,0.718336,-0.540704,0.365024,32.83,-45.5175,-26.897501,-28.032001,26.088001,-6.816001,inter_set_rest,5,3.0,17695.0,135461.0,221472.0,274430.0,259991.0
2026-04-08 21:42:55.264750,163337,1609503747488852,1347455587,0.718336,-0.540704,0.365024,29.51375,-45.885,-35.9275,-28.032001,26.088001,-6.816001,inter_set_rest,5,3.0,17695.0,135461.0,221472.0,274430.0,259991.0
2026-04-08 21:42:55.268307,163338,1609503747497778,1347464243,1.040416,-0.49776,0.404064,31.7975,-43.58375,-44.9575,-28.488,25.744001,-5.6,inter_set_rest,5,3.0,17695.0,135461.0,221472.0,274430.0,259991.0
2026-04-08 21:42:55.270715,163339,1609503747512239,1347479106,0.903776,-0.288896,0.300608,40.74,-36.67125,-46.80375,-28.848001,25.472002,-5.44,inter_set_rest,5,3.0,17695.0,135461.0,221472.0,274430.0,259991.0
2026-04-08 21:42:55.303216,163350,1609503747521178,1347487902,0.903776,-0.288896,0.300608,49.07875,-30.94,-41.3175,-28.848001,25.472002,-5.44,inter_set_rest,5,3.0,18168.0,136793.0,222787.0,275036.0,260127.0
2026-04-08 21:42:55.305712,163351,1609503747535836,1347502832,0.856928,-0.16592,0.197152,46.87375,-26.285,-35.9625,-29.352001,25.608002,-4.472,inter_set_rest,5,3.0,18168.0,136793.0,222787.0,275036.0,260127.0
2026-04-08 21:42:55.308220,163352,1609503747544769,1347511546,0.856928,-0.16592,0.197152,43.75875,-24.185,-33.915,-29.352001,25.608002,-4.472,inter_set_rest,5,3.0,18168.0,136793.0,222787.0,275036.0,260127.0
2026-04-08 21:42:55.314131,163353,1609503747559284,1347526420,0.874496,-0.201056,0.076128,36.435,-24.57875,-31.40375,-29.184002,24.824001,-6.424,inter_set_rest,5,3.0,18168.0,136793.0,222787.0,275036.0,260127.0
2026-04-08 21:42:55.343542,163354,1609503747568201,1347535116,0.874496,-0.201056,0.076128,20.36125,-25.31375,-29.155,-29.184002,24.824001,-6.424,inter_set_rest,5,3.0,18168.0,136793.0,222787.0,275036.0,260127.0
2026-04-08 21:42:55.347053,163355,1609503747577116,1347543824,0.831552,-0.306464,0.076128,4.7075,-24.75375,-27.37875,-29.760002,24.576,-6.256001,inter_set_rest,5,3.0,18168.0,136793.0,222787.0,275036.0,260127.0
2026-04-08 21:42:55.349432,163356,1609503747591574,1347558675,0.81984,-0.392352,0.054656,-1.9425,-23.1175,-24.43,-29.760002,24.576,-8.6,inter_set_rest,5,3.0,18168.0,136793.0,222787.0,275036.0,260127.0
2026-04-08 21:42:55.354463,163357,1609503747600512,1347567342,0.81984,-0.392352,0.054656,-3.675,-20.9475,-19.62625,-29.960001,24.584002,-8.6,inter_set_rest,5,3.0,18168.0,136793.0,222787.0,275036.0,260127.0
2026-04-08 21:42:55.384680,163358,1609503747615015,1347580192,0.774944,-0.36112,0.275232,-0.525,-18.27,-15.9425,-30.296001,24.36,-5.864,inter_set_rest,5,3.0,18168.0,136793.0,222787.0,275036.0,260127.0
2026-04-08 21:42:55.413268,163369,1609503747624430,1347591030,0.774944,-0.36112,0.275232,7.07,-15.58375,-15.61875,-30.296001,24.36,-5.864,inter_set_rest,5,3.0,18052.0,136370.0,222277.0,274612.0,259859.0
2026-04-08 21:42:55.448290,163370,1609503747633444,1347599761,0.81984,-0.368928,0.294752,15.8725,-14.5775,-12.95875,-30.624,24.632002,-5.568,inter_set_rest,5,3.0,18052.0,136370.0,222277.0,274612.0,259859.0
2026-04-08 21:42:55.450766,163371,1609503747647935,1347614675,0.81984,-0.368928,0.294752,16.52875,-13.65,-10.75375,-30.624,24.632002,-5.568,inter_set_rest,5,3.0,18052.0,136370.0,222277.0,274612.0,259859.0
2026-04-08 21:42:55.453250,163372,1609503747656860,1347623407,0.925248,-0.413824,0.025376,8.925,-13.13375,-16.40625,-30.680002,23.960001,-5.864,inter_set_rest,5,3.0,18052.0,136370.0,222277.0,274612.0,259859.0
2026-04-08 21:42:55.455747,163373,1609503747671380,1347638320,0.925248,-0.413824,0.025376,3.77125,-11.725,-18.27875,-30.680002,23.960001,-5.864,inter_set_rest,5,3.0,18052.0,136370.0,222277.0,274612.0,259859.0
2026-04-08 21:42:55.458350,163374,1609503747680297,1347646992,0.831552,-0.349408,-0.005856,-3.43,-9.9575,-10.745,-30.448002,23.800001,-6.656,inter_set_rest,5,3.0,18052.0,136370.0,222277.0,274612.0,259859.0
2026-04-08 21:42:55.460799,163375,1609503747694813,1347661851,0.860832,-0.329888,0.199104,-12.0925,-10.22875,-3.84125,-30.720001,24.104002,-7.024,inter_set_rest,5,3.0,18052.0,136370.0,222277.0,274612.0,259859.0
2026-04-08 21:42:55.463232,163376,1609503747703732,1347670532,0.860832,-0.329888,0.199104,-17.535,-12.0925,-2.42375,-30.720001,24.104002,-7.024,inter_set_rest,5,3.0,18052.0,136370.0,222277.0,274612.0,259859.0
2026-04-08 21:42:55.465704,163377,1609503747712672,1347679198,0.8784,-0.388448,0.203008,-14.035,-14.980001,-4.0075,-30.888002,24.344002,-7.520001,inter_set_rest,5,3.0,18052.0,136370.0,222277.0,274612.0,259859.0
2026-04-08 21:42:55.525776,163388,1609503747727445,1347694129,0.8784,-0.388448,0.203008,-4.305,-17.38625,-5.60875,-30.888002,24.344002,-7.520001,inter_set_rest,5,3.0,18094.0,136434.0,222362.0,274633.0,259840.0
2026-04-08 21:42:55.528300,163389,1609503747736402,1347702790,0.84912,-0.388448,0.115168,2.5725,-19.27625,-5.85375,-30.776001,23.736002,-7.76,inter_set_rest,5,3.0,18094.0,136434.0,222362.0,274633.0,259840.0
2026-04-08 21:42:55.530762,163390,1609503747750867,1347717714,0.84912,-0.388448,0.115168,2.59,-20.335001,-5.55625,-30.776001,23.736002,-7.76,inter_set_rest,5,3.0,18094.0,136434.0,222362.0,274633.0,259840.0
2026-04-08 21:42:55.533249,163391,1609503747759879,1347726468,0.909632,-0.404064,0.052704,0.595,-21.56875,-6.615,-31.216002,23.824001,-7.752,inter_set_rest,5,3.0,18094.0,136434.0,222362.0,274633.0,259840.0
2026-04-08 21:42:55.535754,163392,1609503747774363,1347741344,0.866688,-0.42944,0.042944,3.01875,-21.2275,-5.635,-30.640001,24.344002,-6.688,inter_set_rest,5,3.0,18094.0,136434.0,222362.0,274633.0,259840.0
2026-04-08 21:42:55.538215,163393,1609503747783345,1347750084,0.866688,-0.42944,0.042944,4.62875,-21.13125,-1.42625,-30.640001,24.344002,-6.688,inter_set_rest,5,3.0,18094.0,136434.0,222362.0,274633.0,259840.0
2026-04-08 21:42:55.568388,163394,1609503747792416,1347758871,0.866688,-0.42944,0.072224,2.19625,-21.0525,1.3475,-30.640001,24.344002,-6.688,inter_set_rest,5,3.0,18094.0,136434.0,222362.0,274633.0,259840.0
2026-04-08 21:42:55.571946,163395,1609503747806884,1347773801,0.765184,-0.347456,0.072224,1.4175,-22.00625,0.0525,-30.704002,24.464,-6.912,inter_set_rest,5,3.0,18094.0,136434.0,222362.0,274633.0,259840.0
2026-04-08 21:42:55.574468,163396,1609503747815772,1347782460,0.81984,-0.353312,0.163968,5.45125,-22.3475,-3.38625,-30.664001,23.320002,-8.248,inter_set_rest,5,3.0,18094.0,136434.0,222362.0,274633.0,259840.0
2026-04-08 21:42:55.604449,163408,1609503747830497,1347795832,0.81984,-0.353312,0.163968,11.10375,-21.35875,-2.7825,-30.664001,23.320002,-8.248,inter_set_rest,5,3.0,17991.0,136070.0,221990.0,274430.0,259789.0
2026-04-08 21:42:55.606951,163409,1609503747839907,1347806589,0.89792,-0.366976,-0.0488,12.53875,-20.125,-1.77625,-30.936,24.024002,-7.544,inter_set_rest,5,3.0,17991.0,136070.0,221990.0,274430.0,259789.0
2026-04-08 21:42:55.609440,163410,1609503747848888,1347815375,0.89792,-0.366976,-0.0488,10.57875,-17.745,-2.94875,-30.936,24.024002,-7.544,inter_set_rest,5,3.0,17991.0,136070.0,221990.0,274430.0,259789.0
2026-04-08 21:42:55.639607,163411,1609503747863368,1347830280,0.880352,-0.333792,0.177632,6.5275,-15.5225,-2.6775,-30.472002,24.384,-7.424,inter_set_rest,5,3.0,17991.0,136070.0,221990.0,274430.0,259789.0
2026-04-08 21:42:55.643134,163412,1609503747872304,1347838958,0.880352,-0.333792,0.177632,0.86625,-13.20375,1.44375,-30.472002,24.384,-7.424,inter_set_rest,5,3.0,17991.0,136070.0,221990.0,274430.0,259789.0
2026-04-08 21:42:55.645690,163413,1609503747886829,1347853809,0.882304,-0.372832,0.076128,-4.99625,-11.48875,6.15125,-30.28,24.232,-6.456,inter_set_rest,5,3.0,17991.0,136070.0,221990.0,274430.0,259789.0
2026-04-08 21:42:55.648133,163414,1609503747895746,1347862477,0.83936,-0.423584,0.056608,-10.14125,-9.70375,7.14875,-29.960001,24.336,-8.872001,inter_set_rest,5,3.0,17991.0,136070.0,221990.0,274430.0,259789.0
2026-04-08 21:42:55.678480,163415,1609503747910229,1347877373,0.83936,-0.423584,0.056608,-15.12875,-8.6625,7.7175,-29.960001,24.336,-8.872001,inter_set_rest,5,3.0,17991.0,136070.0,221990.0,274430.0,259789.0
2026-04-08 21:42:55.681974,163416,1609503747919154,1347886029,0.974048,-0.499712,0.374784,-22.435,-6.72875,11.7425,-29.912,24.744001,-8.952001,inter_set_rest,5,3.0,17991.0,136070.0,221990.0,274430.0,259789.0
2026-04-08 21:42:55.709609,163427,1609503747928446,1347894752,0.974048,-0.499712,0.374784,-31.9375,-4.2175,17.56125,-29.912,24.744001,-8.952001,inter_set_rest,5,3.0,17782.0,135443.0,221358.0,274104.0,259675.0
2026-04-08 21:42:55.712868,163428,1609503747942980,1347909665,1.046272,-0.445056,0.173728,-41.79,-4.06875,25.22625,-29.536001,24.928001,-8.872001,inter_set_rest,5,3.0,17782.0,135443.0,221358.0,274104.0,259675.0
2026-04-08 21:42:55.716583,163429,1609503747951903,1347918331,1.046272,-0.445056,0.173728,-46.27,-5.3025,34.9475,-29.536001,24.928001,-8.872001,inter_set_rest,5,3.0,17782.0,135443.0,221358.0,274104.0,259675.0
2026-04-08 21:42:55.750999,163430,1609503747966416,1347933218,0.833504,-0.220576,0.080032,-29.47,-3.675,45.38625,-29.36,25.6,-8.544001,inter_set_rest,5,3.0,17782.0,135443.0,221358.0,274104.0,259675.0
2026-04-08 21:42:55.754514,163431,1609503747975339,1347941872,0.698816,-0.472384,-0.130784,-10.50875,-1.4875,56.58625,-28.032001,25.832,-10.888001,inter_set_rest,5,3.0,17782.0,135443.0,221358.0,274104.0,259675.0
2026-04-08 21:42:55.756976,163432,1609503747984325,1347950557,0.698816,-0.472384,-0.130784,-17.70125,0.0175,62.20375,-28.032001,25.832,-10.888001,inter_set_rest,5,3.0,17782.0,135443.0,221358.0,274104.0,259675.0
2026-04-08 21:42:55.759495,163433,1609503747998803,1347965411,0.735904,-0.493856,-0.040992,-44.21375,-0.09625,61.013752,-27.576002,26.256,-10.416,inter_set_rest,5,3.0,17782.0,135443.0,221358.0,274104.0,259675.0
2026-04-08 21:42:55.762032,163434,1609503748007714,1347974081,0.735904,-0.493856,-0.040992,-71.5575,-1.09375,52.85875,-27.576002,26.256,-10.416,inter_set_rest,5,3.0,17782.0,135443.0,221358.0,274104.0,259675.0
2026-04-08 21:42:55.792978,163435,1609503748022167,1347988971,0.691008,-0.49776,-0.12688,-57.98625,0.02625,43.60125,-27.152,26.640001,-10.392,inter_set_rest,5,3.0,17782.0,135443.0,221358.0,274104.0,259675.0
2026-04-08 21:42:55.820673,163446,1609503748031135,1347997720,0.691008,-0.49776,-0.12688,-27.08125,1.715,42.4725,-27.152,26.640001,-10.392,inter_set_rest,5,3.0,17266.0,134126.0,220081.0,273391.0,259361.0
2026-04-08 21:42:55.823210,163447,1609503748045647,1348012587,0.51728,-0.501664,0.0,-21.70875,1.785,49.735,-26.624,26.896002,-10.536,inter_set_rest,5,3.0,17266.0,134126.0,220081.0,273391.0,259361.0
2026-04-08 21:42:55.825698,163448,1609503748054596,1348021293,0.484096,-0.55632,0.021472,-28.525,-1.05875,48.41375,-26.624,27.800001,-11.352,inter_set_rest,5,3.0,17266.0,134126.0,220081.0,273391.0,259361.0
2026-04-08 21:42:55.828247,163449,1609503748063578,1348029963,0.484096,-0.55632,0.021472,-12.62625,-4.4975,35.14,-26.480001,27.800001,-11.352,inter_set_rest,5,3.0,17266.0,134126.0,220081.0,273391.0,259361.0
2026-04-08 21:42:55.831949,163450,1609503748078093,1348044890,0.890112,-0.511424,0.03904,1.88125,-8.98625,26.73125,-25.928001,28.168001,-9.504001,inter_set_rest,5,3.0,17266.0,134126.0,220081.0,273391.0,259361.0
2026-04-08 21:42:55.839494,163451,1609503748087031,1348053602,0.890112,-0.511424,0.03904,6.44,-10.955,22.79375,-25.928001,28.168001,-9.504001,inter_set_rest,5,3.0,17266.0,134126.0,220081.0,273391.0,259361.0
2026-04-08 21:42:55.871834,163452,1609503748101487,1348068472,1.235616,-0.44896,-0.085888,15.505,-7.9975,13.22125,-26.000002,28.28,-10.528001,inter_set_rest,5,3.0,17266.0,134126.0,220081.0,273391.0,259361.0
2026-04-08 21:42:55.874904,163453,1609503748110401,1348077125,1.235616,-0.44896,-0.085888,28.91875,-5.29375,3.00125,-26.000002,28.28,-10.528001,inter_set_rest,5,3.0,17266.0,134126.0,220081.0,273391.0,259361.0
2026-04-08 21:42:55.901958,163464,1609503748124891,1348092064,0.970144,-0.306464,-0.007808,40.0225,-5.6,2.10875,-25.688002,28.592001,-10.728001,inter_set_rest,5,3.0,17358.0,134357.0,220236.0,273573.0,259505.0
2026-04-08 21:42:55.904500,163465,1609503748133939,1348100803,0.970144,-0.306464,-0.007808,49.4725,-4.66375,6.69375,-25.688002,28.592001,-10.728001,inter_set_rest,5,3.0,17358.0,134357.0,220236.0,273573.0,259505.0
2026-04-08 21:42:55.906979,163466,1609503748142932,1348109503,0.577792,-0.18544,0.001952,45.82375,-9.30125,6.64125,-25.504002,28.472002,-10.360001,inter_set_rest,5,3.0,17358.0,134357.0,220236.0,273573.0,259505.0
2026-04-08 21:42:55.912003,163467,1609503748157426,1348124413,0.825696,-0.396256,0.035136,26.915,-15.82875,-6.6325,-25.616001,28.616001,-10.336,inter_set_rest,5,3.0,17358.0,134357.0,220236.0,273573.0,259505.0
2026-04-08 21:42:55.942240,163468,1609503748166339,1348133125,0.825696,-0.396256,0.035136,21.14875,-21.56,-24.22,-25.616001,28.616001,-10.336,inter_set_rest,5,3.0,17358.0,134357.0,220236.0,273573.0,259505.0
2026-04-08 21:42:55.945909,163469,1609503748180814,1348145954,1.095072,-0.505568,0.230336,17.3075,-27.18625,-30.161251,-25.960001,28.032001,-10.968,inter_set_rest,5,3.0,17358.0,134357.0,220236.0,273573.0,259505.0
2026-04-08 21:42:55.948274,163470,1609503748189932,1348156738,1.095072,-0.505568,0.230336,7.28,-26.5125,-28.83125,-25.960001,28.032001,-10.968,inter_set_rest,5,3.0,17358.0,134357.0,220236.0,273573.0,259505.0
2026-04-08 21:42:55.978516,163471,1609503748204468,1348171608,0.757376,-0.558272,0.074176,-1.30375,-23.6775,-28.3325,-26.288002,27.904001,-11.176001,inter_set_rest,5,3.0,17358.0,134357.0,220236.0,273573.0,259505.0
2026-04-08 21:42:55.981973,163472,1609503748213433,1348180276,0.757376,-0.558272,0.074176,-4.8125,-21.35875,-24.885,-26.288002,27.904001,-11.176001,inter_set_rest,5,3.0,17358.0,134357.0,220236.0,273573.0,259505.0
2026-04-08 21:42:55.984486,163473,1609503748222353,1348188930,0.513376,-0.609024,0.056608,-10.9725,-23.6075,-18.095,-26.416,27.592001,-11.776001,inter_set_rest,5,3.0,17358.0,134357.0,220236.0,273573.0,259505.0
2026-04-08 21:42:56.012036,163484,1609503748236924,1348202181,0.67344,-0.677344,0.074176,-22.365,-26.04875,-14.875,-26.552002,27.800001,-10.160001,inter_set_rest,5,3.0,17344.0,134141.0,219775.0,273166.0,259276.0
2026-04-08 21:42:56.014587,163485,1609503748246229,1348213009,0.67344,-0.677344,0.074176,-26.5475,-25.76875,-18.29625,-26.552002,27.800001,-10.160001,inter_set_rest,5,3.0,17344.0,134141.0,219775.0,273166.0,259276.0
2026-04-08 21:42:56.052371,163486,1609503748260746,1348225903,1.013088,-0.515328,0.06832,-20.90375,-24.6575,-22.225,-26.728,27.28,-10.784,inter_set_rest,5,3.0,17344.0,134141.0,219775.0,273166.0,259276.0
2026-04-08 21:42:56.055696,163487,1609503748269884,1348236636,1.013088,-0.515328,0.06832,-3.255,-22.93375,-25.06875,-26.728,27.28,-10.784,inter_set_rest,5,3.0,17344.0,134141.0,219775.0,273166.0,259276.0
2026-04-08 21:42:56.058256,163488,1609503748278799,1348245366,0.929152,-0.347456,0.06832,17.9375,-21.1225,-26.60875,-26.952002,27.12,-12.000001,inter_set_rest,5,3.0,17344.0,134141.0,219775.0,273166.0,259276.0
2026-04-08 21:42:56.060784,163489,1609503748293266,1348260237,0.929152,-0.347456,0.06832,32.375,-19.7225,-26.460001,-26.952002,27.12,-12.000001,inter_set_rest,5,3.0,17344.0,134141.0,219775.0,273166.0,259276.0
2026-04-08 21:42:56.063225,163490,1609503748302185,1348268895,0.788608,-0.251808,-0.10736,31.08,-21.28,-25.34875,-27.344002,27.072,-11.88,inter_set_rest,5,3.0,17344.0,134141.0,219775.0,273166.0,259276.0
2026-04-08 21:42:56.093428,163491,1609503748316691,1348283825,0.845216,-0.28304,0.144448,22.1375,-23.7125,-29.47,-27.472002,26.560001,-12.472,inter_set_rest,5,3.0,17344.0,134141.0,219775.0,273166.0,259276.0
2026-04-08 21:42:56.131939,163502,1609503748325611,1348292427,0.845216,-0.28304,0.144448,15.6975,-27.5275,-33.85375,-27.472002,26.560001,-12.472,inter_set_rest,5,3.0,17933.0,135963.0,221754.0,274237.0,259685.0
2026-04-08 21:42:56.134545,163503,1609503748340123,1348305371,0.962336,-0.384544,0.035136,9.52,-28.5425,-34.48375,-27.896002,26.664001,-12.192,inter_set_rest,5,3.0,17933.0,135963.0,221754.0,274237.0,259685.0
2026-04-08 21:42:56.136995,163504,1609503748349371,1348316138,0.962336,-0.384544,0.035136,2.38875,-28.8575,-32.83875,-27.896002,26.664001,-12.192,inter_set_rest,5,3.0,17933.0,135963.0,221754.0,274237.0,259685.0
2026-04-08 21:42:56.139473,163505,1609503748358336,1348324821,0.88816,-0.447008,0.140544,-3.1325,-27.4925,-35.46375,-28.024002,26.240002,-11.904,inter_set_rest,5,3.0,17933.0,135963.0,221754.0,274237.0,259685.0
2026-04-08 21:42:56.141951,163506,1609503748372877,1348339697,0.88816,-0.447008,0.140544,-3.77125,-25.6725,-35.6475,-28.024002,26.240002,-11.904,inter_set_rest,5,3.0,17933.0,135963.0,221754.0,274237.0,259685.0
2026-04-08 21:42:56.144517,163507,1609503748381792,1348348406,0.794464,-0.470432,0.046848,-11.83,-25.025,-29.6625,-28.328001,26.056002,-12.392,inter_set_rest,5,3.0,17933.0,135963.0,221754.0,274237.0,259685.0
2026-04-08 21:42:56.150714,163508,1609503748396370,1348363302,0.794464,-0.470432,-0.046848,-19.6525,-24.40375,-24.22,-28.328001,26.056002,-12.392,inter_set_rest,5,3.0,17933.0,135963.0,221754.0,274237.0,259685.0
2026-04-08 21:42:56.180904,163509,1609503748405284,1348371969,0.772992,-0.548512,-0.046848,-18.4275,-23.73875,-22.2775,-28.624,25.640001,-13.352,inter_set_rest,5,3.0,17933.0,135963.0,221754.0,274237.0,259685.0
2026-04-08 21:42:56.184452,163510,1609503748414280,1348380642,0.772992,-0.548512,-0.046848,-7.3675,-22.49625,-21.1575,-28.624,25.640001,-13.352,inter_set_rest,5,3.0,17933.0,135963.0,221754.0,274237.0,259685.0
2026-04-08 21:42:56.211996,163521,1609503748428811,1348395596,0.952576,-0.476288,-0.021472,2.87,-21.49875,-22.68875,-28.600002,25.344002,-13.512001,inter_set_rest,5,3.0,18073.0,136001.0,221526.0,273856.0,259315.0
2026-04-08 21:42:56.214482,163522,1609503748437794,1348404281,0.962336,-0.366976,-0.236192,8.085,-21.2625,-28.44625,-29.144001,25.032001,-13.704,inter_set_rest,5,3.0,18073.0,136001.0,221526.0,273856.0,259315.0
2026-04-08 21:42:56.216974,163523,1609503748452311,1348419215,0.962336,-0.366976,-0.236192,11.99625,-20.76375,-32.4275,-29.144001,25.032001,-13.704,inter_set_rest,5,3.0,18073.0,136001.0,221526.0,273856.0,259315.0
2026-04-08 21:42:56.219443,163524,1609503748461260,1348427920,0.743712,-0.288896,-0.197152,13.3,-20.895,-29.33,-28.984001,24.952002,-13.568001,inter_set_rest,5,3.0,18073.0,136001.0,221526.0,273856.0,259315.0
2026-04-08 21:42:56.249712,163525,1609503748475794,1348442790,0.743712,-0.288896,-0.197152,10.7975,-22.1375,-22.02375,-28.984001,24.952002,-13.568001,inter_set_rest,5,3.0,18073.0,136001.0,221526.0,273856.0,259315.0
2026-04-08 21:42:56.253266,163526,1609503748484722,1348451489,0.745664,-0.388448,-0.05856,1.61,-25.97875,-19.76625,-29.080002,25.208002,-13.072001,inter_set_rest,5,3.0,18073.0,136001.0,221526.0,273856.0,259315.0
2026-04-08 21:42:56.288452,163527,1609503748493659,1348460190,0.745664,-0.388448,-0.05856,2.485,-30.0125,-21.6825,-29.080002,25.208002,-13.072001,inter_set_rest,5,3.0,18073.0,136001.0,221526.0,273856.0,259315.0
2026-04-08 21:42:56.291999,163528,1609503748508150,1348475056,1.007232,-0.4392,-0.197152,4.15625,-32.68125,-25.6025,-29.024002,24.344002,-14.552001,inter_set_rest,5,3.0,18073.0,136001.0,221526.0,273856.0,259315.0
2026-04-08 21:42:56.294605,163529,1609503748517077,1348483787,1.007232,-0.4392,-0.08784,-2.19625,-32.34,-34.60625,-29.024002,24.344002,-14.552001,inter_set_rest,5,3.0,18073.0,136001.0,221526.0,273856.0,259315.0
2026-04-08 21:42:56.358278,163540,1609503748531742,1348498671,0.93696,-0.388448,-0.081984,-0.91875,-29.6625,-37.31875,-29.672,24.272001,-14.144001,inter_set_rest,5,3.0,17923.0,135242.0,220536.0,273187.0,258978.0
2026-04-08 21:42:56.360762,163541,1609503748540679,1348507374,0.661728,-0.378688,-0.179584,8.0325,-27.34375,-28.84,-29.400002,23.952002,-14.992001,inter_set_rest,5,3.0,17923.0,135242.0,220536.0,273187.0,258978.0
2026-04-08 21:42:56.363296,163542,1609503748555200,1348522278,0.661728,-0.378688,-0.179584,6.265,-27.04625,-20.86,-29.400002,23.952002,-14.992001,inter_set_rest,5,3.0,17923.0,135242.0,220536.0,273187.0,258978.0
2026-04-08 21:42:56.365875,163543,1609503748564201,1348530969,0.759328,-0.472384,-0.197152,-3.5,-27.1425,-21.4725,-29.44,23.960001,-14.232,inter_set_rest,5,3.0,17923.0,135242.0,220536.0,273187.0,258978.0
2026-04-08 21:42:56.368230,163544,1609503748573133,1348539630,0.759328,-0.472384,-0.197152,-7.11375,-26.95,-22.715,-29.44,23.960001,-14.232,inter_set_rest,5,3.0,17923.0,135242.0,220536.0,273187.0,258978.0
2026-04-08 21:42:56.370750,163545,1609503748587628,1348554525,1.095072,-0.320128,0.01952,-3.52625,-24.045,-21.60375,-29.184002,24.000002,-15.456,inter_set_rest,5,3.0,17923.0,135242.0,220536.0,273187.0,258978.0
2026-04-08 21:42:56.373220,163546,1609503748596573,1348563185,1.095072,-0.320128,0.01952,2.8525,-20.2825,-22.47,-29.184002,24.000002,-15.456,inter_set_rest,5,3.0,17923.0,135242.0,220536.0,273187.0,258978.0
2026-04-08 21:42:56.375733,163547,1609503748611140,1348578054,0.864736,-0.28304,-0.076128,11.97875,-16.8,-20.0725,-29.432001,23.912,-16.92,inter_set_rest,5,3.0,17923.0,135242.0,220536.0,273187.0,258978.0
2026-04-08 21:42:56.378261,163548,1609503748620114,1348586739,0.835456,-0.244,0.011712,7.4375,-16.905,-19.27625,-29.344002,23.400002,-16.832,inter_set_rest,5,3.0,17923.0,135242.0,220536.0,273187.0,258978.0
2026-04-08 21:42:56.409436,163559,1609503748634762,1348600125,0.835456,-0.244,0.011712,-0.9275,-18.165,-23.51125,-29.344002,23.400002,-16.832,inter_set_rest,5,3.0,17819.0,134718.0,219760.0,272563.0,258596.0
2026-04-08 21:42:56.412123,163560,1609503748644186,1348610907,1.026752,-0.26352,-0.091744,-3.1325,-19.2325,-26.01375,-29.400002,23.264002,-16.192001,inter_set_rest,5,3.0,17819.0,134718.0,219760.0,272563.0,258596.0
2026-04-08 21:42:56.414553,163561,1609503748653119,1348619624,1.026752,-0.26352,-0.091744,-2.96625,-17.9375,-25.0775,-29.400002,23.264002,-16.192001,inter_set_rest,5,3.0,17819.0,134718.0,219760.0,272563.0,258596.0
2026-04-08 21:42:56.444776,163562,1609503748667647,1348634496,1.001376,-0.173728,0.046848,-0.945,-17.40375,-22.522501,-29.928001,23.464,-15.472001,inter_set_rest,5,3.0,17819.0,134718.0,219760.0,272563.0,258596.0
2026-04-08 21:42:56.448343,163563,1609503748676598,1348643203,1.001376,-0.173728,0.046848,-4.45375,-17.78,-24.053751,-29.928001,23.464,-15.472001,inter_set_rest,5,3.0,17819.0,134718.0,219760.0,272563.0,258596.0
2026-04-08 21:42:56.450708,163564,1609503748691062,1348658064,0.817888,-0.212768,-0.13664,0.525,-18.94375,-27.02875,-29.736002,22.84,-16.856,inter_set_rest,5,3.0,17819.0,134718.0,219760.0,272563.0,258596.0
2026-04-08 21:42:56.453285,163565,1609503748699945,1348666751,0.845216,-0.271328,-0.103456,4.12125,-21.67375,-24.26375,-29.864002,22.400002,-17.336,inter_set_rest,5,3.0,17819.0,134718.0,219760.0,272563.0,258596.0
2026-04-08 21:42:56.483492,163566,1609503748708896,1348675489,0.845216,-0.271328,-0.103456,-0.0175,-22.61875,-21.81375,-29.864002,22.400002,-17.336,inter_set_rest,5,3.0,17819.0,134718.0,219760.0,272563.0,258596.0
2026-04-08 21:42:56.487048,163567,1609503748723370,1348690357,0.977952,-0.327936,0.081984,-4.55,-22.225,-21.9275,-29.808,22.536001,-17.272001,inter_set_rest,5,3.0,17819.0,134718.0,219760.0,272563.0,258596.0
2026-04-08 21:42:56.516936,163578,1609503748732762,1348699083,0.977952,-0.327936,0.081984,-2.24875,-19.9325,-20.0375,-29.808,22.536001,-17.272001,inter_set_rest,5,3.0,17577.0,133804.0,218665.0,271770.0,258136.0
2026-04-08 21:42:56.519465,163579,1609503748747422,1348714011,0.905728,-0.257664,-0.031232,4.83,-17.84125,-16.54625,-30.088001,22.28,-16.968,inter_set_rest,5,3.0,17577.0,133804.0,218665.0,271770.0,258136.0
2026-04-08 21:42:56.521996,163580,1609503748756366,1348722661,0.905728,-0.257664,-0.031232,5.0925,-16.835001,-17.885,-30.088001,22.28,-16.968,inter_set_rest,5,3.0,17577.0,133804.0,218665.0,271770.0,258136.0
2026-04-08 21:42:56.524453,163581,1609503748765312,1348731429,0.808128,-0.26352,-0.206912,6.95625,-16.275,-21.9275,-30.288002,22.048,-17.336,inter_set_rest,5,3.0,17577.0,133804.0,218665.0,271770.0,258136.0
2026-04-08 21:42:56.554742,163582,1609503748779807,1348746367,0.833504,-0.226432,-0.169824,17.5175,-14.62125,-20.36125,-29.976002,22.296001,-19.048,inter_set_rest,5,3.0,17577.0,133804.0,218665.0,271770.0,258136.0
2026-04-08 21:42:56.558473,163583,1609503748788720,1348755014,0.833504,-0.226432,-0.169824,16.91375,-13.405,-14.945,-29.976002,22.296001,-19.048,inter_set_rest,5,3.0,17577.0,133804.0,218665.0,271770.0,258136.0
2026-04-08 21:42:56.560831,163584,1609503748803156,1348769845,0.964288,-0.257664,-0.32208,5.20625,-12.4075,-17.40375,-30.248001,21.944,-17.68,inter_set_rest,5,3.0,17577.0,133804.0,218665.0,271770.0,258136.0
2026-04-08 21:42:56.567106,163585,1609503748812072,1348778504,0.964288,-0.257664,-0.32208,3.1675,-9.61625,-12.46875,-30.248001,21.944,-17.68,inter_set_rest,5,3.0,17577.0,133804.0,218665.0,271770.0,258136.0
2026-04-08 21:42:56.597167,163586,1609503748826558,1348793383,0.88816,-0.32208,-0.16592,6.20375,-8.32125,-0.8925,-30.008001,22.192001,-17.096,inter_set_rest,5,3.0,17577.0,133804.0,218665.0,271770.0,258136.0
2026-04-08 21:42:56.658250,163597,1609503748835580,1348802127,0.88816,-0.32208,-0.16592,11.64625,-7.875,5.0925,-30.008001,22.192001,-17.096,inter_set_rest,5,3.0,17359.0,133145.0,218051.0,271296.0,257871.0
2026-04-08 21:42:56.660782,163598,1609503748844516,1348810796,0.75152,-0.275232,-0.1952,6.4575,-9.59875,5.62625,-30.184002,22.008001,-17.392,inter_set_rest,5,3.0,17359.0,133145.0,218051.0,271296.0,257871.0
2026-04-08 21:42:56.663249,163599,1609503748859607,1348826154,0.75152,-0.275232,-0.07808,1.70625,-12.3725,-2.45875,-30.184002,22.008001,-17.392,inter_set_rest,5,3.0,17359.0,133145.0,218051.0,271296.0,257871.0
2026-04-08 21:42:56.665724,163600,1609503748868559,1348834834,0.940864,-0.259616,-0.07808,2.87875,-14.35875,-7.90125,-29.960001,22.2,-16.728,inter_set_rest,5,3.0,17359.0,133145.0,218051.0,271296.0,257871.0
2026-04-08 21:42:56.668244,163601,1609503748883002,1348849679,0.942816,-0.208864,-0.089792,-0.315,-14.56,-9.23125,-30.192001,22.000002,-17.504002,inter_set_rest,5,3.0,17359.0,133145.0,218051.0,271296.0,257871.0
2026-04-08 21:42:56.674697,163602,1609503748891929,1348858347,0.942816,-0.208864,-0.089792,0.455,-12.7225,-11.6375,-30.192001,22.000002,-17.504002,inter_set_rest,5,3.0,17359.0,133145.0,218051.0,271296.0,257871.0
2026-04-08 21:42:56.676942,163603,1609503748906418,1348873217,0.8296,-0.134688,-0.3416,6.9825,-11.261251,-7.76125,-29.944002,22.256,-17.44,inter_set_rest,5,3.0,17359.0,133145.0,218051.0,271296.0,257871.0
2026-04-08 21:42:56.679482,163604,1609503748915354,1348881930,0.8296,-0.134688,-0.3416,8.995,-9.75625,-1.6975,-29.944002,22.256,-17.44,inter_set_rest,5,3.0,17359.0,133145.0,218051.0,271296.0,257871.0
2026-04-08 21:42:56.681951,163605,1609503748924350,1348890598,0.876448,-0.218624,-0.236192,9.975,-9.6775,0.9275,-29.976002,22.624,-16.704,inter_set_rest,5,3.0,17359.0,133145.0,218051.0,271296.0,257871.0
2026-04-08 21:42:56.711987,163616,1609503748939242,1348906027,0.876448,-0.218624,-0.236192,8.5575,-12.01375,2.905,-29.976002,22.624,-16.704,inter_set_rest,5,3.0,17038.0,132152.0,217011.0,270574.0,257448.0
2026-04-08 21:42:56.714496,163617,1609503748948194,1348914696,0.866688,-0.314272,-0.169824,0.16625,-15.5575,-3.7975,-29.600002,22.448002,-16.072,inter_set_rest,5,3.0,17038.0,132152.0,217011.0,270574.0,257448.0
2026-04-08 21:42:56.716989,163618,1609503748962853,1348929995,0.847168,-0.277184,-0.249856,-5.8625,-14.875,-7.60375,-29.560001,22.240002,-17.112001,inter_set_rest,5,3.0,17038.0,132152.0,217011.0,270574.0,257448.0
2026-04-08 21:42:56.747235,163619,1609503748971789,1348938738,0.847168,-0.277184,-0.249856,-10.07125,-13.755,-5.83625,-29.560001,22.240002,-17.112001,inter_set_rest,5,3.0,17038.0,132152.0,217011.0,270574.0,257448.0
2026-04-08 21:42:56.751808,163620,1609503748980702,1348947390,0.831552,-0.310368,-0.16592,-12.80125,-11.515,-5.8275,-29.560001,22.240002,-17.112001,inter_set_rest,5,3.0,17038.0,132152.0,217011.0,270574.0,257448.0
2026-04-08 21:42:56.753684,163621,1609503748995211,1348962232,0.8296,-0.310368,-0.16592,-9.073751,-7.84875,-3.15875,-29.400002,22.128,-18.152,inter_set_rest,5,3.0,17038.0,132152.0,217011.0,270574.0,257448.0
2026-04-08 21:42:56.756957,163622,1609503749004179,1348970912,0.88816,-0.265472,-0.191296,-5.13625,-4.41,0.55125,-29.400002,22.064001,-17.960001,inter_set_rest,5,3.0,17038.0,132152.0,217011.0,270574.0,257448.0
2026-04-08 21:42:56.787212,163623,1609503749018655,1348985775,0.88816,-0.265472,-0.191296,-5.24125,-1.82,0.3325,-29.400002,22.064001,-17.960001,inter_set_rest,5,3.0,17038.0,132152.0,217011.0,270574.0,257448.0
2026-04-08 21:42:56.790810,163624,1609503749027559,1348994446,0.864736,-0.206912,-0.142496,0.90125,-0.175,-0.25375,-29.464,22.464,-17.872002,inter_set_rest,5,3.0,17038.0,132152.0,217011.0,270574.0,257448.0
2026-04-08 21:42:56.818214,163635,1609503749042094,1349007373,0.866688,-0.130784,-0.255712,1.6275,0.245,0.245,-29.28,22.344002,-19.592001,inter_set_rest,5,3.0,16793.0,131360.0,216085.0,269842.0,256960.0
2026-04-08 21:42:56.820706,163636,1609503749051363,1349018129,0.866688,-0.130784,-0.255712,-9.89625,0.7525,-4.34875,-29.28,22.344002,-19.592001,inter_set_rest,5,3.0,16793.0,131360.0,216085.0,269842.0,256960.0
2026-04-08 21:42:56.823203,163637,1609503749060370,1349026802,0.866688,-0.130784,-0.255712,-20.22125,2.03875,-6.74625,-29.28,22.344002,-19.592001,inter_set_rest,5,3.0,16793.0,131360.0,216085.0,269842.0,256960.0
2026-04-08 21:42:56.830209,163638,1609503749074854,1349041758,0.954528,-0.18544,-0.066368,-17.40375,3.85,-0.665,-29.52,22.232,-19.192001,inter_set_rest,5,3.0,16793.0,131360.0,216085.0,269842.0,256960.0
2026-04-08 21:42:56.858534,163639,1609503749083793,1349050448,0.851072,-0.230336,-0.103456,-11.97875,6.81625,7.1575,-29.352001,22.464,-17.632,inter_set_rest,5,3.0,16793.0,131360.0,216085.0,269842.0,256960.0
2026-04-08 21:42:56.862088,163640,1609503749098317,1349065279,0.851072,-0.230336,-0.103456,-13.71125,8.26,7.8225,-29.352001,22.464,-17.632,inter_set_rest,5,3.0,16793.0,131360.0,216085.0,269842.0,256960.0
2026-04-08 21:42:56.864561,163641,1609503749107284,1349073929,0.909632,-0.222528,-0.099552,-10.98125,8.3475,9.26625,-29.080002,22.288,-17.952002,inter_set_rest,5,3.0,16793.0,131360.0,216085.0,269842.0,256960.0
2026-04-08 21:42:56.870716,163642,1609503749116244,1349082616,0.909632,-0.222528,-0.099552,-9.24,8.68,13.125,-29.080002,22.288,-17.952002,inter_set_rest,5,3.0,16793.0,131360.0,216085.0,269842.0,256960.0
2026-04-08 21:42:56.962032,163653,1609503749130705,1349097608,0.952576,-0.30256,-0.101504,-8.96,8.1025,13.48375,-29.488,22.504002,-18.016,inter_set_rest,5,3.0,16808.0,131310.0,216004.0,269737.0,256883.0
2026-04-08 21:42:56.964522,163654,1609503749139959,1349106324,0.952576,-0.30256,-0.101504,-13.53625,6.76375,12.10125,-29.488,22.504002,-18.016,inter_set_rest,5,3.0,16808.0,131310.0,216004.0,269737.0,256883.0
2026-04-08 21:42:56.967084,163655,1609503749154422,1349121210,0.884256,-0.318176,-0.1952,-16.00375,5.46,5.69625,-29.2,22.536001,-18.432001,inter_set_rest,5,3.0,16808.0,131310.0,216004.0,269737.0,256883.0
2026-04-08 21:42:56.969533,163656,1609503749163339,1349129904,0.884256,-0.30256,-0.115168,-15.51375,4.3575,4.01625,-29.136002,22.112001,-19.136002,inter_set_rest,5,3.0,16808.0,131310.0,216004.0,269737.0,256883.0
2026-04-08 21:42:56.972005,163657,1609503749177857,1349144801,0.884256,-0.30256,-0.115168,-28.74375,1.2775,1.11125,-29.136002,22.112001,-19.136002,inter_set_rest,5,3.0,16808.0,131310.0,216004.0,269737.0,256883.0
2026-04-08 21:42:56.974496,163658,1609503749186848,1349153455,0.950624,-0.314272,-0.01952,-32.96125,1.33875,-2.40625,-29.152002,21.968,-19.0,inter_set_rest,5,3.0,16808.0,131310.0,216004.0,269737.0,256883.0
2026-04-08 21:42:56.977227,163659,1609503749195807,1349162142,0.950624,-0.314272,-0.01952,-28.14875,5.705,4.73375,-29.152002,21.968,-19.0,inter_set_rest,5,3.0,16808.0,131310.0,216004.0,269737.0,256883.0
2026-04-08 21:42:56.979541,163660,1609503749210331,1349177023,0.7808,-0.288896,-0.115168,-21.56875,9.30125,10.1325,-29.168001,22.28,-18.648,inter_set_rest,5,3.0,16808.0,131310.0,216004.0,269737.0,256883.0
2026-04-08 21:42:56.981993,163661,1609503749219258,1349185798,0.7808,-0.288896,-0.115168,-13.9825,10.57875,13.8425,-29.168001,22.28,-18.648,inter_set_rest,5,3.0,16808.0,131310.0,216004.0,269737.0,256883.0
2026-04-08 21:42:57.009437,163672,1609503749234009,1349200884,0.81008,-0.288896,-0.249856,-13.95625,10.40375,10.115,-28.968002,22.080002,-18.888,inter_set_rest,5,3.0,16886.0,131464.0,216029.0,269759.0,256901.0
2026-04-08 21:42:57.012004,163673,1609503749243019,1349209679,0.940864,-0.314272,-0.206912,-10.7975,8.61875,4.75125,-29.112001,22.112001,-17.112001,inter_set_rest,5,3.0,16886.0,131464.0,216029.0,269759.0,256901.0
2026-04-08 21:42:57.014481,163674,1609503749251934,1349218420,0.940864,-0.314272,-0.206912,-8.636251,8.00625,0.63,-29.112001,22.112001,-17.112001,inter_set_rest,5,3.0,16886.0,131464.0,216029.0,269759.0,256901.0
2026-04-08 21:42:57.020779,163675,1609503749266504,1349233305,0.874496,-0.257664,-0.310368,-10.35125,7.88375,-3.045,-29.008001,22.272001,-18.432001,inter_set_rest,5,3.0,16886.0,131464.0,216029.0,269759.0,256901.0
2026-04-08 21:42:57.050888,163676,1609503749275429,1349241999,0.874496,-0.257664,-0.310368,-13.22125,7.02625,-5.18,-29.008001,22.272001,-18.432001,inter_set_rest,5,3.0,16886.0,131464.0,216029.0,269759.0,256901.0
2026-04-08 21:42:57.054481,163677,1609503749289943,1349256853,0.85888,-0.177632,-0.085888,-9.89625,6.83375,-3.68375,-28.992,22.384,-17.528002,inter_set_rest,5,3.0,16886.0,131464.0,216029.0,269759.0,256901.0
2026-04-08 21:42:57.057036,163678,1609503749298802,1349265501,0.85888,-0.177632,-0.085888,-6.8075,8.4875,0.77875,-28.992,22.384,-17.528002,inter_set_rest,5,3.0,16886.0,131464.0,216029.0,269759.0,256901.0
2026-04-08 21:42:57.072379,163679,1609503749313409,1349280392,0.851072,-0.20496,-0.042944,-4.83,9.56375,5.62625,-29.080002,22.2,-18.336,inter_set_rest,5,3.0,16886.0,131464.0,216029.0,269759.0,256901.0
2026-04-08 21:42:57.076049,163680,1609503749322302,1349289075,0.851072,-0.20496,-0.042944,-8.04125,10.49125,9.345,-29.080002,22.2,-18.336,inter_set_rest,5,3.0,16886.0,131464.0,216029.0,269759.0,256901.0
2026-04-08 21:42:57.132030,163691,1609503749331233,1349297693,0.854976,-0.257664,-0.10736,-7.9625,11.8125,13.04625,-28.768002,22.160002,-17.384,inter_set_rest,5,3.0,16982.0,131600.0,216089.0,269762.0,256889.0
2026-04-08 21:42:57.134483,163692,1609503749345809,1349312555,0.876448,-0.251808,-0.07808,-10.26375,13.0375,15.9425,-28.744001,22.656,-18.416,inter_set_rest,5,3.0,16982.0,131600.0,216089.0,269762.0,256889.0
2026-04-08 21:42:57.136981,163693,1609503749354717,1349321206,0.876448,-0.251808,-0.07808,-8.5575,13.011251,14.02625,-28.744001,22.656,-18.416,inter_set_rest,5,3.0,16982.0,131600.0,216089.0,269762.0,256889.0
2026-04-08 21:42:57.139473,163694,1609503749369242,1349336087,0.909632,-0.333792,0.003904,-2.205,12.845,11.59375,-28.984001,22.672,-17.304,inter_set_rest,5,3.0,16982.0,131600.0,216089.0,269762.0,256889.0
2026-04-08 21:42:57.142006,163695,1609503749378248,1349344804,0.909632,-0.333792,0.003904,3.885,12.81875,8.75,-28.984001,22.672,-17.304,inter_set_rest,5,3.0,16982.0,131600.0,216089.0,269762.0,256889.0
2026-04-08 21:42:57.147038,163696,1609503749392739,1349359679,0.853024,-0.318176,-0.085888,2.0125,11.8475,4.64625,-28.952002,22.752,-16.392,inter_set_rest,5,3.0,16982.0,131600.0,216089.0,269762.0,256889.0
2026-04-08 21:42:57.155790,163697,1609503749401640,1349368367,0.853024,-0.318176,-0.085888,-3.0275,11.655,2.38,-28.952002,22.752,-16.392,inter_set_rest,5,3.0,16982.0,131600.0,216089.0,269762.0,256889.0
2026-04-08 21:42:57.185915,163698,1609503749410578,1349377036,0.933056,-0.32208,0.0,-6.7025,12.60875,4.96125,-28.728,22.984001,-17.184,inter_set_rest,5,3.0,16982.0,131600.0,216089.0,269762.0,256889.0
2026-04-08 21:42:57.189544,163699,1609503749425043,1349391909,0.864736,-0.359168,-0.17568,-6.76375,13.7375,8.86375,-28.552002,22.808,-18.216002,inter_set_rest,5,3.0,16982.0,131600.0,216089.0,269762.0,256889.0
2026-04-08 21:42:57.254735,163710,1609503749434041,1349400654,0.864736,-0.359168,-0.17568,-2.40625,14.6125,10.78,-28.552002,22.808,-18.216002,inter_set_rest,5,3.0,17017.0,131610.0,215970.0,269623.0,256745.0
2026-04-08 21:42:57.258246,163711,1609503749448657,1349415586,0.895968,-0.329888,-0.074176,5.01375,14.44625,9.485,-28.664001,23.056002,-16.608002,inter_set_rest,5,3.0,17017.0,131610.0,215970.0,269623.0,256745.0
2026-04-08 21:42:57.260734,163712,1609503749457586,1349424298,0.895968,-0.329888,-0.074176,15.88125,13.7725,6.71125,-28.664001,23.056002,-16.608002,inter_set_rest,5,3.0,17017.0,131610.0,215970.0,269623.0,256745.0
2026-04-08 21:42:57.263265,163713,1609503749472103,1349439173,0.933056,-0.236192,-0.05856,20.95625,13.41375,3.29875,-28.584002,23.44,-16.232,inter_set_rest,5,3.0,17017.0,131610.0,215970.0,269623.0,256745.0
2026-04-08 21:42:57.265682,163714,1609503749481005,1349447814,0.933056,-0.236192,-0.05856,18.165,13.13375,-0.97125,-28.584002,23.44,-16.232,inter_set_rest,5,3.0,17017.0,131610.0,215970.0,269623.0,256745.0
2026-04-08 21:42:57.268234,163715,1609503749489912,1349456564,0.948672,-0.281088,-0.033184,11.90875,12.8975,-3.29875,-28.568,23.328001,-17.256,inter_set_rest,5,3.0,17017.0,131610.0,215970.0,269623.0,256745.0
2026-04-08 21:42:57.270768,163716,1609503749504379,1349471450,0.817888,-0.316224,-0.197152,4.1475,12.4775,-2.4325,-28.568,23.304,-17.04,inter_set_rest,5,3.0,17017.0,131610.0,215970.0,269623.0,256745.0
2026-04-08 21:42:57.273151,163717,1609503749513305,1349480170,0.817888,-0.316224,-0.197152,-1.5925,12.355001,-1.0675,-28.584002,23.304,-17.04,inter_set_rest,5,3.0,17017.0,131610.0,215970.0,269623.0,256745.0
2026-04-08 21:42:57.303522,163718,1609503749527789,1349493027,0.872544,-0.33184,-0.025376,-0.4375,12.03125,0.02625,-28.680002,23.336,-16.08,inter_set_rest,5,3.0,17017.0,131610.0,215970.0,269623.0,256745.0
2026-04-08 21:42:57.331912,163729,1609503749537260,1349503902,0.872544,-0.33184,-0.025376,1.96,13.1075,2.7825,-28.680002,23.336,-16.08,inter_set_rest,5,3.0,17095.0,131774.0,216172.0,269741.0,256851.0
2026-04-08 21:42:57.334537,163730,1609503749551747,1349518763,0.88816,-0.343552,-0.167872,2.7475,13.95625,4.2875,-28.400002,23.312,-17.240002,inter_set_rest,5,3.0,17095.0,131774.0,216172.0,269741.0,256851.0
2026-04-08 21:42:57.336981,163731,1609503749560690,1349527418,0.88816,-0.343552,-0.167872,3.10625,13.5975,3.96375,-28.400002,23.312,-17.240002,inter_set_rest,5,3.0,17095.0,131774.0,216172.0,269741.0,256851.0
2026-04-08 21:42:57.339490,163732,1609503749569614,1349536113,0.89792,-0.320128,0.017568,2.54625,14.0875,4.12125,-28.488,23.696001,-16.216002,inter_set_rest,5,3.0,17095.0,131774.0,216172.0,269741.0,256851.0
2026-04-08 21:42:57.341979,163733,1609503749584132,1349550982,0.89792,-0.320128,-0.201056,5.5825,14.83125,3.75375,-28.488,23.696001,-16.216002,inter_set_rest,5,3.0,17095.0,131774.0,216172.0,269741.0,256851.0
2026-04-08 21:42:57.347035,163734,1609503749593052,1349559664,0.845216,-0.333792,-0.189344,8.925,15.1025,1.07625,-28.464,24.112001,-15.048,inter_set_rest,5,3.0,17095.0,131774.0,216172.0,269741.0,256851.0
2026-04-08 21:42:57.377284,163735,1609503749607551,1349574518,0.981856,-0.333792,0.056608,9.7125,14.27125,-2.4325,-28.328001,23.736002,-16.048,inter_set_rest,5,3.0,17095.0,131774.0,216172.0,269741.0,256851.0
2026-04-08 21:42:57.380800,163736,1609503749616565,1349583176,0.981856,-0.333792,0.056608,9.03875,14.14875,-4.2875,-28.328001,23.736002,-16.048,inter_set_rest,5,3.0,17095.0,131774.0,216172.0,269741.0,256851.0
2026-04-08 21:42:57.383208,163737,1609503749625500,1349591877,0.854976,-0.30256,0.021472,6.545,14.63875,-2.765,-28.248001,23.920002,-14.704,inter_set_rest,5,3.0,17095.0,131774.0,216172.0,269741.0,256851.0
2026-04-08 21:42:57.410696,163748,1609503749640114,1349606783,0.854976,-0.30256,0.021472,3.0625,14.70875,-0.0175,-28.248001,23.920002,-14.704,inter_set_rest,5,3.0,17073.0,131675.0,216076.0,269758.0,256863.0
2026-04-08 21:42:57.413199,163749,1609503749649139,1349615505,0.831552,-0.300608,-0.013664,-1.04125,13.86,-0.13125,-27.936,23.68,-14.896001,inter_set_rest,5,3.0,17073.0,131675.0,216076.0,269758.0,256863.0
2026-04-08 21:42:57.418257,163750,1609503749663643,1349630408,0.831552,-0.300608,-0.013664,0.5425,13.72,-1.16375,-27.936,23.68,-14.896001,inter_set_rest,5,3.0,17073.0,131675.0,216076.0,269758.0,256863.0
2026-04-08 21:42:57.426955,163751,1609503749672558,1349639140,0.886208,-0.327936,-0.095648,5.88,13.877501,-1.98625,-28.784002,24.048,-14.976001,inter_set_rest,5,3.0,17073.0,131675.0,216076.0,269758.0,256863.0
2026-04-08 21:42:57.457205,163752,1609503749687033,1349654040,0.93696,-0.269376,0.070272,10.823751,14.65625,-3.99875,-28.44,24.088001,-13.704,inter_set_rest,5,3.0,17073.0,131675.0,216076.0,269758.0,256863.0
2026-04-08 21:42:57.460770,163753,1609503749695913,1349662705,0.93696,-0.269376,0.070272,16.59875,15.60125,-6.86,-28.44,24.088001,-13.704,inter_set_rest,5,3.0,17073.0,131675.0,216076.0,269758.0,256863.0
2026-04-08 21:42:57.463309,163754,1609503749704843,1349671381,0.93696,-0.269376,0.070272,19.9325,15.190001,-7.6125,-28.44,24.088001,-13.704,inter_set_rest,5,3.0,17073.0,131675.0,216076.0,269758.0,256863.0
2026-04-08 21:42:57.493469,163755,1609503749719352,1349686244,0.903776,-0.275232,-0.074176,19.34625,15.68,-6.37875,-28.408,23.984001,-15.336,inter_set_rest,5,3.0,17073.0,131675.0,216076.0,269758.0,256863.0
2026-04-08 21:42:57.497027,163756,1609503749728293,1349694945,0.968192,-0.28304,0.001952,17.87625,16.135,-5.53875,-28.680002,24.096,-14.552001,inter_set_rest,5,3.0,17073.0,131675.0,216076.0,269758.0,256863.0
2026-04-08 21:42:57.584445,163767,1609503749743316,1349710097,0.968192,-0.28304,0.001952,15.9425,15.68875,-5.565,-28.680002,24.096,-14.552001,inter_set_rest,4,3.0,17093.0,131857.0,216402.0,270016.0,257037.0
2026-04-08 21:42:57.586900,163768,1609503749752346,1349718791,0.960384,-0.308416,-0.080032,15.225,15.77625,-7.0525,-28.504002,24.224,-13.968,inter_set_rest,4,3.0,17093.0,131857.0,216402.0,270016.0,257037.0
2026-04-08 21:42:57.589473,163769,1609503749761339,1349727475,0.960384,-0.308416,-0.080032,15.49625,17.14125,-8.47875,-28.504002,24.224,-13.968,inter_set_rest,4,3.0,17093.0,131857.0,216402.0,270016.0,257037.0
2026-04-08 21:42:57.591924,163770,1609503749775906,1349742347,0.929152,-0.275232,0.007808,15.96875,18.2875,-9.205,-28.768002,23.592001,-13.288001,inter_set_rest,4,3.0,17093.0,131857.0,216402.0,270016.0,257037.0
2026-04-08 21:42:57.594428,163771,1609503749784827,1349751039,0.929152,-0.275232,0.007808,17.4125,19.4425,-10.14125,-28.768002,23.592001,-13.288001,inter_set_rest,4,3.0,17093.0,131857.0,216402.0,270016.0,257037.0
