pc_time,serial_num,sensor_ts,host_ts,ax,ay,az,gx,gy,gz,mx,my,mz,phase,rpe,weight_kg,ppg_a,ppg_b,ppg_c,ppg_d,ppg_e
2026-04-08 21:46:03.317292,198702,1609503935527716,1535494413,0.983808,-0.054656,0.052704,-41.8775,-6.6325,34.79875,-31.888002,-6.632,-6.864,none,4,3.0,19619.0,139567.0,225207.0,276579.0,261390.0
2026-04-08 21:46:03.318717,198703,1609503935536663,1535503112,1.009184,-0.119072,0.173728,-43.6275,-7.14,35.76125,-31.992,-6.064,-6.712,none,4,3.0,19619.0,139567.0,225207.0,276579.0,261390.0
2026-04-08 21:46:03.319318,198704,1609503935545670,1535511841,1.009184,-0.119072,0.173728,-41.29125,-7.91875,37.89625,-31.992,-6.064,-6.712,none,4,3.0,19619.0,139567.0,225207.0,276579.0,261390.0
2026-04-08 21:46:03.321104,198705,1609503935560199,1535526749,0.942816,-0.031232,0.02928,-36.3475,-7.74375,44.03,-31.944002,-5.488,-7.68,none,4,3.0,19619.0,139567.0,225207.0,276579.0,261390.0
2026-04-08 21:46:03.351973,198706,1609503935569119,1535535426,0.942816,-0.031232,0.02928,-35.56875,-7.48125,50.93375,-31.944002,-5.488,-7.68,none,4,3.0,19619.0,139567.0,225207.0,276579.0,261390.0
2026-04-08 21:46:03.356428,198707,1609503935583574,1535550293,1.04432,-0.027328,0.308416,-38.3075,-8.28625,58.02125,-32.128002,-5.296001,-7.576,none,4,3.0,19619.0,139567.0,225207.0,276579.0,261390.0
2026-04-08 21:46:03.358758,198708,1609503935592463,1535558928,1.04432,-0.199104,0.0976,-44.80875,-8.05,64.058754,-32.128002,-5.296001,-7.576,none,4,3.0,19619.0,139567.0,225207.0,276579.0,261390.0
2026-04-08 21:46:03.390240,198709,1609503935607010,1535573842,1.085312,-0.1952,0.0976,-51.205,-6.65875,66.7975,-32.568,-4.336,-7.616,none,4,3.0,19619.0,139567.0,225207.0,276579.0,261390.0
2026-04-08 21:46:03.391161,198710,1609503935615933,1535582501,1.075552,-0.249856,0.122976,-53.165,-5.6,68.8625,-32.552002,-3.472,-7.624001,none,4,3.0,19619.0,139567.0,225207.0,276579.0,261390.0
2026-04-08 21:46:03.418329,198721,1609503935624921,1535591208,1.075552,-0.249856,0.122976,-58.40625,-6.755,75.50375,-32.552002,-3.472,-7.624001,none,4,3.0,20001.0,140783.0,226564.0,277604.0,262014.0
2026-04-08 21:46:03.420791,198722,1609503935639481,1535606145,1.05408,-0.300608,0.064416,-55.1775,-4.9175,81.73375,-32.4,-2.552,-7.464,none,4,3.0,20001.0,140783.0,226564.0,277604.0,262014.0
2026-04-08 21:46:03.423344,198723,1609503935648455,1535614832,1.05408,-0.300608,0.064416,-44.9925,-3.08875,83.8425,-32.4,-2.552,-7.464,none,4,3.0,20001.0,140783.0,226564.0,277604.0,262014.0
2026-04-08 21:46:03.425889,198724,1609503935663002,1535629743,0.99552,-0.4392,0.105408,-37.2575,-1.00625,82.5825,-32.176003,-1.4,-7.36,none,4,3.0,20001.0,140783.0,226564.0,277604.0,262014.0
2026-04-08 21:46:03.432075,198725,1609503935671945,1535638411,0.99552,-0.4392,0.105408,-34.27375,0.14,76.60625,-32.176003,-1.4,-7.36,none,4,3.0,20001.0,140783.0,226564.0,277604.0,262014.0
2026-04-08 21:46:03.462239,198726,1609503935686411,1535653327,0.983808,-0.396256,0.279136,-28.16625,2.44125,73.01875,-32.0,-0.552,-7.024,none,4,3.0,20001.0,140783.0,226564.0,277604.0,262014.0
2026-04-08 21:46:03.465790,198727,1609503935695309,1535661989,0.997472,-0.37088,0.249856,-16.37125,3.92,74.33125,-32.144,0.488,-7.376,none,4,3.0,20001.0,140783.0,226564.0,277604.0,262014.0
2026-04-08 21:46:03.468455,198728,1609503935704221,1535670643,0.997472,-0.37088,0.249856,-4.80375,5.495,76.06375,-32.144,0.488,-7.376,none,4,3.0,20001.0,140783.0,226564.0,277604.0,262014.0
2026-04-08 21:46:03.540876,198740,1609503935718756,1535685446,1.04432,-0.427488,0.23424,0.04375,7.1575,74.445,-32.24,1.184,-6.088,none,4,3.0,20082.0,141172.0,227083.0,277911.0,262178.0
2026-04-08 21:46:03.543333,198741,1609503935727737,1535694191,1.04432,-0.427488,0.23424,0.53375,8.19,69.8075,-32.24,1.184,-6.088,none,4,3.0,20082.0,141172.0,227083.0,277911.0,262178.0
2026-04-08 21:46:03.545832,198742,1609503935742246,1535709065,1.020896,-0.501664,0.228384,-3.5175,9.2575,68.285,-32.08,2.288,-7.056,none,4,3.0,20082.0,141172.0,227083.0,277911.0,262178.0
2026-04-08 21:46:03.550065,198743,1609503935751133,1535717788,1.020896,-0.501664,0.228384,-13.3875,8.37375,71.84625,-32.08,2.288,-7.056,none,4,3.0,20082.0,141172.0,227083.0,277911.0,262178.0
2026-04-08 21:46:03.552494,198744,1609503935765652,1535732740,1.032608,-0.51728,0.288896,-16.9925,6.3875,78.95125,-31.744001,3.56,-6.896,none,4,3.0,20082.0,141172.0,227083.0,277911.0,262178.0
2026-04-08 21:46:03.553613,198745,1609503935774587,1535741465,1.06384,-0.521184,0.267424,-6.20375,8.33875,85.435,-31.464,4.56,-7.784,none,4,3.0,20082.0,141172.0,227083.0,277911.0,262178.0
2026-04-08 21:46:03.555796,198746,1609503935783640,1535750190,1.06384,-0.521184,0.267424,8.44375,11.4275,86.485,-31.464,4.56,-7.784,none,4,3.0,20082.0,141172.0,227083.0,277911.0,262178.0
2026-04-08 21:46:03.558354,198747,1609503935798161,1535765088,0.915488,-0.530944,-0.062464,16.10875,13.48375,81.82125,-31.240002,5.784,-5.064,none,4,3.0,20082.0,141172.0,227083.0,277911.0,262178.0
2026-04-08 21:46:03.588654,198748,1609503935807136,1535773819,0.915488,-0.530944,-0.062464,15.12875,15.51375,77.77,-31.240002,5.784,-5.064,none,4,3.0,20082.0,141172.0,227083.0,277911.0,262178.0
2026-04-08 21:46:03.617124,198759,1609503935821792,1535788760,0.929152,-0.542656,0.158112,13.011251,14.971251,78.51375,-30.704002,6.616,-4.328,none,4,3.0,19794.0,140263.0,226100.0,277362.0,261911.0
2026-04-08 21:46:03.619590,198760,1609503935830731,1535797406,0.929152,-0.542656,0.158112,7.30625,14.035,80.98125,-30.704002,6.616,-4.328,none,4,3.0,19794.0,140263.0,226100.0,277362.0,261911.0
2026-04-08 21:46:03.622133,198761,1609503935839679,1535806123,0.886208,-0.616832,0.177632,4.50625,15.44375,80.28125,-30.352001,7.872,-6.008,none,4,3.0,19794.0,140263.0,226100.0,277362.0,261911.0
2026-04-08 21:46:03.625170,198762,1609503935854257,1535821049,0.886208,-0.675392,-0.099552,5.81,16.59,78.47,-30.352001,7.872,-8.056001,none,4,3.0,19794.0,140263.0,226100.0,277362.0,261911.0
2026-04-08 21:46:03.627139,198763,1609503935863212,1535829765,0.85888,-0.675392,-0.099552,3.75375,17.82375,74.89125,-30.104002,8.784,-6.536,none,4,3.0,19794.0,140263.0,226100.0,277362.0,261911.0
2026-04-08 21:46:03.657324,198764,1609503935877751,1535844649,0.841312,-0.587552,0.17568,5.31125,18.725,71.96,-29.368002,9.752001,-5.88,none,4,3.0,19794.0,140263.0,226100.0,277362.0,261911.0
2026-04-08 21:46:03.660960,198765,1609503935886687,1535853318,0.841312,-0.587552,0.17568,6.78125,18.17375,71.496254,-29.368002,9.752001,-5.88,none,4,3.0,19794.0,140263.0,226100.0,277362.0,261911.0
2026-04-08 21:46:03.663716,198766,1609503935901198,1535868237,0.856928,-0.610976,0.171776,14.41125,19.3725,70.58625,-28.936,10.592001,-5.008,none,4,3.0,19794.0,140263.0,226100.0,277362.0,261911.0
2026-04-08 21:46:03.669658,198767,1609503935910118,1535876926,0.856928,-0.610976,0.171776,20.04625,18.89125,68.62625,-28.936,10.592001,-5.008,none,4,3.0,19794.0,140263.0,226100.0,277362.0,261911.0
2026-04-08 21:46:03.699857,198768,1609503935919057,1535885598,0.823744,-0.618784,0.138592,17.96375,16.0475,63.37625,-28.672,11.480001,-4.56,none,4,3.0,19794.0,140263.0,226100.0,277362.0,261911.0
2026-04-08 21:46:03.730844,198779,1609503935933572,1535900514,0.823744,-0.618784,0.138592,14.980001,14.315001,57.8375,-28.672,11.480001,-4.56,none,4,3.0,19390.0,138995.0,224762.0,276566.0,261566.0
2026-04-08 21:46:03.733379,198780,1609503935942477,1535909169,0.786656,-0.667584,0.070272,10.36875,11.3225,55.04625,-27.976002,12.440001,-2.224,none,4,3.0,19390.0,138995.0,224762.0,276566.0,261566.0
2026-04-08 21:46:03.735845,198781,1609503935957025,1535924045,0.69296,-0.687104,0.060512,8.636251,8.33,55.510002,-27.544,13.264001,-5.904,none,4,3.0,19390.0,138995.0,224762.0,276566.0,261566.0
2026-04-08 21:46:03.738377,198782,1609503935965960,1535932779,0.69296,-0.687104,0.060512,9.625,4.725,55.72,-27.544,13.264001,-5.904,none,4,3.0,19390.0,138995.0,224762.0,276566.0,261566.0
2026-04-08 21:46:03.740854,198783,1609503935980566,1535947732,0.726144,-0.72224,0.132736,14.56875,1.54875,54.50375,-26.984001,14.032001,-5.304,none,4,3.0,19390.0,138995.0,224762.0,276566.0,261566.0
2026-04-08 21:46:03.803222,198784,1609503935989500,1535956444,0.726144,-0.72224,0.132736,22.1025,-3.535,50.05875,-26.984001,14.032001,-5.304,none,4,3.0,19390.0,138995.0,224762.0,276566.0,261566.0
2026-04-08 21:46:03.805913,198785,1609503935998504,1535965118,0.81008,-0.710528,0.076128,34.16,-6.20375,43.0325,-26.696001,14.080001,-4.472,none,4,3.0,19390.0,138995.0,224762.0,276566.0,261566.0
2026-04-08 21:46:03.813683,198786,1609503936012985,1535979962,0.81008,-0.710528,0.076128,45.96375,-6.92125,33.52125,-26.696001,14.080001,-4.472,none,4,3.0,19390.0,138995.0,224762.0,276566.0,261566.0
2026-04-08 21:46:03.841403,198797,1609503936021896,1535989061,0.628544,-0.620736,-0.22448,51.68625,-10.885,24.9025,-26.416,14.496,-5.056,none,4,3.0,19161.0,138451.0,224280.0,276248.0,261425.0
2026-04-08 21:46:03.844317,198798,1609503936036400,1536001904,0.718336,-0.714432,0.20496,45.01875,-15.91625,23.0825,-26.12,15.024001,-4.512,none,4,3.0,19161.0,138451.0,224280.0,276248.0,261425.0
2026-04-08 21:46:03.850129,198799,1609503936045616,1536012644,0.718336,-0.714432,0.20496,45.15875,-22.42625,22.8025,-26.12,15.024001,-4.512,none,4,3.0,19161.0,138451.0,224280.0,276248.0,261425.0
2026-04-08 21:46:03.851828,198800,1609503936054534,1536021368,0.718336,-0.714432,0.20496,42.88375,-24.9375,23.72125,-26.12,15.024001,-4.512,none,4,3.0,19161.0,138451.0,224280.0,276248.0,261425.0
2026-04-08 21:46:03.853354,198801,1609503936069161,1536036255,0.540704,-0.550464,0.103456,21.9975,-27.1075,20.3,-25.768002,15.368001,-5.592001,none,4,3.0,19161.0,138451.0,224280.0,276248.0,261425.0
2026-04-08 21:46:03.857577,198802,1609503936078240,1536044940,0.501664,-0.632448,-0.085888,-5.74875,-31.9025,18.9525,-25.352001,15.800001,-4.992,none,4,3.0,19161.0,138451.0,224280.0,276248.0,261425.0
2026-04-08 21:46:03.859305,198803,1609503936092770,1536059816,0.501664,-0.632448,-0.085888,-10.6925,-35.35875,18.97875,-25.352001,15.800001,-4.992,none,4,3.0,19161.0,138451.0,224280.0,276248.0,261425.0
2026-04-08 21:46:03.860898,198804,1609503936101761,1536068524,0.45872,-0.80032,-0.208864,-15.2775,-36.12875,23.1,-24.784,16.2,-5.504,none,4,3.0,19161.0,138451.0,224280.0,276248.0,261425.0
2026-04-08 21:46:03.891061,198805,1609503936116238,1536083390,0.47824,-0.806176,0.046848,-14.21875,-40.425,28.16625,-24.784,16.264,-6.344,none,4,3.0,19161.0,138451.0,224280.0,276248.0,261425.0
2026-04-08 21:46:03.924364,198816,1609503936125573,1536092132,0.47824,-0.806176,0.046848,1.72375,-41.95625,20.7025,-24.232,16.264,-6.344,none,4,3.0,18814.0,137182.0,222915.0,275240.0,260860.0
2026-04-08 21:46:03.926848,198817,1609503936134479,1536100801,0.47824,-0.806176,0.046848,15.26875,-39.8475,6.02875,-24.232,16.264,-6.344,none,4,3.0,18814.0,137182.0,222915.0,275240.0,260860.0
2026-04-08 21:46:03.928370,198818,1609503936148929,1536115665,0.445056,-0.689056,0.091744,25.9,-40.32,-3.96375,-24.192001,16.176,-5.072,none,4,3.0,18814.0,137182.0,222915.0,275240.0,260860.0
2026-04-08 21:46:03.932662,198819,1609503936157882,1536124358,0.493856,-0.698816,-0.060512,32.40125,-40.90625,-3.2375,-24.28,16.368,-7.328001,none,4,3.0,18814.0,137182.0,222915.0,275240.0,260860.0
2026-04-08 21:46:03.935115,198820,1609503936172399,1536139279,0.493856,-0.698816,-0.060512,28.875,-45.36875,3.1325,-24.28,16.368,-7.328001,none,4,3.0,18814.0,137182.0,222915.0,275240.0,260860.0
2026-04-08 21:46:03.963581,198821,1609503936181352,1536147959,0.509472,-0.661728,0.119072,21.46375,-49.84875,6.25625,-23.800001,16.480001,-7.016,none,4,3.0,18814.0,137182.0,222915.0,275240.0,260860.0
2026-04-08 21:46:03.967207,198822,1609503936195832,1536162827,0.509472,-0.661728,0.119072,13.53625,-50.14625,4.1475,-23.800001,16.480001,-7.016,none,4,3.0,18814.0,137182.0,222915.0,275240.0,260860.0
2026-04-08 21:46:03.969600,198823,1609503936204730,1536171478,0.415776,-0.659776,0.11712,11.10375,-49.93625,1.37375,-23.584002,16.664001,-10.712001,none,4,3.0,18814.0,137182.0,222915.0,275240.0,260860.0
2026-04-08 21:46:03.972157,198824,1609503936213657,1536180158,0.415776,-0.659776,0.11712,14.28875,-49.23625,0.1925,-23.584002,16.664001,-10.712001,none,4,3.0,18814.0,137182.0,222915.0,275240.0,260860.0
2026-04-08 21:46:04.030347,198835,1609503936228198,1536195137,0.349408,-0.74176,0.015616,14.18375,-50.37375,1.6625,-23.44,16.688002,-8.944,none,4,3.0,18806.0,137200.0,222932.0,275213.0,260843.0
2026-04-08 21:46:04.033810,198836,1609503936237150,1536203832,0.394304,-0.698816,0.142496,16.07375,-53.2525,3.535,-23.44,16.608002,-11.168,none,4,3.0,18806.0,137200.0,222932.0,275213.0,260843.0
2026-04-08 21:46:04.036085,198837,1609503936251613,1536218845,0.394304,-0.698816,0.142496,19.18875,-57.00625,4.1825,-23.304,16.608002,-11.168,none,4,3.0,18806.0,137200.0,222932.0,275213.0,260843.0
2026-04-08 21:46:04.037130,198838,1609503936260614,1536227518,0.372832,-0.622688,0.076128,23.26625,-57.076252,5.81875,-23.264002,17.136002,-8.504001,none,4,3.0,18806.0,137200.0,222932.0,275213.0,260843.0
2026-04-08 21:46:04.039851,198839,1609503936269700,1536236288,0.372832,-0.622688,0.076128,29.3825,-56.035,6.50125,-23.264002,17.136002,-8.504001,none,4,3.0,18806.0,137200.0,222932.0,275213.0,260843.0
2026-04-08 21:46:04.042235,198840,1609503936284217,1536251249,0.281088,-0.710528,0.119072,28.0,-54.7925,8.09375,-23.256,17.784,-9.264001,none,4,3.0,18806.0,137200.0,222932.0,275213.0,260843.0
2026-04-08 21:46:04.109055,198841,1609503936293098,1536259950,0.281088,-0.710528,0.119072,26.41625,-57.54,13.08125,-23.256,17.784,-9.264001,none,4,3.0,18806.0,137200.0,222932.0,275213.0,260843.0
2026-04-08 21:46:04.112358,198842,1609503936307571,1536272803,0.288896,-0.759328,-0.109312,22.0325,-63.7175,15.3125,-22.864,17.672,-9.384001,none,4,3.0,18806.0,137200.0,222932.0,275213.0,260843.0
2026-04-08 21:46:04.114625,198843,1609503936316870,1536283533,0.288896,-0.759328,0.218624,29.18125,-64.25125,13.6325,-22.864,17.672,-9.384001,none,4,3.0,18806.0,137200.0,222932.0,275213.0,260843.0
2026-04-08 21:46:04.147066,198854,1609503936331827,1536298823,0.4392,-0.689056,0.222528,42.49875,-59.7275,11.83,-22.544,17.888,-11.56,none,4,3.0,18813.0,137161.0,222757.0,275156.0,260860.0
2026-04-08 21:46:04.149607,198855,1609503936340770,1536307520,0.335744,-0.599264,0.144448,48.74625,-56.48125,13.62375,-22.536001,18.320002,-10.928,none,4,3.0,18813.0,137161.0,222757.0,275156.0,260860.0
2026-04-08 21:46:04.152090,198856,1609503936349701,1536316181,0.335744,-0.599264,0.144448,44.45875,-56.4025,17.40375,-22.536001,18.320002,-10.928,none,4,3.0,18813.0,137161.0,222757.0,275156.0,260860.0
2026-04-08 21:46:04.154594,198857,1609503936364150,1536331063,0.421632,-0.769088,-0.267424,39.97875,-56.805,17.85,-22.384,19.192001,-10.040001,none,4,3.0,18813.0,137161.0,222757.0,275156.0,260860.0
2026-04-08 21:46:04.157129,198858,1609503936373060,1536339747,0.421632,-0.769088,-0.267424,40.83625,-59.91125,17.92,-22.384,19.192001,-10.040001,none,4,3.0,18813.0,137161.0,222757.0,275156.0,260860.0
2026-04-08 21:46:04.159605,198859,1609503936387549,1536354622,0.515328,-0.880352,0.128832,61.53875,-62.16875,15.49625,-22.808,19.432001,-8.92,none,4,3.0,18813.0,137161.0,222757.0,275156.0,260860.0
2026-04-08 21:46:04.162110,198860,1609503936396501,1536363381,0.515328,-0.880352,0.128832,83.9125,-55.5275,13.86875,-22.808,19.432001,-8.92,none,4,3.0,18813.0,137161.0,222757.0,275156.0,260860.0
2026-04-08 21:46:04.164646,198861,1609503936405484,1536372052,0.499712,-0.620736,0.216672,87.675,-49.81375,11.33125,-22.656,19.896002,-7.72,none,4,3.0,18813.0,137161.0,222757.0,275156.0,260860.0
2026-04-08 21:46:04.194811,198862,1609503936419990,1536386941,0.489952,-0.677344,0.001952,75.04875,-48.67625,9.7125,-22.776001,20.544,-10.552,none,4,3.0,18813.0,137161.0,222757.0,275156.0,260860.0
2026-04-08 21:46:04.223408,198873,1609503936428956,1536395706,0.489952,-0.677344,0.001952,66.0975,-50.68875,12.8275,-22.776001,20.544,-10.552,none,4,3.0,18860.0,137301.0,222972.0,275187.0,260835.0
2026-04-08 21:46:04.225849,198874,1609503936443398,1536408569,0.558272,-0.769088,-0.101504,65.61625,-53.9,14.2975,-22.800001,21.152,-10.56,none,4,3.0,18860.0,137301.0,222972.0,275187.0,260835.0
2026-04-08 21:46:04.228393,198875,1609503936452539,1536419334,0.558272,-0.769088,-0.101504,72.84375,-52.9025,13.7025,-22.800001,21.152,-10.56,none,4,3.0,18860.0,137301.0,222972.0,275187.0,260835.0
2026-04-08 21:46:04.231204,198876,1609503936467147,1536434238,0.696864,-0.732,0.081984,77.14875,-50.53125,12.6,-22.888,21.480001,-10.544001,none,4,3.0,18860.0,137301.0,222972.0,275187.0,260835.0
2026-04-08 21:46:04.237183,198877,1609503936476080,1536442906,0.696864,-0.732,0.081984,78.33,-47.74875,8.96875,-22.888,21.480001,-10.544001,none,4,3.0,18860.0,137301.0,222972.0,275187.0,260835.0
2026-04-08 21:46:04.243408,198878,1609503936485018,1536451595,0.794464,-0.8296,0.290848,75.565,-44.80875,11.480001,-22.672,22.096,-8.96,none,4,3.0,18860.0,137301.0,222972.0,275187.0,260835.0
2026-04-08 21:46:04.273674,198879,1609503936499489,1536466504,1.165344,-0.940864,0.36112,76.60625,-39.9525,18.47125,-22.888,23.152,-9.344001,none,4,3.0,18860.0,137301.0,222972.0,275187.0,260835.0
2026-04-08 21:46:04.277130,198880,1609503936508361,1536475163,1.165344,-0.940864,0.36112,83.4575,-29.81125,30.35375,-22.888,23.152,-9.344001,none,4,3.0,18860.0,137301.0,222972.0,275187.0,260835.0
2026-04-08 21:46:04.280884,198881,1609503936522855,1536488003,1.163392,-0.851072,0.249856,100.12625,-17.43875,27.20375,-22.52,23.800001,-8.656,none,4,3.0,18860.0,137301.0,222972.0,275187.0,260835.0
2026-04-08 21:46:04.310855,198892,1609503936532048,1536498785,1.163392,-0.851072,0.249856,119.34125,-8.9775,12.6525,-22.52,23.800001,-8.656,none,4,3.0,18912.0,137450.0,223110.0,275413.0,261015.0
2026-04-08 21:46:04.313435,198893,1609503936546560,1536513704,0.534848,-0.511424,0.169824,140.7,-6.85125,3.82375,-23.232,24.432001,-6.784,none,4,3.0,18912.0,137450.0,223110.0,275413.0,261015.0
2026-04-08 21:46:04.315880,198894,1609503936555554,1536522439,0.534848,-0.511424,0.169824,127.65375,-11.36625,12.3375,-23.232,24.432001,-6.784,none,4,3.0,18912.0,137450.0,223110.0,275413.0,261015.0
2026-04-08 21:46:04.347037,198895,1609503936564539,1536531132,0.265472,-0.38064,-0.255712,102.69,-27.8425,5.34625,-22.888,25.024002,-6.544,none,4,3.0,18912.0,137450.0,223110.0,275413.0,261015.0
2026-04-08 21:46:04.352955,198896,1609503936579003,1536545983,0.655872,-0.714432,-0.001952,116.9175,-46.64625,-7.51625,-22.888,25.024002,-8.656,none,4,3.0,18912.0,137450.0,223110.0,275413.0,261015.0
2026-04-08 21:46:04.354698,198897,1609503936587941,1536554638,0.657824,-0.714432,-0.001952,141.32124,-59.745,-8.93375,-23.192001,25.224,-8.656,none,4,3.0,18912.0,137450.0,223110.0,275413.0,261015.0
2026-04-08 21:46:04.404818,198898,1609503936602485,1536569487,0.84912,-0.694912,0.339648,153.7025,-63.035,-16.19625,-23.368002,25.496,-5.928001,none,4,3.0,18912.0,137450.0,223110.0,275413.0,261015.0
2026-04-08 21:46:04.409459,198899,1609503936611396,1536578139,0.84912,-0.694912,0.339648,141.18124,-61.08375,-19.7575,-23.368002,25.496,-5.928001,none,4,3.0,18912.0,137450.0,223110.0,275413.0,261015.0
2026-04-08 21:46:04.471420,198910,1609503936625934,1536593011,0.718336,-0.60512,0.15616,126.39375,-58.58125,-17.57,-23.592001,26.048,-4.224,none,4,3.0,18888.0,137224.0,222765.0,275395.0,261187.0
2026-04-08 21:46:04.474812,198911,1609503936634915,1536601700,0.718336,-0.60512,0.15616,109.54125,-58.70375,-9.23125,-23.592001,26.048,-4.224,none,4,3.0,18888.0,137224.0,222765.0,275395.0,261187.0
2026-04-08 21:46:04.478934,198912,1609503936643843,1536610400,0.525088,-0.544608,0.173728,89.83625,-60.6725,1.75,-23.352001,26.288002,-5.432,none,4,3.0,18888.0,137224.0,222765.0,275395.0,261187.0
2026-04-08 21:46:04.480659,198913,1609503936658339,1536625259,0.525088,-0.544608,0.173728,71.81125,-63.7,5.53875,-23.352001,26.288002,-5.432,none,4,3.0,18888.0,137224.0,222765.0,275395.0,261187.0
2026-04-08 21:46:04.482288,198914,1609503936667370,1536633917,0.3904,-0.603168,0.064416,66.10625,-67.83,1.19,-23.696001,26.984001,-4.68,none,4,3.0,18888.0,137224.0,222765.0,275395.0,261187.0
2026-04-08 21:46:04.486430,198915,1609503936681859,1536648801,0.452864,-0.552416,0.121024,65.9925,-71.3475,-3.7275,-23.832,27.208002,-5.808,none,4,3.0,18888.0,137224.0,222765.0,275395.0,261187.0
2026-04-08 21:46:04.488177,198916,1609503936690813,1536657455,0.452864,-0.552416,0.121024,59.42125,-76.0725,-5.99375,-23.832,27.208002,-5.808,none,4,3.0,18888.0,137224.0,222765.0,275395.0,261187.0
2026-04-08 21:46:04.489769,198917,1609503936705339,1536672385,0.472384,-0.54656,0.031232,55.02875,-80.35125,-5.5825,-23.68,26.928001,-5.2,none,4,3.0,18888.0,137224.0,222765.0,275395.0,261187.0
2026-04-08 21:46:04.493927,198918,1609503936714322,1536681059,0.472384,-0.54656,0.031232,48.965,-81.4975,-7.665,-23.68,26.928001,-5.2,none,4,3.0,18888.0,137224.0,222765.0,275395.0,261187.0
2026-04-08 21:46:04.495728,198919,1609503936723376,1536689771,0.597312,-0.519232,0.206912,38.00125,-84.21875,-11.06,-24.144001,27.416,-5.408001,none,4,3.0,18888.0,137224.0,222765.0,275395.0,261187.0
2026-04-08 21:46:04.523920,198930,1609503936738015,1536704734,0.597312,-0.519232,0.206912,33.74875,-84.4725,-14.41125,-24.144001,27.416,-5.408001,none,4,3.0,18700.0,136841.0,222405.0,274943.0,260839.0
2026-04-08 21:46:04.525624,198931,1609503936746936,1536713432,0.837408,-0.640256,0.216672,42.06125,-82.2675,-19.6175,-24.528002,27.856,-6.352,none,4,3.0,18700.0,136841.0,222405.0,274943.0,260839.0
2026-04-08 21:46:04.527128,198932,1609503936761566,1536728317,0.913536,-0.710528,0.124928,58.80875,-81.7075,-31.0625,-24.976002,27.992,-7.152,none,4,3.0,18700.0,136841.0,222405.0,274943.0,260839.0
2026-04-08 21:46:04.531355,198933,1609503936770539,1536737064,0.913536,-0.710528,0.124928,80.75375,-78.26875,-43.63625,-24.976002,27.992,-7.152,none,4,3.0,18700.0,136841.0,222405.0,274943.0,260839.0
2026-04-08 21:46:04.559904,198934,1609503936779474,1536745795,0.913536,-0.710528,0.124928,103.24125,-71.95125,-47.6175,-24.976002,27.992,-7.152,none,4,3.0,18700.0,136841.0,222405.0,274943.0,260839.0
2026-04-08 21:46:04.564403,198935,1609503936793953,1536760654,0.659776,-0.396256,0.251808,99.25125,-67.8825,-33.9675,-25.640001,27.840002,-6.04,none,4,3.0,18700.0,136841.0,222405.0,274943.0,260839.0
2026-04-08 21:46:04.565944,198936,1609503936802879,1536769306,0.41968,-0.261568,0.25376,62.25625,-74.41,-32.06,-26.544,28.44,-7.352,none,4,3.0,18700.0,136841.0,222405.0,274943.0,260839.0
2026-04-08 21:46:04.596957,198937,1609503936817383,1536784217,0.41968,-0.261568,0.25376,12.17125,-80.675,-47.6175,-26.544,28.44,-7.352,none,4,3.0,18700.0,136841.0,222405.0,274943.0,260839.0
2026-04-08 21:46:04.626419,198948,1609503936826808,1536793268,0.69296,-0.415776,-0.00976,-19.59125,-87.12375,-43.47,-26.976002,27.912,-8.456,none,4,3.0,18243.0,135148.0,220430.0,274061.0,260640.0
2026-04-08 21:46:04.628220,198949,1609503936835809,1536801950,0.69296,-0.415776,-0.00976,-29.575,-97.51875,-40.85375,-26.976002,27.912,-8.456,none,4,3.0,18243.0,135148.0,220430.0,274061.0,260640.0
2026-04-08 21:46:04.629675,198950,1609503936850295,1536816829,1.680672,-0.417728,-0.111264,-44.86125,-98.63,-52.94625,-27.624,27.6,-9.792001,none,4,3.0,18243.0,135148.0,220430.0,274061.0,260640.0
2026-04-08 21:46:04.637729,198951,1609503936859335,1536825568,1.680672,-0.417728,-0.111264,-49.5775,-93.70375,-79.40625,-27.624,27.6,-9.792001,none,4,3.0,18243.0,135148.0,220430.0,274061.0,260640.0
2026-04-08 21:46:04.639275,198952,1609503936873936,1536840495,1.536224,-0.501664,0.054656,-35.72625,-101.15875,-109.52375,-28.488,27.112001,-10.360001,none,4,3.0,18243.0,135148.0,220430.0,274061.0,260640.0
2026-04-08 21:46:04.643780,198953,1609503936882871,1536849177,0.833504,0.177632,0.210816,18.52375,-111.2475,-63.5075,-28.392002,27.072,-10.064,none,4,3.0,18243.0,135148.0,220430.0,274061.0,260640.0
2026-04-08 21:46:04.708226,198954,1609503936897348,1536864033,0.833504,0.177632,0.210816,76.02875,-105.8225,-3.2375,-28.392002,27.072,-10.064,none,4,3.0,18243.0,135148.0,220430.0,274061.0,260640.0
2026-04-08 21:46:04.711861,198955,1609503936906267,1536872697,0.396256,-0.495808,-0.27328,78.6625,-108.3425,-22.95125,-28.648,26.048,-12.136001,none,4,3.0,18243.0,135148.0,220430.0,274061.0,260640.0
2026-04-08 21:46:04.713483,198956,1609503936915201,1536881366,0.396256,-0.495808,-0.27328,23.87,-105.21,-58.73875,-28.648,26.048,-12.136001,none,4,3.0,18243.0,135148.0,220430.0,274061.0,260640.0
2026-04-08 21:46:04.742789,198967,1609503936930094,1536896300,0.394304,-1.13216,-0.12688,-17.15,-114.45875,-67.445,-28.752,25.432001,-13.368001,none,4,3.0,18361.0,136397.0,222623.0,275307.0,261048.0
2026-04-08 21:46:04.744744,198968,1609503936939032,1536904977,0.394304,-1.13216,-0.12688,-9.5025,-116.85625,-62.15125,-28.752,25.432001,-13.368001,none,4,3.0,18361.0,136397.0,222623.0,275307.0,261048.0
2026-04-08 21:46:04.745969,198969,1609503936953477,1536919827,0.913536,-0.733952,0.310368,31.24625,-104.55375,-82.08375,-29.312002,24.6,-13.480001,none,4,3.0,18361.0,136397.0,222623.0,275307.0,261048.0
2026-04-08 21:46:04.750844,198970,1609503936962452,1536928554,1.206336,-0.511424,0.113216,77.06125,-86.09125,-114.02125,-30.240002,24.232,-12.928,none,4,3.0,18361.0,136397.0,222623.0,275307.0,261048.0
2026-04-08 21:46:04.753539,198971,1609503936976962,1536943570,1.206336,-0.511424,0.113216,119.8225,-68.20625,-120.77625,-30.240002,24.232,-12.928,none,4,3.0,18361.0,136397.0,222623.0,275307.0,261048.0
2026-04-08 21:46:04.753632,198972,1609503936985930,1536952289,0.895968,-0.2928,-0.160064,147.4725,-57.4525,-109.69,-31.008001,23.424002,-10.84,none,4,3.0,18361.0,136397.0,222623.0,275307.0,261048.0
2026-04-08 21:46:04.757432,198973,1609503936994860,1536961018,0.895968,-0.2928,-0.160064,144.445,-52.255,-102.68125,-31.008001,23.424002,-10.84,none,4,3.0,18361.0,136397.0,222623.0,275307.0,261048.0
2026-04-08 21:46:04.786119,198974,1609503937009339,1536975917,0.726144,-0.281088,-0.052704,115.745,-49.84,-88.305,-31.688002,23.432001,-11.168,none,4,3.0,18361.0,136397.0,222623.0,275307.0,261048.0
2026-04-08 21:46:04.790564,198975,1609503937018289,1536984573,0.726144,-0.281088,-0.052704,79.87,-51.59,-62.055,-31.688002,23.432001,-11.168,none,4,3.0,18361.0,136397.0,222623.0,275307.0,261048.0
2026-04-08 21:46:04.821867,198986,1609503937032873,1536999467,0.817888,-0.140544,-0.109312,51.58125,-60.19125,-37.625,-31.352001,22.976002,-13.424001,none,4,3.0,18787.0,138212.0,224810.0,276720.0,261763.0
2026-04-08 21:46:04.825056,198987,1609503937041861,1537008160,0.817888,-0.121024,-0.076128,28.39375,-64.933754,-36.68875,-31.352001,22.976002,-13.424001,none,4,3.0,18787.0,138212.0,224810.0,276720.0,261763.0
2026-04-08 21:46:04.827712,198988,1609503937050790,1537016849,1.052128,-0.121024,-0.076128,18.29625,-63.945,-48.5275,-31.448002,22.656,-12.480001,none,4,3.0,18787.0,138212.0,224810.0,276720.0,261763.0
2026-04-08 21:46:04.830280,198989,1609503937065312,1537031740,0.913536,-0.07808,-0.080032,22.8025,-60.24375,-53.83875,-31.992,22.384,-13.128,none,4,3.0,18787.0,138212.0,224810.0,276720.0,261763.0
2026-04-08 21:46:04.833771,198990,1609503937074239,1537040412,0.913536,-0.07808,-0.080032,35.945,-54.94125,-51.14375,-31.992,22.384,-13.128,none,4,3.0,18787.0,138212.0,224810.0,276720.0,261763.0
2026-04-08 21:46:04.862383,198991,1609503937088730,1537055311,0.794464,-0.255712,-0.093696,47.005,-51.30125,-49.7525,-31.944002,21.880001,-13.224001,none,4,3.0,18787.0,138212.0,224810.0,276720.0,261763.0
2026-04-08 21:46:04.866716,198992,1609503937097650,1537063969,0.794464,-0.255712,-0.093696,45.31625,-48.6675,-48.43125,-31.944002,21.880001,-13.224001,none,4,3.0,18787.0,138212.0,224810.0,276720.0,261763.0
2026-04-08 21:46:04.873782,198993,1609503937112117,1537078841,0.769088,-0.386496,-0.085888,25.66375,-46.8125,-42.21,-32.280003,21.232,-14.848001,none,4,3.0,18787.0,138212.0,224810.0,276720.0,261763.0
2026-04-08 21:46:04.905686,198994,1609503937121035,1537087527,0.769088,-0.386496,-0.085888,-5.11875,-47.1625,-37.31,-32.280003,21.232,-14.848001,none,4,3.0,18787.0,138212.0,224810.0,276720.0,261763.0
2026-04-08 21:46:04.934394,199005,1609503937135565,1537102418,0.9272,-0.345504,-0.201056,-26.81875,-47.38125,-37.47625,-32.192,20.464,-15.760001,none,4,3.0,18772.0,138117.0,224691.0,276500.0,261555.0
2026-04-08 21:46:04.935926,199006,1609503937144469,1537111089,0.911584,-0.296704,-0.140544,-32.445,-40.76625,-34.1425,-32.376003,20.616001,-15.632001,none,4,3.0,18772.0,138117.0,224691.0,276500.0,261555.0
2026-04-08 21:46:04.940133,199007,1609503937153406,1537119748,0.911584,-0.296704,-0.140544,-18.8475,-32.165,-21.35875,-32.376003,20.616001,-15.632001,none,4,3.0,18772.0,138117.0,224691.0,276500.0,261555.0
2026-04-08 21:46:04.942025,199008,1609503937167931,1537134665,0.835456,-0.353312,-0.074176,6.09875,-24.07125,-10.54375,-32.4,20.296001,-16.288,none,4,3.0,18772.0,138117.0,224691.0,276500.0,261555.0
2026-04-08 21:46:04.944201,199009,1609503937176872,1537143362,0.835456,-0.353312,-0.074176,17.77125,-20.8075,-12.52125,-32.4,20.296001,-16.288,none,4,3.0,18772.0,138117.0,224691.0,276500.0,261555.0
2026-04-08 21:46:05.004598,199010,1609503937191338,1537158348,0.806176,-0.25376,-0.230336,14.3675,-18.34875,-25.48875,-32.648003,20.552,-16.024,none,4,3.0,18772.0,138117.0,224691.0,276500.0,261555.0
2026-04-08 21:46:05.006794,199011,1609503937200226,1537167023,0.806176,-0.25376,-0.230336,11.6725,-18.54125,-32.585,-32.648003,20.552,-16.024,none,4,3.0,18772.0,138117.0,224691.0,276500.0,261555.0
2026-04-08 21:46:05.011477,199012,1609503937214724,1537181856,1.071648,-0.128832,-0.247904,14.7,-19.11875,-30.65125,-32.896,20.28,-16.456001,none,4,3.0,18772.0,138117.0,224691.0,276500.0,261555.0
2026-04-08 21:46:05.013188,199013,1609503937223642,1537190510,0.940864,-0.167872,-0.08784,16.68625,-16.6425,-24.22,-32.952,20.12,-17.496,none,4,3.0,18772.0,138117.0,224691.0,276500.0,261555.0
2026-04-08 21:46:05.043126,199024,1609503937232668,1537199402,0.940864,-0.167872,-0.08784,16.94,-13.545,-14.455,-32.952,20.12,-17.496,none,4,3.0,18386.0,136813.0,223140.0,275432.0,261007.0
2026-04-08 21:46:05.045680,199025,1609503937247179,1537212319,0.765184,-0.251808,-0.13664,11.34,-13.755,-8.8725,-32.52,19.848001,-16.848001,none,4,3.0,18386.0,136813.0,223140.0,275432.0,261007.0
2026-04-08 21:46:05.047275,199026,1609503937256295,1537223079,0.765184,-0.251808,-0.13664,-1.12,-14.07,-5.5825,-32.52,19.848001,-16.848001,none,4,3.0,18386.0,136813.0,223140.0,275432.0,261007.0
2026-04-08 21:46:05.051400,199027,1609503937270850,1537238026,0.942816,-0.306464,-0.140544,-8.44375,-17.675,-7.0,-32.688,20.008001,-16.752,none,4,3.0,18386.0,136813.0,223140.0,275432.0,261007.0
2026-04-08 21:46:05.053117,199028,1609503937279779,1537246740,0.942816,-0.306464,-0.140544,-7.56,-17.2375,-8.636251,-32.688,20.008001,-16.752,none,4,3.0,18386.0,136813.0,223140.0,275432.0,261007.0
2026-04-08 21:46:05.054687,199029,1609503937288717,1537255399,0.976,-0.265472,-0.031232,-1.58375,-16.19625,-7.4375,-32.440002,20.256,-15.728001,none,4,3.0,18386.0,136813.0,223140.0,275432.0,261007.0
2026-04-08 21:46:05.085825,199030,1609503937303321,1537270306,0.976,-0.265472,-0.167872,7.30625,-13.65,-5.60875,-32.440002,20.256,-15.728001,none,4,3.0,18386.0,136813.0,223140.0,275432.0,261007.0
2026-04-08 21:46:05.090204,199031,1609503937312255,1537278970,0.81008,-0.218624,-0.167872,14.81375,-10.21125,-5.4075,-32.672,20.152,-18.192001,none,4,3.0,18386.0,136813.0,223140.0,275432.0,261007.0
2026-04-08 21:46:05.115992,199042,1609503937326757,1537293809,0.81008,-0.222528,-0.138592,22.21625,-10.0625,-5.83625,-32.328003,19.992,-16.752,none,4,3.0,18098.0,135717.0,221842.0,274575.0,260590.0
2026-04-08 21:46:05.119346,199043,1609503937335682,1537302448,0.81008,-0.222528,-0.138592,23.4675,-8.67125,-4.9525,-32.328003,19.992,-16.752,none,4,3.0,18098.0,135717.0,221842.0,274575.0,260590.0
2026-04-08 21:46:05.120946,199044,1609503937350254,1537317346,0.950624,-0.220576,-0.12688,17.15875,-9.1175,-4.62,-32.960003,20.416,-15.504001,none,4,3.0,18098.0,135717.0,221842.0,274575.0,260590.0
2026-04-08 21:46:05.124180,199045,1609503937359318,1537326038,0.950624,-0.220576,-0.12688,9.56375,-9.05625,-5.83625,-32.960003,20.416,-15.504001,none,4,3.0,18098.0,135717.0,221842.0,274575.0,260590.0
2026-04-08 21:46:05.129977,199046,1609503937368266,1537334731,0.938912,-0.201056,-0.10736,6.4575,-9.31,-4.7775,-32.760002,20.68,-15.000001,none,4,3.0,18098.0,135717.0,221842.0,274575.0,260590.0
2026-04-08 21:46:05.158495,199047,1609503937382755,1537349692,0.938912,-0.201056,-0.10736,5.04,-6.85125,0.805,-32.760002,20.68,-15.000001,none,4,3.0,18098.0,135717.0,221842.0,274575.0,260590.0
2026-04-08 21:46:05.163013,199048,1609503937391684,1537358349,0.84912,-0.259616,-0.238144,5.5825,-6.265,5.39875,-32.488003,20.6,-18.544,none,4,3.0,18098.0,135717.0,221842.0,274575.0,260590.0
2026-04-08 21:46:05.167468,199049,1609503937406198,1537373208,0.767136,-0.27328,-0.162016,5.9675,-5.53,4.97875,-32.744003,20.36,-15.864,none,4,3.0,18098.0,135717.0,221842.0,274575.0,260590.0
2026-04-08 21:46:05.196014,199050,1609503937415136,1537381875,0.767136,-0.27328,-0.162016,7.60375,-3.955,2.23125,-32.744003,20.36,-15.864,none,4,3.0,18098.0,135717.0,221842.0,274575.0,260590.0
2026-04-08 21:46:05.228373,199061,1609503937430123,1537396831,0.909632,-0.271328,-0.16592,10.2375,-2.345,-0.8225,-32.752003,20.344002,-17.128,none,4,3.0,17991.0,135417.0,221574.0,274413.0,260495.0
2026-04-08 21:46:05.234601,199062,1609503937439114,1537405547,0.909632,-0.271328,-0.16592,11.66375,-1.98625,-5.11,-32.752003,20.344002,-17.128,none,4,3.0,17991.0,135417.0,221574.0,274413.0,260495.0
2026-04-08 21:46:05.237113,199063,1609503937448145,1537414214,0.940864,-0.296704,-0.318176,12.78375,-1.95125,-7.0875,-32.304,20.256,-15.848001,none,4,3.0,17991.0,135417.0,221574.0,274413.0,260495.0
2026-04-08 21:46:05.239578,199064,1609503937462702,1537429166,0.940864,-0.296704,-0.318176,11.0775,-1.86375,-6.22125,-32.304,20.256,-15.848001,none,4,3.0,17991.0,135417.0,221574.0,274413.0,260495.0
2026-04-08 21:46:05.242124,199065,1609503937471698,1537437902,0.8296,-0.298656,-0.158112,10.75375,-0.0875,-6.5625,-32.728,20.664001,-15.496,none,4,3.0,17991.0,135417.0,221574.0,274413.0,260495.0
2026-04-08 21:46:05.244648,199066,1609503937486191,1537452777,0.755424,-0.365024,-0.085888,12.10125,-0.58625,-8.72375,-33.112003,20.672,-14.976001,none,4,3.0,17991.0,135417.0,221574.0,274413.0,260495.0
2026-04-08 21:46:05.305131,199067,1609503937495188,1537461453,0.755424,-0.365024,-0.085888,12.775,-5.78375,-13.86875,-33.112003,20.672,-14.976001,none,4,3.0,17991.0,135417.0,221574.0,274413.0,260495.0
2026-04-08 21:46:05.309825,199068,1609503937504135,1537470149,0.755424,-0.365024,-0.085888,19.2675,-3.03625,-11.3925,-33.112003,20.672,-14.976001,none,4,3.0,17991.0,135417.0,221574.0,274413.0,260495.0
2026-04-08 21:46:05.312210,199069,1609503937518614,1537484994,0.972096,-0.304512,-0.12688,26.9325,-6.1075,-8.32125,-32.912003,20.808,-17.880001,none,4,3.0,17991.0,135417.0,221574.0,274413.0,260495.0
2026-04-08 21:46:05.313582,199070,1609503937527574,1537493770,1.018944,-0.251808,-0.222528,30.555,-9.70375,-15.3825,-32.856003,20.616001,-16.648,none,4,3.0,17991.0,135417.0,221574.0,274413.0,260495.0
2026-04-08 21:46:05.340835,199081,1609503937542056,1537508675,1.018944,-0.251808,-0.222528,31.29,-8.46125,-18.94375,-32.856003,20.616001,-16.648,none,4,3.0,17775.0,134702.0,220821.0,273932.0,260294.0
2026-04-08 21:46:05.343346,199082,1609503937550958,1537517335,0.923296,-0.152256,-0.249856,32.025,-6.02875,-15.61875,-32.784,20.696001,-16.352001,none,4,3.0,17775.0,134702.0,220821.0,273932.0,260294.0
2026-04-08 21:46:05.345852,199083,1609503937565550,1537532197,0.8296,-0.181536,-0.288896,32.6725,-4.9525,-14.595,-32.784,20.696001,-17.984001,none,4,3.0,17775.0,134702.0,220821.0,273932.0,260294.0
2026-04-08 21:46:05.348357,199084,1609503937574622,1537540955,0.831552,-0.181536,-0.288896,27.125,-3.955,-15.575,-33.048,20.672,-17.984001,none,4,3.0,17775.0,134702.0,220821.0,273932.0,260294.0
2026-04-08 21:46:05.350902,199085,1609503937583656,1537549673,0.831552,-0.181536,-0.288896,23.35375,-5.71375,-17.33375,-33.048,20.672,-17.984001,none,4,3.0,17775.0,134702.0,220821.0,273932.0,260294.0
2026-04-08 21:46:05.357193,199086,1609503937598185,1537564555,0.952576,-0.179584,-0.191296,19.85375,-3.9375,-18.9875,-32.776,20.608002,-15.952001,none,4,3.0,17775.0,134702.0,220821.0,273932.0,260294.0
2026-04-08 21:46:05.389139,199087,1609503937607148,1537573208,0.954528,-0.232288,-0.128832,17.745,-1.25125,-22.05,-33.512,20.616001,-16.432001,none,4,3.0,17775.0,134702.0,220821.0,273932.0,260294.0
2026-04-08 21:46:05.391793,199088,1609503937621599,1537588103,0.954528,-0.232288,-0.128832,13.71125,1.75,-21.105,-33.512,20.616001,-16.432001,none,4,3.0,17775.0,134702.0,220821.0,273932.0,260294.0
2026-04-08 21:46:05.420853,199099,1609503937631047,1537596836,0.923296,-0.33184,-0.03904,8.30375,3.4125,-21.4025,-33.16,20.344002,-15.808001,none,4,3.0,17571.0,134026.0,220200.0,273511.0,260088.0
2026-04-08 21:46:05.423366,199100,1609503937639996,1537605591,0.923296,-0.33184,-0.03904,7.51625,4.6025,-24.7975,-33.16,20.344002,-15.808001,none,4,3.0,17571.0,134026.0,220200.0,273511.0,260088.0
2026-04-08 21:46:05.425862,199101,1609503937654937,1537620566,0.942816,-0.3416,-0.130784,7.69125,6.37875,-25.6725,-33.376003,20.28,-14.824,none,4,3.0,17571.0,134026.0,220200.0,273511.0,260088.0
2026-04-08 21:46:05.428379,199102,1609503937664362,1537631320,0.942816,-0.3416,-0.130784,13.2475,6.67625,-28.30625,-33.376003,20.28,-14.824,none,4,3.0,17571.0,134026.0,220200.0,273511.0,260088.0
2026-04-08 21:46:05.459492,199103,1609503937678888,1537644150,0.948672,-0.25376,-0.052704,20.4225,12.0925,-31.36,-33.72,19.672,-15.648001,none,4,3.0,17571.0,134026.0,220200.0,273511.0,260088.0
2026-04-08 21:46:05.461768,199104,1609503937688141,1537654889,0.942816,-0.191296,0.023424,28.8225,14.980001,-31.10625,-34.008003,19.808,-15.504001,none,4,3.0,17571.0,134026.0,220200.0,273511.0,260088.0
2026-04-08 21:46:05.466403,199105,1609503937697129,1537663613,0.942816,-0.191296,0.023424,30.8,19.90625,-27.405,-34.008003,19.808,-15.504001,none,4,3.0,17571.0,134026.0,220200.0,273511.0,260088.0
2026-04-08 21:46:05.473466,199106,1609503937711603,1537678491,0.929152,-0.074176,-0.093696,30.03875,21.175,-24.89375,-33.808002,19.560001,-14.52,none,4,3.0,17571.0,134026.0,220200.0,273511.0,260088.0
2026-04-08 21:46:05.501239,199107,1609503937720502,1537687182,0.929152,-0.074176,-0.093696,30.73875,24.63125,-21.39375,-33.808002,19.560001,-14.52,none,4,3.0,17571.0,134026.0,220200.0,273511.0,260088.0
2026-04-08 21:46:05.534355,199118,1609503937735227,1537702108,0.952576,-0.10736,-0.134688,30.6775,27.78125,-16.54625,-34.008003,19.784,-13.536,none,4,3.0,17810.0,134922.0,221332.0,274329.0,260522.0
2026-04-08 21:46:05.535935,199119,1609503937744191,1537710810,0.952576,-0.10736,-0.134688,25.87375,29.8025,-13.93875,-34.008003,19.784,-13.536,none,4,3.0,17810.0,134922.0,221332.0,274329.0,260522.0
2026-04-08 21:46:05.540186,199120,1609503937753236,1537719599,0.948672,-0.062464,-0.013664,19.775,32.76875,-4.8125,-34.032,20.024,-13.256001,none,4,3.0,17810.0,134922.0,221332.0,274329.0,260522.0
2026-04-08 21:46:05.541909,199121,1609503937767813,1537734531,0.93696,-0.13664,-0.210816,13.5625,34.0025,1.12875,-34.544003,19.880001,-12.040001,none,4,3.0,17810.0,134922.0,221332.0,274329.0,260522.0
2026-04-08 21:46:05.543741,199122,1609503937776881,1537743276,0.93696,-0.13664,-0.210816,6.405,35.5075,4.24375,-34.544003,19.880001,-12.040001,none,4,3.0,17810.0,134922.0,221332.0,274329.0,260522.0
2026-04-08 21:46:05.607124,199123,1609503937791405,1537758190,0.915488,-0.152256,-0.011712,-2.5375,36.67125,6.22125,-34.248,19.696001,-11.416,none,4,3.0,17810.0,134922.0,221332.0,274329.0,260522.0
2026-04-08 21:46:05.611493,199124,1609503937800316,1537766856,0.915488,-0.152256,-0.011712,-11.795,37.44125,5.69625,-34.248,19.696001,-11.416,none,4,3.0,17810.0,134922.0,221332.0,274329.0,260522.0
2026-04-08 21:46:05.613162,199125,1609503937809211,1537775505,0.958432,-0.222528,0.05856,-18.55,38.52625,3.85,-34.184002,19.584002,-12.016001,none,4,3.0,17810.0,134922.0,221332.0,274329.0,260522.0
2026-04-08 21:46:05.614834,199126,1609503937823667,1537790361,0.958432,-0.222528,0.05856,-24.80625,39.85625,3.395,-34.184002,19.584002,-12.016001,none,4,3.0,17810.0,134922.0,221332.0,274329.0,260522.0
2026-04-08 21:46:05.642188,199137,1609503937833000,1537799106,1.022848,-0.236192,0.101504,-31.35125,41.58,4.13875,-34.128002,19.44,-11.480001,none,4,3.0,18226.0,136249.0,222859.0,275317.0,260995.0
2026-04-08 21:46:05.646402,199138,1609503937847593,1537813969,1.134112,-0.238144,0.179584,-35.98,42.35,2.975,-34.128002,19.168001,-11.512,none,4,3.0,18226.0,136249.0,222859.0,275317.0,260995.0
2026-04-08 21:46:05.648166,199139,1609503937856506,1537822670,1.134112,-0.238144,0.179584,-40.635,44.1875,1.2075,-34.528,19.168001,-11.512,none,4,3.0,18226.0,136249.0,222859.0,275317.0,260995.0
2026-04-08 21:46:05.649861,199140,1609503937871067,1537837620,1.147776,-0.238144,0.02928,-45.00125,45.71,0.2275,-34.296,19.152,-10.088,none,4,3.0,18226.0,136249.0,222859.0,275317.0,260995.0
2026-04-08 21:46:05.654021,199141,1609503937879989,1537846340,1.147776,-0.238144,0.02928,-49.41125,45.56125,0.42875,-34.296,19.152,-10.088,none,4,3.0,18226.0,136249.0,222859.0,275317.0,260995.0
2026-04-08 21:46:05.656362,199142,1609503937888937,1537855001,1.100928,-0.242048,0.08784,-53.9525,44.607502,2.7125,-33.968002,19.184,-9.584001,none,4,3.0,18226.0,136249.0,222859.0,275317.0,260995.0
2026-04-08 21:46:05.684846,199143,1609503937903392,1537869944,1.100928,-0.242048,0.08784,-59.7275,42.4375,4.89125,-33.968002,19.184,-9.584001,none,4,3.0,18226.0,136249.0,222859.0,275317.0,260995.0
2026-04-08 21:46:05.689349,199144,1609503937912306,1537878646,1.001376,-0.208864,0.105408,-64.7675,41.3,8.33875,-33.624,18.792002,-9.568001,none,4,3.0,18226.0,136249.0,222859.0,275317.0,260995.0
2026-04-08 21:46:05.690884,199145,1609503937926786,1537893480,1.001376,-0.208864,0.105408,-65.19625,40.64375,12.285,-33.624,18.792002,-9.568001,none,4,3.0,18226.0,136249.0,222859.0,275317.0,260995.0
2026-04-08 21:46:05.755972,199156,1609503937935896,1537902204,0.976,-0.18544,-0.023424,-58.695,35.35875,13.69375,-33.224003,18.456001,-9.824,none,4,3.0,18872.0,138417.0,225304.0,276948.0,261810.0
2026-04-08 21:46:05.760151,199157,1609503937950420,1537917142,1.03456,-0.279136,-0.128832,-44.98375,32.69875,13.32625,-33.096,18.792002,-10.056001,none,4,3.0,18872.0,138417.0,225304.0,276948.0,261810.0
2026-04-08 21:46:05.761874,199158,1609503937959324,1537925798,1.03456,-0.279136,-0.128832,-30.415,32.55875,11.31375,-33.096,18.792002,-10.056001,none,4,3.0,18872.0,138417.0,225304.0,276948.0,261810.0
2026-04-08 21:46:05.764339,199159,1609503937968237,1537934466,1.069696,-0.38064,-0.130784,-21.14875,29.9075,6.825,-33.096,18.792002,-8.744,none,4,3.0,18872.0,138417.0,225304.0,276948.0,261810.0
2026-04-08 21:46:05.765919,199160,1609503937982761,1537949376,1.069696,-0.38064,-0.130784,-12.71375,25.865,6.335,-32.416,18.744001,-8.744,none,4,3.0,18872.0,138417.0,225304.0,276948.0,261810.0
2026-04-08 21:46:05.770172,199161,1609503937991840,1537958072,0.974048,-0.407968,-0.255712,3.66625,21.84,7.77875,-32.056,19.080002,-8.944,none,4,3.0,18872.0,138417.0,225304.0,276948.0,261810.0
2026-04-08 21:46:05.772589,199162,1609503938006356,1537972974,0.974048,-0.407968,-0.255712,24.4125,18.5325,11.2875,-32.056,19.080002,-8.944,none,4,3.0,18872.0,138417.0,225304.0,276948.0,261810.0
2026-04-08 21:46:05.776242,199163,1609503938015326,1537981667,1.020896,-0.382592,-0.12688,44.26625,17.17625,14.2275,-31.296001,19.344002,-7.184001,none,4,3.0,18872.0,138417.0,225304.0,276948.0,261810.0
2026-04-08 21:46:05.804832,199164,1609503938029796,1537996535,0.88816,-0.115168,-0.187392,62.982502,20.5275,16.0475,-30.288002,19.608002,-5.44,none,4,3.0,18872.0,138417.0,225304.0,276948.0,261810.0
2026-04-08 21:46:05.833420,199175,1609503938038779,1538005307,0.88816,-0.115168,-0.187392,80.675,26.678751,15.33875,-30.288002,19.608002,-5.44,none,4,3.0,18693.0,137572.0,224253.0,276342.0,261544.0
2026-04-08 21:46:05.836872,199176,1609503938047705,1538013973,0.88816,-0.115168,-0.187392,102.97,15.82875,9.948751,-30.288002,19.608002,-5.44,none,4,3.0,18693.0,137572.0,224253.0,276342.0,261544.0
2026-04-08 21:46:05.838450,199177,1609503938062193,1538028921,1.087264,0.0,-0.11712,123.01625,13.02,-0.14,-29.768002,20.016,-7.184001,none,4,3.0,18693.0,137572.0,224253.0,276342.0,261544.0
2026-04-08 21:46:05.841683,199178,1609503938071152,1538037648,0.931104,-0.124928,0.015616,120.933754,15.505,-2.7125,-29.928001,19.800001,-4.568,none,4,3.0,18693.0,137572.0,224253.0,276342.0,261544.0
2026-04-08 21:46:05.845453,199179,1609503938085628,1538052516,0.931104,-0.124928,0.015616,106.225,11.62875,-2.7475,-29.928001,19.800001,-4.568,none,4,3.0,18693.0,137572.0,224253.0,276342.0,261544.0
2026-04-08 21:46:05.903679,199180,1609503938094585,1538061254,0.753472,-0.154208,-0.050752,93.2225,15.627501,1.575,-28.776001,19.472,-3.12,none,4,3.0,18693.0,137572.0,224253.0,276342.0,261544.0
2026-04-08 21:46:05.907192,199181,1609503938109070,1538076124,0.831552,-0.044896,0.160064,78.496254,15.645,7.245,-28.776001,19.472,-3.04,none,4,3.0,18693.0,137572.0,224253.0,276342.0,261544.0
2026-04-08 21:46:05.909619,199182,1609503938117978,1538084827,0.8296,-0.044896,0.160064,62.97375,15.408751,9.66,-28.048002,20.0,-3.04,none,4,3.0,18693.0,137572.0,224253.0,276342.0,261544.0
2026-04-08 21:46:05.912183,199183,1609503938127024,1538093518,0.8296,-0.044896,0.160064,47.5125,15.8025,10.6575,-28.048002,20.0,-3.04,none,4,3.0,18693.0,137572.0,224253.0,276342.0,261544.0
2026-04-08 21:46:05.939636,199194,1609503938141658,1538108415,0.86864,-0.105408,0.01952,33.451252,12.64375,15.636251,-27.296001,20.064001,-4.656,none,4,3.0,18576.0,137372.0,224188.0,276577.0,261857.0
2026-04-08 21:46:05.942136,199195,1609503938150545,1538117090,0.913536,-0.152256,0.160064,18.5325,9.1875,23.94875,-27.000002,20.192001,-3.592,none,4,3.0,18576.0,137372.0,224188.0,276577.0,261857.0
2026-04-08 21:46:05.944968,199196,1609503938165026,1538132008,0.913536,-0.152256,0.160064,0.46375,6.29125,30.63375,-27.000002,20.192001,-3.592,none,4,3.0,18576.0,137372.0,224188.0,276577.0,261857.0
2026-04-08 21:46:05.947407,199197,1609503938174038,1538140739,0.96624,-0.210816,0.17568,-10.2025,5.18875,34.64125,-26.44,20.344002,-3.624,none,4,3.0,18576.0,137372.0,224188.0,276577.0,261857.0
2026-04-08 21:46:05.951282,199198,1609503938183088,1538149450,0.96624,-0.210816,0.17568,-9.79125,5.53875,36.4525,-26.44,20.344002,-3.624,none,4,3.0,18576.0,137372.0,224188.0,276577.0,261857.0
2026-04-08 21:46:05.979877,199199,1609503938197607,1538164336,0.854976,-0.210816,0.011712,-2.65125,6.93875,36.2425,-25.560001,20.736,-2.616,none,4,3.0,18576.0,137372.0,224188.0,276577.0,261857.0
2026-04-08 21:46:05.983404,199200,1609503938206555,1538173018,0.854976,-0.210816,0.011712,5.87125,10.35125,38.482502,-25.560001,20.736,-2.616,none,4,3.0,18576.0,137372.0,224188.0,276577.0,261857.0
2026-04-08 21:46:05.986008,199201,1609503938221014,1538187856,0.806176,-0.208864,0.00976,11.62875,13.86,39.7075,-24.936,20.872002,-3.352,none,4,3.0,18576.0,137372.0,224188.0,276577.0,261857.0
2026-04-08 21:46:05.988437,199202,1609503938229911,1538196525,0.806176,-0.177632,0.208864,10.7975,14.8925,41.335,-24.936,20.872002,-3.792,none,4,3.0,18576.0,137372.0,224188.0,276577.0,261857.0
2026-04-08 21:46:06.019594,199213,1609503938244543,1538211681,0.798368,-0.177632,0.208864,5.83625,13.5625,43.68,-24.36,21.320002,-3.792,none,4,3.0,18559.0,137487.0,224356.0,276743.0,261960.0
2026-04-08 21:46:06.025238,199214,1609503938253474,1538220371,0.776896,-0.167872,0.076128,-1.225,11.1125,44.59875,-23.2,21.696001,-2.672,none,4,3.0,18559.0,137487.0,224356.0,276743.0,261960.0
2026-04-08 21:46:06.027096,199215,1609503938262446,1538229046,0.776896,-0.167872,0.076128,-7.9625,9.065,43.21625,-23.2,21.696001,-2.672,none,4,3.0,18559.0,137487.0,224356.0,276743.0,261960.0
2026-04-08 21:46:06.057421,199216,1609503938276940,1538243887,0.6832,-0.140544,0.089792,-14.245,7.21,40.6875,-22.920002,21.992,-2.48,none,4,3.0,18559.0,137487.0,224356.0,276743.0,261960.0
2026-04-08 21:46:06.060869,199217,1609503938285891,1538252554,0.6832,-0.140544,0.089792,-21.2625,5.32,38.89375,-22.920002,21.992,-2.48,none,4,3.0,18559.0,137487.0,224356.0,276743.0,261960.0
2026-04-08 21:46:06.063387,199218,1609503938300364,1538267491,0.753472,-0.199104,0.208864,-28.035,2.975,36.67125,-22.28,21.792002,-3.032,none,4,3.0,18559.0,137487.0,224356.0,276743.0,261960.0
2026-04-08 21:46:06.070855,199219,1609503938309311,1538276155,0.753472,-0.199104,0.208864,-29.96875,2.205,34.763752,-22.28,21.792002,-3.032,none,4,3.0,18559.0,137487.0,224356.0,276743.0,261960.0
2026-04-08 21:46:06.101142,199220,1609503938323806,1538288953,0.75152,-0.259616,0.148352,-24.491251,1.6275,33.4075,-22.232,22.064001,-2.568,none,4,3.0,18559.0,137487.0,224356.0,276743.0,261960.0
2026-04-08 21:46:06.129578,199231,1609503938332998,1538299761,0.718336,-0.245952,0.265472,-15.14625,1.96,30.135,-21.672,22.376001,-3.024,none,4,3.0,18671.0,137828.0,224753.0,276921.0,262031.0
2026-04-08 21:46:06.132093,199232,1609503938342228,1538308484,0.718336,-0.245952,0.265472,-2.63375,2.94875,25.34875,-21.672,22.376001,-3.024,none,4,3.0,18671.0,137828.0,224753.0,276921.0,262031.0
2026-04-08 21:46:06.134580,199233,1609503938356830,1538323393,0.589504,-0.286944,0.103456,10.2375,3.7975,18.34,-21.44,22.008001,-1.912,none,4,3.0,18671.0,137828.0,224753.0,276921.0,262031.0
2026-04-08 21:46:06.137132,199234,1609503938365902,1538332107,0.589504,-0.286944,0.103456,15.95125,2.93125,14.69125,-21.44,22.008001,-1.912,none,4,3.0,18671.0,137828.0,224753.0,276921.0,262031.0
2026-04-08 21:46:06.139561,199235,1609503938380401,1538347013,0.704672,-0.324032,0.16592,14.5775,1.04125,13.09,-21.072,22.000002,-2.024,none,4,3.0,18671.0,137828.0,224753.0,276921.0,262031.0
2026-04-08 21:46:06.203625,199236,1609503938389339,1538355741,0.704672,-0.324032,0.16592,7.42875,-3.465,15.54,-21.072,22.000002,-2.024,none,4,3.0,18671.0,137828.0,224753.0,276921.0,262031.0
2026-04-08 21:46:06.207123,199237,1609503938398295,1538364423,0.733952,-0.335744,0.218624,-4.71625,-7.8225,21.7525,-20.944,22.312,-1.888,none,4,3.0,18671.0,137828.0,224753.0,276921.0,262031.0
2026-04-08 21:46:06.209614,199238,1609503938412765,1538379363,0.667584,-0.466528,0.187392,-15.70625,-8.6975,33.0575,-20.312,22.704,-5.136,none,4,3.0,18671.0,137828.0,224753.0,276921.0,262031.0
2026-04-08 21:46:06.212105,199239,1609503938421642,1538388005,0.667584,-0.466528,0.187392,-23.59,-6.22125,47.5475,-20.312,22.704,-5.136,none,4,3.0,18671.0,137828.0,224753.0,276921.0,262031.0
2026-04-08 21:46:06.239655,199250,1609503938436576,1538402954,0.763232,-0.655872,0.255712,-25.9875,-2.45875,58.5025,-19.424002,22.800001,-3.568,none,4,3.0,18755.0,138100.0,224948.0,276980.0,262000.0
2026-04-08 21:46:06.242148,199251,1609503938445578,1538411616,0.763232,-0.655872,0.255712,-21.6125,-0.23625,64.96875,-19.424002,22.800001,-3.568,none,4,3.0,18755.0,138100.0,224948.0,276980.0,262000.0
2026-04-08 21:46:06.244590,199252,1609503938454495,1538420366,0.687104,-0.651968,0.083936,-8.79375,0.98875,71.86375,-18.824001,23.712002,-3.152,none,4,3.0,18755.0,138100.0,224948.0,276980.0,262000.0
2026-04-08 21:46:06.247110,199253,1609503938469046,1538435396,0.687104,-0.651968,0.083936,6.3875,1.5575,78.98625,-18.824001,23.712002,-3.152,none,4,3.0,18755.0,138100.0,224948.0,276980.0,262000.0
2026-04-08 21:46:06.249774,199254,1609503938478089,1538444111,0.659776,-0.562176,-0.003904,15.636251,0.28,80.15875,-18.216002,24.176,-2.848,none,4,3.0,18755.0,138100.0,224948.0,276980.0,262000.0
2026-04-08 21:46:06.252114,199255,1609503938492591,1538459022,0.689056,-0.577792,-0.033184,21.9625,-0.4025,75.5475,-17.160002,24.624,-2.888,none,4,3.0,18755.0,138100.0,224948.0,276980.0,262000.0
2026-04-08 21:46:06.282310,199256,1609503938501517,1538467708,0.689056,-0.577792,-0.033184,30.02125,-0.70875,71.51375,-17.160002,24.624,-2.888,none,4,3.0,18755.0,138100.0,224948.0,276980.0,262000.0
2026-04-08 21:46:06.285905,199257,1609503938516011,1538482589,0.706624,-0.550464,0.1464,39.27,-0.105,69.64125,-16.936,25.208002,-2.504,none,4,3.0,18755.0,138100.0,224948.0,276980.0,262000.0
2026-04-08 21:46:06.292153,199258,1609503938524938,1538491249,0.706624,-0.550464,0.1464,48.90375,-0.1575,66.255,-16.936,25.208002,-2.504,none,4,3.0,18755.0,138100.0,224948.0,276980.0,262000.0
2026-04-08 21:46:06.319587,199269,1609503938533856,1538500068,0.593408,-0.515328,0.00976,58.73875,-0.06125,60.41,-16.568,25.616001,-1.456,none,4,3.0,18691.0,137844.0,224610.0,276683.0,261794.0
2026-04-08 21:46:06.322132,199270,1609503938549401,1538515019,0.593408,-0.515328,0.00976,65.7125,-0.00875,53.6375,-16.568,25.616001,-1.456,none,4,3.0,18691.0,137844.0,224610.0,276683.0,261794.0
2026-04-08 21:46:06.324613,199271,1609503938558802,1538525775,0.732,-0.569984,0.150304,67.7075,-1.26,47.32,-15.960001,25.632002,-1.488,none,4,3.0,18691.0,137844.0,224610.0,276683.0,261794.0
2026-04-08 21:46:06.328378,199272,1609503938567814,1538534438,0.732,-0.569984,0.150304,63.93625,-2.345,40.6525,-15.960001,25.632002,-1.488,none,4,3.0,18691.0,137844.0,224610.0,276683.0,261794.0
2026-04-08 21:46:06.358770,199273,1609503938582334,1538549361,0.706624,-0.55632,-0.044896,57.365,-3.185,33.50375,-15.360001,25.568,-0.024,none,4,3.0,18691.0,137844.0,224610.0,276683.0,261794.0
2026-04-08 21:46:06.362093,199274,1609503938591273,1538558008,0.706624,-0.55632,-0.044896,49.7175,-3.03625,26.95,-15.360001,25.568,-0.024,none,4,3.0,18691.0,137844.0,224610.0,276683.0,261794.0
2026-04-08 21:46:06.365937,199275,1609503938605765,1538572869,0.685152,-0.491904,0.040992,41.30875,-2.26625,22.16375,-15.320001,25.912,-0.36,none,4,3.0,18691.0,137844.0,224610.0,276683.0,261794.0
2026-04-08 21:46:06.396074,199276,1609503938614682,1538581529,0.75152,-0.577792,0.046848,32.92625,-1.9425,18.97,-15.168001,26.12,-0.328,none,4,3.0,18691.0,137844.0,224610.0,276683.0,261794.0
2026-04-08 21:46:06.399637,199277,1609503938629204,1538594377,0.75152,-0.577792,0.046848,23.2925,-2.555,16.65125,-15.168001,26.12,-0.328,none,4,3.0,18691.0,137844.0,224610.0,276683.0,261794.0
2026-04-08 21:46:06.427153,199288,1609503938638903,1538605143,0.689056,-0.609024,0.015616,11.7775,-3.99875,13.6325,-15.288001,26.168001,-0.4,none,4,3.0,18533.0,137320.0,223901.0,276291.0,261613.0
2026-04-08 21:46:06.432322,199289,1609503938647904,1538613845,0.689056,-0.609024,0.015616,2.1175,-5.24125,9.948751,-15.288001,26.168001,-0.4,none,4,3.0,18533.0,137320.0,223901.0,276291.0,261613.0
2026-04-08 21:46:06.432402,199290,1609503938662454,1538628696,0.669536,-0.669536,0.03904,-2.58125,-8.53125,8.35625,-14.960001,26.36,0.664,none,4,3.0,18533.0,137320.0,223901.0,276291.0,261613.0
2026-04-08 21:46:06.434951,199291,1609503938671386,1538637376,0.669536,-0.669536,0.03904,-1.25125,-10.6575,8.70625,-14.960001,26.36,0.664,none,4,3.0,18533.0,137320.0,223901.0,276291.0,261613.0
2026-04-08 21:46:06.465815,199292,1609503938685881,1538652257,0.724192,-0.747616,0.158112,4.17375,-12.4075,8.02375,-14.648001,26.248001,0.928,none,4,3.0,18533.0,137320.0,223901.0,276291.0,261613.0
2026-04-08 21:46:06.470219,199293,1609503938694781,1538660919,0.6832,-0.75152,0.158112,12.775,-13.95625,5.67875,-14.768001,26.312002,-2.608,none,4,3.0,18533.0,137320.0,223901.0,276291.0,261613.0
2026-04-08 21:46:06.472947,199294,1609503938703749,1538669572,0.6832,-0.75152,0.158112,21.7875,-13.51875,2.84375,-14.768001,26.312002,-2.608,none,4,3.0,18533.0,137320.0,223901.0,276291.0,261613.0
2026-04-08 21:46:06.505781,199295,1609503938718277,1538684488,0.691008,-0.70272,0.251808,30.7475,-13.335,-0.2275,-14.656001,26.000002,-0.536,none,4,3.0,18533.0,137320.0,223901.0,276291.0,261613.0
2026-04-08 21:46:06.508047,199296,1609503938727264,1538693177,0.691008,-0.70272,0.251808,38.78875,-14.39375,-2.1875,-14.656001,26.000002,-0.536,none,4,3.0,18533.0,137320.0,223901.0,276291.0,261613.0
2026-04-08 21:46:06.535954,199307,1609503938741767,1538708102,0.700768,-0.632448,0.30256,44.45,-14.46375,-2.275,-14.704,25.936,0.072,none,4,3.0,18110.0,135843.0,222169.0,275183.0,261068.0
2026-04-08 21:46:06.540304,199308,1609503938750663,1538716799,0.700768,-0.632448,0.30256,47.74875,-15.61875,-1.53125,-14.704,25.936,0.072,none,4,3.0,18110.0,135843.0,222169.0,275183.0,261068.0
2026-04-08 21:46:06.543490,199309,1609503938765170,1538731749,0.716384,-0.579744,0.18544,47.670002,-16.8,-2.8,-14.68,26.016,0.672,none,4,3.0,18110.0,135843.0,222169.0,275183.0,261068.0
2026-04-08 21:46:06.547678,199310,1609503938774320,1538740478,0.804224,-0.548512,0.411872,44.94875,-17.96375,-5.50375,-14.488001,26.160002,1.272,none,4,3.0,18110.0,135843.0,222169.0,275183.0,261068.0
2026-04-08 21:46:06.549253,199311,1609503938783230,1538749164,0.804224,-0.548512,0.411872,39.576252,-16.89625,-8.56625,-14.488001,26.160002,1.272,none,4,3.0,18110.0,135843.0,222169.0,275183.0,261068.0
2026-04-08 21:46:06.579507,199312,1609503938797742,1538764034,0.784704,-0.57584,0.30256,35.2275,-14.6825,-9.6075,-14.712001,26.008001,1.76,none,4,3.0,18110.0,135843.0,222169.0,275183.0,261068.0
2026-04-08 21:46:06.584250,199313,1609503938806692,1538772733,0.784704,-0.57584,0.30256,32.585,-10.31625,-9.24875,-14.712001,26.008001,1.76,none,4,3.0,18110.0,135843.0,222169.0,275183.0,261068.0
2026-04-08 21:46:06.586317,199314,1609503938821149,1538787586,0.802272,-0.56608,0.320128,33.73125,-6.36125,-9.80875,-15.456,25.992,2.416,none,4,3.0,18110.0,135843.0,222169.0,275183.0,261068.0
2026-04-08 21:46:06.591050,199315,1609503938830074,1538796261,0.802272,-0.56608,0.320128,34.72,-3.12375,-11.97,-15.456,25.992,2.416,none,4,3.0,18110.0,135843.0,222169.0,275183.0,261068.0
2026-04-08 21:46:06.625179,199326,1609503938844966,1538811279,0.884256,-0.544608,0.333792,34.22125,-0.32375,-14.46375,-14.776001,25.880001,0.912,none,4,3.0,18132.0,135957.0,222307.0,275302.0,261154.0
2026-04-08 21:46:06.626842,199327,1609503938853917,1538820046,0.884256,-0.519232,0.199104,32.2875,1.37375,-15.65375,-14.776001,25.880001,2.96,none,4,3.0,18132.0,135957.0,222307.0,275302.0,261154.0
2026-04-08 21:46:06.628415,199328,1609503938862898,1538828769,0.835456,-0.519232,0.199104,27.9125,1.14625,-16.96625,-14.928,25.640001,2.456,none,4,3.0,18132.0,135957.0,222307.0,275302.0,261154.0
2026-04-08 21:46:06.658588,199329,1609503938877371,1538843655,0.825696,-0.509472,0.193248,21.866251,0.9275,-19.55625,-15.216001,25.608002,3.296,none,4,3.0,18132.0,135957.0,222307.0,275302.0,261154.0
2026-04-08 21:46:06.662121,199330,1609503938886310,1538852346,0.825696,-0.509472,0.193248,18.26125,0.37625,-21.41125,-15.216001,25.608002,3.296,none,4,3.0,18132.0,135957.0,222307.0,275302.0,261154.0
2026-04-08 21:46:06.664871,199331,1609503938900758,1538867250,0.792512,-0.474336,0.179584,19.69625,-0.46375,-22.2425,-15.52,25.632002,1.656,none,4,3.0,18132.0,135957.0,222307.0,275302.0,261154.0
2026-04-08 21:46:06.670696,199332,1609503938909661,1538875921,0.792512,-0.474336,0.179584,24.40375,-1.085,-24.2025,-15.52,25.632002,1.656,none,4,3.0,18132.0,135957.0,222307.0,275302.0,261154.0
2026-04-08 21:46:06.698604,199333,1609503938924161,1538890842,0.802272,-0.486048,0.275232,29.88125,-2.24875,-26.97625,-15.528001,25.240002,1.92,none,4,3.0,18132.0,135957.0,222307.0,275302.0,261154.0
2026-04-08 21:46:06.702119,199334,1609503938933066,1538899496,0.802272,-0.486048,0.275232,33.32,-3.91125,-28.35875,-15.528001,25.240002,1.92,none,4,3.0,18132.0,135957.0,222307.0,275302.0,261154.0
2026-04-08 21:46:06.729588,199345,1609503938942083,1538908547,0.782752,-0.51728,0.148352,34.20375,-6.09,-29.05,-15.808001,24.784,2.272,none,4,3.0,18032.0,135567.0,221722.0,274877.0,260915.0
2026-04-08 21:46:06.732149,199346,1609503938956557,1538923486,0.763232,-0.501664,0.281088,33.4775,-7.91875,-30.87,-16.04,24.344002,3.048,none,4,3.0,18032.0,135567.0,221722.0,274877.0,260915.0
2026-04-08 21:46:06.737140,199347,1609503938965562,1538932209,0.763232,-0.501664,0.281088,31.465,-9.6775,-31.605,-16.04,24.344002,3.048,none,4,3.0,18032.0,135567.0,221722.0,274877.0,260915.0
2026-04-08 21:46:06.739649,199348,1609503938980149,1538947086,0.798368,-0.54656,0.173728,31.053751,-11.445,-30.87,-16.232,24.712002,3.384,none,4,3.0,18032.0,135567.0,221722.0,274877.0,260915.0
2026-04-08 21:46:06.769959,199349,1609503938989105,1538955800,0.798368,-0.54656,0.173728,32.05125,-12.775,-30.205,-16.232,24.712002,3.384,none,4,3.0,18032.0,135567.0,221722.0,274877.0,260915.0
2026-04-08 21:46:06.804854,199350,1609503938998141,1538964493,0.772992,-0.562176,0.124928,37.47625,-12.81,-29.95125,-16.424002,24.072,3.104,none,4,3.0,18032.0,135567.0,221722.0,274877.0,260915.0
2026-04-08 21:46:06.808369,199351,1609503939012624,1538979421,0.772992,-0.562176,0.124928,49.25375,-13.57125,-28.91,-16.424002,24.072,3.104,none,4,3.0,18032.0,135567.0,221722.0,274877.0,260915.0
2026-04-08 21:46:06.810948,199352,1609503939021522,1538988079,0.79056,-0.569984,0.290848,57.478752,-13.09,-29.61875,-16.448,24.024002,3.496,none,4,3.0,18032.0,135567.0,221722.0,274877.0,260915.0
2026-04-08 21:46:06.838411,199363,1609503939035995,1539002883,0.757376,-0.501664,0.242048,63.6475,-14.21875,-31.36875,-17.064001,23.76,2.008,none,4,3.0,17907.0,135114.0,221139.0,274516.0,260695.0
2026-04-08 21:46:06.841034,199364,1609503939044957,1539011570,0.757376,-0.501664,0.242048,67.76875,-15.51375,-32.1125,-17.064001,23.76,2.008,none,4,3.0,17907.0,135114.0,221139.0,274516.0,260695.0
2026-04-08 21:46:06.843472,199365,1609503939059581,1539026435,0.782752,-0.454816,0.269376,68.27625,-16.0825,-32.38375,-16.544,23.136002,4.448,none,4,3.0,17907.0,135114.0,221139.0,274516.0,260695.0
2026-04-08 21:46:06.849804,199366,1609503939068614,1539035176,0.782752,-0.454816,0.269376,63.88375,-16.3275,-32.8475,-16.544,23.136002,4.448,none,4,3.0,17907.0,135114.0,221139.0,274516.0,260695.0
2026-04-08 21:46:06.852164,199367,1609503939077592,1539043919,0.812032,-0.49776,0.16592,57.12,-15.5225,-32.15625,-16.952002,22.648,4.688,none,4,3.0,17907.0,135114.0,221139.0,274516.0,260695.0
2026-04-08 21:46:06.854626,199368,1609503939092130,1539058890,0.812032,-0.49776,0.16592,49.93625,-14.096251,-31.71875,-16.952002,22.648,4.688,none,4,3.0,17907.0,135114.0,221139.0,274516.0,260695.0
2026-04-08 21:46:06.860879,199369,1609503939101034,1539067564,0.778848,-0.52704,0.355264,44.80875,-11.1125,-32.305,-16.960001,22.312,4.944,none,4,3.0,17907.0,135114.0,221139.0,274516.0,260695.0
2026-04-08 21:46:06.893546,199370,1609503939115499,1539082412,0.778848,-0.573888,0.40016,44.6775,-6.25625,-32.1825,-16.960001,22.312,4.944,none,4,3.0,17907.0,135114.0,221139.0,274516.0,260695.0
2026-04-08 21:46:06.897199,199371,1609503939124413,1539091092,0.83936,-0.57584,0.40016,47.73125,-0.51625,-28.76125,-17.144001,22.560001,5.248,none,4,3.0,17907.0,135114.0,221139.0,274516.0,260695.0
2026-04-08 21:46:06.937649,199382,1609503939139173,1539105991,0.806176,-0.489952,0.238144,51.8,5.71375,-24.19375,-16.736,22.352001,6.024,none,4,3.0,17941.0,135215.0,221346.0,274602.0,260773.0
2026-04-08 21:46:06.939385,199383,1609503939148316,1539114708,0.806176,-0.489952,0.238144,53.7775,12.74,-19.73125,-16.736,22.352001,6.024,none,4,3.0,17941.0,135215.0,221346.0,274602.0,260773.0
2026-04-08 21:46:06.941047,199384,1609503939157379,1539123393,0.864736,-0.394304,0.230336,50.8025,19.3375,-15.30375,-16.456001,21.752,6.968,none,4,3.0,17941.0,135215.0,221346.0,274602.0,260773.0
2026-04-08 21:46:06.945196,199385,1609503939171857,1539138270,0.864736,-0.394304,0.230336,41.0725,25.095,-10.3775,-16.456001,21.752,6.968,none,4,3.0,17941.0,135215.0,221346.0,274602.0,260773.0
2026-04-08 21:46:06.946653,199386,1609503939180781,1539146938,0.882304,-0.316224,0.16592,24.6225,29.0325,-4.54125,-16.328001,21.920002,7.968,none,4,3.0,17941.0,135215.0,221346.0,274602.0,260773.0
2026-04-08 21:46:06.997004,199387,1609503939195304,1539161960,0.882304,-0.316224,0.16592,1.715,30.7125,-0.1575,-16.328001,21.920002,7.968,none,4,3.0,17941.0,135215.0,221346.0,274602.0,260773.0
2026-04-08 21:46:06.999297,199388,1609503939204193,1539170617,1.001376,-0.294752,0.26352,-24.01875,31.43875,2.38,-15.720001,22.400002,4.784,none,4,3.0,17941.0,135215.0,221346.0,274602.0,260773.0
2026-04-08 21:46:07.003902,199389,1609503939213091,1539179259,1.001376,-0.294752,0.26352,-48.92125,32.2525,3.26375,-15.720001,22.400002,4.784,none,4,3.0,17941.0,135215.0,221346.0,274602.0,260773.0
2026-04-08 21:46:07.005615,199390,1609503939227623,1539194113,1.079456,-0.324032,0.191296,-69.58,32.83875,3.1675,-15.344001,22.832,6.256001,none,4,3.0,17941.0,135215.0,221346.0,274602.0,260773.0
2026-04-08 21:46:07.007185,199391,1609503939236542,1539202789,1.001376,-0.335744,0.062464,-85.715004,34.72,2.51125,-15.344001,22.832,5.992,none,4,3.0,17941.0,135215.0,221346.0,274602.0,260773.0
2026-04-08 21:46:07.036408,199402,1609503939251046,1539217676,1.011136,-0.335744,0.062464,-97.0025,37.61625,1.3825,-15.080001,23.008001,5.992,none,4,3.0,18524.0,137236.0,223781.0,276120.0,261493.0
2026-04-08 21:46:07.038148,199403,1609503939259986,1539226409,0.96624,-0.30256,0.080032,-106.09375,40.04,1.63625,-14.392001,23.352001,5.096,none,4,3.0,18524.0,137236.0,223781.0,276120.0,261493.0
2026-04-08 21:46:07.039681,199404,1609503939274507,1539241299,0.96624,-0.30256,0.080032,-114.3625,41.13375,2.09125,-14.392001,23.352001,5.096,none,4,3.0,18524.0,137236.0,223781.0,276120.0,261493.0
2026-04-08 21:46:07.043773,199405,1609503939283477,1539249997,0.952576,-0.275232,0.001952,-123.340004,40.15375,2.7125,-14.032001,23.944,4.616,none,4,3.0,18524.0,137236.0,223781.0,276120.0,261493.0
2026-04-08 21:46:07.104936,199406,1609503939292396,1539258702,0.952576,-0.275232,0.001952,-133.44624,37.30125,1.6625,-14.032001,23.944,4.616,none,4,3.0,18524.0,137236.0,223781.0,276120.0,261493.0
2026-04-08 21:46:07.108103,199407,1609503939306832,1539273546,0.940864,-0.28304,-0.076128,-144.83875,32.7075,-0.63,-13.744,24.04,3.056,none,4,3.0,18524.0,137236.0,223781.0,276120.0,261493.0
2026-04-08 21:46:07.109690,199408,1609503939315792,1539282216,0.940864,-0.28304,-0.076128,-154.6475,26.355,-1.61,-13.744,24.04,3.056,none,4,3.0,18524.0,137236.0,223781.0,276120.0,261493.0
2026-04-08 21:46:07.113015,199409,1609503939330299,1539297067,0.938912,-0.300608,-0.085888,-158.85625,20.6675,-4.40125,-13.296001,24.480001,1.776,none,4,3.0,18524.0,137236.0,223781.0,276120.0,261493.0
2026-04-08 21:46:07.147758,199420,1609503939339319,1539305806,0.923296,-0.349408,0.089792,-157.0275,15.18125,-10.45625,-13.224001,24.712002,0.792,none,4,3.0,18886.0,138430.0,225136.0,276909.0,261835.0
2026-04-08 21:46:07.150204,199421,1609503939353880,1539320724,0.923296,-0.349408,0.089792,-151.76,9.275,-18.96125,-13.224001,24.712002,0.792,none,4,3.0,18886.0,138430.0,225136.0,276909.0,261835.0
2026-04-08 21:46:07.151971,199422,1609503939362858,1539329479,0.856928,-0.366976,0.02928,-142.1,3.8325,-19.53,-12.896001,25.000002,0.624,none,4,3.0,18886.0,138430.0,225136.0,276909.0,261835.0
2026-04-08 21:46:07.154777,199423,1609503939371775,1539338155,0.856928,-0.366976,0.02928,-125.99125,-0.81375,-19.88,-12.896001,25.000002,0.624,none,4,3.0,18886.0,138430.0,225136.0,276909.0,261835.0
2026-04-08 21:46:07.156042,199424,1609503939386323,1539353055,0.753472,-0.372832,0.119072,-110.46,-6.23,-25.27875,-13.064001,24.392002,-0.992,none,4,3.0,18886.0,138430.0,225136.0,276909.0,261835.0
2026-04-08 21:46:07.160451,199425,1609503939395254,1539361724,0.753472,-0.372832,0.119072,-92.44375,-12.24125,-31.465,-13.064001,24.392002,-0.992,none,4,3.0,18886.0,138430.0,225136.0,276909.0,261835.0
2026-04-08 21:46:07.193286,199426,1609503939409762,1539376620,0.671488,-0.431392,0.05856,-69.64125,-17.64,-35.8225,-13.112,24.152,-1.2,none,4,3.0,18886.0,138430.0,225136.0,276909.0,261835.0
2026-04-08 21:46:07.195535,199427,1609503939418740,1539385317,0.591456,-0.433344,0.111264,-44.275,-21.88375,-39.7075,-13.088,24.112001,-0.984,none,4,3.0,18886.0,138430.0,225136.0,276909.0,261835.0
2026-04-08 21:46:07.200310,199428,1609503939433215,1539400199,0.591456,-0.433344,0.111264,-16.72125,-24.6575,-43.3825,-13.088,24.112001,-0.984,none,4,3.0,18886.0,138430.0,225136.0,276909.0,261835.0
2026-04-08 21:46:07.225931,199439,1609503939442525,1539409130,0.599264,-0.384544,0.386496,11.698751,-26.43375,-46.06,-13.824,23.512001,-1.416,none,4,3.0,18603.0,137296.0,223821.0,275963.0,261289.0
2026-04-08 21:46:07.231202,199440,1609503939451513,1539417829,0.599264,-0.384544,0.386496,37.6425,-27.95625,-48.15125,-13.824,23.512001,-1.416,none,4,3.0,18603.0,137296.0,223821.0,275963.0,261289.0
2026-04-08 21:46:07.233788,199441,1609503939466087,1539432753,0.511424,-0.3416,0.222528,60.27875,-28.28,-50.365,-13.592001,23.2,-0.784,none,4,3.0,18603.0,137296.0,223821.0,275963.0,261289.0
2026-04-08 21:46:07.236272,199442,1609503939475001,1539441428,0.511424,-0.3416,0.222528,77.90125,-28.192501,-52.3075,-13.592001,23.2,-0.784,none,4,3.0,18603.0,137296.0,223821.0,275963.0,261289.0
2026-04-08 21:46:07.264925,199443,1609503939489592,1539456297,0.495808,-0.290848,0.23424,90.755,-28.9975,-54.81875,-13.736001,22.512001,-0.32,none,4,3.0,18603.0,137296.0,223821.0,275963.0,261289.0
2026-04-08 21:46:07.269333,199444,1609503939498531,1539464958,0.599264,-0.255712,0.411872,99.225,-30.68625,-57.05,-13.736001,22.128,2.48,none,4,3.0,18603.0,137296.0,223821.0,275963.0,261289.0
2026-04-08 21:46:07.270878,199445,1609503939507467,1539473656,0.599264,-0.255712,0.411872,104.125,-31.66625,-60.06,-14.528001,22.128,2.48,none,4,3.0,18603.0,137296.0,223821.0,275963.0,261289.0
2026-04-08 21:46:07.302032,199446,1609503939521990,1539488565,0.677344,-0.290848,0.284992,107.3975,-31.89375,-66.2025,-14.824,21.160002,1.728,none,4,3.0,18603.0,137296.0,223821.0,275963.0,261289.0
2026-04-08 21:46:07.306515,199447,1609503939530950,1539497220,0.677344,-0.290848,0.284992,109.996254,-30.135,-76.8075,-14.824,21.160002,1.728,none,4,3.0,18603.0,137296.0,223821.0,275963.0,261289.0
2026-04-08 21:46:07.332249,199458,1609503939545513,1539512090,0.856928,-0.308416,0.476288,109.17375,-27.57125,-82.285,-15.456,20.192001,1.552,none,4,3.0,18760.0,137798.0,224328.0,276342.0,261515.0
2026-04-08 21:46:07.336411,199459,1609503939554470,1539520815,0.856928,-0.308416,0.476288,107.52875,-23.17,-80.99875,-15.456,20.192001,1.552,none,4,3.0,18760.0,137798.0,224328.0,276342.0,261515.0
2026-04-08 21:46:07.338102,199460,1609503939569099,1539535744,0.84912,-0.30256,0.460672,103.76625,-19.83625,-86.24,-16.432001,19.496,2.232,none,4,3.0,18760.0,137798.0,224328.0,276342.0,261515.0
2026-04-08 21:46:07.339939,199461,1609503939578062,1539544453,0.84912,-0.30256,0.460672,96.7225,-17.84125,-95.7075,-16.432001,19.496,2.232,none,4,3.0,18760.0,137798.0,224328.0,276342.0,261515.0
2026-04-08 21:46:07.347614,199462,1609503939586974,1539553157,1.001376,-0.382592,0.433344,89.17125,-15.68875,-101.92875,-16.832,18.776001,0.48,none,4,3.0,18760.0,137798.0,224328.0,276342.0,261515.0
2026-04-08 21:46:07.407171,199463,1609503939601486,1539568048,0.972096,-0.324032,0.40992,83.3525,-13.02875,-102.96125,-17.376001,18.04,3.88,none,4,3.0,18760.0,137798.0,224328.0,276342.0,261515.0
2026-04-08 21:46:07.409313,199464,1609503939610424,1539576764,0.972096,-0.324032,0.40992,79.6425,-9.75625,-103.39,-17.376001,18.04,3.88,none,4,3.0,18760.0,137798.0,224328.0,276342.0,261515.0
2026-04-08 21:46:07.413974,199465,1609503939624897,1539591603,1.046272,-0.2928,0.626592,76.6675,-6.58875,-101.57875,-17.832,17.096,3.536,none,4,3.0,18760.0,137798.0,224328.0,276342.0,261515.0
2026-04-08 21:46:07.415734,199466,1609503939633824,1539600270,1.046272,-0.2928,0.626592,74.445,-2.5025,-93.695,-17.832,17.096,3.536,none,4,3.0,18760.0,137798.0,224328.0,276342.0,261515.0
2026-04-08 21:46:07.451447,199477,1609503939648322,1539615158,1.050176,-0.333792,0.452864,71.0325,2.275,-80.1675,-18.136002,16.640001,4.072,none,4,3.0,18959.0,138242.0,224672.0,276576.0,261629.0
2026-04-08 21:46:07.453146,199478,1609503939657374,1539623828,1.050176,-0.333792,0.452864,67.1825,7.1925,-62.8775,-18.136002,16.640001,4.072,none,4,3.0,18959.0,138242.0,224672.0,276576.0,261629.0
2026-04-08 21:46:07.454680,199479,1609503939666384,1539632595,1.030656,-0.310368,0.552416,64.575,11.917501,-42.7875,-18.064001,15.928,4.504,none,4,3.0,18959.0,138242.0,224672.0,276576.0,261629.0
2026-04-08 21:46:07.458893,199480,1609503939681008,1539647560,0.944768,-0.249856,0.599264,61.005,15.67125,-24.465,-18.016,15.952001,5.352,none,4,3.0,18959.0,138242.0,224672.0,276576.0,261629.0
2026-04-08 21:46:07.461402,199481,1609503939689963,1539656245,0.944768,-0.249856,0.599264,56.48125,17.82375,-9.61625,-18.016,15.952001,5.352,none,4,3.0,18959.0,138242.0,224672.0,276576.0,261629.0
2026-04-08 21:46:07.465446,199482,1609503939704484,1539671135,0.870592,-0.206912,0.347456,52.482502,21.07,7.97125,-17.744001,16.08,6.440001,none,4,3.0,18959.0,138242.0,224672.0,276576.0,261629.0
2026-04-08 21:46:07.495778,199483,1609503939713428,1539679817,0.870592,-0.206912,0.347456,48.5625,24.87625,29.9075,-17.744001,16.08,6.440001,none,4,3.0,18959.0,138242.0,224672.0,276576.0,261629.0
2026-04-08 21:46:07.500259,199484,1609503939727920,1539694690,0.970144,-0.201056,0.489952,45.29875,27.27375,47.215,-16.784,16.736,5.968,none,4,3.0,18959.0,138242.0,224672.0,276576.0,261629.0
2026-04-08 21:46:07.501964,199485,1609503939736842,1539703356,0.970144,-0.201056,0.489952,39.78625,28.84,57.1375,-16.784,16.736,5.968,none,4,3.0,18959.0,138242.0,224672.0,276576.0,261629.0
2026-04-08 21:46:07.530148,199496,1609503939745954,1539712088,0.880352,-0.18544,0.376736,31.52625,30.3625,66.1675,-15.880001,16.616001,6.224001,none,4,3.0,18992.0,138383.0,224806.0,276706.0,261711.0
2026-04-08 21:46:07.531865,199497,1609503939760503,1539727074,0.968192,-0.222528,0.378688,22.68,30.75625,76.90375,-15.448001,17.528002,4.12,none,4,3.0,18992.0,138383.0,224806.0,276706.0,261711.0
2026-04-08 21:46:07.534252,199498,1609503939769594,1539735761,0.968192,-0.222528,0.378688,15.198751,30.40625,85.61,-15.448001,17.528002,4.12,none,4,3.0,18992.0,138383.0,224806.0,276706.0,261711.0
2026-04-08 21:46:07.564543,199499,1609503939784129,1539750682,0.952576,-0.236192,0.304512,8.54875,29.96875,91.5075,-14.456,18.368,7.272,none,4,3.0,18992.0,138383.0,224806.0,276706.0,261711.0
2026-04-08 21:46:07.568962,199500,1609503939793033,1539759337,0.952576,-0.236192,0.304512,3.675,28.6125,95.6025,-14.456,18.368,7.272,none,4,3.0,18992.0,138383.0,224806.0,276706.0,261711.0
2026-04-08 21:46:07.570364,199501,1609503939801991,1539767978,0.911584,-0.236192,0.329888,1.11125,27.125,99.085,-13.112,19.208,7.472,none,4,3.0,18992.0,138383.0,224806.0,276706.0,261711.0
2026-04-08 21:46:07.576259,199502,1609503939816508,1539782874,0.911584,-0.236192,0.329888,0.69125,24.605,102.40125,-13.112,19.208,7.472,none,4,3.0,18992.0,138383.0,224806.0,276706.0,261711.0
2026-04-08 21:46:07.604823,199503,1609503939825437,1539791560,0.882304,-0.259616,0.259616,2.17,22.18125,104.0025,-12.368001,19.816002,7.440001,none,4,3.0,18992.0,138383.0,224806.0,276706.0,261711.0
2026-04-08 21:46:07.633796,199514,1609503939839894,1539806908,0.882304,-0.259616,0.259616,4.89125,19.4075,103.38125,-12.368001,19.816002,7.440001,none,4,3.0,19027.0,138491.0,224957.0,276654.0,261620.0
2026-04-08 21:46:07.635859,199515,1609503939848832,1539815590,0.75152,-0.247904,0.119072,8.925,16.397501,101.50875,-11.752001,19.984001,7.64,none,4,3.0,19027.0,138491.0,224957.0,276654.0,261620.0
2026-04-08 21:46:07.638363,199516,1609503939863330,1539830477,0.767136,-0.279136,0.101504,14.84875,13.53625,99.1025,-10.400001,20.808,7.792,none,4,3.0,19027.0,138491.0,224957.0,276654.0,261620.0
2026-04-08 21:46:07.640816,199517,1609503939872287,1539839179,0.767136,-0.279136,0.101504,21.945,10.167501,95.9175,-10.400001,20.808,7.792,none,4,3.0,19027.0,138491.0,224957.0,276654.0,261620.0
2026-04-08 21:46:07.643312,199518,1609503939881256,1539847858,0.806176,-0.279136,0.212768,29.58375,6.9825,92.4175,-9.56,21.000002,8.232,none,4,3.0,19027.0,138491.0,224957.0,276654.0,261620.0
2026-04-08 21:46:07.703603,199519,1609503939895750,1539862810,0.806176,-0.279136,0.212768,37.8,4.2,88.5675,-9.56,21.000002,8.232,none,4,3.0,19027.0,138491.0,224957.0,276654.0,261620.0
2026-04-08 21:46:07.706813,199520,1609503939904670,1539871463,0.716384,-0.222528,0.218624,46.94375,0.805,85.015,-9.136001,21.184002,8.6,none,4,3.0,19027.0,138491.0,224957.0,276654.0,261620.0
2026-04-08 21:46:07.711110,199521,1609503939919156,1539884300,0.716384,-0.222528,0.218624,55.13375,-1.6975,81.06875,-9.136001,21.184002,8.6,none,4,3.0,19027.0,138491.0,224957.0,276654.0,261620.0
2026-04-08 21:46:07.716212,199522,1609503939928311,1539895028,0.700768,-0.208864,0.1952,63.2625,-3.885,76.6325,-8.280001,20.528002,8.400001,none,4,3.0,19027.0,138491.0,224957.0,276654.0,261620.0
2026-04-08 21:46:07.743357,199533,1609503939943253,1539909966,0.72224,-0.245952,0.025376,70.23625,-6.62375,70.9625,-7.6,21.384,8.336,none,4,3.0,18962.0,138297.0,224737.0,276459.0,261516.0
2026-04-08 21:46:07.745851,199534,1609503939952245,1539918718,0.72224,-0.245952,0.025376,75.88875,-9.33625,64.37375,-7.6,21.384,8.336,none,4,3.0,18962.0,138297.0,224737.0,276459.0,261516.0
2026-04-08 21:46:07.748340,199535,1609503939961208,1539927417,0.72224,-0.210816,0.05856,80.99875,-11.80375,58.05625,-7.6,21.384,8.336,none,4,3.0,18962.0,138297.0,224737.0,276459.0,261516.0
2026-04-08 21:46:07.751029,199536,1609503939975721,1539942353,0.669536,-0.210816,0.05856,85.53125,-13.825,51.5025,-7.12,21.000002,6.68,none,4,3.0,18962.0,138297.0,224737.0,276459.0,261516.0
2026-04-08 21:46:07.753386,199537,1609503939984758,1539951066,0.772992,-0.22448,0.181536,88.585,-15.98625,45.9375,-7.016,20.576,12.744,none,4,3.0,18962.0,138297.0,224737.0,276459.0,261516.0
2026-04-08 21:46:07.759637,199538,1609503939999251,1539965974,0.772992,-0.22448,0.181536,90.09875,-17.98125,40.5125,-7.016,20.576,12.744,none,4,3.0,18962.0,138297.0,224737.0,276459.0,261516.0
2026-04-08 21:46:07.790234,199539,1609503940008173,1539974688,0.792512,-0.206912,0.210816,90.615,-19.90625,35.9275,-6.664001,20.264002,13.456,none,4,3.0,18962.0,138297.0,224737.0,276459.0,261516.0
2026-04-08 21:46:07.793570,199540,1609503940017091,1539983343,0.792512,-0.206912,0.210816,90.0025,-21.98875,31.7625,-6.664001,20.264002,13.456,none,4,3.0,18962.0,138297.0,224737.0,276459.0,261516.0
2026-04-08 21:46:07.795892,199541,1609503940031590,1539998211,0.794464,-0.203008,0.163968,88.62,-24.053751,27.895,-6.472,19.384,12.128,none,4,3.0,18962.0,138297.0,224737.0,276459.0,261516.0
2026-04-08 21:46:07.800952,199542,1609503940040521,1540006860,0.794464,-0.203008,0.163968,86.72125,-25.87375,25.34,-6.472,19.384,12.128,none,4,3.0,18962.0,138297.0,224737.0,276459.0,261516.0
2026-04-08 21:46:07.830212,199553,1609503940055101,1540021781,0.804224,-0.169824,0.245952,85.46125,-27.4925,22.8375,-6.824,19.544,13.032001,none,4,3.0,18994.0,138369.0,224818.0,276503.0,261540.0
2026-04-08 21:46:07.832622,199554,1609503940064070,1540030563,0.83936,-0.1952,0.103456,84.14,-29.12,20.01125,-6.936,18.448,13.984,none,4,3.0,18994.0,138369.0,224818.0,276503.0,261540.0
2026-04-08 21:46:07.861120,199555,1609503940078567,1540045444,0.83936,-0.1952,0.103456,82.53,-30.94,18.15625,-6.936,18.448,13.984,none,4,3.0,18994.0,138369.0,224818.0,276503.0,261540.0
2026-04-08 21:46:07.865604,199556,1609503940087462,1540054101,0.884256,-0.208864,0.06832,81.47125,-32.26125,16.10875,-6.656,18.296001,14.504001,none,4,3.0,18994.0,138369.0,224818.0,276503.0,261540.0
2026-04-08 21:46:07.867166,199557,1609503940096337,1540062760,0.884256,-0.208864,0.06832,81.62,-33.46875,14.91,-6.656,18.296001,14.504001,none,4,3.0,18994.0,138369.0,224818.0,276503.0,261540.0
2026-04-08 21:46:07.873684,199558,1609503940110801,1540077659,0.983808,-0.232288,0.142496,82.652504,-33.81875,14.39375,-6.752,17.728,14.264001,none,4,3.0,18994.0,138369.0,224818.0,276503.0,261540.0
2026-04-08 21:46:07.899890,199559,1609503940119747,1540086355,0.983808,-0.232288,0.142496,83.965004,-34.8425,15.89,-6.752,17.728,14.264001,none,4,3.0,18994.0,138369.0,224818.0,276503.0,261540.0
2026-04-08 21:46:07.903801,199560,1609503940134230,1540101200,0.987712,-0.183488,0.37088,85.68875,-35.7,18.45375,-6.752,17.208,14.160001,none,4,3.0,18994.0,138369.0,224818.0,276503.0,261540.0
2026-04-08 21:46:07.936405,199571,1609503940143505,1540109869,1.022848,-0.187392,0.402112,87.84125,-35.79625,23.3275,-7.024,16.616001,15.168001,none,4,3.0,19115.0,138758.0,225093.0,276675.0,261581.0
2026-04-08 21:46:07.939344,199572,1609503940158290,1540124838,1.022848,-0.187392,0.402112,90.62375,-35.7525,28.74375,-7.024,16.616001,15.168001,none,4,3.0,19115.0,138758.0,225093.0,276675.0,261581.0
2026-04-08 21:46:07.945994,199573,1609503940167227,1540133650,1.0248,-0.199104,0.296704,94.8675,-35.245,36.05,-6.944,16.024,16.376001,none,4,3.0,19115.0,138758.0,225093.0,276675.0,261581.0
2026-04-08 21:46:07.947622,199574,1609503940176166,1540142365,1.0248,-0.199104,0.296704,100.5725,-33.0925,43.58375,-6.944,16.024,16.376001,none,4,3.0,19115.0,138758.0,225093.0,276675.0,261581.0
2026-04-08 21:46:07.952185,199575,1609503940190726,1540157364,1.038464,-0.150304,0.38064,107.07375,-28.16625,52.29875,-6.6,15.184001,17.712,none,4,3.0,19115.0,138758.0,225093.0,276675.0,261581.0
2026-04-08 21:46:08.005880,199576,1609503940199640,1540166061,1.038464,-0.150304,0.38064,112.42875,-21.20125,61.670002,-6.6,15.184001,17.712,none,4,3.0,19115.0,138758.0,225093.0,276675.0,261581.0
2026-04-08 21:46:08.008035,199577,1609503940214143,1540180921,0.952576,-0.023424,0.466528,112.9975,-13.71125,69.93875,-6.096,14.688001,16.544,none,4,3.0,19115.0,138758.0,225093.0,276675.0,261581.0
2026-04-08 21:46:08.012709,199578,1609503940223047,1540189604,1.028704,0.027328,0.519232,107.5025,-6.30875,76.8775,-6.096,14.688001,18.064001,none,4,3.0,19115.0,138758.0,225093.0,276675.0,261581.0
2026-04-08 21:46:08.014435,199579,1609503940231972,1540198272,1.028704,0.027328,0.519232,96.46875,-0.32375,82.0925,-5.6,14.6,18.064001,none,4,3.0,19115.0,138758.0,225093.0,276675.0,261581.0
2026-04-08 21:46:08.048378,199591,1609503940246967,1540213224,0.929152,0.103456,0.568032,80.683754,4.62,84.42875,-5.36,13.752001,16.896,none,4,3.0,19069.0,138512.0,224729.0,276520.0,261563.0
2026-04-08 21:46:08.050945,199592,1609503940255983,1540221896,0.929152,0.103456,0.568032,63.83125,9.73875,84.3675,-5.36,13.752001,16.896,none,4,3.0,19069.0,138512.0,224729.0,276520.0,261563.0
2026-04-08 21:46:08.055207,199593,1609503940270474,1540236823,0.825696,0.183488,0.431392,41.79875,15.68875,86.24875,-4.92,13.776001,17.52,none,4,3.0,19069.0,138512.0,224729.0,276520.0,261563.0
2026-04-08 21:46:08.057123,199594,1609503940279520,1540245567,0.825696,0.183488,0.431392,18.08625,20.39625,74.777504,-4.92,13.776001,17.52,none,4,3.0,19069.0,138512.0,224729.0,276520.0,261563.0
2026-04-08 21:46:08.058403,199595,1609503940288567,1540254246,0.831552,0.16592,0.593408,-2.26625,24.4825,59.815,-3.952,14.200001,17.936,none,4,3.0,19069.0,138512.0,224729.0,276520.0,261563.0
2026-04-08 21:46:08.065020,199596,1609503940303073,1540269127,0.831552,0.16592,0.427488,-22.1025,27.23,52.61375,-3.952,14.200001,17.936,none,4,3.0,19069.0,138512.0,224729.0,276520.0,261563.0
2026-04-08 21:46:08.071294,199597,1609503940312048,1540277849,0.718336,0.144448,0.427488,-39.29625,28.5425,44.4675,-3.816,15.112,16.224,none,4,3.0,19069.0,138512.0,224729.0,276520.0,261563.0
2026-04-08 21:46:08.099820,199598,1609503940326532,1540292763,0.7808,0.072224,0.511424,-58.51125,29.0325,30.975,-3.624,15.552001,16.248001,none,4,3.0,19069.0,138512.0,224729.0,276520.0,261563.0
2026-04-08 21:46:08.103439,199599,1609503940335467,1540301439,0.7808,0.072224,0.511424,-80.325,28.7875,21.4375,-3.624,15.552001,16.248001,none,4,3.0,19069.0,138512.0,224729.0,276520.0,261563.0
2026-04-08 21:46:08.131916,199610,1609503940349991,1540316381,0.696864,0.052704,0.433344,-99.00625,27.317501,14.6825,-3.376,16.512001,16.0,none,4,3.0,18914.0,138051.0,224224.0,276124.0,261340.0
2026-04-08 21:46:08.133386,199611,1609503940358941,1540325134,0.696864,0.052704,0.433344,-115.21125,26.08375,5.41625,-3.376,16.512001,16.0,none,4,3.0,18914.0,138051.0,224224.0,276124.0,261340.0
2026-04-08 21:46:08.137480,199612,1609503940367960,1540333867,0.769088,-0.060512,0.443104,-126.5775,25.82125,-6.755,-2.92,17.560001,16.816,none,4,3.0,18914.0,138051.0,224224.0,276124.0,261340.0
2026-04-08 21:46:08.142513,199613,1609503940382553,1540348816,0.769088,-0.060512,0.443104,-131.39876,26.18875,-19.7925,-2.92,17.560001,16.816,none,4,3.0,18914.0,138051.0,224224.0,276124.0,261340.0
2026-04-08 21:46:08.171096,199614,1609503940391475,1540357566,0.724192,-0.11712,0.35136,-131.8975,27.65,-33.8975,-3.552,18.528002,16.624,none,4,3.0,18914.0,138051.0,224224.0,276124.0,261340.0
2026-04-08 21:46:08.175608,199615,1609503940405892,1540372461,0.718336,-0.160064,0.296704,-128.03,28.62125,-48.65875,-3.424,19.28,15.648001,none,4,3.0,18914.0,138051.0,224224.0,276124.0,261340.0
2026-04-08 21:46:08.177208,199616,1609503940414806,1540381120,0.718336,-0.160064,0.296704,-125.76375,28.55125,-61.27625,-3.424,19.28,15.648001,none,4,3.0,18914.0,138051.0,224224.0,276124.0,261340.0
2026-04-08 21:46:08.207368,199617,1609503940429320,1540396087,0.732,-0.163968,0.259616,-123.85625,28.91,-67.62,-4.008,19.608002,12.928,none,4,3.0,18914.0,138051.0,224224.0,276124.0,261340.0
2026-04-08 21:46:08.210876,199618,1609503940438254,1540404739,0.732,-0.163968,0.259616,-122.2025,29.295,-74.2525,-4.008,19.608002,12.928,none,4,3.0,18914.0,138051.0,224224.0,276124.0,261340.0
2026-04-08 21:46:08.244655,199629,1609503940447754,1540413444,0.739808,-0.160064,0.427488,-122.3075,28.65625,-83.01125,-4.608,20.104,12.424001,none,4,3.0,18900.0,138062.0,224325.0,276168.0,261321.0
2026-04-08 21:46:08.247079,199630,1609503940462252,1540428354,0.739808,-0.160064,0.427488,-120.25125,28.16625,-92.96,-4.608,20.104,12.424001,none,4,3.0,18900.0,138062.0,224325.0,276168.0,261321.0
2026-04-08 21:46:08.249611,199631,1609503940471185,1540437160,0.730048,-0.197152,0.411872,-115.815,28.32375,-104.895,-5.312,20.736,12.376,none,4,3.0,18900.0,138062.0,224325.0,276168.0,261321.0
2026-04-08 21:46:08.252144,199632,1609503940485773,1540452089,0.743712,-0.191296,0.339648,-111.51875,28.7525,-114.40625,-6.128,21.088001,11.496,none,4,3.0,18900.0,138062.0,224325.0,276168.0,261321.0
2026-04-08 21:46:08.254608,199633,1609503940494719,1540460765,0.743712,-0.191296,0.339648,-107.38,28.35,-119.49,-6.128,21.088001,11.496,none,4,3.0,18900.0,138062.0,224325.0,276168.0,261321.0
2026-04-08 21:46:08.292417,199634,1609503940503680,1540469438,0.743712,-0.191296,0.339648,-104.50125,27.58875,-124.9675,-6.128,21.088001,11.496,none,4,3.0,18900.0,138062.0,224325.0,276168.0,261321.0
2026-04-08 21:46:08.327263,199635,1609503940518164,1540484312,0.76128,-0.203008,0.1464,-104.4225,26.45125,-131.18875,-7.28,20.864,9.64,none,4,3.0,18900.0,138062.0,224325.0,276168.0,261321.0
2026-04-08 21:46:08.330869,199636,1609503940527083,1540492985,0.890112,-0.199104,0.220576,-106.46125,23.94875,-133.55125,-8.432,20.720001,9.832001,none,4,3.0,18900.0,138062.0,224325.0,276168.0,261321.0
2026-04-08 21:46:08.333440,199637,1609503940541537,1540507818,0.890112,-0.199104,0.220576,-109.47125,20.4575,-133.9625,-8.432,20.720001,9.832001,none,4,3.0,18900.0,138062.0,224325.0,276168.0,261321.0
2026-04-08 21:46:08.360877,199648,1609503940550652,1540516955,0.972096,-0.206912,0.132736,-113.82875,16.44125,-135.86125,-9.72,20.76,8.384001,none,4,3.0,19156.0,138936.0,225409.0,276876.0,261702.0
2026-04-08 21:46:08.363345,199649,1609503940565157,1540531803,0.972096,-0.23424,0.060512,-119.79625,12.39,-138.6,-9.72,20.76,8.384001,none,4,3.0,19156.0,138936.0,225409.0,276876.0,261702.0
2026-04-08 21:46:08.365869,199650,1609503940574092,1540540461,1.007232,-0.23424,0.060512,-124.59125,8.54875,-140.56,-10.928,20.592001,7.888001,none,4,3.0,19156.0,138936.0,225409.0,276876.0,261702.0
2026-04-08 21:46:08.368376,199651,1609503940583037,1540549232,1.007232,-0.23424,0.060512,-127.53125,5.45125,-142.415,-10.928,20.592001,7.888001,none,4,3.0,19156.0,138936.0,225409.0,276876.0,261702.0
2026-04-08 21:46:08.370900,199652,1609503940597611,1540564184,1.016992,-0.279136,0.138592,-128.19624,2.975,-142.485,-12.192,19.832,6.488,none,4,3.0,19156.0,138936.0,225409.0,276876.0,261702.0
2026-04-08 21:46:08.373363,199653,1609503940606568,1540572894,1.057984,-0.38064,0.236192,-125.37875,1.19,-140.23625,-13.64,19.824001,6.784,none,4,3.0,19156.0,138936.0,225409.0,276876.0,261702.0
2026-04-08 21:46:08.403625,199654,1609503940621095,1540587769,1.057984,-0.38064,0.236192,-116.38375,1.68,-140.02625,-13.64,19.824001,6.784,none,4,3.0,19156.0,138936.0,225409.0,276876.0,261702.0
2026-04-08 21:46:08.407194,199655,1609503940630044,1540596461,1.003328,-0.394304,0.396256,-105.1925,1.18125,-140.79625,-14.920001,19.168001,5.0,none,4,3.0,19156.0,138936.0,225409.0,276876.0,261702.0
2026-04-08 21:46:08.438151,199666,1609503940644494,1540611317,1.003328,-0.394304,0.396256,-88.8475,1.3475,-138.85374,-14.920001,19.168001,5.0,none,4,3.0,19076.0,138477.0,224755.0,276312.0,261348.0
2026-04-08 21:46:08.439655,199667,1609503940653409,1540620064,0.919392,-0.398208,0.181536,-69.405,-0.0525,-136.01,-16.288,18.456001,4.392,none,4,3.0,19076.0,138477.0,224755.0,276312.0,261348.0
2026-04-08 21:46:08.443886,199668,1609503940662431,1540628786,0.919392,-0.398208,0.181536,-50.00625,-3.71,-131.495,-16.288,18.456001,4.392,none,4,3.0,19076.0,138477.0,224755.0,276312.0,261348.0
2026-04-08 21:46:08.445618,199669,1609503940676946,1540643688,0.974048,-0.392352,0.36112,-30.93125,-5.03125,-121.94875,-17.240002,17.472,5.296001,none,4,3.0,19076.0,138477.0,224755.0,276312.0,261348.0
2026-04-08 21:46:08.447189,199670,1609503940686001,1540652406,0.974048,-0.454816,0.193248,-12.81,-3.5,-111.58,-17.240002,17.472,5.296001,none,4,3.0,19076.0,138477.0,224755.0,276312.0,261348.0
2026-04-08 21:46:08.478300,199671,1609503940700495,1540667350,0.903776,-0.454816,0.193248,2.8525,-2.19625,-104.08125,-18.208,16.792002,4.616,none,4,3.0,19076.0,138477.0,224755.0,276312.0,261348.0
2026-04-08 21:46:08.480621,199672,1609503940709389,1540675995,0.85888,-0.382592,0.232288,19.3725,-0.2975,-94.75375,-18.608002,15.432001,4.632,none,4,3.0,19076.0,138477.0,224755.0,276312.0,261348.0
2026-04-08 21:46:08.485154,199673,1609503940723860,1540690881,0.85888,-0.382592,0.232288,32.6725,0.46375,-81.7075,-18.608002,15.432001,4.632,none,4,3.0,19076.0,138477.0,224755.0,276312.0,261348.0
2026-04-08 21:46:08.513655,199674,1609503940732804,1540699550,0.843264,-0.177632,0.347456,35.07,-2.30125,-68.32875,-19.712002,15.264001,6.048,none,4,3.0,19076.0,138477.0,224755.0,276312.0,261348.0
2026-04-08 21:46:08.517213,199675,1609503940741732,1540708224,0.843264,-0.177632,0.347456,27.20375,-4.2175,-55.27375,-19.712002,15.264001,6.048,none,4,3.0,19076.0,138477.0,224755.0,276312.0,261348.0
2026-04-08 21:46:08.550162,199686,1609503940756234,1540723199,0.93696,-0.203008,0.316224,9.87,-4.3225,-41.11625,-19.888,14.448001,4.456,none,4,3.0,19019.0,138081.0,224175.0,276018.0,261257.0
2026-04-08 21:46:08.551886,199687,1609503940765138,1540731998,0.93696,-0.203008,0.316224,-17.43875,-6.86,-27.4925,-19.888,14.448001,4.456,none,4,3.0,19019.0,138081.0,224175.0,276018.0,261257.0
2026-04-08 21:46:08.553392,199688,1609503940779658,1540744961,1.08336,-0.271328,0.32208,-44.98375,-9.49375,-12.52125,-19.928001,14.72,3.976,none,4,3.0,19019.0,138081.0,224175.0,276018.0,261257.0
2026-04-08 21:46:08.557635,199689,1609503940788945,1540755707,1.1712,-0.324032,0.247904,-66.815,-9.94,1.16375,-20.256,15.040001,3.688,none,4,3.0,19019.0,138081.0,224175.0,276018.0,261257.0
2026-04-08 21:46:08.560126,199690,1609503940797876,1540764392,1.1712,-0.324032,0.247904,-80.98125,-7.7875,12.52125,-20.256,15.040001,3.688,none,4,3.0,19019.0,138081.0,224175.0,276018.0,261257.0
2026-04-08 21:46:08.608300,199691,1609503940812415,1540779308,0.931104,-0.33184,0.183488,-87.3425,-3.19375,18.61125,-19.968,15.504001,4.576,none,4,3.0,19019.0,138081.0,224175.0,276018.0,261257.0
2026-04-08 21:46:08.610531,199692,1609503940821324,1540787985,0.931104,-0.33184,0.183488,-89.3375,1.19875,26.18,-19.968,15.504001,4.576,none,4,3.0,19019.0,138081.0,224175.0,276018.0,261257.0
2026-04-08 21:46:08.615238,199693,1609503940835811,1540802826,0.774944,-0.318176,0.228384,-88.340004,2.7125,33.9675,-19.984001,15.608001,3.304,none,4,3.0,19019.0,138081.0,224175.0,276018.0,261257.0
2026-04-08 21:46:08.616942,199694,1609503940844730,1540811489,0.774944,-0.318176,0.228384,-86.40625,3.08875,38.78,-19.984001,15.608001,3.304,none,4,3.0,19019.0,138081.0,224175.0,276018.0,261257.0
2026-04-08 21:46:08.643420,199705,1609503940859287,1540826430,0.661728,-0.294752,0.240096,-86.135,3.31625,44.44125,-19.576,16.368,2.624,none,4,3.0,18975.0,137903.0,223973.0,275864.0,261164.0
2026-04-08 21:46:08.647643,199706,1609503940868210,1540835138,0.599264,-0.279136,0.093696,-84.91875,2.8,51.03875,-19.832,17.064001,1.736,none,4,3.0,18975.0,137903.0,223973.0,275864.0,261164.0
2026-04-08 21:46:08.650001,199707,1609503940877267,1540843890,0.599264,-0.279136,0.093696,-83.02,0.4025,56.6125,-19.832,17.064001,1.736,none,4,3.0,18975.0,137903.0,223973.0,275864.0,261164.0
2026-04-08 21:46:08.652061,199708,1609503940891732,1540858823,0.651968,-0.304512,0.132736,-79.12625,0.42,60.17375,-19.232,17.36,1.68,none,4,3.0,18975.0,137903.0,223973.0,275864.0,261164.0
2026-04-08 21:46:08.681164,199709,1609503940900675,1540867508,0.651968,-0.304512,0.132736,-73.4825,0.0525,62.58,-19.232,17.36,1.68,none,4,3.0,18975.0,137903.0,223973.0,275864.0,261164.0
2026-04-08 21:46:08.685568,199710,1609503940915129,1540880311,0.735904,-0.349408,0.16592,-66.14125,0.13125,61.71375,-19.304,17.864,0.944,none,4,3.0,18975.0,137903.0,223973.0,275864.0,261164.0
2026-04-08 21:46:08.687897,199711,1609503940924343,1540890992,0.735904,-0.349408,0.16592,-57.5925,1.9075,60.6725,-19.304,17.864,0.944,none,4,3.0,18975.0,137903.0,223973.0,275864.0,261164.0
2026-04-08 21:46:08.718186,199712,1609503940938841,1540905868,0.694912,-0.2928,-0.017568,-47.075,4.36625,58.9925,-19.128,18.6,1.16,none,4,3.0,18975.0,137903.0,223973.0,275864.0,261164.0
2026-04-08 21:46:08.747018,199723,1609503940947790,1540914956,0.757376,-0.206912,0.074176,-38.42125,5.18875,57.23375,-19.128,18.6,-0.888,none,4,3.0,19096.0,138696.0,225162.0,276805.0,261737.0
2026-04-08 21:46:08.748399,199724,1609503940956725,1540923620,0.763232,-0.206912,0.074176,-31.605,4.76,53.357502,-18.488,19.048,-0.928,none,4,3.0,19096.0,138696.0,225162.0,276805.0,261737.0
2026-04-08 21:46:08.752621,199725,1609503940971201,1540936430,0.776896,-0.21472,-0.101504,-27.15125,4.55,46.585,-18.888,19.328001,0.72,none,4,3.0,19096.0,138696.0,225162.0,276805.0,261737.0
2026-04-08 21:46:08.754331,199726,1609503940980443,1540947282,0.776896,-0.21472,-0.101504,-26.08375,3.7625,36.505,-18.888,19.328001,0.72,none,4,3.0,19096.0,138696.0,225162.0,276805.0,261737.0
2026-04-08 21:46:08.756236,199727,1609503940995057,1540962174,0.882304,-0.218624,-0.10736,-26.17125,3.35125,23.275,-19.224,19.336,1.0,none,4,3.0,19096.0,138696.0,225162.0,276805.0,261737.0
2026-04-08 21:46:08.787529,199728,1609503941004009,1540970850,0.882304,-0.218624,-0.10736,-27.36125,0.42875,9.7125,-19.224,19.336,1.0,none,4,3.0,19096.0,138696.0,225162.0,276805.0,261737.0
2026-04-08 21:46:08.793872,199729,1609503941018496,1540983673,1.071648,-0.296704,-0.080032,-31.00125,-4.025,-2.77375,-19.792002,18.888,0.216,none,4,3.0,19096.0,138696.0,225162.0,276805.0,261737.0
2026-04-08 21:46:08.795595,199730,1609503941027635,1540994402,1.071648,-0.296704,-0.080032,-36.6975,-6.58875,-15.3125,-19.792002,18.888,0.216,none,4,3.0,19096.0,138696.0,225162.0,276805.0,261737.0
2026-04-08 21:46:08.797124,199731,1609503941036538,1541003103,1.071648,-0.339648,0.070272,-40.74,-8.9775,-29.12,-20.232,18.856,1.008,none,4,3.0,19096.0,138696.0,225162.0,276805.0,261737.0
2026-04-08 21:46:08.853320,199742,1609503941051458,1541018061,1.022848,-0.320128,0.07808,-42.84875,-11.34,-41.3175,-20.768002,18.792002,0.048,none,4,3.0,18998.0,138290.0,224613.0,276215.0,261276.0
2026-04-08 21:46:08.856018,199743,1609503941060413,1541026703,1.022848,-0.320128,0.07808,-43.925,-15.14625,-49.30625,-20.768002,18.792002,0.048,none,4,3.0,18998.0,138290.0,224613.0,276215.0,261276.0
2026-04-08 21:46:08.858362,199744,1609503941074880,1541041541,0.974048,-0.324032,-0.11712,-46.6375,-20.65,-55.60625,-21.344002,18.064001,-1.128,none,4,3.0,18998.0,138290.0,224613.0,276215.0,261276.0
2026-04-08 21:46:08.860973,199745,1609503941083966,1541050302,0.974048,-0.324032,-0.11712,-49.14875,-27.335001,-63.21875,-21.344002,18.064001,-1.128,none,4,3.0,18998.0,138290.0,224613.0,276215.0,261276.0
2026-04-08 21:46:08.863389,199746,1609503941092935,1541059016,0.987712,-0.386496,0.003904,-47.43375,-33.95875,-70.14,-22.264002,17.512001,-0.408,none,4,3.0,18998.0,138290.0,224613.0,276215.0,261276.0
2026-04-08 21:46:08.867104,199747,1609503941107547,1541073980,0.987712,-0.386496,0.003904,-39.6375,-38.38625,-75.34625,-22.264002,17.512001,-0.408,none,4,3.0,18998.0,138290.0,224613.0,276215.0,261276.0
2026-04-08 21:46:08.904724,199748,1609503941116474,1541082673,1.016992,-0.460672,0.064416,-22.54875,-40.285,-79.96625,-22.76,16.792002,0.36,none,4,3.0,18998.0,138290.0,224613.0,276215.0,261276.0
2026-04-08 21:46:08.908439,199749,1609503941130979,1541097551,1.009184,-0.452864,0.113216,2.7125,-40.013752,-81.445,-23.216002,15.984001,-2.056,none,4,3.0,18998.0,138290.0,224613.0,276215.0,261276.0
2026-04-08 21:46:08.911103,199750,1609503941139868,1541106199,1.009184,-0.452864,0.113216,32.6725,-37.765,-78.72375,-23.216002,15.984001,-2.056,none,4,3.0,18998.0,138290.0,224613.0,276215.0,261276.0
2026-04-08 21:46:08.938482,199761,1609503941154418,1541121205,0.974048,-0.4392,0.076128,62.93875,-34.3525,-74.69875,-23.808,15.216001,-1.32,none,4,3.0,18480.0,136347.0,222190.0,274512.0,260294.0
2026-04-08 21:46:08.940867,199762,1609503941163549,1541129904,0.974048,-0.4392,0.076128,90.090004,-31.89375,-68.83625,-23.808,15.216001,-1.32,none,4,3.0,18480.0,136347.0,222190.0,274512.0,260294.0
2026-04-08 21:46:08.943375,199763,1609503941172501,1541138699,0.81984,-0.327936,-0.054656,110.88,-30.47625,-59.1675,-24.528002,15.024001,0.176,none,4,3.0,18480.0,136347.0,222190.0,274512.0,260294.0
2026-04-08 21:46:08.945917,199764,1609503941186988,1541153549,0.81984,-0.327936,-0.054656,126.20125,-28.455,-44.826252,-24.528002,15.024001,0.176,none,4,3.0,18480.0,136347.0,222190.0,274512.0,260294.0
2026-04-08 21:46:08.976021,199765,1609503941195971,1541162249,0.841312,-0.191296,0.081984,136.885,-26.48625,-33.013752,-24.424002,14.528001,0.456,none,4,3.0,18480.0,136347.0,222190.0,274512.0,260294.0
2026-04-08 21:46:08.979662,199766,1609503941210457,1541177111,0.847168,-0.081984,0.10736,140.16624,-25.38375,-24.89375,-24.824001,13.992001,-0.56,none,4,3.0,18480.0,136347.0,222190.0,274512.0,260294.0
2026-04-08 21:46:08.982123,199767,1609503941219351,1541185768,0.847168,-0.081984,0.10736,137.29625,-23.59875,-18.366251,-24.824001,13.992001,-0.56,none,4,3.0,18480.0,136347.0,222190.0,274512.0,260294.0
2026-04-08 21:46:08.987332,199768,1609503941228346,1541194438,0.847168,-0.081984,0.10736,127.25125,-21.62125,-12.69625,-24.824001,13.992001,-0.56,none,4,3.0,18480.0,136347.0,222190.0,274512.0,260294.0
2026-04-08 21:46:09.017380,199769,1609503941242782,1541209369,0.866688,-0.109312,0.099552,110.59125,-20.79875,-6.53625,-25.048,14.064001,2.0,none,4,3.0,18480.0,136347.0,222190.0,274512.0,260294.0
2026-04-08 21:46:09.051396,199780,1609503941252242,1541218562,0.890112,-0.109312,0.093696,87.675,-19.36375,0.28,-25.000002,14.264001,-0.344,none,4,3.0,18136.0,135093.0,220680.0,273598.0,259883.0
2026-04-08 21:46:09.053077,199781,1609503941266784,1541233456,0.890112,-0.109312,0.093696,67.38375,-18.025,5.53875,-25.000002,14.264001,-0.344,none,4,3.0,18136.0,135093.0,220680.0,273598.0,259883.0
2026-04-08 21:46:09.054649,199782,1609503941275725,1541242140,0.991616,-0.017568,0.113216,54.04,-19.34625,8.32125,-25.088001,14.496,0.256,none,4,3.0,18136.0,135093.0,220680.0,273598.0,259883.0
2026-04-08 21:46:09.058890,199783,1609503941284764,1541250916,0.991616,-0.017568,0.113216,43.54,-14.0875,7.20125,-25.088001,14.496,0.256,none,4,3.0,18136.0,135093.0,220680.0,273598.0,259883.0
2026-04-08 21:46:09.061450,199784,1609503941299247,1541265829,1.079456,0.015616,0.30256,35.93625,-9.45,3.43875,-25.352001,14.112,0.448,none,4,3.0,18136.0,135093.0,220680.0,273598.0,259883.0
2026-04-08 21:46:09.089806,199785,1609503941308205,1541274471,1.079456,0.015616,0.30256,24.5,-1.12,2.59875,-25.352001,14.112,0.448,none,4,3.0,18136.0,135093.0,220680.0,273598.0,259883.0
2026-04-08 21:46:09.094366,199786,1609503941322679,1541289340,0.99552,-0.052704,0.085888,7.63875,-1.4175,5.775,-25.008001,14.240001,2.176,none,4,3.0,18136.0,135093.0,220680.0,273598.0,259883.0
2026-04-08 21:46:09.095902,199787,1609503941331622,1541298029,1.091168,0.02928,0.099552,-12.81,-3.08875,9.79125,-25.176,14.664001,-1.424,none,4,3.0,18136.0,135093.0,220680.0,273598.0,259883.0
2026-04-08 21:46:09.129586,199788,1609503941346126,1541312906,1.091168,0.02928,0.099552,-31.78875,-8.44375,11.165,-25.176,14.664001,-1.424,none,4,3.0,18136.0,135093.0,220680.0,273598.0,259883.0
2026-04-08 21:46:09.158122,199799,1609503941355294,1541321604,1.235616,0.05856,0.115168,-46.36625,-9.19625,11.83875,-25.048,15.152,-0.544,none,4,3.0,18089.0,134908.0,220445.0,273369.0,259751.0
2026-04-08 21:46:09.159624,199800,1609503941364292,1541330274,1.235616,0.05856,0.115168,-57.46125,-7.0875,14.30625,-25.048,15.152,-0.544,none,4,3.0,18089.0,134908.0,220445.0,273369.0,259751.0
2026-04-08 21:46:09.164133,199801,1609503941378798,1541345199,1.095072,-0.111264,-0.052704,-66.64875,-5.705,10.71,-25.336,15.304001,-0.84,none,4,3.0,18089.0,134908.0,220445.0,273369.0,259751.0
2026-04-08 21:46:09.203393,199802,1609503941387742,1541353940,1.095072,-0.111264,-0.052704,-76.7025,-6.55375,12.0925,-25.336,15.304001,-0.84,none,4,3.0,18089.0,134908.0,220445.0,273369.0,259751.0
2026-04-08 21:46:09.212741,199803,1609503941402285,1541368916,1.06384,-0.134688,0.056608,-84.21,-9.80875,22.07625,-25.176,15.240001,-0.096,none,4,3.0,18089.0,134908.0,220445.0,273369.0,259751.0
2026-04-08 21:46:09.214408,199804,1609503941411157,1541377583,1.067744,-0.179584,0.056608,-77.63,-11.75125,27.02,-25.176,15.744,-0.728,none,4,3.0,18089.0,134908.0,220445.0,273369.0,259751.0
2026-04-08 21:46:09.216046,199805,1609503941425616,1541392413,1.067744,-0.179584,0.056608,-58.388752,-13.43125,20.1425,-25.184002,15.744,-0.728,none,4,3.0,18089.0,134908.0,220445.0,273369.0,259751.0
2026-04-08 21:46:09.218425,199806,1609503941434553,1541401112,0.915488,-0.187392,0.005856,-35.665,-14.245,12.46875,-24.568,15.920001,-1.568,none,4,3.0,18089.0,134908.0,220445.0,273369.0,259751.0
2026-04-08 21:46:09.222500,199807,1609503941443465,1541409803,0.915488,-0.187392,0.005856,-13.04625,-14.28,10.5,-24.568,15.920001,-1.568,none,4,3.0,18089.0,134908.0,220445.0,273369.0,259751.0
2026-04-08 21:46:09.252137,199818,1609503941458016,1541424689,0.921344,-0.16592,0.236192,7.84875,-13.895,8.25125,-24.68,16.2,-0.704,none,4,3.0,18352.0,135894.0,221730.0,274174.0,260167.0
2026-04-08 21:46:09.256418,199819,1609503941467040,1541433419,0.921344,-0.16592,0.236192,23.8525,-13.685,5.45125,-24.68,16.2,-0.704,none,4,3.0,18352.0,135894.0,221730.0,274174.0,260167.0
2026-04-08 21:46:09.258094,199820,1609503941481571,1541448489,0.89792,-0.1952,0.154208,37.835,-11.6375,3.17625,-24.608002,15.936001,0.288,none,4,3.0,18352.0,135894.0,221730.0,274174.0,260167.0
2026-04-08 21:46:09.259654,199821,1609503941490710,1541457235,0.89792,-0.1952,0.154208,50.925,-8.79375,2.24,-24.608002,15.936001,0.288,none,4,3.0,18352.0,135894.0,221730.0,274174.0,260167.0
2026-04-08 21:46:09.266253,199822,1609503941505263,1541472171,0.854976,-0.179584,0.347456,61.853752,-5.4075,0.30625,-24.568,15.976001,0.592,none,4,3.0,18352.0,135894.0,221730.0,274174.0,260167.0
2026-04-08 21:46:09.294886,199823,1609503941514174,1541480870,0.71248,-0.140544,0.158112,69.65875,-2.49375,-1.18125,-24.6,15.880001,-0.648,none,4,3.0,18352.0,135894.0,221730.0,274174.0,260167.0
2026-04-08 21:46:09.299371,199824,1609503941523091,1541489527,0.71248,-0.140544,0.158112,74.515,0.07,-0.8225,-24.6,15.880001,-0.648,none,4,3.0,18352.0,135894.0,221730.0,274174.0,260167.0
2026-04-08 21:46:09.301670,199825,1609503941537597,1541504390,0.841312,-0.13664,0.242048,75.81,2.485,1.26,-24.840002,15.960001,-0.056,none,4,3.0,18352.0,135894.0,221730.0,274174.0,260167.0
2026-04-08 21:46:09.311025,199826,1609503941546531,1541513162,0.841312,-0.13664,0.242048,73.246254,5.17125,3.9375,-24.840002,15.960001,-0.056,none,4,3.0,18352.0,135894.0,221730.0,274174.0,260167.0
2026-04-08 21:46:09.339367,199837,1609503941561108,1541526374,0.8784,-0.124928,0.265472,67.3575,6.86,6.3175,-24.512001,15.664001,0.464,none,4,3.0,18498.0,136557.0,222527.0,274775.0,260529.0
2026-04-08 21:46:09.340919,199838,1609503941570482,1541537156,0.8784,-0.124928,0.265472,56.7,7.98875,7.875,-24.512001,15.664001,0.464,none,4,3.0,18498.0,136557.0,222527.0,274775.0,260529.0
2026-04-08 21:46:09.344985,199839,1609503941579465,1541545864,0.821792,-0.128832,0.011712,42.7875,9.5725,10.43,-24.416,16.12,1.12,none,4,3.0,18498.0,136557.0,222527.0,274775.0,260529.0
2026-04-08 21:46:09.379161,199840,1609503941594027,1541560730,0.909632,-0.101504,0.042944,27.895,11.29625,13.1425,-24.336,15.856001,2.064,none,4,3.0,18498.0,136557.0,222527.0,274775.0,260529.0
2026-04-08 21:46:09.380533,199841,1609503941602967,1541569464,0.909632,-0.101504,0.042944,15.2075,11.82125,12.8275,-24.336,15.856001,2.064,none,4,3.0,18498.0,136557.0,222527.0,274775.0,260529.0
2026-04-08 21:46:09.385802,199842,1609503941617471,1541584325,0.915488,-0.11712,-0.01952,5.985,13.50125,11.64625,-24.52,16.112001,1.0,none,4,3.0,18498.0,136557.0,222527.0,274775.0,260529.0
2026-04-08 21:46:09.387605,199843,1609503941626415,1541592983,0.915488,-0.11712,-0.01952,-2.9225,15.68875,14.7,-24.52,16.112001,1.0,none,4,3.0,18498.0,136557.0,222527.0,274775.0,260529.0
2026-04-08 21:46:09.416076,199844,1609503941640887,1541607838,0.913536,-0.12688,0.111264,-7.00875,16.26625,15.4,-24.248001,16.328001,1.376,none,4,3.0,18498.0,136557.0,222527.0,274775.0,260529.0
2026-04-08 21:46:09.444616,199855,1609503941649805,1541616468,0.913536,-0.12688,0.111264,-9.24,18.20875,12.792501,-24.248001,16.328001,1.376,none,4,3.0,18821.0,137772.0,224001.0,275673.0,260949.0
2026-04-08 21:46:09.447121,199856,1609503941658725,1541625148,0.958432,-0.212768,-0.033184,-13.02,22.155,13.60625,-24.304,16.904001,1.312,none,4,3.0,18821.0,137772.0,224001.0,275673.0,260949.0
2026-04-08 21:46:09.449638,199857,1609503941673223,1541640102,0.84912,-0.089792,0.02928,-15.65375,23.38,16.12625,-24.504002,16.912,1.8,none,4,3.0,18821.0,137772.0,224001.0,275673.0,260949.0
2026-04-08 21:46:09.452120,199858,1609503941682129,1541648830,0.84912,-0.089792,0.02928,-16.21375,20.9475,19.6525,-24.504002,16.912,1.8,none,4,3.0,18821.0,137772.0,224001.0,275673.0,260949.0
2026-04-08 21:46:09.457124,199859,1609503941696636,1541663698,0.8784,-0.121024,-0.003904,-15.89,19.6,14.56875,-24.464,17.528002,3.256,none,4,3.0,18821.0,137772.0,224001.0,275673.0,260949.0
2026-04-08 21:46:09.503632,199860,1609503941705610,1541672434,0.8784,-0.121024,-0.003904,-21.25375,19.6,11.4975,-24.464,17.528002,3.256,none,4,3.0,18821.0,137772.0,224001.0,275673.0,260949.0
2026-04-08 21:46:09.509695,199861,1609503941720094,1541685333,0.90768,-0.138592,0.050752,-25.27,15.18125,13.50125,-24.344002,17.2,0.704,none,4,3.0,18821.0,137772.0,224001.0,275673.0,260949.0
2026-04-08 21:46:09.512280,199862,1609503941729332,1541696078,0.90768,-0.138592,0.050752,-25.10375,11.83,10.52625,-24.344002,17.2,0.704,none,4,3.0,18821.0,137772.0,224001.0,275673.0,260949.0
2026-04-08 21:46:09.514621,199863,1609503941738242,1541704732,0.935008,-0.163968,-0.013664,-24.84125,8.39125,2.1175,-24.336,17.472,1.656,none,4,3.0,18821.0,137772.0,224001.0,275673.0,260949.0
2026-04-08 21:46:09.565961,199874,1609503941752923,1541719686,0.935008,-0.163968,-0.02928,-23.17,5.71375,-1.9075,-24.336,17.472,1.656,none,4,3.0,18833.0,137894.0,224069.0,275678.0,260929.0
2026-04-08 21:46:09.568366,199875,1609503941761924,1541728348,0.919392,-0.173728,-0.02928,-19.04875,3.85875,-5.13625,-24.352001,17.232,2.432,none,4,3.0,18833.0,137894.0,224069.0,275678.0,260929.0
2026-04-08 21:46:09.570899,199876,1609503941776554,1541743292,0.813984,-0.203008,-0.119072,-15.085,1.7325,-8.995,-24.544,17.304,2.336,none,4,3.0,18833.0,137894.0,224069.0,275678.0,260929.0
2026-04-08 21:46:09.573365,199877,1609503941785475,1541751991,0.813984,-0.203008,-0.119072,-15.51375,2.5725,-11.2875,-24.544,17.304,2.336,none,4,3.0,18833.0,137894.0,224069.0,275678.0,260929.0
2026-04-08 21:46:09.575862,199878,1609503941794391,1541760650,0.899872,-0.171776,0.099552,-16.09125,2.1525,-12.6525,-24.512001,17.240002,0.368,none,4,3.0,18833.0,137894.0,224069.0,275678.0,260929.0
2026-04-08 21:46:09.578353,199879,1609503941808869,1541775494,0.899872,-0.171776,0.099552,-12.32,-0.30625,-12.6175,-24.512001,17.240002,0.368,none,4,3.0,18833.0,137894.0,224069.0,275678.0,260929.0
2026-04-08 21:46:09.580855,199880,1609503941817875,1541784160,0.88816,-0.220576,-0.154208,-8.74125,-1.86375,-11.12125,-24.36,17.560001,2.392,none,4,3.0,18833.0,137894.0,224069.0,275678.0,260929.0
2026-04-08 21:46:09.611055,199881,1609503941832450,1541799084,0.88816,-0.220576,-0.154208,-8.32125,-3.59625,-8.37375,-24.36,17.560001,2.392,none,4,3.0,18833.0,137894.0,224069.0,275678.0,260929.0
2026-04-08 21:46:09.614669,199882,1609503941841346,1541807769,0.915488,-0.25376,-0.07808,-5.3375,-5.145,-6.86875,-24.448002,17.008001,-0.064,none,4,3.0,18833.0,137894.0,224069.0,275678.0,260929.0
2026-04-08 21:46:09.643055,199893,1609503941855977,1541822655,1.007232,-0.236192,0.130784,0.77875,-6.44,-5.59125,-24.52,17.144001,2.808,none,4,3.0,18706.0,137392.0,223411.0,275193.0,260619.0
2026-04-08 21:46:09.644656,199894,1609503941865010,1541831373,1.007232,-0.236192,0.130784,8.085,-7.7175,-3.50875,-24.52,17.144001,2.808,none,4,3.0,18706.0,137392.0,223411.0,275193.0,260619.0
2026-04-08 21:46:09.648985,199895,1609503941873963,1541840139,1.007232,-0.142496,0.160064,13.83375,-8.21625,-1.715,-24.52,17.144001,0.76,none,4,3.0,18706.0,137392.0,223411.0,275193.0,260619.0
2026-04-08 21:46:09.651831,199896,1609503941888452,1541855079,0.929152,-0.142496,0.160064,18.48,-8.05,-1.07625,-24.44,16.92,1.2,none,4,3.0,18706.0,137392.0,223411.0,275193.0,260619.0
2026-04-08 21:46:09.658737,199897,1609503941897387,1541863751,0.999424,-0.13664,0.25376,19.36375,-8.4875,-0.79625,-24.288002,17.064001,1.016,none,4,3.0,18706.0,137392.0,223411.0,275193.0,260619.0
2026-04-08 21:46:09.687393,199898,1609503941911867,1541878607,0.999424,-0.13664,0.25376,15.74125,-8.58375,0.13125,-24.288002,17.064001,1.016,none,4,3.0,18706.0,137392.0,223411.0,275193.0,260619.0
2026-04-08 21:46:09.691788,199899,1609503941920795,1541887291,0.899872,-0.142496,-0.003904,9.2225,-9.4325,1.11125,-24.240002,17.224,0.872,none,4,3.0,18706.0,137392.0,223411.0,275193.0,260619.0
2026-04-08 21:46:09.696265,199900,1609503941935241,1541902166,0.950624,-0.15616,0.066368,-0.28875,-12.2675,2.61625,-24.272001,17.416,2.736,none,4,3.0,18706.0,137392.0,223411.0,275193.0,260619.0
2026-04-08 21:46:09.724800,199901,1609503941944166,1541910834,0.950624,-0.15616,0.066368,-8.37375,-13.6325,4.06,-24.272001,17.416,2.736,none,4,3.0,18706.0,137392.0,223411.0,275193.0,260619.0
2026-04-08 21:46:09.755846,199912,1609503941953095,1541919479,0.950624,-0.15616,0.066368,-12.06625,-12.95,5.67,-24.272001,17.416,2.736,none,4,3.0,18647.0,137142.0,223131.0,275050.0,260612.0
2026-04-08 21:46:09.758351,199913,1609503941967593,1541934423,0.91744,-0.21472,0.042944,-13.4225,-12.1625,4.75125,-24.376001,17.104,-0.176,none,4,3.0,18647.0,137142.0,223131.0,275050.0,260612.0
2026-04-08 21:46:09.760889,199914,1609503941976527,1541943165,0.851072,-0.193248,0.113216,-10.325,-10.6575,2.485,-24.080002,17.448,0.792,none,4,3.0,18647.0,137142.0,223131.0,275050.0,260612.0
2026-04-08 21:46:09.763356,199915,1609503941991115,1541958094,0.851072,-0.193248,0.113216,-3.745,-9.58125,3.3775,-24.080002,17.448,0.792,none,4,3.0,18647.0,137142.0,223131.0,275050.0,260612.0
2026-04-08 21:46:09.765852,199916,1609503942000085,1541966767,0.866688,-0.171776,0.021472,4.445,-8.785,2.24,-24.368002,17.408,0.304,none,4,3.0,18647.0,137142.0,223131.0,275050.0,260612.0
2026-04-08 21:46:09.803574,199917,1609503942014635,1541981630,0.866688,-0.171776,0.07808,10.2025,-7.27125,-2.56375,-24.368002,17.408,0.304,none,4,3.0,18647.0,137142.0,223131.0,275050.0,260612.0
2026-04-08 21:46:09.807121,199918,1609503942023569,1541990319,0.954528,-0.132736,0.07808,14.14875,-7.56,-8.4,-24.048,17.168001,1.344,none,4,3.0,18647.0,137142.0,223131.0,275050.0,260612.0
2026-04-08 21:46:09.809615,199919,1609503942032469,1541998990,0.954528,-0.132736,0.07808,19.22375,-9.16125,-12.36375,-24.048,17.168001,1.344,none,4,3.0,18647.0,137142.0,223131.0,275050.0,260612.0
2026-04-08 21:46:09.812118,199920,1609503942046947,1542013835,0.987712,-0.095648,0.070272,22.88125,-9.54625,-19.52125,-23.920002,16.808,0.704,none,4,3.0,18647.0,137142.0,223131.0,275050.0,260612.0
2026-04-08 21:46:09.839653,199931,1609503942056450,1542022736,1.065792,-0.03904,0.320128,29.6975,-6.2825,-28.2975,-24.288002,16.968,3.152,none,4,3.0,18277.0,135759.0,221354.0,273805.0,259897.0
2026-04-08 21:46:09.842123,199932,1609503942070962,1542037629,1.065792,-0.03904,0.320128,47.04,1.35625,-35.56875,-24.288002,16.968,3.152,none,4,3.0,18277.0,135759.0,221354.0,273805.0,259897.0
2026-04-08 21:46:09.844660,199933,1609503942079879,1542046353,1.03456,0.130784,-0.154208,71.54875,9.19625,-41.81625,-24.808,16.296001,3.328,none,4,3.0,18277.0,135759.0,221354.0,273805.0,259897.0
2026-04-08 21:46:09.848451,199934,1609503942088923,1542055067,1.03456,0.130784,-0.154208,86.5025,14.035,-50.9425,-24.808,16.296001,3.328,none,4,3.0,18277.0,135759.0,221354.0,273805.0,259897.0
2026-04-08 21:46:09.878560,199935,1609503942103405,1542069994,1.208288,0.15616,-0.130784,78.645,12.85375,-63.25375,-24.920002,14.880001,2.44,none,4,3.0,18277.0,135759.0,221354.0,273805.0,259897.0
2026-04-08 21:46:09.882119,199936,1609503942112292,1542078702,1.208288,0.15616,-0.130784,41.51875,3.38625,-73.71875,-24.920002,14.880001,2.44,none,4,3.0,18277.0,135759.0,221354.0,273805.0,259897.0
2026-04-08 21:46:09.887178,199937,1609503942126752,1542093550,1.05408,0.01952,0.089792,-11.795,-5.39,-73.99875,-25.096,14.664001,1.712,none,4,3.0,18277.0,135759.0,221354.0,273805.0,259897.0
2026-04-08 21:46:09.917393,199938,1609503942135707,1542102206,0.866688,-0.158112,0.083936,-54.53875,-11.3925,-60.94375,-25.096,14.664001,5.808,none,4,3.0,18277.0,135759.0,221354.0,273805.0,259897.0
2026-04-08 21:46:09.920994,199939,1609503942150225,1542117100,0.85888,-0.158112,0.083936,-78.86375,-14.58625,-38.605,-25.384,14.576001,4.512,none,4,3.0,18277.0,135759.0,221354.0,273805.0,259897.0
2026-04-08 21:46:09.953816,199950,1609503942159250,1542125801,0.763232,-0.169824,0.284992,-80.9375,-17.605,-15.18125,-25.296001,14.080001,0.952,none,4,3.0,17737.0,133497.0,218485.0,271761.0,258775.0
2026-04-08 21:46:09.956069,199951,1609503942168249,1542134509,0.763232,-0.169824,0.284992,-66.8325,-19.60875,-0.9625,-25.296001,14.080001,0.952,none,4,3.0,17737.0,133497.0,218485.0,271761.0,258775.0
2026-04-08 21:46:09.958373,199952,1609503942182819,1542149388,0.569984,-0.216672,0.124928,-45.045002,-18.9175,6.36125,-25.024002,14.784,0.936,none,4,3.0,17737.0,133497.0,218485.0,271761.0,258775.0
2026-04-08 21:46:09.960890,199953,1609503942191821,1542158135,0.569984,-0.216672,0.124928,-21.7175,-15.0675,10.68375,-25.024002,14.784,0.936,none,4,3.0,17737.0,133497.0,218485.0,271761.0,258775.0
2026-04-08 21:46:09.965872,199954,1609503942206306,1542173088,0.636352,-0.138592,0.142496,-5.0575,-9.31875,14.315001,-25.048,14.912001,1.56,none,4,3.0,17737.0,133497.0,218485.0,271761.0,258775.0
2026-04-08 21:46:09.996082,199955,1609503942215238,1542181767,0.636352,-0.138592,0.142496,7.0175,-4.71625,17.28125,-25.048,14.912001,1.56,none,4,3.0,17737.0,133497.0,218485.0,271761.0,258775.0
2026-04-08 21:46:09.999600,199956,1609503942229721,1542196647,0.636352,-0.042944,0.11712,17.98125,-1.60125,19.18,-24.336,14.832001,0.896,none,4,3.0,17737.0,133497.0,218485.0,271761.0,258775.0
2026-04-08 21:46:10.002120,199957,1609503942238648,1542205326,0.62464,-0.072224,0.0976,29.155,1.12,14.49875,-24.544,14.72,0.952,none,4,3.0,17737.0,133497.0,218485.0,271761.0,258775.0
2026-04-08 21:46:10.007120,199958,1609503942247669,1542213996,0.62464,-0.072224,0.0976,37.14375,4.69875,1.5225,-24.544,14.72,0.952,none,4,3.0,17737.0,133497.0,218485.0,271761.0,258775.0
2026-04-08 21:46:10.039598,199969,1609503942262250,1542228881,0.767136,-0.099552,0.28304,38.2725,8.47875,-15.3475,-24.960001,14.216001,1.176,none,4,3.0,17651.0,133298.0,218268.0,271818.0,258952.0
2026-04-08 21:46:10.042174,199970,1609503942271218,1542237576,0.767136,-0.099552,0.28304,30.345,10.43875,-30.44125,-24.960001,14.216001,1.176,none,4,3.0,17651.0,133298.0,218268.0,271818.0,258952.0
2026-04-08 21:46:10.044679,199971,1609503942285715,1542252542,0.876448,-0.169824,0.070272,15.417501,10.33375,-38.36875,-25.112001,13.952001,1.6,none,4,3.0,17651.0,133298.0,218268.0,271818.0,258952.0
2026-04-08 21:46:10.102366,199972,1609503942294637,1542261265,0.876448,-0.169824,0.070272,-2.1525,9.135,-40.06625,-25.112001,13.952001,1.6,none,4,3.0,17651.0,133298.0,218268.0,271818.0,258952.0
2026-04-08 21:46:10.105897,199973,1609503942303560,1542269917,0.9272,-0.208864,0.076128,-20.5275,6.965,-38.0625,-25.264002,13.832001,1.104,none,4,3.0,17651.0,133298.0,218268.0,271818.0,258952.0
2026-04-08 21:46:10.123501,199974,1609503942318104,1542284798,0.989664,-0.271328,0.064416,-31.17625,5.53875,-34.71125,-25.44,13.672001,0.792,none,4,3.0,17651.0,133298.0,218268.0,271818.0,258952.0
2026-04-08 21:46:10.125866,199975,1609503942327050,1542293490,0.989664,-0.271328,0.064416,-34.16,5.5475,-31.255001,-25.44,13.672001,0.792,none,4,3.0,17651.0,133298.0,218268.0,271818.0,258952.0
2026-04-08 21:46:10.128405,199976,1609503942341527,1542308344,1.081408,-0.206912,0.132736,-31.692501,4.305,-25.83,-25.760002,13.832001,1.296,none,4,3.0,17651.0,133298.0,218268.0,271818.0,258952.0
2026-04-08 21:46:10.130894,199977,1609503942350417,1542316998,1.081408,-0.206912,0.132736,-21.58625,2.05625,-22.6275,-25.760002,13.832001,1.296,none,4,3.0,17651.0,133298.0,218268.0,271818.0,258952.0
2026-04-08 21:46:10.162129,199988,1609503942365027,1542331893,1.018944,-0.132736,-0.056608,-7.735,1.58375,-21.46375,-25.856,13.424001,1.112,none,4,3.0,17632.0,133124.0,217984.0,271456.0,258656.0
2026-04-08 21:46:10.164600,199989,1609503942373954,1542340529,1.018944,-0.132736,-0.056608,3.45625,2.9225,-18.03375,-25.856,13.424001,1.112,none,4,3.0,17632.0,133124.0,217984.0,271456.0,258656.0
2026-04-08 21:46:10.167116,199990,1609503942382895,1542349199,0.901824,-0.121024,0.081984,9.835,3.0975,-11.2,-25.536001,13.320001,1.632,none,4,3.0,17632.0,133124.0,217984.0,271456.0,258656.0
2026-04-08 21:46:10.169571,199991,1609503942397499,1542364181,0.854976,-0.134688,0.011712,14.175,1.14625,-3.255,-25.536001,13.320001,2.416,none,4,3.0,17632.0,133124.0,217984.0,271456.0,258656.0
2026-04-08 21:46:10.172075,199992,1609503942406507,1542372853,0.853024,-0.134688,0.011712,22.37375,-0.2625,3.9025,-25.776001,13.712001,2.416,none,4,3.0,17632.0,133124.0,217984.0,271456.0,258656.0
2026-04-08 21:46:10.204822,199993,1609503942421053,1542387777,0.870592,-0.017568,0.245952,31.2025,-1.61875,9.3275,-25.368002,13.416,3.16,none,4,3.0,17632.0,133124.0,217984.0,271456.0,258656.0
2026-04-08 21:46:10.208457,199994,1609503942429966,1542396448,0.870592,-0.017568,0.245952,34.475,-2.12625,11.06,-25.368002,13.416,3.16,none,4,3.0,17632.0,133124.0,217984.0,271456.0,258656.0
2026-04-08 21:46:10.210917,199995,1609503942444388,1542411291,0.853024,-0.0488,0.02928,33.845,-1.9425,11.1825,-25.496,13.632001,1.736,none,4,3.0,17632.0,133124.0,217984.0,271456.0,258656.0
