pc_time,serial_num,sensor_ts,host_ts,ax,ay,az,gx,gy,gz,mx,my,mz,phase,rpe,weight_kg,ppg_a,ppg_b,ppg_c,ppg_d,ppg_e
2026-04-08 21:36:16.588267,88355,1609503348705330,948671520,-1.163392,0.101504,0.017568,11.20875,-14.16625,12.04875,26.296001,-25.056002,1.432,eccentric,3,3.0,22400.0,153407.0,244051.0,292622.0,269833.0
2026-04-08 21:36:16.589752,88356,1609503348714252,948680193,-1.163392,0.101504,0.017568,8.7675,-14.385,15.3125,26.296001,-25.056002,1.432,eccentric,3,3.0,22400.0,153407.0,244051.0,292622.0,269833.0
2026-04-08 21:36:16.594466,88357,1609503348728820,948695065,-1.128256,0.154208,0.21472,8.89,-13.64125,16.07375,26.52,-25.480001,-0.04,eccentric,3,3.0,22400.0,153407.0,244051.0,292622.0,269833.0
2026-04-08 21:36:16.601611,88358,1609503348737808,948703773,-1.227808,0.173728,0.121024,14.11375,-12.705,16.03,25.864,-25.480001,2.616,eccentric,3,3.0,22400.0,153407.0,244051.0,292622.0,269833.0
2026-04-08 21:36:16.603176,88359,1609503348752298,948718667,-1.227808,0.173728,0.121024,17.75375,-12.7225,18.12125,25.864,-25.480001,2.616,eccentric,3,3.0,22400.0,153407.0,244051.0,292622.0,269833.0
2026-04-08 21:36:16.608935,88360,1609503348761236,948727338,-1.241472,0.259616,0.177632,24.31625,-12.9675,20.06375,25.752,-25.760002,1.064,eccentric,3,3.0,22400.0,153407.0,244051.0,292622.0,269833.0
2026-04-08 21:36:16.637488,88361,1609503348775665,948742273,-1.241472,0.259616,0.177632,31.70125,-12.0575,18.55875,25.752,-25.760002,1.064,eccentric,3,3.0,22400.0,153407.0,244051.0,292622.0,269833.0
2026-04-08 21:36:16.642002,88362,1609503348784630,948750956,-1.251232,0.251808,0.05856,30.38875,-11.08625,17.78875,25.800001,-25.664001,-1.784,eccentric,3,3.0,22400.0,153407.0,244051.0,292622.0,269833.0
2026-04-08 21:36:16.643538,88363,1609503348793524,948759608,-1.251232,0.251808,0.05856,23.37125,-10.17625,20.30875,25.800001,-25.664001,-1.784,eccentric,3,3.0,22400.0,153407.0,244051.0,292622.0,269833.0
2026-04-08 21:36:16.671981,88374,1609503348808141,948775012,-1.214144,0.320128,0.228384,18.3575,-9.205,22.19,25.536001,-26.016,-0.568,eccentric,3,3.0,22396.0,153454.0,244066.0,292588.0,269812.0
2026-04-08 21:36:16.673580,88375,1609503348817104,948783779,-1.15168,0.28304,0.208864,15.07625,-8.05,22.3475,25.536001,-26.472002,-0.976,eccentric,3,3.0,22396.0,153454.0,244066.0,292588.0,269812.0
2026-04-08 21:36:16.680185,88376,1609503348831615,948798700,-1.15168,0.28304,0.208864,13.04625,-8.19,22.05875,25.208002,-26.472002,-0.976,eccentric,3,3.0,22396.0,153454.0,244066.0,292588.0,269812.0
2026-04-08 21:36:16.730038,88377,1609503348840567,948807376,-1.16144,0.300608,0.189344,11.6725,-8.65375,21.91,24.648,-26.768002,-0.608,eccentric,3,3.0,22396.0,153454.0,244066.0,292588.0,269812.0
2026-04-08 21:36:16.744156,88378,1609503348855027,948820231,-1.16144,0.300608,0.189344,11.165,-8.91625,21.105,24.648,-26.768002,-0.608,eccentric,3,3.0,22396.0,153454.0,244066.0,292588.0,269812.0
2026-04-08 21:36:16.745808,88379,1609503348864227,948830954,-1.16144,0.300608,0.244,10.57,-9.91375,21.69125,24.448002,-26.52,-0.928,eccentric,3,3.0,22396.0,153454.0,244066.0,292588.0,269812.0
2026-04-08 21:36:16.747351,88380,1609503348873126,948839608,-1.16144,0.300608,0.244,10.87625,-11.2,24.08875,24.448002,-26.52,-0.928,eccentric,3,3.0,22396.0,153454.0,244066.0,292588.0,269812.0
2026-04-08 21:36:16.751791,88381,1609503348887635,948854492,-1.165344,0.298656,0.015616,10.01,-12.6875,24.8325,24.168001,-27.032001,-0.608,eccentric,3,3.0,22396.0,153454.0,244066.0,292588.0,269812.0
2026-04-08 21:36:16.757602,88382,1609503348896567,948863160,-1.165344,0.298656,0.015616,11.31375,-13.335,23.1875,24.168001,-27.032001,-0.608,eccentric,3,3.0,22396.0,153454.0,244066.0,292588.0,269812.0
2026-04-08 21:36:16.785508,88393,1609503348911163,948878159,-1.1712,0.3416,0.193248,15.715,-13.3525,20.51875,24.032001,-26.664001,-1.576,eccentric,3,3.0,22344.0,153107.0,243491.0,292131.0,269590.0
2026-04-08 21:36:16.789443,88394,1609503348920102,948887006,-1.192672,0.347456,0.162016,15.68,-12.6875,21.02625,23.080002,-26.816002,0.288,eccentric,3,3.0,22344.0,153107.0,243491.0,292131.0,269590.0
2026-04-08 21:36:16.791019,88395,1609503348934615,948899878,-1.192672,0.347456,0.162016,11.0075,-14.6125,24.745,23.080002,-26.816002,0.288,eccentric,3,3.0,22344.0,153107.0,243491.0,292131.0,269590.0
2026-04-08 21:36:16.795126,88396,1609503348943954,948910747,-1.24928,0.343552,0.0,12.136251,-16.6775,25.06,23.136002,-27.352001,1.096,eccentric,3,3.0,22344.0,153107.0,243491.0,292131.0,269590.0
2026-04-08 21:36:16.801414,88397,1609503348952899,948919447,-1.24928,0.343552,0.0,16.905,-16.8525,20.64125,23.136002,-27.352001,1.096,eccentric,3,3.0,22344.0,153107.0,243491.0,292131.0,269590.0
2026-04-08 21:36:16.830028,88398,1609503348967401,948934433,-1.167296,0.3416,0.066368,15.95125,-16.345,16.89625,22.880001,-27.208002,0.112,eccentric,3,3.0,22344.0,153107.0,243491.0,292131.0,269590.0
2026-04-08 21:36:16.834501,88399,1609503348976328,948943083,-1.167296,0.3416,0.066368,14.4725,-13.90375,16.6425,22.880001,-27.208002,0.112,eccentric,3,3.0,22344.0,153107.0,243491.0,292131.0,269590.0
2026-04-08 21:36:16.838890,88400,1609503348990822,948957932,-1.100928,0.402112,0.240096,15.98625,-10.01875,16.66,22.584002,-27.336,-0.256,eccentric,3,3.0,22344.0,153107.0,243491.0,292131.0,269590.0
2026-04-08 21:36:16.872129,88401,1609503348999745,948966604,-1.223904,0.396256,0.0976,17.35125,-6.71125,16.82625,22.576,-28.016,1.32,eccentric,3,3.0,22344.0,153107.0,243491.0,292131.0,269590.0
2026-04-08 21:36:16.900785,88412,1609503349008751,948975358,-1.223904,0.396256,0.0976,16.7475,-5.81875,17.45625,22.576,-28.016,1.32,eccentric,3,3.0,22066.0,151799.0,241743.0,290883.0,268869.0
2026-04-08 21:36:16.902283,88413,1609503349023227,948990261,-1.22976,0.339648,0.062464,16.79125,-5.425,18.43625,22.000002,-27.832,-0.912,eccentric,3,3.0,22066.0,151799.0,241743.0,290883.0,268869.0
2026-04-08 21:36:16.906561,88414,1609503349032137,948998924,-1.22976,0.339648,0.062464,13.15125,-5.50375,18.08625,22.000002,-27.832,-0.912,eccentric,3,3.0,22066.0,151799.0,241743.0,290883.0,268869.0
2026-04-08 21:36:16.908305,88415,1609503349046664,949011840,-1.21024,0.382592,-0.01952,8.28625,-4.36625,16.765,21.816002,-27.712002,-0.304,eccentric,3,3.0,22066.0,151799.0,241743.0,290883.0,268869.0
2026-04-08 21:36:16.909846,88416,1609503349055873,949022595,-1.21024,0.382592,-0.01952,2.70375,-2.8875,16.2925,21.816002,-27.712002,-0.304,eccentric,3,3.0,22066.0,151799.0,241743.0,290883.0,268869.0
2026-04-08 21:36:16.942850,88417,1609503349070395,949037482,-1.059936,0.365024,0.222528,-2.91375,-1.91625,16.30125,21.552002,-27.464,0.272,eccentric,3,3.0,22066.0,151799.0,241743.0,290883.0,268869.0
2026-04-08 21:36:16.944534,88418,1609503349079295,949046138,-1.157536,0.300608,0.095648,-6.67625,-0.51625,15.636251,20.824001,-27.552002,0.104,eccentric,3,3.0,22066.0,151799.0,241743.0,290883.0,268869.0
2026-04-08 21:36:16.946219,88419,1609503349088279,949054810,-1.157536,0.300608,0.095648,-9.8175,0.02625,15.77625,20.824001,-27.552002,0.104,eccentric,3,3.0,22066.0,151799.0,241743.0,290883.0,268869.0
2026-04-08 21:36:16.976204,88430,1609503349103156,949069741,-1.042368,0.290848,0.212768,-9.86125,0.34125,16.5375,21.080002,-27.648,-0.48,eccentric,3,3.0,21928.0,151281.0,241102.0,290428.0,268587.0
2026-04-08 21:36:16.980270,88431,1609503349112278,949078594,-1.042368,0.290848,0.212768,-6.3,1.33,16.07375,21.080002,-27.648,-0.48,eccentric,3,3.0,21928.0,151281.0,241102.0,290428.0,268587.0
2026-04-08 21:36:16.981982,88432,1609503349126806,949093504,-1.169248,0.353312,-0.02928,-2.37125,3.59625,13.79875,20.640001,-27.920002,-0.648,eccentric,3,3.0,21928.0,151281.0,241102.0,290428.0,268587.0
2026-04-08 21:36:16.983553,88433,1609503349135743,949102207,-1.169248,0.353312,-0.02928,-1.53125,4.9525,13.13375,20.640001,-27.920002,-0.648,eccentric,3,3.0,21928.0,151281.0,241102.0,290428.0,268587.0
2026-04-08 21:36:16.991349,88434,1609503349144662,949110902,-1.104832,0.40016,0.25376,-4.34875,5.8625,12.17125,20.368,-27.672,-0.672,eccentric,3,3.0,21928.0,151281.0,241102.0,290428.0,268587.0
2026-04-08 21:36:17.056758,88435,1609503349159168,949125801,-1.069696,0.345504,0.255712,-9.205,6.16,10.465,20.368,-27.672,-0.032,eccentric,3,3.0,21928.0,151281.0,241102.0,290428.0,268587.0
2026-04-08 21:36:17.058301,88436,1609503349168090,949134443,-1.069696,0.345504,0.255712,-13.79875,6.83375,8.26875,20.208,-27.344002,-0.032,eccentric,3,3.0,21928.0,151281.0,241102.0,290428.0,268587.0
2026-04-08 21:36:17.060021,88437,1609503349182588,949149393,-1.040416,0.304512,0.162016,-18.2,7.2975,6.57125,19.944,-27.808,-0.16,eccentric,3,3.0,21928.0,151281.0,241102.0,290428.0,268587.0
2026-04-08 21:36:17.063941,88438,1609503349191499,949158060,-1.040416,0.304512,0.162016,-19.81875,7.48125,4.9,19.944,-27.808,-0.16,eccentric,3,3.0,21928.0,151281.0,241102.0,290428.0,268587.0
2026-04-08 21:36:17.090852,88449,1609503349206668,949172930,-1.098976,0.337696,0.191296,-19.215,8.09375,1.39125,19.824001,-27.2,1.664,eccentric,3,3.0,21850.0,150967.0,240831.0,290289.0,268477.0
2026-04-08 21:36:17.093061,88450,1609503349215643,949181641,-1.098976,0.337696,0.191296,-18.725,9.87875,-2.5375,19.824001,-27.2,1.664,eccentric,3,3.0,21850.0,150967.0,240831.0,290289.0,268477.0
2026-04-08 21:36:17.096668,88451,1609503349224559,949190322,-1.069696,0.366976,0.040992,-17.40375,12.6,-4.71625,19.904001,-27.064001,0.784,eccentric,3,3.0,21850.0,150967.0,240831.0,290289.0,268477.0
2026-04-08 21:36:17.099484,88452,1609503349239166,949205264,-1.069696,0.366976,0.017568,-15.295,15.89,-5.845,19.904001,-27.064001,0.784,eccentric,3,3.0,21850.0,150967.0,240831.0,290289.0,268477.0
2026-04-08 21:36:17.101248,88453,1609503349248056,949213972,-1.106784,0.267424,0.017568,-17.33375,15.75875,-5.71375,19.696001,-26.840002,2.608,eccentric,3,3.0,21850.0,150967.0,240831.0,290289.0,268477.0
2026-04-08 21:36:17.144056,88454,1609503349262623,949228855,-1.003328,0.300608,0.255712,-22.89875,12.46875,-4.27875,19.752,-27.160002,1.016,eccentric,3,3.0,21850.0,150967.0,240831.0,290289.0,268477.0
2026-04-08 21:36:17.144269,88455,1609503349271547,949237608,-1.003328,0.300608,0.255712,-22.9075,10.42125,-7.90125,19.752,-27.160002,1.016,eccentric,3,3.0,21850.0,150967.0,240831.0,290289.0,268477.0
2026-04-08 21:36:17.144367,88456,1609503349280464,949246265,-1.057984,0.318176,0.060512,-17.71875,14.4025,-16.94875,20.216002,-26.52,0.272,eccentric,3,3.0,21850.0,150967.0,240831.0,290289.0,268477.0
2026-04-08 21:36:17.144446,88457,1609503349294977,949261117,-1.057984,0.318176,0.060512,-17.045,21.3675,-21.2625,20.216002,-26.52,0.272,eccentric,3,3.0,21850.0,150967.0,240831.0,290289.0,268477.0
2026-04-08 21:36:17.198281,88468,1609503349304279,949269815,-1.007232,0.396256,0.216672,-24.3425,25.48875,-18.19125,19.960001,-26.424002,0.76,eccentric,3,3.0,21872.0,151149.0,241101.0,290482.0,268584.0
2026-04-08 21:36:17.199889,88469,1609503349319209,949284722,-1.007232,0.396256,0.216672,-33.9675,26.41625,-16.68625,19.960001,-26.424002,0.76,eccentric,3,3.0,21872.0,151149.0,241101.0,290482.0,268584.0
2026-04-08 21:36:17.203984,88470,1609503349328473,949295479,-1.05408,0.2928,0.128832,-34.405,25.9875,-20.5275,20.04,-26.160002,3.56,eccentric,3,3.0,21872.0,151149.0,241101.0,290482.0,268584.0
2026-04-08 21:36:17.205733,88471,1609503349337380,949304187,-1.05408,0.2928,0.128832,-30.695,23.87,-24.1675,20.04,-26.160002,3.56,eccentric,3,3.0,21872.0,151149.0,241101.0,290482.0,268584.0
2026-04-08 21:36:17.207284,88472,1609503349352012,949319074,-1.149728,0.12688,0.046848,-35.875,18.8475,-22.89,20.312,-25.752,1.2,eccentric,3,3.0,21872.0,151149.0,241101.0,290482.0,268584.0
2026-04-08 21:36:17.211370,88473,1609503349360967,949327874,-1.0248,0.150304,-0.0488,-44.45875,17.491251,-21.32375,20.584002,-25.328001,0.968,eccentric,3,3.0,21872.0,151149.0,241101.0,290482.0,268584.0
2026-04-08 21:36:17.239944,88474,1609503349375459,949340710,-1.0248,0.150304,-0.0488,-34.685,19.53,-28.28,20.584002,-25.328001,0.968,eccentric,3,3.0,21872.0,151149.0,241101.0,290482.0,268584.0
2026-04-08 21:36:17.244441,88475,1609503349384705,949351439,-0.948672,0.267424,0.189344,-18.83,24.3075,-37.23125,20.808,-25.512001,1.096,eccentric,3,3.0,21872.0,151149.0,241101.0,290482.0,268584.0
2026-04-08 21:36:17.246007,88476,1609503349393641,949360157,-0.948672,0.267424,0.189344,-4.43625,28.9275,-41.06375,20.808,-25.512001,1.096,eccentric,3,3.0,21872.0,151149.0,241101.0,290482.0,268584.0
2026-04-08 21:36:17.276050,88488,1609503349408336,949375072,-0.970144,0.242048,0.173728,2.38875,29.67125,-41.0725,21.152,-24.544,3.056,eccentric,3,3.0,21888.0,151217.0,241190.0,290467.0,268551.0
2026-04-08 21:36:17.280264,88489,1609503349417326,949383789,-0.970144,0.242048,0.173728,-2.5725,26.50375,-38.6925,21.152,-24.544,3.056,eccentric,3,3.0,21888.0,151217.0,241190.0,290467.0,268551.0
2026-04-08 21:36:17.282790,88490,1609503349431850,949398708,-0.970144,0.228384,0.128832,-4.27,24.73625,-38.8675,21.424002,-24.36,1.872,eccentric,3,3.0,21888.0,151217.0,241190.0,290467.0,268551.0
2026-04-08 21:36:17.288866,88491,1609503349440786,949407363,-0.970144,0.191296,0.115168,-7.7525,24.2025,-40.36375,21.424002,-24.36,1.872,eccentric,3,3.0,21888.0,151217.0,241190.0,290467.0,268551.0
2026-04-08 21:36:17.333377,88492,1609503349455291,949422291,-0.958432,0.191296,0.115168,-14.74375,24.9025,-40.9675,21.640001,-23.960001,1.88,eccentric,3,3.0,21888.0,151217.0,241190.0,290467.0,268551.0
2026-04-08 21:36:17.335709,88493,1609503349464197,949430955,-0.94672,0.148352,0.044896,-28.210001,25.48,-41.23875,22.056002,-23.512001,1.096,eccentric,3,3.0,21888.0,151217.0,241190.0,290467.0,268551.0
2026-04-08 21:36:17.340329,88494,1609503349473131,949439618,-0.94672,0.148352,0.044896,-35.98875,26.6175,-44.135,22.056002,-23.512001,1.096,eccentric,3,3.0,21888.0,151217.0,241190.0,290467.0,268551.0
2026-04-08 21:36:17.341987,88495,1609503349487599,949454470,-0.919392,0.105408,0.20496,-33.3375,24.885,-47.4425,22.36,-23.064001,1.256,eccentric,3,3.0,21888.0,151217.0,241190.0,290467.0,268551.0
2026-04-08 21:36:17.343568,88496,1609503349496526,949463156,-0.919392,0.105408,0.20496,-23.47625,22.155,-48.2475,22.36,-23.064001,1.256,eccentric,3,3.0,21888.0,151217.0,241190.0,290467.0,268551.0
2026-04-08 21:36:17.375971,88507,1609503349511079,949478081,-0.915488,0.113216,0.052704,-9.8175,22.00625,-50.75,23.12,-22.656,1.224,eccentric,3,3.0,21859.0,151013.0,240944.0,290282.0,268394.0
2026-04-08 21:36:17.378556,88508,1609503349520102,949486830,-0.915488,0.113216,0.052704,-1.79375,26.73125,-52.63125,23.12,-22.656,1.224,eccentric,3,3.0,21859.0,151013.0,240944.0,290282.0,268394.0
2026-04-08 21:36:17.380969,88509,1609503349534597,949501697,-0.925248,0.177632,0.054656,-4.1125,29.75,-51.7825,23.192001,-22.384,1.152,eccentric,3,3.0,21859.0,151013.0,240944.0,290282.0,268394.0
2026-04-08 21:36:17.411673,88510,1609503349543546,949510363,-0.976,0.109312,0.076128,-12.635,30.6075,-50.5575,23.976002,-21.696001,1.136,eccentric,3,3.0,21859.0,151013.0,240944.0,290282.0,268394.0
2026-04-08 21:36:17.415155,88511,1609503349552507,949519077,-0.976,0.109312,0.076128,-23.58125,27.2125,-50.7675,23.976002,-21.696001,1.136,eccentric,3,3.0,21859.0,151013.0,240944.0,290282.0,268394.0
2026-04-08 21:36:17.417467,88512,1609503349566992,949533917,-0.905728,0.005856,0.226432,-27.1425,20.895,-52.54375,24.208002,-20.904001,0.624,eccentric,3,3.0,21859.0,151013.0,240944.0,290282.0,268394.0
2026-04-08 21:36:17.422232,88513,1609503349575897,949542652,-0.905728,0.005856,0.226432,-17.10625,16.3625,-58.10875,24.208002,-20.904001,0.624,eccentric,3,3.0,21859.0,151013.0,240944.0,290282.0,268394.0
2026-04-08 21:36:17.454992,88514,1609503349590372,949557511,-0.921344,0.060512,-0.148352,3.01875,16.89625,-62.7375,24.6,-20.736,0.8,eccentric,3,3.0,21859.0,151013.0,240944.0,290282.0,268394.0
2026-04-08 21:36:17.458552,88515,1609503349599284,949566201,-0.921344,0.060512,-0.148352,17.26375,20.545,-62.510002,24.6,-20.736,0.8,eccentric,3,3.0,21859.0,151013.0,240944.0,290282.0,268394.0
2026-04-08 21:36:17.486007,88526,1609503349614339,949581349,-0.95648,0.220576,-0.083936,12.3025,22.61,-60.8475,25.344002,-20.2,0.528,eccentric,3,3.0,21793.0,150653.0,240442.0,289884.0,268130.0
2026-04-08 21:36:17.488520,88527,1609503349623311,949590133,-0.91744,0.056608,0.201056,-0.90125,21.39375,-58.59875,25.616001,-19.624,2.232,eccentric,3,3.0,21793.0,150653.0,240442.0,289884.0,268130.0
2026-04-08 21:36:17.491792,88528,1609503349632286,949598872,-0.91744,0.056608,0.201056,-16.94,16.0475,-55.1425,25.616001,-19.624,2.232,eccentric,3,3.0,21793.0,150653.0,240442.0,289884.0,268130.0
2026-04-08 21:36:17.493491,88529,1609503349646793,949613729,-0.894016,0.0,0.121024,-22.19,12.495,-52.96375,25.728,-19.480001,1.808,eccentric,3,3.0,21793.0,150653.0,240442.0,289884.0,268130.0
2026-04-08 21:36:17.523685,88530,1609503349655744,949622396,-0.894016,0.0,0.121024,-10.9725,13.86875,-53.75125,25.728,-19.480001,1.808,eccentric,3,3.0,21793.0,150653.0,240442.0,289884.0,268130.0
2026-04-08 21:36:17.527437,88531,1609503349670222,949637332,-0.856928,0.085888,-0.023424,2.86125,19.45125,-52.535,26.304,-18.912,0.272,eccentric,3,3.0,21793.0,150653.0,240442.0,289884.0,268130.0
2026-04-08 21:36:17.529835,88532,1609503349679104,949645971,-0.856928,0.085888,-0.023424,1.79375,25.38375,-48.78125,26.304,-18.912,0.272,eccentric,3,3.0,21793.0,150653.0,240442.0,289884.0,268130.0
2026-04-08 21:36:17.536108,88533,1609503349688029,949654616,-0.905728,0.119072,0.101504,-13.99125,24.68375,-45.29,26.632002,-18.136002,0.224,eccentric,3,3.0,21793.0,150653.0,240442.0,289884.0,268130.0
2026-04-08 21:36:17.566324,88534,1609503349702513,949669504,-0.999424,-0.025376,-0.031232,-26.6525,21.39375,-40.80125,26.632002,-18.136002,-1.824,eccentric,3,3.0,21793.0,150653.0,240442.0,289884.0,268130.0
2026-04-08 21:36:17.598612,88545,1609503349711529,949678264,-0.99552,-0.025376,-0.031232,-25.515,18.06875,-39.2875,26.536001,-17.880001,-1.56,eccentric,3,3.0,21790.0,150535.0,240227.0,289681.0,268009.0
2026-04-08 21:36:17.636060,88546,1609503349726058,949693159,-0.921344,-0.056608,-0.021472,-12.88,15.11125,-40.285,27.224,-17.864,0.016,eccentric,3,3.0,21790.0,150535.0,240227.0,289681.0,268009.0
2026-04-08 21:36:17.638202,88547,1609503349735006,949701885,-0.921344,-0.056608,-0.021472,0.39375,13.7025,-39.9,27.224,-17.864,0.016,eccentric,3,3.0,21790.0,150535.0,240227.0,289681.0,268009.0
2026-04-08 21:36:17.642851,88548,1609503349749493,949714736,-0.983808,0.042944,-0.18544,4.34,14.91,-37.9575,27.232,-17.152,-2.072,eccentric,3,3.0,21790.0,150535.0,240227.0,289681.0,268009.0
2026-04-08 21:36:17.644528,88549,1609503349758725,949725463,-0.983808,0.042944,-0.18544,1.61,13.7025,-38.115,27.232,-17.152,-2.072,eccentric,3,3.0,21790.0,150535.0,240227.0,289681.0,268009.0
2026-04-08 21:36:17.646125,88550,1609503349767642,949734113,-0.856928,0.042944,0.122976,-7.21875,10.45625,-35.385,27.216002,-17.08,0.808,eccentric,3,3.0,21790.0,150535.0,240227.0,289681.0,268009.0
2026-04-08 21:36:17.649595,88551,1609503349782097,949749017,-0.856928,0.042944,0.122976,-10.22875,7.525,-31.9725,27.216002,-17.08,0.808,eccentric,3,3.0,21790.0,150535.0,240227.0,289681.0,268009.0
2026-04-08 21:36:17.651093,88552,1609503349790998,949757669,-0.892064,0.011712,0.017568,-0.60375,6.0025,-27.2825,27.568,-17.184,0.096,eccentric,3,3.0,21790.0,150535.0,240227.0,289681.0,268009.0
2026-04-08 21:36:17.679576,88563,1609503349805486,949772607,-0.940864,-0.005856,-0.173728,11.655,4.48,-21.49875,28.048002,-16.824001,0.688,eccentric,3,3.0,21688.0,150157.0,239805.0,289445.0,267853.0
2026-04-08 21:36:17.681976,88564,1609503349814418,949781396,-0.940864,-0.005856,-0.173728,19.95875,4.1475,-18.48,28.048002,-16.824001,0.688,eccentric,3,3.0,21688.0,150157.0,239805.0,289445.0,267853.0
2026-04-08 21:36:17.683585,88565,1609503349828988,949794259,-0.933056,0.089792,0.03904,21.53375,4.4625,-15.6975,27.848001,-16.488,0.704,eccentric,3,3.0,21688.0,150157.0,239805.0,289445.0,267853.0
2026-04-08 21:36:17.687663,88566,1609503349838445,949804992,-0.933056,0.089792,0.03904,14.27125,4.2525,-10.1325,27.848001,-16.488,0.704,eccentric,3,3.0,21688.0,150157.0,239805.0,289445.0,267853.0
2026-04-08 21:36:17.716325,88567,1609503349847364,949813681,-0.905728,0.119072,0.083936,6.78125,3.10625,-4.08625,27.624,-16.864,-0.112,eccentric,3,3.0,21688.0,150157.0,239805.0,289445.0,267853.0
2026-04-08 21:36:17.724189,88568,1609503349861827,949828497,-0.905728,0.119072,0.083936,2.14375,0.5775,1.56625,27.624,-16.864,-0.112,eccentric,3,3.0,21688.0,150157.0,239805.0,289445.0,267853.0
2026-04-08 21:36:17.726550,88569,1609503349870738,949837166,-1.020896,0.0488,-0.02928,2.19625,-3.2025,6.43125,27.952002,-17.184,-2.736,eccentric,3,3.0,21688.0,150157.0,239805.0,289445.0,267853.0
2026-04-08 21:36:17.732703,88570,1609503349885218,949852015,-1.100928,-0.070272,-0.12688,8.2075,-2.70375,6.9475,27.720001,-17.024,0.392,eccentric,3,3.0,21688.0,150157.0,239805.0,289445.0,267853.0
2026-04-08 21:36:17.761307,88571,1609503349894199,949860746,-1.100928,-0.070272,-0.12688,13.8075,0.21875,3.68375,27.720001,-17.024,0.392,eccentric,3,3.0,21688.0,150157.0,239805.0,289445.0,267853.0
2026-04-08 21:36:17.765826,88572,1609503349903118,949869461,-1.100928,-0.070272,-0.12688,9.40625,2.63375,3.3775,27.720001,-17.024,0.392,eccentric,3,3.0,21688.0,150157.0,239805.0,289445.0,267853.0
2026-04-08 21:36:17.840545,88583,1609503349917681,949884418,-1.048224,0.085888,-0.015616,1.6275,3.80625,6.5975,27.896002,-17.184,-1.792,concentric,3,3.0,21599.0,149809.0,239467.0,289240.0,267742.0
2026-04-08 21:36:17.840649,88584,1609503349926591,949893113,-1.15168,0.11712,0.103456,-4.75125,3.98125,8.155,27.312002,-17.192001,1.28,concentric,3,3.0,21599.0,149809.0,239467.0,289240.0,267742.0
2026-04-08 21:36:17.840696,88585,1609503349941113,949908006,-1.15168,0.11712,0.103456,-9.1525,1.7325,7.14,27.312002,-17.192001,1.28,concentric,3,3.0,21599.0,149809.0,239467.0,289240.0,267742.0
2026-04-08 21:36:17.840738,88586,1609503349950059,949916670,-1.03456,-0.099552,-0.0976,-6.44875,-0.0175,4.025,27.088001,-17.304,1.408,concentric,3,3.0,21599.0,149809.0,239467.0,289240.0,267742.0
2026-04-08 21:36:17.840809,88587,1609503349964570,949931583,-0.993568,-0.056608,-0.109312,-2.91375,-0.07875,-0.2625,27.088001,-17.264,-1.392,concentric,3,3.0,21599.0,149809.0,239467.0,289240.0,267742.0
2026-04-08 21:36:17.840848,88588,1609503349973509,949940297,-0.993568,-0.056608,-0.109312,-2.66,0.34125,-1.42625,27.664001,-17.264,-1.392,concentric,3,3.0,21599.0,149809.0,239467.0,289240.0,267742.0
2026-04-08 21:36:17.844524,88589,1609503349982417,949948953,-0.993568,-0.056608,-0.109312,-1.6625,0.56875,-0.3325,27.664001,-17.264,-1.392,concentric,3,3.0,21599.0,149809.0,239467.0,289240.0,267742.0
2026-04-08 21:36:17.845991,88590,1609503349996914,949963813,-0.99552,-0.00976,-0.099552,-3.85875,-1.2775,2.2575,27.664001,-17.416,0.16,concentric,3,3.0,21599.0,149809.0,239467.0,289240.0,267742.0
2026-04-08 21:36:17.853718,88591,1609503350005889,949972472,-1.022848,0.005856,0.027328,-5.32,-4.585,6.5275,27.336,-17.624,0.056,concentric,3,3.0,21599.0,149809.0,239467.0,289240.0,267742.0
2026-04-08 21:36:17.883620,88602,1609503350020425,949987425,-1.022848,0.005856,0.027328,-0.2625,-6.67625,8.37375,27.336,-17.624,0.056,concentric,3,3.0,21702.0,150342.0,240127.0,289655.0,267943.0
2026-04-08 21:36:17.887635,88603,1609503350029340,949996141,-0.977952,-0.03904,-0.1464,5.59125,-6.93,8.40875,27.648,-17.968,0.96,concentric,3,3.0,21702.0,150342.0,240127.0,289655.0,267943.0
2026-04-08 21:36:17.892025,88604,1609503350043888,950011042,-0.977952,-0.03904,-0.1464,6.5975,-6.055,10.05375,27.648,-17.968,0.96,concentric,3,3.0,21702.0,150342.0,240127.0,289655.0,267943.0
2026-04-08 21:36:17.935416,88605,1609503350052811,950019715,-0.98576,0.0,-0.222528,-1.365,-6.51,13.886251,27.480001,-17.904001,-0.008,concentric,3,3.0,21702.0,150342.0,240127.0,289655.0,267943.0
2026-04-08 21:36:17.937100,88606,1609503350061742,950028373,-0.98576,0.0,-0.222528,-9.695,-7.90125,17.4475,27.480001,-17.904001,-0.008,concentric,3,3.0,21702.0,150342.0,240127.0,289655.0,267943.0
2026-04-08 21:36:17.938746,88607,1609503350076245,950043250,-0.960384,0.001952,0.130784,-10.43875,-10.98125,21.63,27.296001,-18.464,-0.208,concentric,3,3.0,21702.0,150342.0,240127.0,289655.0,267943.0
2026-04-08 21:36:17.942643,88608,1609503350085191,950051908,-0.993568,-0.046848,-0.056608,-3.29,-14.323751,24.19375,27.296001,-18.312,0.032,concentric,3,3.0,21702.0,150342.0,240127.0,289655.0,267943.0
2026-04-08 21:36:17.947661,88609,1609503350099739,950066794,-0.993568,-0.046848,-0.056608,8.47875,-14.980001,24.605,27.112001,-18.312,0.032,concentric,3,3.0,21702.0,150342.0,240127.0,289655.0,267943.0
2026-04-08 21:36:18.004049,88620,1609503350108858,950076020,-0.993568,0.011712,-0.062464,15.5925,-13.825,27.69375,26.824001,-18.992,0.52,concentric,3,3.0,21757.0,150568.0,240399.0,289813.0,268020.0
2026-04-08 21:36:18.005769,88621,1609503350123334,950088858,-0.993568,0.011712,-0.062464,13.90375,-11.865,31.955,26.824001,-18.992,0.52,concentric,3,3.0,21757.0,150568.0,240399.0,289813.0,268020.0
2026-04-08 21:36:18.007426,88622,1609503350132572,950099569,-0.981856,-0.001952,-0.080032,4.935,-11.82125,34.86875,26.504002,-19.352001,-0.08,concentric,3,3.0,21757.0,150568.0,240399.0,289813.0,268020.0
2026-04-08 21:36:18.011516,88623,1609503350141476,950108226,-0.981856,-0.001952,-0.080032,-1.28625,-14.06125,37.1875,26.504002,-19.352001,-0.08,concentric,3,3.0,21757.0,150568.0,240399.0,289813.0,268020.0
2026-04-08 21:36:18.013230,88624,1609503350156014,950123153,-1.020896,0.017568,0.05856,0.90125,-16.87,37.1175,26.352001,-19.560001,-0.264,concentric,3,3.0,21757.0,150568.0,240399.0,289813.0,268020.0
2026-04-08 21:36:18.014876,88625,1609503350165005,950131840,-1.020896,0.017568,0.05856,10.33375,-18.06875,35.4375,26.352001,-19.560001,-0.264,concentric,3,3.0,21757.0,150568.0,240399.0,289813.0,268020.0
2026-04-08 21:36:18.045878,88626,1609503350179514,950144702,-0.919392,0.044896,0.072224,18.6375,-18.24375,35.35875,26.080002,-20.152,2.216,concentric,3,3.0,21757.0,150568.0,240399.0,289813.0,268020.0
2026-04-08 21:36:18.050303,88627,1609503350188688,950155423,-1.056032,0.021472,-0.18544,19.4425,-15.89875,37.12625,26.000002,-20.432001,0.056,concentric,3,3.0,21757.0,150568.0,240399.0,289813.0,268020.0
2026-04-08 21:36:18.052051,88628,1609503350197594,950164078,-1.056032,0.021472,-0.18544,9.948751,-15.58375,39.15625,26.000002,-20.432001,0.056,concentric,3,3.0,21757.0,150568.0,240399.0,289813.0,268020.0
2026-04-08 21:36:18.080303,88639,1609503350212792,950179012,-0.979904,0.035136,0.150304,-1.155,-17.38625,39.5675,25.480001,-21.160002,0.056,concentric,3,3.0,21720.0,150316.0,240075.0,289592.0,267904.0
2026-04-08 21:36:18.082040,88640,1609503350221786,950187798,-0.979904,0.035136,0.150304,-3.01875,-17.64875,39.54125,25.480001,-21.160002,0.056,concentric,3,3.0,21720.0,150316.0,240075.0,289592.0,267904.0
2026-04-08 21:36:18.083881,88641,1609503350236307,950202722,-0.991616,0.02928,-0.01952,8.42625,-16.52875,38.29,25.048,-21.672,0.912,concentric,3,3.0,21720.0,150316.0,240075.0,289592.0,267904.0
2026-04-08 21:36:18.114634,88642,1609503350245275,950211472,-0.991616,0.02928,-0.01952,22.435,-15.30375,36.295002,25.048,-21.672,0.912,concentric,3,3.0,21720.0,150316.0,240075.0,289592.0,267904.0
2026-04-08 21:36:18.119085,88643,1609503350254203,950220172,-1.01504,0.037088,-0.183488,26.45125,-15.61,37.14375,24.752,-22.056002,-1.096,concentric,3,3.0,21720.0,150316.0,240075.0,289592.0,267904.0
2026-04-08 21:36:18.120827,88644,1609503350268688,950235041,-1.01504,0.037088,-0.226432,23.5375,-13.53625,37.28375,24.800001,-22.240002,-0.04,concentric,3,3.0,21720.0,150316.0,240075.0,289592.0,267904.0
2026-04-08 21:36:18.122646,88645,1609503350277594,950243727,-1.01504,0.037088,-0.226432,9.98375,-12.6875,35.97125,24.800001,-22.240002,-0.04,concentric,3,3.0,21720.0,150316.0,240075.0,289592.0,267904.0
2026-04-08 21:36:18.153433,88646,1609503350292158,950258657,-1.081408,0.154208,-0.085888,-3.43,-11.82125,37.49375,24.344002,-22.408,0.144,concentric,3,3.0,21720.0,150316.0,240075.0,289592.0,267904.0
2026-04-08 21:36:18.157874,88647,1609503350301046,950267295,-1.081408,0.154208,-0.085888,-2.05625,-11.82125,38.3775,24.344002,-22.408,0.144,concentric,3,3.0,21720.0,150316.0,240075.0,289592.0,267904.0
2026-04-08 21:36:18.184576,88658,1609503350315673,950282296,-1.118496,0.070272,-0.031232,12.005,-11.31375,34.79,23.952002,-22.720001,-0.36,concentric,3,3.0,21696.0,150224.0,239941.0,289529.0,267853.0
2026-04-08 21:36:18.186218,88659,1609503350324629,950290995,-1.118496,0.070272,-0.031232,24.605,-11.165,31.38625,23.952002,-22.720001,-0.36,concentric,3,3.0,21696.0,150224.0,239941.0,289529.0,267853.0
2026-04-08 21:36:18.190167,88660,1609503350333622,950299754,-1.134112,0.080032,-0.222528,24.6575,-11.41,30.625,24.160002,-23.6,1.456,concentric,3,3.0,21696.0,150224.0,239941.0,289529.0,267853.0
2026-04-08 21:36:18.195180,88661,1609503350348181,950314692,-1.075552,0.18544,0.0488,19.74,-8.14625,29.015,23.576,-23.616001,-0.328,concentric,3,3.0,21696.0,150224.0,239941.0,289529.0,267853.0
2026-04-08 21:36:18.240910,88662,1609503350357117,950323366,-1.075552,0.18544,0.0488,7.175,-6.2475,28.09625,23.576,-23.616001,-0.328,concentric,3,3.0,21696.0,150224.0,239941.0,289529.0,267853.0
2026-04-08 21:36:18.243275,88663,1609503350371595,950338216,-1.061888,0.111264,-0.076128,-3.4475,-7.35875,28.525,23.568,-24.024002,-0.624,concentric,3,3.0,21696.0,150224.0,239941.0,289529.0,267853.0
2026-04-08 21:36:18.247856,88664,1609503350380485,950346915,-1.061888,0.111264,-0.076128,-5.92375,-8.32125,26.46875,23.568,-24.024002,-0.624,concentric,3,3.0,21696.0,150224.0,239941.0,289529.0,267853.0
2026-04-08 21:36:18.249597,88665,1609503350394948,950361770,-0.99552,0.13664,0.085888,-7.86625,-9.21375,26.075,23.344002,-23.936,-0.32,concentric,3,3.0,21696.0,150224.0,239941.0,289529.0,267853.0
2026-04-08 21:36:18.251212,88666,1609503350403855,950370427,-0.99552,0.13664,0.085888,-2.2925,-9.135,27.30875,23.344002,-23.936,-0.32,concentric,3,3.0,21696.0,150224.0,239941.0,289529.0,267853.0
2026-04-08 21:36:18.320341,88677,1609503350413244,950379568,-1.08336,0.115168,-0.089792,10.8675,-9.93125,27.195,22.856,-24.528002,0.512,concentric,3,3.0,21736.0,150463.0,240317.0,289866.0,268075.0
2026-04-08 21:36:18.321999,88678,1609503350427876,950394485,-1.026752,0.103456,-0.138592,20.1775,-10.4825,27.27375,22.664001,-24.624,2.144,concentric,3,3.0,21736.0,150463.0,240317.0,289866.0,268075.0
2026-04-08 21:36:18.323601,88679,1609503350436892,950403191,-1.026752,0.103456,-0.138592,17.33375,-8.3475,27.3525,22.664001,-24.624,2.144,concentric,3,3.0,21736.0,150463.0,240317.0,289866.0,268075.0
2026-04-08 21:36:18.327822,88680,1609503350451362,950418047,-1.042368,0.26352,-0.144448,7.7,-5.46875,24.9725,22.776001,-24.872002,-0.824,concentric,3,3.0,21736.0,150463.0,240317.0,289866.0,268075.0
2026-04-08 21:36:18.329541,88681,1609503350460252,950426711,-1.042368,0.26352,-0.144448,0.7525,-1.8375,22.33,22.776001,-24.872002,-0.824,concentric,3,3.0,21736.0,150463.0,240317.0,289866.0,268075.0
2026-04-08 21:36:18.331301,88682,1609503350469177,950435364,-1.001376,0.308416,0.220576,-5.0575,-0.8575,20.62375,22.752,-25.136002,-1.968,concentric,3,3.0,21736.0,150463.0,240317.0,289866.0,268075.0
2026-04-08 21:36:18.335197,88683,1609503350483660,950450303,-1.001376,0.308416,0.220576,-7.455,-2.9225,22.19875,22.752,-25.136002,-1.968,concentric,3,3.0,21736.0,150463.0,240317.0,289866.0,268075.0
2026-04-08 21:36:18.340175,88684,1609503350492593,950458988,-1.04432,0.203008,0.15616,-4.27,-7.1575,23.45875,21.984001,-25.296001,0.968,concentric,3,3.0,21736.0,150463.0,240317.0,289866.0,268075.0
2026-04-08 21:36:18.368794,88685,1609503350507110,950473889,-1.04432,0.203008,0.15616,-2.7475,-9.84375,22.295,21.984001,-25.296001,0.968,concentric,3,3.0,21736.0,150463.0,240317.0,289866.0,268075.0
2026-04-08 21:36:18.397480,88696,1609503350516193,950482657,-0.983808,0.152256,0.040992,-4.1125,-9.1,21.67375,22.112001,-25.696001,-2.68,concentric,3,3.0,21876.0,151199.0,241264.0,290517.0,268479.0
2026-04-08 21:36:18.401581,88697,1609503350530654,950497564,-1.106784,0.247904,-0.052704,-5.64375,-6.8775,19.74875,21.888,-25.856,-0.696,concentric,3,3.0,21876.0,151199.0,241264.0,290517.0,268479.0
2026-04-08 21:36:18.403302,88698,1609503350539653,950506301,-1.106784,0.247904,-0.052704,-7.175,-7.21875,16.66,21.888,-25.856,-0.696,concentric,3,3.0,21876.0,151199.0,241264.0,290517.0,268479.0
2026-04-08 21:36:18.405209,88699,1609503350548589,950515011,-0.974048,0.2928,0.245952,0.105,-7.21875,13.9475,22.064001,-26.144001,0.968,concentric,3,3.0,21876.0,151199.0,241264.0,290517.0,268479.0
2026-04-08 21:36:18.413965,88700,1609503350563116,950529897,-0.974048,0.2928,0.245952,8.47,-6.2475,11.13875,22.064001,-26.144001,0.968,concentric,3,3.0,21876.0,151199.0,241264.0,290517.0,268479.0
2026-04-08 21:36:18.418923,88701,1609503350572024,950538621,-1.009184,0.218624,0.02928,7.2975,-7.41125,10.2725,21.736002,-26.312002,-0.84,concentric,3,3.0,21876.0,151199.0,241264.0,290517.0,268479.0
2026-04-08 21:36:18.447493,88702,1609503350586495,950553497,-1.009184,0.218624,0.02928,3.36,-7.46375,11.90875,21.736002,-26.312002,-0.84,concentric,3,3.0,21876.0,151199.0,241264.0,290517.0,268479.0
2026-04-08 21:36:18.452328,88703,1609503350595428,950562182,-1.020896,0.222528,0.06832,-1.3825,-5.985,12.9675,22.12,-26.640001,-0.032,concentric,3,3.0,21876.0,151199.0,241264.0,290517.0,268479.0
2026-04-08 21:36:18.490377,88714,1609503350609903,950577075,-1.061888,0.306464,0.066368,-7.14875,-6.0025,11.97,22.056002,-26.344002,0.896,concentric,3,3.0,21921.0,151470.0,241650.0,290823.0,268700.0
2026-04-08 21:36:18.492059,88715,1609503350618878,950585839,-1.061888,0.306464,0.066368,-5.76625,-5.5475,8.9425,22.056002,-26.344002,0.896,concentric,3,3.0,21921.0,151470.0,241650.0,290823.0,268700.0
2026-04-08 21:36:18.493648,88716,1609503350627878,950594543,-1.061888,0.306464,0.066368,-2.49375,-3.12375,5.18875,22.056002,-26.344002,0.896,concentric,3,3.0,21921.0,151470.0,241650.0,290823.0,268700.0
2026-04-08 21:36:18.497828,88717,1609503350642399,950609438,-0.979904,0.261568,0.203008,-6.23,-0.53375,2.77375,21.672,-26.744001,0.952,concentric,3,3.0,21921.0,151470.0,241650.0,290823.0,268700.0
2026-04-08 21:36:18.501058,88718,1609503350651383,950618129,-1.05408,0.286944,0.187392,-10.64875,1.95125,2.19625,22.096,-26.816002,-0.576,concentric,3,3.0,21921.0,151470.0,241650.0,290823.0,268700.0
2026-04-08 21:36:18.537460,88719,1609503350665901,950633029,-1.05408,0.286944,0.187392,-11.795,3.395,0.2275,22.096,-26.816002,-0.576,concentric,3,3.0,21921.0,151470.0,241650.0,290823.0,268700.0
2026-04-08 21:36:18.540358,88720,1609503350674806,950641689,-1.042368,0.208864,0.132736,-9.625,1.35625,-5.57375,21.944,-26.368002,-0.8,concentric,3,3.0,21921.0,151470.0,241650.0,290823.0,268700.0
2026-04-08 21:36:18.544029,88721,1609503350689300,950654486,-1.056032,0.230336,0.162016,-8.40875,-2.40625,-8.68875,22.160002,-26.816002,-1.816,concentric,3,3.0,21921.0,151470.0,241650.0,290823.0,268700.0
2026-04-08 21:36:18.545696,88722,1609503350698479,950665215,-1.056032,0.230336,0.162016,-7.93625,-5.95,-9.5375,22.160002,-26.816002,-1.816,concentric,3,3.0,21921.0,151470.0,241650.0,290823.0,268700.0
2026-04-08 21:36:18.576013,88723,1609503350707428,950673962,-1.056032,0.230336,0.162016,-7.7,-7.5075,-11.6375,22.160002,-26.816002,-1.816,concentric,3,3.0,21921.0,151470.0,241650.0,290823.0,268700.0
2026-04-08 21:36:18.604571,88734,1609503350721929,950688868,-1.065792,0.189344,0.08784,-10.68375,-6.81625,-13.51,22.528002,-26.784,1.552,concentric,3,3.0,22058.0,151970.0,242234.0,291219.0,268958.0
2026-04-08 21:36:18.606071,88735,1609503350730827,950697514,-0.997472,0.228384,0.197152,-14.63875,-4.69,-11.6725,22.808,-26.560001,-0.552,concentric,3,3.0,22058.0,151970.0,242234.0,291219.0,268958.0
2026-04-08 21:36:18.610396,88736,1609503350745353,950712400,-0.997472,0.228384,0.197152,-14.34125,-4.095,-8.155,22.808,-26.560001,-0.552,concentric,3,3.0,22058.0,151970.0,242234.0,291219.0,268958.0
2026-04-08 21:36:18.612672,88737,1609503350754271,950721124,-0.989664,0.17568,0.240096,-10.167501,-4.2,-10.675,23.240002,-26.712002,-0.832,concentric,3,3.0,22058.0,151970.0,242234.0,291219.0,268958.0
2026-04-08 21:36:18.614400,88738,1609503350768795,950733954,-0.989664,0.17568,0.240096,-8.82875,-3.14125,-16.0475,23.240002,-26.712002,-0.832,concentric,3,3.0,22058.0,151970.0,242234.0,291219.0,268958.0
2026-04-08 21:36:18.645414,88739,1609503350778083,950744699,-1.01504,0.152256,0.193248,-11.34,-2.65125,-16.6075,23.168001,-26.880001,0.72,concentric,3,3.0,22058.0,151970.0,242234.0,291219.0,268958.0
2026-04-08 21:36:18.651672,88740,1609503350787027,950753394,-1.01504,0.152256,0.193248,-10.885,-0.9275,-16.19625,23.168001,-26.880001,0.72,concentric,3,3.0,22058.0,151970.0,242234.0,291219.0,268958.0
2026-04-08 21:36:18.654034,88741,1609503350801499,950768342,-1.040416,0.162016,0.249856,-7.07875,2.44125,-17.2025,23.336,-26.752,-0.776,concentric,3,3.0,22058.0,151970.0,242234.0,291219.0,268958.0
2026-04-08 21:36:18.657656,88742,1609503350810453,950777019,-1.050176,0.181536,0.206912,-1.505,4.2875,-17.15875,23.456001,-26.256,-0.392,concentric,3,3.0,22058.0,151970.0,242234.0,291219.0,268958.0
2026-04-08 21:36:18.683647,88753,1609503350824937,950791946,-1.050176,0.181536,0.206912,2.3275,3.6575,-18.29625,23.456001,-26.256,-0.392,concentric,3,3.0,22039.0,151800.0,241911.0,290989.0,268807.0
2026-04-08 21:36:18.687867,88754,1609503350833886,950800684,-1.104832,0.23424,0.17568,2.66875,2.68625,-20.9825,23.880001,-26.664001,0.184,concentric,3,3.0,22039.0,151800.0,241911.0,290989.0,268807.0
2026-04-08 21:36:18.690298,88755,1609503350842809,950809360,-1.104832,0.23424,0.17568,1.855,3.59625,-20.755,23.880001,-26.664001,0.184,concentric,3,3.0,22039.0,151800.0,241911.0,290989.0,268807.0
2026-04-08 21:36:18.722176,88756,1609503350857296,950824288,-1.221952,0.228384,0.06832,2.7475,5.67875,-23.0125,24.336,-26.456001,0.096,concentric,3,3.0,22039.0,151800.0,241911.0,290989.0,268807.0
2026-04-08 21:36:18.726657,88757,1609503350866226,950832960,-1.221952,0.228384,0.06832,1.8025,7.16625,-23.9925,24.336,-26.456001,0.096,concentric,3,3.0,22039.0,151800.0,241911.0,290989.0,268807.0
2026-04-08 21:36:18.728194,88758,1609503350880713,950847834,-1.106784,0.247904,0.222528,0.7525,8.30375,-22.40875,24.776001,-26.536001,-0.912,concentric,3,3.0,22039.0,151800.0,241911.0,290989.0,268807.0
2026-04-08 21:36:18.758479,88759,1609503350889633,950856606,-1.106784,0.247904,0.222528,-1.4175,7.2625,-26.1275,24.776001,-26.536001,-0.912,concentric,3,3.0,22039.0,151800.0,241911.0,290989.0,268807.0
2026-04-08 21:36:18.760735,88760,1609503350904131,950869391,-1.130208,0.249856,0.1952,-0.5775,5.74875,-31.59625,25.264002,-25.872002,-0.304,concentric,3,3.0,22039.0,151800.0,241911.0,290989.0,268807.0
2026-04-08 21:36:18.789555,88771,1609503350913386,950880648,-1.270752,0.26352,-0.040992,1.19875,3.54375,-31.115,25.264002,-25.936,-1.424,concentric,3,3.0,21886.0,151223.0,241239.0,290539.0,268595.0
2026-04-08 21:36:18.791119,88772,1609503350922420,950889387,-1.270752,0.26352,-0.040992,0.77875,0.77,-24.84125,25.264002,-25.936,-1.424,concentric,3,3.0,21886.0,151223.0,241239.0,290539.0,268595.0
2026-04-08 21:36:18.795330,88773,1609503350936915,950902250,-1.241472,0.210816,0.025376,5.29375,0.315,-20.93,25.352001,-25.944002,-0.688,concentric,3,3.0,21886.0,151223.0,241239.0,290539.0,268595.0
2026-04-08 21:36:18.796963,88774,1609503350946418,950912983,-1.241472,0.210816,0.025376,11.1475,2.31,-24.5525,25.352001,-25.944002,-0.688,concentric,3,3.0,21886.0,151223.0,241239.0,290539.0,268595.0
2026-04-08 21:36:18.837243,88775,1609503350960911,950927916,-1.33712,0.244,-0.105408,10.12375,3.52625,-27.317501,26.072,-25.648,-1.048,concentric,3,3.0,21886.0,151223.0,241239.0,290539.0,268595.0
2026-04-08 21:36:18.839508,88776,1609503350969831,950936579,-1.33712,0.244,-0.105408,8.14625,3.63125,-23.94,26.072,-25.648,-1.048,concentric,3,3.0,21886.0,151223.0,241239.0,290539.0,268595.0
2026-04-08 21:36:18.844119,88777,1609503350978762,950945247,-1.380064,0.339648,0.06832,6.93875,1.75875,-23.23125,26.480001,-25.712002,-2.424,concentric,3,3.0,21886.0,151223.0,241239.0,290539.0,268595.0
2026-04-08 21:36:18.846560,88778,1609503350993225,950960124,-1.315648,0.320128,0.05856,6.37875,0.1925,-22.39125,26.6,-25.768002,-2.168,concentric,3,3.0,21886.0,151223.0,241239.0,290539.0,268595.0
2026-04-08 21:36:18.850752,88779,1609503351002147,950968788,-1.315648,0.320128,0.05856,5.32875,-1.9425,-18.19125,26.6,-25.768002,-2.168,concentric,3,3.0,21886.0,151223.0,241239.0,290539.0,268595.0
2026-04-08 21:36:18.907866,88790,1609503351017193,950983704,-1.397632,0.343552,0.056608,6.545,-3.50875,-14.9275,26.456001,-25.640001,-1.192,concentric,3,3.0,21722.0,150499.0,240323.0,289927.0,268254.0
2026-04-08 21:36:18.909581,88791,1609503351026198,950992419,-1.397632,0.343552,0.056608,7.6125,-4.2875,-13.230001,26.456001,-25.640001,-1.192,concentric,3,3.0,21722.0,150499.0,240323.0,289927.0,268254.0
2026-04-08 21:36:18.912015,88792,1609503351035123,951001096,-1.362496,0.3416,-0.060512,6.6325,-4.45375,-10.54375,26.728,-25.912,-2.0,concentric,3,3.0,21722.0,150499.0,240323.0,289927.0,268254.0
2026-04-08 21:36:18.913610,88793,1609503351049764,951016106,-1.362496,0.3416,-0.060512,7.525,-4.26125,-8.6275,26.728,-25.912,-2.0,concentric,3,3.0,21722.0,150499.0,240323.0,289927.0,268254.0
2026-04-08 21:36:18.917910,88794,1609503351058701,951024803,-1.344928,0.337696,0.03904,8.44375,-3.5175,-8.33,26.976002,-25.632002,-3.872,concentric,3,3.0,21722.0,150499.0,240323.0,289927.0,268254.0
2026-04-08 21:36:18.919533,88795,1609503351073174,951039758,-1.284416,0.257664,-0.074176,5.495,-3.36875,-6.02,26.648,-25.688002,-2.328,concentric,3,3.0,21722.0,150499.0,240323.0,289927.0,268254.0
2026-04-08 21:36:18.949755,88796,1609503351082100,951048425,-1.284416,0.257664,-0.074176,-0.14875,-4.1125,-0.6125,26.648,-25.688002,-2.328,concentric,3,3.0,21722.0,150499.0,240323.0,289927.0,268254.0
2026-04-08 21:36:18.954138,88797,1609503351096593,951063285,-1.257088,0.298656,0.025376,-1.9075,-4.5325,2.07375,26.936,-25.2,-2.24,concentric,3,3.0,21722.0,150499.0,240323.0,289927.0,268254.0
2026-04-08 21:36:18.955811,88798,1609503351105525,951072000,-1.257088,0.298656,0.025376,2.59,-3.50875,2.065,26.936,-25.2,-2.24,concentric,3,3.0,21722.0,150499.0,240323.0,289927.0,268254.0
