pc_time,serial_num,sensor_ts,host_ts,ax,ay,az,gx,gy,gz,mx,my,mz,phase,rpe,weight_kg,ppg_a,ppg_b,ppg_c,ppg_d,ppg_e
2026-04-08 21:36:28.660006,90624,1609503360771695,960737790,-1.01504,0.318176,0.105408,6.74625,2.94,18.05125,20.512001,-27.088001,4.872,eccentric,3,3.0,22103.0,151983.0,241898.0,290955.0,268949.0
2026-04-08 21:36:28.662472,90625,1609503360786187,960752716,-0.958432,0.2928,0.290848,6.4925,2.0125,17.43,20.424002,-27.544,5.072,eccentric,3,3.0,22103.0,151983.0,241898.0,290955.0,268949.0
2026-04-08 21:36:28.664977,90626,1609503360795191,960761409,-0.958432,0.2928,0.083936,7.23625,2.31875,17.9025,20.424002,-27.544,5.072,eccentric,3,3.0,22103.0,151983.0,241898.0,290955.0,268949.0
2026-04-08 21:36:28.667503,90627,1609503360809687,960776290,-1.061888,0.320128,0.083936,8.53125,2.58125,18.9175,20.056002,-27.128002,6.28,eccentric,3,3.0,22103.0,151983.0,241898.0,290955.0,268949.0
2026-04-08 21:36:28.669949,90628,1609503360818613,960784972,-1.036512,0.359168,0.23424,10.3425,2.4325,17.6225,19.488,-27.616001,5.56,eccentric,3,3.0,22103.0,151983.0,241898.0,290955.0,268949.0
2026-04-08 21:36:28.673714,90629,1609503360827617,960793641,-1.036512,0.359168,0.23424,11.62,1.82875,16.1,19.488,-27.616001,5.56,eccentric,3,3.0,22103.0,151983.0,241898.0,290955.0,268949.0
2026-04-08 21:36:28.731568,90630,1609503360842158,960808598,-0.942816,0.324032,0.183488,9.765,1.00625,14.752501,19.872002,-27.712002,4.472,eccentric,3,3.0,22103.0,151983.0,241898.0,290955.0,268949.0
2026-04-08 21:36:28.735054,90631,1609503360851073,960817271,-0.942816,0.324032,0.183488,7.5075,-0.56,12.8625,19.872002,-27.712002,4.472,eccentric,3,3.0,22103.0,151983.0,241898.0,290955.0,268949.0
2026-04-08 21:36:28.766775,90642,1609503360865516,960832080,-0.993568,0.36112,0.304512,5.9675,-2.31,10.56125,19.504002,-27.936,4.648,eccentric,3,3.0,21846.0,150623.0,239912.0,289389.0,268002.0
2026-04-08 21:36:28.768453,90643,1609503360874532,960840802,-0.993568,0.36112,0.304512,4.4625,-2.49375,9.0475,19.504002,-27.936,4.648,eccentric,3,3.0,21846.0,150623.0,239912.0,289389.0,268002.0
2026-04-08 21:36:28.770904,90644,1609503360888969,960855686,-0.958432,0.32208,0.247904,2.93125,-3.6225,8.53125,19.256,-27.896002,4.12,eccentric,3,3.0,21846.0,150623.0,239912.0,289389.0,268002.0
2026-04-08 21:36:28.772415,90645,1609503360897912,960864357,-1.038464,0.372832,0.304512,2.70375,-4.655,6.23,18.848001,-27.584002,6.192,eccentric,3,3.0,21846.0,150623.0,239912.0,289389.0,268002.0
2026-04-08 21:36:28.777095,90646,1609503360906937,960873088,-1.038464,0.372832,0.304512,6.58,-4.3575,3.05375,18.848001,-27.584002,6.192,eccentric,3,3.0,21846.0,150623.0,239912.0,289389.0,268002.0
2026-04-08 21:36:28.783056,90647,1609503360921481,960888055,-1.038464,0.382592,0.206912,9.7125,-3.26375,1.12,18.848001,-27.904001,5.296001,eccentric,3,3.0,21846.0,150623.0,239912.0,289389.0,268002.0
2026-04-08 21:36:28.785501,90648,1609503360930416,960896735,-1.038464,0.382592,0.206912,11.05125,-2.33625,1.37375,18.848001,-27.904001,5.296001,eccentric,3,3.0,21846.0,150623.0,239912.0,289389.0,268002.0
2026-04-08 21:36:28.813984,90649,1609503360944876,960911607,-1.089216,0.417728,0.158112,10.21125,-1.61875,2.07375,19.288,-28.024002,5.36,eccentric,3,3.0,21846.0,150623.0,239912.0,289389.0,268002.0
2026-04-08 21:36:28.817495,90650,1609503360953782,960920278,-1.089216,0.417728,0.158112,6.5975,-1.1725,1.3825,19.288,-28.024002,5.36,eccentric,3,3.0,21846.0,150623.0,239912.0,289389.0,268002.0
2026-04-08 21:36:28.849997,90661,1609503360968317,960935194,-1.15168,0.464576,0.25376,4.795,-1.1725,0.06125,19.408,-28.072,4.28,eccentric,3,3.0,21096.0,147347.0,235655.0,286078.0,265996.0
2026-04-08 21:36:28.852485,90662,1609503360977371,960943902,-1.186816,0.470432,0.288896,4.52375,-0.8925,-0.23625,18.848001,-27.840002,4.896,eccentric,3,3.0,21096.0,147347.0,235655.0,286078.0,265996.0
2026-04-08 21:36:28.855064,90663,1609503360986335,960952667,-1.186816,0.470432,0.288896,5.57375,-0.81375,-0.175,18.848001,-27.840002,4.896,eccentric,3,3.0,21096.0,147347.0,235655.0,286078.0,265996.0
2026-04-08 21:36:28.857463,90664,1609503361000839,960967543,-1.165344,0.462624,0.343552,6.58,0.09625,-0.35,18.952002,-27.776001,5.088,eccentric,3,3.0,21096.0,147347.0,235655.0,286078.0,265996.0
2026-04-08 21:36:28.859963,90665,1609503361009811,960976235,-1.165344,0.462624,0.343552,4.90875,-0.90125,0.595,18.952002,-27.776001,5.088,eccentric,3,3.0,21096.0,147347.0,235655.0,286078.0,265996.0
2026-04-08 21:36:28.890190,90666,1609503361024375,960991152,-1.198528,0.495808,0.298656,1.25125,-2.73,1.35625,18.944,-27.992,3.576,eccentric,3,3.0,21096.0,147347.0,235655.0,286078.0,265996.0
2026-04-08 21:36:28.893771,90667,1609503361033259,960999794,-1.198528,0.495808,0.298656,-1.33,-3.78875,0.175,18.944,-27.992,3.576,eccentric,3,3.0,21096.0,147347.0,235655.0,286078.0,265996.0
2026-04-08 21:36:28.896288,90668,1609503361047710,961014638,-1.143872,0.460672,0.329888,-2.31,-5.67,0.8575,18.92,-28.264002,4.424,eccentric,3,3.0,21096.0,147347.0,235655.0,286078.0,265996.0
2026-04-08 21:36:28.926485,90669,1609503361056682,961023317,-1.143872,0.460672,0.329888,-1.93375,-8.225,1.3825,18.92,-28.264002,4.424,eccentric,3,3.0,21096.0,147347.0,235655.0,286078.0,265996.0
2026-04-08 21:36:28.930028,90670,1609503361065665,961032024,-1.169248,0.431392,0.154208,4.20875,-9.38,0.28875,18.328001,-27.848001,2.856,eccentric,3,3.0,21096.0,147347.0,235655.0,286078.0,265996.0
2026-04-08 21:36:28.959995,90681,1609503361080154,961046933,-1.16144,0.464576,0.359168,9.63375,-9.42375,-0.6475,18.752,-28.008001,4.312,eccentric,3,3.0,20748.0,145853.0,233774.0,284658.0,265127.0
2026-04-08 21:36:28.962541,90682,1609503361089202,961055644,-1.16144,0.464576,0.359168,9.38875,-10.28125,-0.93625,18.752,-28.008001,4.312,eccentric,3,3.0,20748.0,145853.0,233774.0,284658.0,265127.0
2026-04-08 21:36:28.965009,90683,1609503361103769,961070565,-1.108736,0.431392,0.316224,6.37,-11.08625,-2.695,18.560001,-27.928001,4.52,eccentric,3,3.0,20748.0,145853.0,233774.0,284658.0,265127.0
2026-04-08 21:36:28.967696,90684,1609503361112712,961079272,-1.108736,0.431392,0.316224,-0.13125,-12.52125,-5.11,18.560001,-27.928001,4.52,eccentric,3,3.0,20748.0,145853.0,233774.0,284658.0,265127.0
2026-04-08 21:36:28.969985,90685,1609503361121664,961087999,-1.089216,0.40992,0.27328,-4.1125,-13.877501,-4.66375,18.448,-27.808,4.512,eccentric,3,3.0,20748.0,145853.0,233774.0,284658.0,265127.0
2026-04-08 21:36:29.031506,90686,1609503361136140,961102882,-1.089216,0.40992,0.27328,-2.98375,-13.8075,-4.3925,18.448,-27.808,4.512,eccentric,3,3.0,20748.0,145853.0,233774.0,284658.0,265127.0
2026-04-08 21:36:29.035207,90687,1609503361145061,961111557,-1.09312,0.378688,0.284992,0.34125,-13.60625,-4.8475,18.36,-27.672,4.568,eccentric,3,3.0,20748.0,145853.0,233774.0,284658.0,265127.0
2026-04-08 21:36:29.037548,90688,1609503361159529,961126388,-1.138016,0.407968,0.288896,4.9525,-12.88,-4.725,18.208,-27.776001,4.664,eccentric,3,3.0,20748.0,145853.0,233774.0,284658.0,265127.0
2026-04-08 21:36:29.068831,90699,1609503361169085,961135504,-1.138016,0.407968,0.288896,5.25,-12.1975,-4.97875,18.208,-27.776001,4.664,eccentric,3,3.0,20808.0,146138.0,234183.0,285017.0,265383.0
2026-04-08 21:36:29.071318,90700,1609503361183643,961150377,-1.11264,0.343552,0.111264,2.51125,-12.15375,-6.01125,18.512001,-27.776001,5.0,eccentric,3,3.0,20808.0,146138.0,234183.0,285017.0,265383.0
2026-04-08 21:36:29.073801,90701,1609503361192535,961159021,-1.11264,0.343552,0.111264,-0.2625,-10.9025,-7.2625,18.512001,-27.776001,5.0,eccentric,3,3.0,20808.0,146138.0,234183.0,285017.0,265383.0
2026-04-08 21:36:29.076286,90702,1609503361201567,961167752,-1.143872,0.357216,0.111264,-1.995,-9.948751,-7.21,18.12,-27.328001,5.816001,eccentric,3,3.0,20808.0,146138.0,234183.0,285017.0,265383.0
2026-04-08 21:36:29.078911,90703,1609503361216062,961182650,-1.143872,0.357216,0.111264,0.81375,-6.895,-7.83125,18.12,-27.328001,5.816001,eccentric,3,3.0,20808.0,146138.0,234183.0,285017.0,265383.0
2026-04-08 21:36:29.081248,90704,1609503361224987,961191369,-1.120448,0.35136,0.279136,0.315,-5.24125,-8.54,18.240002,-27.560001,6.36,eccentric,3,3.0,20808.0,146138.0,234183.0,285017.0,265383.0
2026-04-08 21:36:29.086320,90705,1609503361239510,961206251,-1.042368,0.2928,0.121024,-0.525,-5.08375,-7.5075,18.032001,-27.056002,3.32,eccentric,3,3.0,20808.0,146138.0,234183.0,285017.0,265383.0
2026-04-08 21:36:29.116498,90706,1609503361248476,961214964,-1.042368,0.2928,0.121024,0.315,-5.145,-7.91875,18.032001,-27.056002,3.32,eccentric,3,3.0,20808.0,146138.0,234183.0,285017.0,265383.0
2026-04-08 21:36:29.120043,90707,1609503361257422,961223649,-1.042368,0.2928,0.121024,3.43875,-2.7475,-9.8875,18.032001,-27.056002,3.32,eccentric,3,3.0,20808.0,146138.0,234183.0,285017.0,265383.0
2026-04-08 21:36:29.150078,90718,1609503361272325,961238603,-1.028704,0.343552,0.26352,7.455,-0.55125,-12.32,18.392,-27.032001,4.528,eccentric,3,3.0,21100.0,147462.0,236013.0,286501.0,266291.0
2026-04-08 21:36:29.152518,90719,1609503361281264,961247297,-1.05408,0.333792,0.288896,8.40875,0.18375,-14.13125,17.720001,-26.800001,5.656,eccentric,3,3.0,21100.0,147462.0,236013.0,286501.0,266291.0
2026-04-08 21:36:29.155028,90720,1609503361295777,961262227,-1.05408,0.333792,0.288896,5.495,0.28875,-15.6975,17.720001,-26.800001,5.656,eccentric,3,3.0,21100.0,147462.0,236013.0,286501.0,266291.0
2026-04-08 21:36:29.157510,90721,1609503361304705,961270903,-1.075552,0.314272,0.31232,-1.015,-1.35625,-15.89,17.84,-26.488,6.128,eccentric,3,3.0,21100.0,147462.0,236013.0,286501.0,266291.0
2026-04-08 21:36:29.187685,90722,1609503361319201,961285767,-1.097024,0.300608,0.101504,-2.40625,-2.4325,-17.15875,17.84,-26.488,6.032,eccentric,3,3.0,21100.0,147462.0,236013.0,286501.0,266291.0
2026-04-08 21:36:29.191224,90723,1609503361328187,961294435,-1.097024,0.300608,0.101504,-1.8375,-1.47875,-21.97125,17.856,-26.28,6.032,eccentric,3,3.0,21100.0,147462.0,236013.0,286501.0,266291.0
2026-04-08 21:36:29.193713,90724,1609503361337132,961303112,-1.097024,0.300608,0.101504,-2.00375,-0.2975,-26.94125,17.856,-26.28,6.032,eccentric,3,3.0,21100.0,147462.0,236013.0,286501.0,266291.0
2026-04-08 21:36:29.197478,90725,1609503361351601,961317980,-1.018944,0.320128,0.265472,0.77875,1.645,-29.12,18.368,-26.128002,6.296001,eccentric,3,3.0,21100.0,147462.0,236013.0,286501.0,266291.0
2026-04-08 21:36:29.206282,90726,1609503361360600,961326706,-1.001376,0.298656,0.363072,0.875,2.0125,-29.2775,18.448,-25.904001,4.016,eccentric,3,3.0,21100.0,147462.0,236013.0,286501.0,266291.0
2026-04-08 21:36:29.262481,90737,1609503361375175,961341792,-1.001376,0.298656,0.363072,-4.4975,-0.315,-28.866251,18.448,-25.904001,4.016,eccentric,3,3.0,21313.0,148568.0,237638.0,287802.0,267029.0
2026-04-08 21:36:29.265008,90738,1609503361384094,961350484,-1.038464,0.220576,0.16592,-5.85375,-2.00375,-30.397501,18.936,-25.424002,5.36,eccentric,3,3.0,21313.0,148568.0,237638.0,287802.0,267029.0
2026-04-08 21:36:29.267514,90739,1609503361398616,961365366,-1.038464,0.220576,0.16592,-6.2475,-2.45,-32.2875,18.936,-25.424002,5.36,eccentric,3,3.0,21313.0,148568.0,237638.0,287802.0,267029.0
2026-04-08 21:36:29.269972,90740,1609503361407613,961374109,-1.05408,0.242048,0.124928,-5.81,-1.67125,-34.18625,18.92,-25.232,5.256,eccentric,3,3.0,21313.0,148568.0,237638.0,287802.0,267029.0
2026-04-08 21:36:29.272469,90741,1609503361416645,961382818,-1.05408,0.242048,0.124928,-3.78,-1.155,-35.72625,18.92,-25.232,5.256,eccentric,3,3.0,21313.0,148568.0,237638.0,287802.0,267029.0
2026-04-08 21:36:29.278798,90742,1609503361431131,961397705,-0.99552,0.25376,0.152256,-0.8925,-1.98625,-37.73,19.424002,-24.936,5.072,eccentric,3,3.0,21313.0,148568.0,237638.0,287802.0,267029.0
2026-04-08 21:36:29.285017,90743,1609503361440070,961406391,-0.901824,0.158112,0.218624,2.87875,-1.67125,-38.87625,19.424002,-24.672,9.68,eccentric,3,3.0,21313.0,148568.0,237638.0,287802.0,267029.0
2026-04-08 21:36:29.335611,90744,1609503361454542,961421260,-0.901824,0.158112,0.218624,1.1725,-0.09625,-39.62,19.192001,-24.672,9.68,eccentric,3,3.0,21313.0,148568.0,237638.0,287802.0,267029.0
2026-04-08 21:36:29.338761,90745,1609503361463427,961429911,-1.05408,0.210816,0.040992,-6.43125,0.30625,-39.48,19.6,-24.144001,5.552,eccentric,3,3.0,21313.0,148568.0,237638.0,287802.0,267029.0
2026-04-08 21:36:29.366320,90756,1609503361478372,961445404,-1.05408,0.210816,0.040992,-11.80375,1.33875,-38.8675,19.6,-24.144001,5.552,eccentric,3,3.0,21387.0,148963.0,238262.0,288314.0,267310.0
2026-04-08 21:36:29.368849,90757,1609503361487297,961454081,-1.040416,0.208864,0.095648,-9.24875,2.77375,-41.25625,20.12,-23.928001,4.448,eccentric,3,3.0,21387.0,148963.0,238262.0,288314.0,267310.0
2026-04-08 21:36:29.371295,90758,1609503361496225,961462743,-1.040416,0.208864,0.095648,-4.94375,2.625,-45.28125,20.12,-23.928001,4.448,eccentric,3,3.0,21387.0,148963.0,238262.0,288314.0,267310.0
2026-04-08 21:36:29.373801,90759,1609503361510745,961477669,-1.022848,0.152256,0.173728,-6.5275,-0.27125,-45.82375,20.032001,-23.344002,6.440001,eccentric,3,3.0,21387.0,148963.0,238262.0,288314.0,267310.0
2026-04-08 21:36:29.376334,90760,1609503361519700,961486374,-1.022848,0.152256,0.173728,-9.38,-1.82,-46.9175,20.032001,-23.344002,6.440001,eccentric,3,3.0,21387.0,148963.0,238262.0,288314.0,267310.0
2026-04-08 21:36:29.381331,90761,1609503361534203,961501267,-0.884256,0.093696,0.222528,-12.8975,-0.95375,-49.74375,20.68,-23.088001,5.264,eccentric,3,3.0,21387.0,148963.0,238262.0,288314.0,267310.0
2026-04-08 21:36:29.412625,90762,1609503361543154,961509929,-0.952576,0.144448,0.247904,-17.00125,-1.4175,-51.73875,20.832,-22.576,6.456,eccentric,3,3.0,21387.0,148963.0,238262.0,288314.0,267310.0
2026-04-08 21:36:29.415087,90763,1609503361552065,961518605,-0.952576,0.144448,0.247904,-12.8975,0.70875,-53.27875,20.832,-22.576,6.456,eccentric,3,3.0,21387.0,148963.0,238262.0,288314.0,267310.0
2026-04-08 21:36:29.419036,90764,1609503361566537,961533498,-0.944768,0.1464,0.26352,-7.55125,0.98875,-52.80625,21.256,-22.152,5.928001,eccentric,3,3.0,21387.0,148963.0,238262.0,288314.0,267310.0
2026-04-08 21:36:29.445056,90775,1609503361575690,961542263,-0.944768,0.1464,0.26352,-6.23,-0.90125,-51.3275,21.256,-22.152,5.928001,eccentric,3,3.0,21398.0,149007.0,238511.0,288549.0,267402.0
2026-04-08 21:36:29.447599,90776,1609503361590199,961557152,-0.925248,0.076128,0.150304,-5.0225,-2.24875,-52.9725,21.528002,-21.560001,6.56,eccentric,3,3.0,21398.0,149007.0,238511.0,288549.0,267402.0
2026-04-08 21:36:29.450095,90777,1609503361599162,961565813,-0.925248,0.076128,0.150304,-10.31625,-4.29625,-54.853752,21.528002,-21.560001,6.56,eccentric,3,3.0,21398.0,149007.0,238511.0,288549.0,267402.0
2026-04-08 21:36:29.481460,90778,1609503361613708,961580727,-0.94672,0.042944,0.134688,-20.8775,-6.02,-54.451252,21.808,-21.392,7.768001,eccentric,3,3.0,21398.0,149007.0,238511.0,288549.0,267402.0
2026-04-08 21:36:29.485147,90779,1609503361622603,961589387,-1.030656,0.101504,0.089792,-24.07125,-5.5475,-52.94625,22.480001,-20.640001,5.960001,eccentric,3,3.0,21398.0,149007.0,238511.0,288549.0,267402.0
2026-04-08 21:36:29.487578,90780,1609503361631518,961598042,-1.030656,0.101504,0.089792,-18.83,-1.28625,-53.7425,22.480001,-20.640001,5.960001,eccentric,3,3.0,21398.0,149007.0,238511.0,288549.0,267402.0
2026-04-08 21:36:29.493799,90781,1609503361646008,961612928,-0.913536,0.060512,0.40016,-6.20375,6.25625,-58.86125,22.800001,-20.584002,5.912,eccentric,3,3.0,21398.0,149007.0,238511.0,288549.0,267402.0
2026-04-08 21:36:29.524110,90782,1609503361654922,961621634,-0.913536,0.060512,0.40016,-7.09625,11.27,-61.66125,22.800001,-20.584002,5.912,eccentric,3,3.0,21398.0,149007.0,238511.0,288549.0,267402.0
2026-04-08 21:36:29.554268,90793,1609503361669423,961636463,-0.938912,0.138592,0.33184,-16.40625,12.11875,-57.4875,23.072,-19.696001,6.152,eccentric,3,3.0,21335.0,148795.0,238294.0,288418.0,267286.0
2026-04-08 21:36:29.560647,90794,1609503361678385,961645190,-0.938912,0.138592,0.33184,-21.55125,8.75,-51.345,23.072,-19.696001,6.152,eccentric,3,3.0,21335.0,148795.0,238294.0,288418.0,267286.0
2026-04-08 21:36:29.562342,90795,1609503361692911,961658127,-0.83936,0.115168,0.275232,-21.72625,3.29875,-48.34375,23.024,-19.608002,6.4,eccentric,3,3.0,21335.0,148795.0,238294.0,288418.0,267286.0
2026-04-08 21:36:29.564835,90796,1609503361702226,961668938,-0.892064,-0.060512,0.230336,-18.45375,0.93625,-49.27125,23.408,-19.0,8.072001,eccentric,3,3.0,21335.0,148795.0,238294.0,288418.0,267286.0
2026-04-08 21:36:29.566387,90797,1609503361711151,961677613,-0.892064,-0.060512,0.230336,-12.87125,5.8275,-51.31875,23.408,-19.0,8.072001,eccentric,3,3.0,21335.0,148795.0,238294.0,288418.0,267286.0
2026-04-08 21:36:29.597546,90798,1609503361725646,961692471,-1.03456,-0.091744,0.183488,-21.28,6.93875,-51.1525,24.456001,-18.592001,7.480001,eccentric,3,3.0,21335.0,148795.0,238294.0,288418.0,267286.0
2026-04-08 21:36:29.600145,90799,1609503361734573,961701204,-1.03456,-0.091744,0.183488,-30.975,3.5875,-48.67625,24.456001,-18.592001,7.480001,eccentric,3,3.0,21335.0,148795.0,238294.0,288418.0,267286.0
2026-04-08 21:36:29.637616,90800,1609503361749043,961716094,-0.870592,0.013664,0.208864,-26.04875,2.10875,-48.20375,24.416,-18.064001,6.576,eccentric,3,3.0,21335.0,148795.0,238294.0,288418.0,267286.0
2026-04-08 21:36:29.644384,90801,1609503361757967,961724742,-0.870592,0.013664,0.208864,-10.745,3.31625,-49.1575,24.416,-18.064001,6.576,eccentric,3,3.0,21335.0,148795.0,238294.0,288418.0,267286.0
2026-04-08 21:36:29.646168,90802,1609503361766890,961733409,-0.88816,0.06832,0.32208,5.2325,6.58875,-49.67375,24.936,-17.76,6.576,eccentric,3,3.0,21335.0,148795.0,238294.0,288418.0,267286.0
2026-04-08 21:36:29.681619,90813,1609503361781403,961748297,-0.88816,0.06832,0.32208,6.23,7.77875,-47.29375,24.936,-17.76,6.576,eccentric,3,3.0,21385.0,148833.0,238332.0,288436.0,267264.0
2026-04-08 21:36:29.685655,90814,1609503361790326,961756999,-0.989664,-0.044896,0.238144,-3.85875,7.77,-45.395,24.952002,-16.800001,5.616,eccentric,3,3.0,21385.0,148833.0,238332.0,288436.0,267264.0
2026-04-08 21:36:29.689029,90815,1609503361804825,961769977,-0.91744,-0.091744,0.347456,-13.76375,5.005,-46.025,25.416,-16.728,6.8,eccentric,3,3.0,21385.0,148833.0,238332.0,288436.0,267264.0
2026-04-08 21:36:29.693106,90816,1609503361814095,961780768,-0.91744,-0.091744,0.347456,-17.89375,0.88375,-44.5025,25.416,-16.728,6.8,eccentric,3,3.0,21385.0,148833.0,238332.0,288436.0,267264.0
2026-04-08 21:36:29.694868,90817,1609503361828643,961795730,-0.837408,0.001952,0.064416,-10.045,1.46125,-42.72625,25.512001,-16.272001,6.496,eccentric,3,3.0,21385.0,148833.0,238332.0,288436.0,267264.0
2026-04-08 21:36:29.696427,90818,1609503361837568,961804422,-0.837408,0.001952,0.064416,2.94875,5.83625,-40.90625,25.512001,-16.272001,6.496,eccentric,3,3.0,21385.0,148833.0,238332.0,288436.0,267264.0
2026-04-08 21:36:29.700502,90819,1609503361846494,961813081,-0.942816,0.040992,0.294752,5.4425,10.07125,-35.245,25.264002,-16.072,7.496,eccentric,3,3.0,21385.0,148833.0,238332.0,288436.0,267264.0
2026-04-08 21:36:29.729310,90820,1609503361861046,961827982,-0.942816,0.040992,0.294752,-4.41,9.75625,-26.67,25.264002,-16.072,7.496,concentric,3,3.0,21385.0,148833.0,238332.0,288436.0,267264.0
2026-04-08 21:36:29.765607,90832,1609503361870056,961837101,-0.915488,-0.113216,0.27328,-10.675,7.93625,-23.1875,25.840002,-16.264,6.008,concentric,3,3.0,21315.0,148604.0,238008.0,288210.0,267099.0
2026-04-08 21:36:29.767395,90833,1609503361884559,961849962,-1.007232,-0.062464,0.179584,-7.09625,8.21625,-25.66375,25.960001,-15.728001,6.208,concentric,3,3.0,21315.0,148604.0,238008.0,288210.0,267099.0
2026-04-08 21:36:29.768881,90834,1609503361893742,961860828,-1.007232,-0.062464,0.179584,-1.40875,7.39375,-25.3575,25.960001,-15.728001,6.208,concentric,3,3.0,21315.0,148604.0,238008.0,288210.0,267099.0
2026-04-08 21:36:29.773131,90835,1609503361902705,961869617,-1.007232,-0.031232,0.206912,8.32125,6.51875,-21.28,25.960001,-15.728001,6.208,concentric,3,3.0,21315.0,148604.0,238008.0,288210.0,267099.0
2026-04-08 21:36:29.774820,90836,1609503361917205,961882440,-1.030656,-0.023424,0.206912,13.37,3.66625,-20.116251,26.008001,-15.432001,7.072001,concentric,3,3.0,21315.0,148604.0,238008.0,288210.0,267099.0
2026-04-08 21:36:29.776361,90837,1609503361926574,961893233,-0.942816,-0.02928,0.277184,10.0275,-0.3325,-20.46625,26.032001,-15.536001,7.048,concentric,3,3.0,21315.0,148604.0,238008.0,288210.0,267099.0
2026-04-08 21:36:29.823185,90838,1609503361941189,961908172,-0.942816,-0.02928,0.277184,1.925,-0.315,-20.58,26.032001,-15.536001,7.048,concentric,3,3.0,21315.0,148604.0,238008.0,288210.0,267099.0
2026-04-08 21:36:29.824859,90839,1609503361950118,961916831,-0.952576,0.007808,0.101504,-5.5125,1.925,-19.78375,26.216002,-15.152,7.192,concentric,3,3.0,21315.0,148604.0,238008.0,288210.0,267099.0
2026-04-08 21:36:29.826387,90840,1609503361964605,961931691,-0.933056,-0.021472,0.363072,-11.29625,4.0425,-15.96,26.544,-15.592001,8.584001,concentric,3,3.0,21315.0,148604.0,238008.0,288210.0,267099.0
2026-04-08 21:36:29.854854,90851,1609503361973615,961940401,-0.933056,-0.021472,0.363072,-12.88875,4.15625,-11.33125,26.544,-15.592001,8.584001,concentric,3,3.0,21330.0,148659.0,238091.0,288292.0,267139.0
2026-04-08 21:36:29.856404,90852,1609503361982615,961949089,-0.933056,-0.021472,0.363072,-8.6975,2.30125,-7.84,26.544,-15.592001,8.584001,concentric,3,3.0,21330.0,148659.0,238091.0,288292.0,267139.0
2026-04-08 21:36:29.860613,90853,1609503361997270,961964066,-0.923296,-0.128832,0.12688,1.19,1.89875,-6.195,26.560001,-15.072001,7.728,concentric,3,3.0,21330.0,148659.0,238091.0,288292.0,267139.0
2026-04-08 21:36:29.863052,90854,1609503362006186,961972766,-0.890112,-0.033184,0.290848,8.26875,2.835,-5.01375,26.328001,-15.712001,6.472,concentric,3,3.0,21330.0,148659.0,238091.0,288292.0,267139.0
2026-04-08 21:36:29.892208,90855,1609503362020687,961987627,-0.890112,-0.033184,0.290848,7.805,3.395,-1.96875,26.328001,-15.712001,6.472,concentric,3,3.0,21330.0,148659.0,238091.0,288292.0,267139.0
2026-04-08 21:36:29.893630,90856,1609503362029607,961996346,-0.970144,-0.015616,0.095648,1.16375,3.57875,2.17875,26.352001,-15.480001,6.232,concentric,3,3.0,21330.0,148659.0,238091.0,288292.0,267139.0
2026-04-08 21:36:29.895115,90857,1609503362038508,962005000,-0.970144,-0.015616,0.095648,-5.915,0.20125,6.51875,26.352001,-15.480001,6.232,concentric,3,3.0,21330.0,148659.0,238091.0,288292.0,267139.0
2026-04-08 21:36:29.902317,90858,1609503362052985,962019845,-0.909632,-0.101504,0.363072,-6.1425,-4.47125,9.52875,26.632002,-15.944001,6.08,concentric,3,3.0,21330.0,148659.0,238091.0,288292.0,267139.0
2026-04-08 21:36:29.934964,90859,1609503362061906,962028500,-0.909632,-0.101504,0.363072,0.4725,-5.94125,9.72125,26.632002,-15.944001,6.08,concentric,3,3.0,21330.0,148659.0,238091.0,288292.0,267139.0
2026-04-08 21:36:29.962779,90870,1609503362076576,962043426,-0.95648,-0.13664,0.005856,8.21625,-2.9575,9.905,26.464,-15.864,6.432,concentric,3,3.0,21393.0,148911.0,238458.0,288583.0,267314.0
2026-04-08 21:36:29.966891,90871,1609503362085544,962052092,-0.991616,-0.113216,0.017568,7.5425,0.34125,13.72,26.312002,-15.752001,6.288,concentric,3,3.0,21393.0,148911.0,238458.0,288583.0,267314.0
2026-04-08 21:36:29.968591,90872,1609503362100117,962066965,-0.991616,-0.113216,0.017568,-0.60375,0.9975,18.27875,26.312002,-15.752001,6.288,concentric,3,3.0,21393.0,148911.0,238458.0,288583.0,267314.0
2026-04-08 21:36:29.970261,90873,1609503362109143,962075674,-0.9272,-0.1464,0.203008,-8.47875,-1.82875,21.42,25.640001,-15.776001,7.16,concentric,3,3.0,21393.0,148911.0,238458.0,288583.0,267314.0
2026-04-08 21:36:29.974247,90874,1609503362118143,962084389,-0.9272,-0.1464,0.203008,-4.3225,-4.2525,21.79625,25.640001,-15.776001,7.16,concentric,3,3.0,21393.0,148911.0,238458.0,288583.0,267314.0
2026-04-08 21:36:29.980493,90875,1609503362132683,962099277,-1.0248,-0.132736,0.16592,9.44125,-2.94875,18.3575,25.768002,-16.336,6.112001,concentric,3,3.0,21393.0,148911.0,238458.0,288583.0,267314.0
2026-04-08 21:36:30.008964,90876,1609503362141637,962107986,-1.0248,-0.132736,0.16592,20.5275,-0.6125,17.7975,25.768002,-16.336,6.112001,concentric,3,3.0,21393.0,148911.0,238458.0,288583.0,267314.0
2026-04-08 21:36:30.013574,90877,1609503362156157,962122849,-1.089216,-0.044896,0.105408,19.78375,0.72625,19.25875,25.712002,-16.736,5.776001,concentric,3,3.0,21393.0,148911.0,238458.0,288583.0,267314.0
2026-04-08 21:36:30.015141,90878,1609503362165074,962131554,-1.030656,-0.015616,0.173728,13.99125,1.0675,19.285,25.512001,-17.08,5.912,concentric,3,3.0,21393.0,148911.0,238458.0,288583.0,267314.0
2026-04-08 21:36:30.047257,90889,1609503362179594,962146461,-1.030656,-0.015616,0.173728,5.6,-0.70875,21.665,25.512001,-17.08,5.912,concentric,3,3.0,21454.0,149200.0,238841.0,288889.0,267505.0
2026-04-08 21:36:30.048806,90890,1609503362188548,962155210,-0.99552,-0.044896,0.339648,0.175,-2.19625,24.87625,25.624,-17.056002,5.928001,concentric,3,3.0,21454.0,149200.0,238841.0,288889.0,267505.0
2026-04-08 21:36:30.052966,90891,1609503362197609,962163863,-0.99552,-0.044896,0.339648,0.04375,-3.14125,24.4475,25.624,-17.056002,5.928001,concentric,3,3.0,21454.0,149200.0,238841.0,288889.0,267505.0
2026-04-08 21:36:30.058866,90892,1609503362212093,962178829,-0.974048,-0.07808,0.212768,-0.63,-3.94625,26.075,24.664001,-17.408,7.64,concentric,3,3.0,21454.0,149200.0,238841.0,288889.0,267505.0
2026-04-08 21:36:30.091260,90893,1609503362221183,962187507,-0.974048,-0.07808,0.212768,1.72375,-4.795,28.1575,24.664001,-17.408,7.64,concentric,3,3.0,21454.0,149200.0,238841.0,288889.0,267505.0
2026-04-08 21:36:30.093553,90894,1609503362235656,962202371,-0.99552,-0.042944,0.0976,6.15125,-3.71875,30.03875,24.784,-18.016,5.792,concentric,3,3.0,21454.0,149200.0,238841.0,288889.0,267505.0
2026-04-08 21:36:30.098112,90895,1609503362244521,962211024,-0.99552,-0.042944,0.0976,9.905,-2.275,31.10625,24.784,-18.016,5.792,concentric,3,3.0,21454.0,149200.0,238841.0,288889.0,267505.0
2026-04-08 21:36:30.126579,90896,1609503362258982,962225872,-1.020896,0.001952,0.212768,11.52375,-1.51375,31.325,24.704,-17.984001,5.952,concentric,3,3.0,21454.0,149200.0,238841.0,288889.0,267505.0
2026-04-08 21:36:30.132372,90897,1609503362267999,962234571,-0.903776,0.013664,0.337696,9.52875,-1.82875,31.5875,24.904001,-18.08,5.8,concentric,3,3.0,21454.0,149200.0,238841.0,288889.0,267505.0
2026-04-08 21:36:30.160026,90908,1609503362277403,962243443,-0.903776,0.013664,0.337696,8.61,-2.56375,32.41,24.904001,-18.08,5.8,concentric,3,3.0,21527.0,149550.0,239290.0,289175.0,267685.0
2026-04-08 21:36:30.165624,90909,1609503362291971,962258348,-0.987712,0.025376,0.17568,11.52375,-2.2925,34.22125,24.496,-18.768002,5.6,concentric,3,3.0,21527.0,149550.0,239290.0,289175.0,267685.0
2026-04-08 21:36:30.167367,90910,1609503362300947,962267011,-0.987712,0.025376,0.17568,11.6025,-2.21375,35.91,24.496,-18.768002,5.6,concentric,3,3.0,21527.0,149550.0,239290.0,289175.0,267685.0
2026-04-08 21:36:30.168929,90911,1609503362315426,962281947,-0.981856,0.02928,0.066368,7.42,-0.81375,38.0275,23.784,-19.264002,6.520001,concentric,3,3.0,21527.0,149550.0,239290.0,289175.0,267685.0
2026-04-08 21:36:30.173004,90912,1609503362324354,962290632,-0.981856,0.02928,0.066368,2.415,1.07625,39.76,23.784,-19.264002,6.520001,concentric,3,3.0,21527.0,149550.0,239290.0,289175.0,267685.0
2026-04-08 21:36:30.231255,90913,1609503362333272,962299317,-0.981856,0.035136,0.111264,-2.70375,1.93375,41.06375,23.856,-19.664001,3.848,concentric,3,3.0,21527.0,149550.0,239290.0,289175.0,267685.0
2026-04-08 21:36:30.233487,90914,1609503362347757,962314164,-0.98576,0.013664,0.197152,-5.32875,1.93375,42.56875,23.880001,-19.856,3.48,concentric,3,3.0,21527.0,149550.0,239290.0,289175.0,267685.0
2026-04-08 21:36:30.238140,90915,1609503362356665,962322820,-0.98576,0.013664,0.197152,-1.26875,0.88375,44.4325,23.880001,-19.856,3.48,concentric,3,3.0,21527.0,149550.0,239290.0,289175.0,267685.0
2026-04-08 21:36:30.239853,90916,1609503362371151,962337736,-0.972096,0.013664,0.00976,6.965,0.83125,44.7825,23.456001,-20.176,5.72,concentric,3,3.0,21527.0,149550.0,239290.0,289175.0,267685.0
2026-04-08 21:36:30.269833,90927,1609503362380163,962346455,-0.972096,0.013664,0.00976,15.51375,3.85,42.9625,23.456001,-20.176,5.72,concentric,3,3.0,21623.0,149969.0,239744.0,289481.0,267842.0
2026-04-08 21:36:30.272271,90928,1609503362394702,962361349,-1.007232,0.105408,0.054656,17.35125,8.40875,42.37625,23.36,-21.016,5.392,concentric,3,3.0,21623.0,149969.0,239744.0,289481.0,267842.0
2026-04-08 21:36:30.273839,90929,1609503362403648,962370102,-1.007232,0.105408,0.054656,10.87625,11.48875,42.58625,23.36,-21.016,5.392,concentric,3,3.0,21623.0,149969.0,239744.0,289481.0,267842.0
2026-04-08 21:36:30.278117,90930,1609503362412641,962378897,-0.977952,0.101504,0.183488,1.70625,10.07125,44.275,23.024,-21.12,4.968,concentric,3,3.0,21623.0,149969.0,239744.0,289481.0,267842.0
2026-04-08 21:36:30.280567,90931,1609503362427136,962393794,-0.919392,0.113216,0.238144,-3.43,4.4975,45.85875,22.432001,-21.808,6.056,concentric,3,3.0,21623.0,149969.0,239744.0,289481.0,267842.0
2026-04-08 21:36:30.284237,90932,1609503362436135,962402474,-0.919392,0.113216,0.238144,-1.40875,-0.455,45.6575,22.432001,-21.808,6.056,concentric,3,3.0,21623.0,149969.0,239744.0,289481.0,267842.0
2026-04-08 21:36:30.312763,90933,1609503362450607,962417475,-0.915488,0.040992,0.121024,3.5525,-3.05375,44.73,22.608002,-22.224,5.936,concentric,3,3.0,21623.0,149969.0,239744.0,289481.0,267842.0
2026-04-08 21:36:30.316385,90934,1609503362459537,962426160,-0.915488,0.040992,0.121024,5.7575,-1.58375,44.00375,22.608002,-22.224,5.936,concentric,3,3.0,21623.0,149969.0,239744.0,289481.0,267842.0
2026-04-08 21:36:30.344881,90945,1609503362474015,962441059,-0.950624,0.115168,0.294752,3.19375,0.595,43.58375,22.032001,-22.448002,4.912,concentric,3,3.0,21713.0,150424.0,240290.0,289833.0,268091.0
2026-04-08 21:36:30.347307,90946,1609503362482954,962449845,-0.950624,0.115168,0.294752,-2.05625,2.31875,42.28875,22.032001,-22.448002,4.912,concentric,3,3.0,21713.0,150424.0,240290.0,289833.0,268091.0
2026-04-08 21:36:30.348945,90947,1609503362491987,962458595,-1.042368,0.154208,0.124928,-3.59625,2.1875,41.51,21.28,-22.792002,5.824,concentric,3,3.0,21713.0,150424.0,240290.0,289833.0,268091.0
2026-04-08 21:36:30.355485,90948,1609503362506495,962473460,-1.042368,0.154208,0.124928,-3.5,-3.745,42.14,21.28,-22.792002,5.824,concentric,3,3.0,21713.0,150424.0,240290.0,289833.0,268091.0
2026-04-08 21:36:30.384083,90949,1609503362515405,962482114,-0.925248,0.152256,0.128832,3.35125,-11.41,43.015,21.232,-23.344002,5.072,concentric,3,3.0,21713.0,150424.0,240290.0,289833.0,268091.0
2026-04-08 21:36:30.388562,90950,1609503362529869,962496999,-1.030656,0.089792,0.001952,11.6375,-14.9275,40.4425,21.048,-23.832,4.888,concentric,3,3.0,21713.0,150424.0,240290.0,289833.0,268091.0
2026-04-08 21:36:30.390123,90951,1609503362538774,962505677,-1.030656,0.089792,0.001952,11.57625,-13.76375,37.625,21.048,-23.832,4.888,concentric,3,3.0,21713.0,150424.0,240290.0,289833.0,268091.0
2026-04-08 21:36:30.421363,90952,1609503362553310,962518505,-1.04432,0.148352,0.076128,4.2875,-11.445,38.22,20.720001,-24.320002,4.976,concentric,3,3.0,21713.0,150424.0,240290.0,289833.0,268091.0
2026-04-08 21:36:30.425686,90953,1609503362562551,962529232,-1.04432,0.148352,0.076128,-1.84625,-11.795,38.98125,20.720001,-24.320002,4.976,concentric,3,3.0,21713.0,150424.0,240290.0,289833.0,268091.0
2026-04-08 21:36:30.427441,90954,1609503362571507,962537897,-0.983808,0.230336,0.267424,-1.3475,-12.90625,38.885,20.84,-24.392002,4.928001,concentric,3,3.0,21713.0,150424.0,240290.0,289833.0,268091.0
2026-04-08 21:36:30.460579,90965,1609503362586126,962552850,-0.983808,0.230336,0.267424,4.305,-15.68875,37.59875,20.84,-24.392002,4.928001,concentric,3,3.0,21735.0,150661.0,240602.0,290055.0,268284.0
2026-04-08 21:36:30.462452,90966,1609503362595174,962561549,-1.163392,0.134688,0.07808,11.4275,-14.18375,34.60625,20.112001,-24.696001,7.920001,concentric,3,3.0,21735.0,150661.0,240602.0,290055.0,268284.0
2026-04-08 21:36:30.465575,90967,1609503362609714,962576433,-1.0736,0.212768,0.152256,10.92,-11.03375,32.73375,19.736,-25.384,5.36,concentric,3,3.0,21735.0,150661.0,240602.0,290055.0,268284.0
2026-04-08 21:36:30.468099,90968,1609503362618656,962585147,-1.0736,0.212768,0.152256,9.0825,-6.39625,29.04125,19.736,-25.384,5.36,concentric,3,3.0,21735.0,150661.0,240602.0,290055.0,268284.0
2026-04-08 21:36:30.496607,90969,1609503362627579,962593832,-1.0736,0.212768,0.042944,9.17875,1.155,22.51375,19.736,-25.384,5.36,concentric,3,3.0,21735.0,150661.0,240602.0,290055.0,268284.0
2026-04-08 21:36:30.500974,90970,1609503362642103,962608716,-1.071648,0.28304,0.042944,1.98625,5.62625,18.43625,19.76,-25.2,4.48,concentric,3,3.0,21735.0,150661.0,240602.0,290055.0,268284.0
2026-04-08 21:36:30.535035,90971,1609503362651053,962617379,-0.983808,0.298656,0.294752,-7.105,4.6025,19.775,19.584002,-25.400002,4.936,concentric,3,3.0,21735.0,150661.0,240602.0,290055.0,268284.0
2026-04-08 21:36:30.537901,90972,1609503362665550,962632357,-0.983808,0.298656,0.294752,-13.895,2.89625,23.38875,19.584002,-25.400002,4.936,concentric,3,3.0,21735.0,150661.0,240602.0,290055.0,268284.0
2026-04-08 21:36:30.566924,90983,1609503362674469,962641352,-0.983808,0.210816,0.284992,-16.98375,1.46125,24.26375,19.84,-25.672,4.92,concentric,3,3.0,21965.0,151728.0,241903.0,291019.0,268885.0
2026-04-08 21:36:30.568606,90984,1609503362689013,962654188,-0.989664,0.226432,0.27328,-20.81625,-0.63,24.255,19.456001,-25.952002,3.816,concentric,3,3.0,21965.0,151728.0,241903.0,291019.0,268885.0
2026-04-08 21:36:30.570152,90985,1609503362698204,962664906,-0.989664,0.226432,0.27328,-20.7375,-1.58375,23.21375,19.456001,-25.952002,3.816,concentric,3,3.0,21965.0,151728.0,241903.0,291019.0,268885.0
2026-04-08 21:36:30.574369,90986,1609503362707141,962673616,-0.989664,0.226432,0.27328,-13.02875,1.4,18.66375,19.456001,-25.952002,3.816,concentric,3,3.0,21965.0,151728.0,241903.0,291019.0,268885.0
2026-04-08 21:36:30.576127,90987,1609503362721664,962688636,-1.05408,0.25376,0.284992,-7.97125,2.94875,15.00625,19.272001,-25.848001,6.384,concentric,3,3.0,21965.0,151728.0,241903.0,291019.0,268885.0
2026-04-08 21:36:30.577703,90988,1609503362730622,962697312,-1.077504,0.304512,0.226432,-1.72375,3.6575,15.82875,18.888,-25.992,5.960001,concentric,3,3.0,21965.0,151728.0,241903.0,291019.0,268885.0
2026-04-08 21:36:30.611553,90989,1609503362745114,962712176,-1.077504,0.304512,0.226432,3.605,3.92875,15.636251,18.888,-25.992,5.960001,concentric,3,3.0,21965.0,151728.0,241903.0,291019.0,268885.0
2026-04-08 21:36:30.615144,90990,1609503362754031,962720828,-1.016992,0.222528,0.193248,3.35125,0.7,14.30625,19.336,-26.656002,4.92,concentric,3,3.0,21965.0,151728.0,241903.0,291019.0,268885.0
2026-04-08 21:36:30.620645,90991,1609503362768511,962733665,-1.016992,0.222528,0.286944,1.26,-3.40375,13.7725,19.336,-26.656002,4.92,concentric,3,3.0,21965.0,151728.0,241903.0,291019.0,268885.0
2026-04-08 21:36:30.647601,91002,1609503362777840,962744423,-0.989664,0.277184,0.288896,-2.1,-5.32875,12.24125,19.312,-26.44,5.224001,concentric,3,3.0,22127.0,152378.0,242658.0,291504.0,269200.0
2026-04-08 21:36:30.650043,91003,1609503362786888,962753258,-0.989664,0.277184,0.288896,2.19625,-1.56625,6.8075,19.312,-26.44,5.224001,concentric,3,3.0,22127.0,152378.0,242658.0,291504.0,269200.0
2026-04-08 21:36:30.652564,91004,1609503362801453,962768212,-1.0736,0.298656,0.142496,2.975,3.35125,5.5475,19.232,-26.728,5.704001,concentric,3,3.0,22127.0,152378.0,242658.0,291504.0,269200.0
2026-04-08 21:36:30.656335,91005,1609503362810373,962776925,-1.136064,0.33184,0.115168,1.96875,7.83125,7.69125,19.008001,-26.776001,5.216,concentric,3,3.0,22127.0,152378.0,242658.0,291504.0,269200.0
2026-04-08 21:36:30.686572,91006,1609503362824863,962791792,-1.136064,0.33184,0.115168,-2.6425,9.8175,10.63125,19.008001,-26.776001,5.216,concentric,3,3.0,22127.0,152378.0,242658.0,291504.0,269200.0
2026-04-08 21:36:30.690127,91007,1609503362833893,962800450,-1.106784,0.318176,0.179584,-3.54375,10.22,11.917501,19.552,-27.160002,4.408,concentric,3,3.0,22127.0,152378.0,242658.0,291504.0,269200.0
2026-04-08 21:36:30.692611,91008,1609503362842832,962809141,-1.106784,0.318176,0.179584,-4.78625,10.63125,8.79375,19.552,-27.160002,4.408,concentric,3,3.0,22127.0,152378.0,242658.0,291504.0,269200.0
2026-04-08 21:36:30.722814,91009,1609503362857369,962824034,-1.03456,0.275232,0.199104,-7.21,10.22875,3.98125,19.448002,-27.136002,4.672,concentric,3,3.0,22127.0,152378.0,242658.0,291504.0,269200.0
2026-04-08 21:36:30.726401,91010,1609503362866264,962832683,-1.03456,0.275232,0.199104,-7.0525,9.03,-0.95375,19.448002,-27.136002,4.672,concentric,3,3.0,22127.0,152378.0,242658.0,291504.0,269200.0
2026-04-08 21:36:30.753859,91021,1609503362880891,962847600,-1.05408,0.316224,0.310368,-1.86375,8.28625,-5.2325,19.936,-27.296001,4.408,concentric,3,3.0,22064.0,152070.0,242185.0,291138.0,268995.0
2026-04-08 21:36:30.756386,91022,1609503362890005,962856325,-1.118496,0.363072,0.134688,2.555,6.58875,-4.55875,19.936,-27.296001,7.000001,concentric,3,3.0,22064.0,152070.0,242185.0,291138.0,268995.0
2026-04-08 21:36:30.758906,91023,1609503362898933,962865001,-1.118496,0.363072,0.134688,3.22,3.99875,-2.02125,19.456001,-27.368002,7.000001,concentric,3,3.0,22064.0,152070.0,242185.0,291138.0,268995.0
2026-04-08 21:36:30.761289,91024,1609503362913420,962879872,-1.001376,0.294752,0.28304,2.61625,1.855,-4.73375,19.560001,-27.44,5.656,concentric,3,3.0,22064.0,152070.0,242185.0,291138.0,268995.0
2026-04-08 21:36:30.767678,91025,1609503362922359,962888615,-1.001376,0.294752,0.28304,1.33875,-0.02625,-10.535,19.560001,-27.44,5.656,concentric,3,3.0,22064.0,152070.0,242185.0,291138.0,268995.0
2026-04-08 21:36:30.797870,91026,1609503362936836,962903493,-1.097024,0.316224,0.025376,0.0875,-0.60375,-14.2625,20.160002,-27.272001,3.92,concentric,3,3.0,22064.0,152070.0,242185.0,291138.0,268995.0
2026-04-08 21:36:30.834030,91027,1609503362945738,962912161,-1.097024,0.316224,0.025376,-0.72625,-0.16625,-14.945,20.160002,-27.272001,3.92,concentric,3,3.0,22064.0,152070.0,242185.0,291138.0,268995.0
2026-04-08 21:36:30.837551,91028,1609503362960248,962927041,-1.065792,0.335744,0.201056,-0.72625,-1.68875,-13.64125,20.36,-27.552002,3.992,concentric,3,3.0,22064.0,152070.0,242185.0,291138.0,268995.0
2026-04-08 21:36:30.840019,91029,1609503362969146,962935689,-1.065792,0.335744,0.201056,2.38875,-0.8925,-14.04375,20.36,-27.552002,3.992,concentric,3,3.0,22064.0,152070.0,242185.0,291138.0,268995.0
2026-04-08 21:36:30.871344,91040,1609503362983715,962950606,-1.143872,0.363072,0.218624,5.285,0.55125,-16.16125,20.68,-27.544,5.936,concentric,3,3.0,21878.0,151147.0,240877.0,290186.0,268466.0
2026-04-08 21:36:30.873811,91041,1609503362992657,962959288,-1.157536,0.452864,0.267424,5.8275,2.63375,-18.94375,20.872002,-27.536001,3.536,concentric,3,3.0,21878.0,151147.0,240877.0,290186.0,268466.0
2026-04-08 21:36:30.876280,91042,1609503363001624,962968032,-1.157536,0.452864,0.267424,4.8825,5.7925,-19.88875,20.872002,-27.536001,3.536,concentric,3,3.0,21878.0,151147.0,240877.0,290186.0,268466.0
2026-04-08 21:36:30.878862,91043,1609503363016166,962982973,-1.22,0.441152,0.138592,0.7,6.23875,-18.75125,20.952002,-27.136002,4.448,concentric,3,3.0,21878.0,151147.0,240877.0,290186.0,268466.0
2026-04-08 21:36:30.881272,91044,1609503363025066,962991630,-1.22,0.441152,0.138592,-7.84,5.6175,-18.50625,20.952002,-27.136002,4.448,concentric,3,3.0,21878.0,151147.0,240877.0,290186.0,268466.0
2026-04-08 21:36:30.886306,91045,1609503363039574,963006553,-1.077504,0.363072,0.35136,-15.68,4.445,-18.10375,21.632002,-27.264002,4.048,concentric,3,3.0,21878.0,151147.0,240877.0,290186.0,268466.0
2026-04-08 21:36:30.916482,91046,1609503363048525,963015244,-1.077504,0.363072,0.35136,-18.54125,3.3425,-16.94875,21.632002,-27.264002,4.048,concentric,3,3.0,21878.0,151147.0,240877.0,290186.0,268466.0
2026-04-08 21:36:30.920074,91047,1609503363057398,963023892,-1.186816,0.365024,0.093696,-14.3325,4.34875,-15.575,21.784,-27.072,4.576,concentric,3,3.0,21878.0,151147.0,240877.0,290186.0,268466.0
2026-04-08 21:36:30.922618,91048,1609503363071862,963038736,-1.241472,0.415776,0.085888,-8.2075,4.61125,-13.545,21.904001,-26.872002,3.192,concentric,3,3.0,21878.0,151147.0,240877.0,290186.0,268466.0
2026-04-08 21:36:30.950100,91059,1609503363081391,963047678,-1.241472,0.415776,0.085888,-3.99,3.26375,-13.4925,21.904001,-26.872002,3.192,concentric,3,3.0,21595.0,149806.0,239083.0,288849.0,267684.0
2026-04-08 21:36:30.952616,91060,1609503363095968,963062584,-1.221952,0.398208,0.245952,-3.38625,1.42625,-15.14625,21.392,-26.720001,4.696,concentric,3,3.0,21595.0,149806.0,239083.0,288849.0,267684.0
2026-04-08 21:36:30.955121,91061,1609503363105017,963071270,-1.221952,0.398208,0.245952,-5.215,-0.44625,-17.272501,21.392,-26.720001,4.696,concentric,3,3.0,21595.0,149806.0,239083.0,288849.0,267684.0
2026-04-08 21:36:30.985239,91062,1609503363119547,963086208,-1.13216,0.353312,0.28304,-6.2125,-3.045,-17.325,21.976002,-26.616001,4.664,concentric,3,3.0,21595.0,149806.0,239083.0,288849.0,267684.0
2026-04-08 21:36:30.988876,91063,1609503363128451,963094884,-1.13216,0.353312,0.28304,-9.03875,-5.48625,-15.77625,21.976002,-26.616001,4.664,concentric,3,3.0,21595.0,149806.0,239083.0,288849.0,267684.0
2026-04-08 21:36:30.996316,91064,1609503363137350,963103533,-1.098976,0.372832,0.265472,-12.9675,-7.2975,-13.15125,22.44,-26.880001,4.256,concentric,3,3.0,21595.0,149806.0,239083.0,288849.0,267684.0
2026-04-08 21:36:30.998866,91065,1609503363151857,963118388,-1.089216,0.308416,0.339648,-12.94125,-8.2775,-12.5125,22.44,-26.880001,6.288,concentric,3,3.0,21595.0,149806.0,239083.0,288849.0,267684.0
2026-04-08 21:36:31.029031,91066,1609503363160773,963127047,-1.089216,0.308416,0.339648,-7.67375,-7.2975,-13.8425,22.736002,-26.640001,6.288,concentric,3,3.0,21595.0,149806.0,239083.0,288849.0,267684.0
2026-04-08 21:36:31.032597,91067,1609503363175239,963141903,-1.120448,0.329888,0.089792,-10.12375,-6.37,-10.52625,22.296001,-27.000002,4.224,concentric,3,3.0,21595.0,149806.0,239083.0,288849.0,267684.0
2026-04-08 21:36:31.060098,91078,1609503363184317,963150630,-1.120448,0.329888,0.089792,-10.0625,-4.6375,-5.29375,22.296001,-27.000002,4.224,concentric,3,3.0,21539.0,149462.0,238571.0,288421.0,267403.0
2026-04-08 21:36:31.062569,91079,1609503363193259,963159300,-1.079456,0.242048,0.162016,-8.198751,-3.3425,-5.46875,22.016,-26.672,2.2,concentric,3,3.0,21539.0,149462.0,238571.0,288421.0,267403.0
2026-04-08 21:36:31.065098,91080,1609503363207826,963174189,-1.079456,0.242048,0.162016,-8.8025,-2.31,-5.41625,22.016,-26.672,2.2,concentric,3,3.0,21539.0,149462.0,238571.0,288421.0,267403.0
2026-04-08 21:36:31.067592,91081,1609503363216776,963182938,-1.128256,0.271328,0.11712,-7.1925,-1.51375,-0.88375,22.28,-26.480001,4.272,concentric,3,3.0,21539.0,149462.0,238571.0,288421.0,267403.0
