pc_time,serial_num,sensor_ts,host_ts,ax,ay,az,gx,gy,gz,mx,my,mz,phase,rpe,weight_kg,ppg_a,ppg_b,ppg_c,ppg_d,ppg_e
2026-04-08 21:37:57.004953,107226,1609503449084018,1049050431,-1.01504,0.171776,0.484096,-9.94,-11.17375,-7.30625,22.168001,-24.568,10.512,eccentric,4,3.0,21088.0,151649.0,243548.0,292092.0,269565.0
2026-04-08 21:37:57.005352,107227,1609503449098517,1049065280,-1.077504,0.167872,0.392352,-10.7625,-11.13875,-7.9975,21.984001,-24.616001,10.312,eccentric,4,3.0,21088.0,151649.0,243548.0,292092.0,269565.0
2026-04-08 21:37:57.005411,107228,1609503449107450,1049073972,-1.077504,0.167872,0.392352,-9.17875,-8.9425,-5.90625,21.984001,-24.616001,10.312,eccentric,4,3.0,21088.0,151649.0,243548.0,292092.0,269565.0
2026-04-08 21:37:57.005451,107229,1609503449121911,1049088837,-1.071648,0.210816,0.540704,-7.14875,-6.6325,-4.12125,21.920002,-24.488,10.424001,eccentric,4,3.0,21088.0,151649.0,243548.0,292092.0,269565.0
2026-04-08 21:37:57.005485,107230,1609503449130811,1049097486,-1.071648,0.210816,0.540704,-5.88875,-4.33125,-3.7625,21.920002,-24.488,10.424001,eccentric,4,3.0,21088.0,151649.0,243548.0,292092.0,269565.0
2026-04-08 21:37:57.016030,107241,1609503449139887,1049106233,-1.089216,0.191296,0.363072,-5.62625,-3.3775,-3.605,21.696001,-24.368002,11.544001,eccentric,4,3.0,20740.0,150395.0,242062.0,290980.0,268935.0
2026-04-08 21:37:57.018554,107242,1609503449154495,1049121123,-1.065792,0.158112,0.464576,-3.78875,-2.12625,-4.29625,21.584002,-24.304,11.52,eccentric,4,3.0,20740.0,150395.0,242062.0,290980.0,268935.0
2026-04-08 21:37:57.029118,107243,1609503449163420,1049129787,-1.065792,0.158112,0.464576,-0.63875,-0.67375,-5.285,21.584002,-24.304,11.52,eccentric,4,3.0,20740.0,150395.0,242062.0,290980.0,268935.0
2026-04-08 21:37:57.051210,107244,1609503449177912,1049144642,-1.013088,0.148352,0.355264,-0.55125,0.23625,-4.68125,21.384,-24.248001,11.328,eccentric,4,3.0,20740.0,150395.0,242062.0,290980.0,268935.0
2026-04-08 21:37:57.054774,107245,1609503449186883,1049153381,-1.013088,0.148352,0.355264,0.44625,2.09125,-2.61625,21.384,-24.248001,11.328,eccentric,4,3.0,20740.0,150395.0,242062.0,290980.0,268935.0
2026-04-08 21:37:57.057342,107246,1609503449201348,1049168236,-0.993568,0.18544,0.486048,3.6575,3.6925,-1.93375,21.672,-24.256,10.064,eccentric,4,3.0,20740.0,150395.0,242062.0,290980.0,268935.0
2026-04-08 21:37:57.062201,107247,1609503449210311,1049176933,-0.993568,0.18544,0.486048,3.33375,5.10125,-1.26875,21.672,-24.256,10.064,eccentric,4,3.0,20740.0,150395.0,242062.0,290980.0,268935.0
2026-04-08 21:37:57.092690,107248,1609503449219279,1049185626,-1.089216,0.251808,0.519232,2.35375,6.99125,0.665,21.408,-24.208002,10.904,eccentric,4,3.0,20740.0,150395.0,242062.0,290980.0,268935.0
2026-04-08 21:37:57.095997,107249,1609503449233757,1049200486,-1.085312,0.27328,0.560224,2.9225,10.78,1.5575,21.76,-24.136002,9.968,eccentric,4,3.0,20740.0,150395.0,242062.0,290980.0,268935.0
2026-04-08 21:37:57.129736,107260,1609503449242738,1049209171,-1.085312,0.27328,0.560224,6.53625,16.275,1.4175,21.76,-24.136002,9.968,eccentric,4,3.0,20399.0,149062.0,240452.0,289888.0,268322.0
2026-04-08 21:37:57.132161,107261,1609503449257232,1049224096,-1.21024,0.218624,0.308416,12.18875,23.44125,3.1325,21.368002,-24.536001,9.544001,eccentric,4,3.0,20399.0,149062.0,240452.0,289888.0,268322.0
2026-04-08 21:37:57.134705,107262,1609503449266275,1049232808,-1.21024,0.218624,0.308416,11.865,28.79625,10.0975,21.368002,-24.536001,9.544001,eccentric,4,3.0,20399.0,149062.0,240452.0,289888.0,268322.0
2026-04-08 21:37:57.137174,107263,1609503449275313,1049241497,-1.2688,0.275232,0.286944,10.36875,32.2175,17.15,21.456001,-24.384,9.480001,eccentric,4,3.0,20399.0,149062.0,240452.0,289888.0,268322.0
2026-04-08 21:37:57.142305,107264,1609503449289833,1049256396,-1.2688,0.275232,0.286944,11.17375,33.985,18.96125,21.456001,-24.384,9.480001,eccentric,4,3.0,20399.0,149062.0,240452.0,289888.0,268322.0
2026-04-08 21:37:57.176474,107265,1609503449298773,1049265155,-1.27856,0.296704,0.376736,11.48875,34.86,14.77875,21.312,-24.44,11.056001,eccentric,4,3.0,20399.0,149062.0,240452.0,289888.0,268322.0
2026-04-08 21:37:57.178720,107266,1609503449313266,1049280070,-1.27856,0.296704,0.345504,11.6025,34.1425,11.54125,21.312,-24.44,11.056001,eccentric,4,3.0,20399.0,149062.0,240452.0,289888.0,268322.0
2026-04-08 21:37:57.179077,107267,1609503449322174,1049288733,-1.243424,0.222528,0.357216,13.23875,32.1825,12.03125,21.256,-24.528002,8.536,eccentric,4,3.0,20399.0,149062.0,240452.0,289888.0,268322.0
2026-04-08 21:37:57.236532,107278,1609503449336770,1049303964,-1.159488,0.236192,0.472384,16.77375,28.875,14.761251,21.216002,-25.104002,8.480001,eccentric,4,3.0,20018.0,147483.0,238554.0,288658.0,267661.0
2026-04-08 21:37:57.238232,107279,1609503449345707,1049312727,-1.159488,0.236192,0.472384,24.54375,27.06375,16.52875,21.216002,-25.104002,8.480001,eccentric,4,3.0,20018.0,147483.0,238554.0,288658.0,267661.0
2026-04-08 21:37:57.240208,107280,1609503449354612,1049321377,-1.198528,0.300608,0.511424,31.885,27.69375,15.627501,20.888,-25.144001,7.08,eccentric,4,3.0,20018.0,147483.0,238554.0,288658.0,267661.0
2026-04-08 21:37:57.244038,107281,1609503449369179,1049336263,-1.198528,0.300608,0.511424,33.50375,24.22875,14.805,20.888,-25.144001,7.08,eccentric,4,3.0,20018.0,147483.0,238554.0,288658.0,267661.0
2026-04-08 21:37:57.246780,107282,1609503449378149,1049344950,-1.087264,0.277184,0.472384,26.39875,17.710001,12.792501,20.384,-24.848001,8.8,eccentric,4,3.0,20018.0,147483.0,238554.0,288658.0,267661.0
2026-04-08 21:37:57.280909,107283,1609503449392635,1049357808,-1.087264,0.277184,0.472384,16.28375,12.43375,8.16375,20.384,-24.848001,8.8,eccentric,4,3.0,20018.0,147483.0,238554.0,288658.0,267661.0
2026-04-08 21:37:57.283195,107284,1609503449401918,1049368574,-1.120448,0.160064,0.31232,11.52375,9.44125,5.08375,20.144001,-25.184002,8.808001,eccentric,4,3.0,20018.0,147483.0,238554.0,288658.0,267661.0
2026-04-08 21:37:57.287918,107285,1609503449416433,1049383436,-1.098976,0.189344,0.435296,15.225,8.785,7.315,20.504002,-25.224,5.6,eccentric,4,3.0,20018.0,147483.0,238554.0,288658.0,267661.0
2026-04-08 21:37:57.292025,107286,1609503449425313,1049392070,-1.098976,0.189344,0.435296,21.46375,10.64,9.1,20.504002,-25.224,5.6,eccentric,4,3.0,20018.0,147483.0,238554.0,288658.0,267661.0
2026-04-08 21:37:57.293512,107287,1609503449434264,1049400773,-1.098976,0.236192,0.333792,28.245,14.4025,6.8425,20.504002,-25.224,5.6,eccentric,4,3.0,20018.0,147483.0,238554.0,288658.0,267661.0
2026-04-08 21:37:57.324815,107298,1609503449448800,1049415664,-1.13216,0.245952,0.333792,34.62375,15.67125,4.64625,20.072,-25.288002,4.984,eccentric,4,3.0,20103.0,147775.0,238969.0,289085.0,267930.0
2026-04-08 21:37:57.327285,107299,1609503449457835,1049424339,-1.036512,0.279136,0.521184,31.96375,14.67375,1.28625,20.04,-25.176,8.648001,eccentric,4,3.0,20103.0,147775.0,238969.0,289085.0,267930.0
2026-04-08 21:37:57.329755,107300,1609503449472310,1049439223,-1.036512,0.279136,0.521184,20.44875,14.18375,-4.97,20.04,-25.176,8.648001,eccentric,4,3.0,20103.0,147775.0,238969.0,289085.0,267930.0
2026-04-08 21:37:57.332287,107301,1609503449481322,1049447938,-1.06384,0.22448,0.35136,8.47,14.3325,-7.455,20.304,-25.12,6.776001,eccentric,4,3.0,20103.0,147775.0,238969.0,289085.0,267930.0
2026-04-08 21:37:57.362467,107302,1609503449490291,1049456624,-1.06384,0.22448,0.35136,2.975,13.71125,-6.90375,20.304,-25.12,6.776001,eccentric,4,3.0,20103.0,147775.0,238969.0,289085.0,267930.0
2026-04-08 21:37:57.366074,107303,1609503449504773,1049471497,-1.046272,0.179584,0.40016,3.2725,15.93375,-6.7025,19.864,-24.848001,6.848001,eccentric,4,3.0,20103.0,147775.0,238969.0,289085.0,267930.0
2026-04-08 21:37:57.368526,107304,1609503449513695,1049480191,-1.046272,0.179584,0.40016,3.5,18.76875,-7.56,19.864,-24.848001,6.848001,eccentric,4,3.0,20103.0,147775.0,238969.0,289085.0,267930.0
2026-04-08 21:37:57.402488,107305,1609503449528186,1049495060,-1.091168,0.163968,0.203008,2.2225,21.67375,-10.03625,20.184,-24.736002,7.112001,eccentric,4,3.0,20103.0,147775.0,238969.0,289085.0,267930.0
2026-04-08 21:37:57.431005,107316,1609503449537102,1049503768,-0.972096,0.171776,0.275232,3.43,22.81125,-12.67875,20.080002,-24.68,6.968,eccentric,4,3.0,20478.0,149225.0,240848.0,290479.0,268713.0
2026-04-08 21:37:57.433509,107317,1609503449551883,1049518684,-0.972096,0.171776,0.275232,3.66625,21.95375,-14.49875,20.080002,-24.68,6.968,eccentric,4,3.0,20478.0,149225.0,240848.0,290479.0,268713.0
2026-04-08 21:37:57.436051,107318,1609503449560823,1049527395,-0.974048,0.11712,0.210816,7.00875,22.26875,-18.22625,19.960001,-24.44,6.456,eccentric,4,3.0,20478.0,149225.0,240848.0,290479.0,268713.0
2026-04-08 21:37:57.438492,107319,1609503449569768,1049536115,-0.974048,0.11712,0.210816,10.70125,21.77875,-19.43375,19.960001,-24.44,6.456,eccentric,4,3.0,20478.0,149225.0,240848.0,290479.0,268713.0
2026-04-08 21:37:57.441035,107320,1609503449584334,1049551063,-1.188768,0.13664,0.121024,9.5025,21.385,-18.78625,20.312,-24.112001,7.328001,eccentric,4,3.0,20478.0,149225.0,240848.0,290479.0,268713.0
2026-04-08 21:37:57.444844,107321,1609503449593248,1049559725,-1.188768,0.13664,0.121024,2.00375,19.57375,-17.045,20.312,-24.112001,7.328001,eccentric,4,3.0,20478.0,149225.0,240848.0,290479.0,268713.0
2026-04-08 21:37:57.476246,107322,1609503449607832,1049574641,-0.979904,0.177632,0.259616,-6.72,13.76375,-18.78625,20.256,-24.048,6.480001,eccentric,4,3.0,20478.0,149225.0,240848.0,290479.0,268713.0
2026-04-08 21:37:57.479763,107323,1609503449616758,1049583285,-0.950624,0.142496,0.42944,-6.125,10.47375,-28.14875,20.400002,-23.336,4.296,eccentric,4,3.0,20478.0,149225.0,240848.0,290479.0,268713.0
2026-04-08 21:37:57.482257,107324,1609503449631225,1049598135,-0.950624,0.142496,0.42944,-4.55,8.72375,-35.95375,20.400002,-23.336,4.296,eccentric,4,3.0,20478.0,149225.0,240848.0,290479.0,268713.0
2026-04-08 21:37:57.513532,107335,1609503449640515,1049606850,-1.013088,0.111264,0.218624,1.225,5.48625,-34.2475,20.768002,-23.336,7.288001,eccentric,4,3.0,20666.0,149909.0,241727.0,291077.0,269006.0
2026-04-08 21:37:57.516012,107336,1609503449649581,1049615563,-1.013088,0.111264,0.218624,10.99,4.2525,-30.415,20.768002,-23.336,7.288001,eccentric,4,3.0,20666.0,149909.0,241727.0,291077.0,269006.0
2026-04-08 21:37:57.518495,107337,1609503449664086,1049630455,-1.030656,0.154208,0.232288,17.5525,8.8025,-30.275,20.992,-22.960001,6.264,eccentric,4,3.0,20666.0,149909.0,241727.0,291077.0,269006.0
2026-04-08 21:37:57.523562,107338,1609503449673014,1049639153,-1.030656,0.154208,0.232288,13.9475,13.29125,-33.52125,20.992,-22.960001,6.264,eccentric,4,3.0,20666.0,149909.0,241727.0,291077.0,269006.0
2026-04-08 21:37:57.579619,107339,1609503449687535,1049654091,-1.00528,0.140544,0.21472,2.3975,15.44375,-38.78875,21.552002,-22.424002,6.04,eccentric,4,3.0,20666.0,149909.0,241727.0,291077.0,269006.0
2026-04-08 21:37:57.582357,107340,1609503449696435,1049662737,-1.016992,0.130784,0.240096,-7.21875,15.54875,-43.82875,21.552002,-21.968,6.376,eccentric,4,3.0,20666.0,149909.0,241727.0,291077.0,269006.0
2026-04-08 21:37:57.583862,107341,1609503449705391,1049671404,-1.016992,0.130784,0.240096,-11.5675,12.80125,-43.9075,21.688002,-21.968,6.376,eccentric,4,3.0,20666.0,149909.0,241727.0,291077.0,269006.0
2026-04-08 21:37:57.586029,107342,1609503449719872,1049686245,-0.862784,0.099552,0.15616,-13.02875,10.99875,-41.27375,21.792002,-21.640001,5.824,eccentric,4,3.0,20666.0,149909.0,241727.0,291077.0,269006.0
2026-04-08 21:37:57.588671,107343,1609503449728787,1049694927,-0.862784,0.099552,0.15616,-13.1775,11.83875,-42.420002,21.792002,-21.640001,5.824,eccentric,4,3.0,20666.0,149909.0,241727.0,291077.0,269006.0
2026-04-08 21:37:57.619825,107354,1609503449743470,1049710321,-0.925248,0.066368,0.01952,-11.45375,15.225,-44.7475,22.232,-21.584002,4.04,eccentric,4,3.0,20810.0,150315.0,242247.0,291462.0,269222.0
2026-04-08 21:37:57.622315,107355,1609503449752502,1049719011,-0.925248,0.066368,0.01952,-14.761251,16.065,-46.94375,22.232,-21.584002,4.04,eccentric,4,3.0,20810.0,150315.0,242247.0,291462.0,269222.0
2026-04-08 21:37:57.624844,107356,1609503449767073,1049733910,-1.011136,-0.0488,0.210816,-22.23375,13.93875,-47.27625,22.232,-20.824001,6.976,eccentric,4,3.0,20810.0,150315.0,242247.0,291462.0,269222.0
2026-04-08 21:37:57.627350,107357,1609503449776007,1049742595,-1.011136,-0.0488,0.210816,-29.855,8.7675,-46.795002,22.232,-20.824001,6.976,eccentric,4,3.0,20810.0,150315.0,242247.0,291462.0,269222.0
2026-04-08 21:37:57.659403,107358,1609503449784975,1049751276,-0.901824,0.05856,0.365024,-25.585001,5.1625,-47.8275,22.832,-20.312,6.952,eccentric,4,3.0,20810.0,150315.0,242247.0,291462.0,269222.0
2026-04-08 21:37:57.662590,107359,1609503449799477,1049766166,-0.880352,-0.035136,0.031232,-10.386251,9.6425,-54.075,23.064001,-19.800001,5.904,eccentric,4,3.0,20810.0,150315.0,242247.0,291462.0,269222.0
2026-04-08 21:37:57.664865,107360,1609503449808397,1049774904,-0.880352,-0.035136,0.031232,-3.21125,15.3475,-56.53375,23.064001,-19.800001,5.904,eccentric,4,3.0,20810.0,150315.0,242247.0,291462.0,269222.0
2026-04-08 21:37:57.695058,107361,1609503449822915,1049789802,-1.032608,-0.056608,-0.025376,-11.73375,19.87125,-53.655,23.544,-19.488,6.088,eccentric,4,3.0,20810.0,150315.0,242247.0,291462.0,269222.0
2026-04-08 21:37:57.698612,107362,1609503449831871,1049798471,-1.032608,-0.056608,-0.025376,-27.43125,19.897501,-51.23125,23.544,-19.488,6.088,eccentric,4,3.0,20810.0,150315.0,242247.0,291462.0,269222.0
2026-04-08 21:37:57.726036,107373,1609503449846418,1049813388,-0.960384,-0.03904,0.396256,-43.00625,15.44375,-50.435,23.616001,-18.712002,6.488,eccentric,4,3.0,20857.0,150435.0,242400.0,291514.0,269222.0
2026-04-08 21:37:57.728540,107374,1609503449855371,1049822076,-0.960384,-0.03904,0.396256,-45.57,8.32125,-51.205,23.616001,-18.712002,6.488,eccentric,4,3.0,20857.0,150435.0,242400.0,291514.0,269222.0
2026-04-08 21:37:57.731076,107375,1609503449864380,1049830750,-0.983808,0.025376,0.27328,-28.5425,7.91875,-54.013752,23.792002,-18.032001,8.752001,eccentric,4,3.0,20857.0,150435.0,242400.0,291514.0,269222.0
2026-04-08 21:37:57.734025,107376,1609503449878873,1049845632,-0.950624,-0.083936,0.201056,-8.26875,11.5325,-56.035,23.848001,-17.552,9.016001,eccentric,4,3.0,20857.0,150435.0,242400.0,291514.0,269222.0
2026-04-08 21:37:57.740138,107377,1609503449887812,1049854326,-0.950624,-0.083936,0.201056,-5.4425,10.05375,-54.5825,23.848001,-17.552,9.016001,eccentric,4,3.0,20857.0,150435.0,242400.0,291514.0,269222.0
2026-04-08 21:37:57.771279,107378,1609503449902291,1049869221,-1.03456,-0.162016,0.115168,-9.38875,9.511251,-54.215,24.872002,-17.04,6.472,eccentric,4,3.0,20857.0,150435.0,242400.0,291514.0,269222.0
2026-04-08 21:37:57.772943,107379,1609503449911217,1049877885,-1.03456,-0.162016,0.115168,-14.28875,6.5275,-55.7725,24.872002,-17.04,6.472,eccentric,4,3.0,20857.0,150435.0,242400.0,291514.0,269222.0
2026-04-08 21:37:57.777145,107380,1609503449925720,1049892744,-0.962336,-0.035136,0.193248,-18.5675,3.26375,-57.77625,25.064001,-16.752,6.432,eccentric,4,3.0,20857.0,150435.0,242400.0,291514.0,269222.0
2026-04-08 21:37:57.808864,107381,1609503449934635,1049901436,-0.962336,-0.035136,0.193248,-13.51,3.2025,-58.75625,25.064001,-16.752,6.432,eccentric,4,3.0,20857.0,150435.0,242400.0,291514.0,269222.0
2026-04-08 21:37:57.836248,107392,1609503449943773,1049910250,-0.866688,0.027328,0.11712,-2.79125,4.75125,-57.32125,25.632002,-15.664001,7.496,eccentric,4,3.0,20555.0,149312.0,241092.0,290613.0,268657.0
2026-04-08 21:37:57.837843,107393,1609503449958372,1049925113,-0.823744,-0.064416,0.269376,4.34,6.88625,-56.21875,25.704,-15.824,6.352,eccentric,4,3.0,20555.0,149312.0,241092.0,290613.0,268657.0
2026-04-08 21:37:57.841442,107394,1609503449967271,1049933769,-0.823744,-0.064416,0.269376,0.7875,8.79375,-54.8975,25.704,-15.824,6.352,eccentric,4,3.0,20555.0,149312.0,241092.0,290613.0,268657.0
2026-04-08 21:37:57.879682,107395,1609503449981827,1049948676,-0.8784,-0.099552,0.226432,-14.971251,8.225,-49.91875,25.616001,-14.928,6.584,eccentric,4,3.0,20555.0,149312.0,241092.0,290613.0,268657.0
2026-04-08 21:37:57.881931,107396,1609503449990782,1049957373,-0.8784,-0.099552,0.226432,-26.20625,5.1625,-45.3425,25.616001,-14.928,6.584,eccentric,4,3.0,20555.0,149312.0,241092.0,290613.0,268657.0
2026-04-08 21:37:57.886590,107397,1609503449999717,1049966064,-0.872544,-0.060512,0.158112,-22.6625,4.55,-43.72375,26.376001,-14.840001,6.432,eccentric,4,3.0,20555.0,149312.0,241092.0,290613.0,268657.0
2026-04-08 21:37:57.888401,107398,1609503450014210,1049980927,-0.872544,-0.060512,0.158112,-8.085,6.8075,-43.925,26.376001,-14.840001,6.432,eccentric,4,3.0,20555.0,149312.0,241092.0,290613.0,268657.0
2026-04-08 21:37:57.889927,107399,1609503450023126,1049989596,-0.837408,-0.066368,0.251808,-1.26,9.7125,-43.19,26.480001,-14.544001,6.424,eccentric,4,3.0,20555.0,149312.0,241092.0,290613.0,268657.0
2026-04-08 21:37:57.894205,107400,1609503450037590,1050004445,-0.837408,-0.066368,0.251808,-6.79875,11.40125,-40.15375,26.480001,-14.544001,6.424,eccentric,4,3.0,20555.0,149312.0,241092.0,290613.0,268657.0
2026-04-08 21:37:57.924127,107411,1609503450046574,1050013210,-0.931104,-0.080032,0.228384,-14.5775,13.81625,-37.1875,26.456001,-13.704,5.72,eccentric,4,3.0,20355.0,148450.0,240060.0,289866.0,268175.0
2026-04-08 21:37:57.925815,107412,1609503450061275,1050028108,-0.895968,-0.06832,0.324032,-22.89875,13.16875,-33.67875,26.232,-13.336,8.08,eccentric,4,3.0,20355.0,148450.0,240060.0,289866.0,268175.0
2026-04-08 21:37:57.927304,107413,1609503450070206,1050036829,-0.895968,-0.06832,0.324032,-25.83,9.70375,-27.965,26.232,-13.336,8.08,eccentric,4,3.0,20355.0,148450.0,240060.0,289866.0,268175.0
2026-04-08 21:37:57.931471,107414,1609503450079147,1050045546,-0.831552,-0.066368,0.181536,-17.045,7.7,-22.785,26.28,-13.456,6.872,eccentric,4,3.0,20355.0,148450.0,240060.0,289866.0,268175.0
2026-04-08 21:37:57.960032,107415,1609503450093718,1050060444,-0.831552,-0.066368,0.181536,-3.22,9.10875,-18.97875,26.28,-13.456,6.872,eccentric,4,3.0,20355.0,148450.0,240060.0,289866.0,268175.0
2026-04-08 21:37:57.963648,107416,1609503450102600,1050069112,-0.931104,-0.121024,0.284992,0.72625,9.75625,-13.62375,26.768002,-13.496,6.208,eccentric,4,3.0,20355.0,148450.0,240060.0,289866.0,268175.0
2026-04-08 21:37:57.971492,107417,1609503450117089,1050083948,-0.931104,-0.121024,0.284992,-4.57625,6.965,-7.42,26.768002,-13.496,6.208,eccentric,4,3.0,20355.0,148450.0,240060.0,289866.0,268175.0
2026-04-08 21:37:57.999977,107418,1609503450126038,1050092629,-0.970144,-0.13664,0.113216,-8.65375,4.13,-5.62625,26.584002,-13.072001,6.256001,eccentric,4,3.0,20355.0,148450.0,240060.0,289866.0,268175.0
2026-04-08 21:37:58.029503,107429,1609503450141001,1050107559,-0.96624,-0.089792,0.31232,-4.2525,3.745,-5.9675,27.04,-13.120001,7.192,eccentric,4,3.0,20356.0,148208.0,239681.0,289700.0,268111.0
2026-04-08 21:37:58.031183,107430,1609503450149986,1050116264,-0.96624,-0.089792,0.31232,5.52125,4.33125,-6.1425,27.04,-13.120001,7.192,eccentric,4,3.0,20356.0,148208.0,239681.0,289700.0,268111.0
2026-04-08 21:37:58.035550,107431,1609503450158985,1050124969,-0.96624,-0.074176,0.121024,10.75375,4.0425,-5.36375,27.04,-13.120001,7.192,eccentric,4,3.0,20356.0,148208.0,239681.0,289700.0,268111.0
2026-04-08 21:37:58.039479,107432,1609503450173503,1050139861,-1.016992,-0.070272,0.121024,14.8225,3.75375,-4.165,26.856,-13.504001,7.04,eccentric,4,3.0,20356.0,148208.0,239681.0,289700.0,268111.0
2026-04-08 21:37:58.040977,107433,1609503450182518,1050148583,-0.962336,-0.091744,0.062464,18.375,4.54125,-3.1325,26.344002,-13.408001,6.64,eccentric,4,3.0,20356.0,148208.0,239681.0,289700.0,268111.0
2026-04-08 21:37:58.072134,107434,1609503450197024,1050163457,-0.962336,-0.091744,0.062464,14.98875,5.34625,-1.28625,26.344002,-13.408001,6.64,eccentric,4,3.0,20356.0,148208.0,239681.0,289700.0,268111.0
2026-04-08 21:37:58.074403,107435,1609503450205963,1050172141,-0.993568,-0.11712,0.187392,8.51375,5.4075,-1.26875,26.832,-13.512001,5.84,eccentric,4,3.0,20356.0,148208.0,239681.0,289700.0,268111.0
2026-04-08 21:37:58.079051,107436,1609503450214877,1050180799,-0.993568,-0.11712,0.187392,3.54375,3.7975,-2.77375,26.832,-13.512001,5.84,eccentric,4,3.0,20356.0,148208.0,239681.0,289700.0,268111.0
2026-04-08 21:37:58.081531,107437,1609503450229405,1050195688,-1.03456,-0.138592,0.318176,3.49125,0.805,-4.8125,26.960001,-13.224001,6.016,eccentric,4,3.0,20356.0,148208.0,239681.0,289700.0,268111.0
2026-04-08 21:37:58.109965,107438,1609503450238309,1050204356,-1.03456,-0.138592,0.318176,9.511251,-1.3125,-6.88625,26.960001,-13.224001,6.016,eccentric,4,3.0,20356.0,148208.0,239681.0,289700.0,268111.0
2026-04-08 21:37:58.196219,107449,1609503450252892,1050219286,-0.960384,-0.093696,0.17568,20.1425,-0.48125,-7.09625,27.2,-13.368001,9.104,eccentric,4,3.0,20447.0,148532.0,240060.0,289927.0,268227.0
2026-04-08 21:37:58.200380,107450,1609503450261847,1050227940,-0.972096,-0.003904,0.20496,22.3475,1.05,-3.2375,27.12,-13.544001,5.624,eccentric,4,3.0,20447.0,148532.0,240060.0,289927.0,268227.0
2026-04-08 21:37:58.202322,107451,1609503450276316,1050242868,-0.972096,-0.003904,0.20496,13.7025,1.25125,2.0475,27.12,-13.544001,5.624,eccentric,4,3.0,20447.0,148532.0,240060.0,289927.0,268227.0
2026-04-08 21:37:58.204540,107452,1609503450285265,1050251532,-1.052128,-0.0976,0.138592,1.6275,0.9275,5.285,26.752,-13.448001,6.552001,eccentric,4,3.0,20447.0,148532.0,240060.0,289927.0,268227.0
2026-04-08 21:37:58.206149,107453,1609503450294146,1050260235,-1.052128,-0.0976,0.138592,-4.45375,0.105,5.88,26.752,-13.448001,6.552001,eccentric,4,3.0,20447.0,148532.0,240060.0,289927.0,268227.0
2026-04-08 21:37:58.209681,107454,1609503450308614,1050275116,-1.057984,-0.144448,0.228384,-2.4675,-1.1025,5.635,27.104002,-13.816001,5.744,concentric,4,3.0,20447.0,148532.0,240060.0,289927.0,268227.0
2026-04-08 21:37:58.211023,107455,1609503450317605,1050283783,-1.057984,-0.144448,0.228384,6.09,-1.30375,4.2525,27.104002,-13.816001,5.744,concentric,4,3.0,20447.0,148532.0,240060.0,289927.0,268227.0
2026-04-08 21:37:58.215412,107456,1609503450332065,1050298630,-0.977952,-0.074176,0.203008,15.8375,0.035,3.92,26.840002,-13.768001,5.824,concentric,4,3.0,20447.0,148532.0,240060.0,289927.0,268227.0
2026-04-08 21:37:58.247372,107467,1609503450340982,1050307330,-1.065792,-0.05856,0.021472,17.08875,0.30625,3.77125,26.760002,-13.744,6.544,concentric,4,3.0,20505.0,148641.0,240150.0,289952.0,268240.0
2026-04-08 21:37:58.251611,107468,1609503450355540,1050322551,-1.065792,-0.05856,0.021472,7.79625,0.28,3.535,26.760002,-13.744,6.544,concentric,4,3.0,20505.0,148641.0,240150.0,289952.0,268240.0
2026-04-08 21:37:58.253324,107469,1609503450364588,1050331286,-1.085312,-0.152256,0.046848,-3.38625,-0.97125,3.115,26.776001,-13.8,5.904,concentric,4,3.0,20505.0,148641.0,240150.0,289952.0,268240.0
2026-04-08 21:37:58.255752,107470,1609503450373541,1050340048,-1.085312,-0.152256,0.046848,-9.42375,-1.7325,1.68,26.776001,-13.8,5.904,concentric,4,3.0,20505.0,148641.0,240150.0,289952.0,268240.0
2026-04-08 21:37:58.257369,107471,1609503450388043,1050355004,-0.981856,-0.089792,0.288896,-6.67625,-1.37375,0.14875,26.6,-13.736001,4.752,concentric,4,3.0,20505.0,148641.0,240150.0,289952.0,268240.0
2026-04-08 21:37:58.261610,107472,1609503450397035,1050363671,-0.981856,-0.089792,0.288896,1.33,-1.25125,-0.30625,26.6,-13.736001,4.752,concentric,4,3.0,20505.0,148641.0,240150.0,289952.0,268240.0
2026-04-08 21:37:58.263153,107473,1609503450411527,1050378608,-1.01504,-0.0488,0.16592,5.4075,-2.16125,2.58125,26.512001,-14.160001,6.784,concentric,4,3.0,20505.0,148641.0,240150.0,289952.0,268240.0
2026-04-08 21:37:58.293455,107474,1609503450420459,1050387304,-1.01504,-0.0488,0.16592,5.03125,-3.91125,5.32,26.512001,-14.160001,6.784,concentric,4,3.0,20505.0,148641.0,240150.0,289952.0,268240.0
2026-04-08 21:37:58.295703,107475,1609503450434910,1050400144,-0.952576,-0.085888,0.18544,-0.2275,-5.6875,7.49875,26.968,-13.944,6.4,concentric,4,3.0,20505.0,148641.0,240150.0,289952.0,268240.0
2026-04-08 21:37:58.324659,107486,1609503450444555,1050411062,-0.960384,-0.154208,0.095648,-4.01625,-5.5475,9.135,26.776001,-14.312,5.544,concentric,4,3.0,20608.0,148999.0,240540.0,290261.0,268386.0
2026-04-08 21:37:58.326978,107487,1609503450453535,1050419841,-0.960384,-0.154208,0.095648,-7.58625,-4.34,10.21125,26.776001,-14.312,5.544,concentric,4,3.0,20608.0,148999.0,240540.0,290261.0,268386.0
2026-04-08 21:37:58.328525,107488,1609503450468018,1050434738,-0.977952,-0.115168,0.134688,-11.2525,-3.84125,11.2875,26.6,-14.208001,5.712,concentric,4,3.0,20608.0,148999.0,240540.0,290261.0,268386.0
2026-04-08 21:37:58.332624,107489,1609503450476943,1050443411,-0.977952,-0.115168,0.134688,-7.56,-3.395,10.36875,26.6,-14.208001,5.712,concentric,4,3.0,20608.0,148999.0,240540.0,290261.0,268386.0
2026-04-08 21:37:58.361168,107490,1609503450491403,1050458295,-0.929152,-0.072224,0.23424,-0.11375,-3.94625,9.275,26.752,-14.464001,6.064,concentric,4,3.0,20608.0,148999.0,240540.0,290261.0,268386.0
2026-04-08 21:37:58.365775,107491,1609503450500336,1050466987,-0.929152,-0.072224,0.23424,7.81375,-5.39,10.8675,26.752,-14.464001,6.064,concentric,4,3.0,20608.0,148999.0,240540.0,290261.0,268386.0
2026-04-08 21:37:58.367276,107492,1609503450509230,1050475646,-0.974048,-0.017568,0.277184,10.77125,-7.86625,14.2975,26.616001,-14.456,7.056,concentric,4,3.0,20608.0,148999.0,240540.0,290261.0,268386.0
2026-04-08 21:37:58.398341,107493,1609503450523769,1050490528,-0.991616,-0.027328,0.247904,8.09375,-9.31875,17.0975,26.296001,-14.536,9.080001,concentric,4,3.0,20608.0,148999.0,240540.0,290261.0,268386.0
2026-04-08 21:37:58.402898,107494,1609503450532690,1050499180,-0.991616,-0.027328,0.247904,3.17625,-8.6975,19.94125,26.296001,-14.536,9.080001,concentric,4,3.0,20608.0,148999.0,240540.0,290261.0,268386.0
2026-04-08 21:37:58.433602,107505,1609503450547326,1050514445,-0.968192,-0.062464,0.257664,-2.63375,-8.0325,21.83125,25.576002,-15.280001,5.776001,concentric,4,3.0,20647.0,149170.0,240781.0,290450.0,268475.0
2026-04-08 21:37:58.437788,107506,1609503450556240,1050523142,-0.968192,-0.062464,0.257664,-6.65,-8.68,23.63375,25.576002,-15.280001,5.776001,concentric,4,3.0,20647.0,149170.0,240781.0,290450.0,268475.0
2026-04-08 21:37:58.439517,107507,1609503450570784,1050535966,-0.981856,-0.060512,0.179584,-6.95625,-9.80875,25.55,25.592001,-15.720001,7.04,concentric,4,3.0,20647.0,149170.0,240781.0,290450.0,268475.0
2026-04-08 21:37:58.441142,107508,1609503450580010,1050546754,-0.981856,-0.060512,0.179584,0.0,-10.66625,25.2175,25.592001,-15.720001,7.04,concentric,4,3.0,20647.0,149170.0,240781.0,290450.0,268475.0
2026-04-08 21:37:58.445446,107509,1609503450588933,1050555440,-0.94672,-0.091744,0.144448,8.33875,-9.66,25.01625,25.672,-15.544001,4.6,concentric,4,3.0,20647.0,149170.0,240781.0,290450.0,268475.0
2026-04-08 21:37:58.478394,107510,1609503450603427,1050570349,-0.960384,-0.066368,0.167872,10.535,-7.8225,24.17625,25.904001,-15.712001,5.824,concentric,4,3.0,20647.0,149170.0,240781.0,290450.0,268475.0
2026-04-08 21:37:58.480598,107511,1609503450612347,1050579008,-0.960384,-0.066368,0.167872,6.43125,-4.1125,25.27875,25.904001,-15.712001,5.824,concentric,4,3.0,20647.0,149170.0,240781.0,290450.0,268475.0
2026-04-08 21:37:58.485142,107512,1609503450626837,1050593851,-1.065792,-0.035136,0.296704,-3.10625,-2.24875,25.83,25.376001,-16.096,6.152,concentric,4,3.0,20647.0,149170.0,240781.0,290450.0,268475.0
2026-04-08 21:37:58.489322,107513,1609503450635759,1050602524,-1.065792,-0.035136,0.296704,-10.24625,-4.62,25.47125,25.376001,-16.096,6.152,concentric,4,3.0,20647.0,149170.0,240781.0,290450.0,268475.0
2026-04-08 21:37:58.522264,107524,1609503450650294,1050615506,-0.890112,-0.076128,0.37088,-9.8175,-8.12,23.56375,25.424002,-16.184,6.088,concentric,4,3.0,20703.0,149502.0,241169.0,290682.0,268609.0
2026-04-08 21:37:58.526532,107525,1609503450659580,1050626282,-0.890112,-0.076128,0.37088,-2.9925,-9.93125,22.58375,25.424002,-16.184,6.088,concentric,4,3.0,20703.0,149502.0,241169.0,290682.0,268609.0
2026-04-08 21:37:58.528971,107526,1609503450668526,1050634949,-0.812032,-0.013664,0.349408,6.7725,-10.19375,24.00125,24.776001,-16.624,6.920001,concentric,4,3.0,20703.0,149502.0,241169.0,290682.0,268609.0
2026-04-08 21:37:58.557492,107527,1609503450683052,1050649838,-0.827648,0.062464,0.242048,9.59,-9.94,28.875,24.776001,-17.256,7.112001,concentric,4,3.0,20703.0,149502.0,241169.0,290682.0,268609.0
2026-04-08 21:37:58.561944,107528,1609503450691976,1050658519,-0.827648,0.062464,0.242048,5.76625,-11.2875,36.79375,24.744001,-17.256,7.112001,concentric,4,3.0,20703.0,149502.0,241169.0,290682.0,268609.0
2026-04-08 21:37:58.563509,107529,1609503450706448,1050673369,-0.804224,-0.011712,0.306464,-0.14875,-14.88375,45.7275,24.584002,-17.296001,6.36,concentric,4,3.0,20703.0,149502.0,241169.0,290682.0,268609.0
2026-04-08 21:37:58.567633,107530,1609503450715412,1050682046,-0.804224,-0.011712,0.306464,-4.83,-20.4575,51.86125,24.584002,-17.296001,6.36,concentric,4,3.0,20703.0,149502.0,241169.0,290682.0,268609.0
2026-04-08 21:37:58.596260,107531,1609503450724407,1050690724,-0.74176,-0.062464,0.425536,0.27125,-26.32,55.64125,23.808,-18.296001,6.816001,concentric,4,3.0,20703.0,149502.0,241169.0,290682.0,268609.0
2026-04-08 21:37:58.600672,107532,1609503450738887,1050705562,-0.74176,-0.062464,0.425536,13.3525,-28.69125,58.415,23.808,-18.296001,6.816001,concentric,4,3.0,20703.0,149502.0,241169.0,290682.0,268609.0
2026-04-08 21:37:58.630772,107543,1609503450747931,1050714338,-0.778848,0.046848,0.158112,29.02375,-23.31,60.01625,23.248001,-18.976002,6.184001,concentric,4,3.0,20840.0,150069.0,241881.0,291090.0,268812.0
2026-04-08 21:37:58.632293,107544,1609503450762437,1050729229,-0.778848,0.046848,0.158112,35.34125,-14.525,60.78625,23.248001,-18.976002,6.184001,concentric,4,3.0,20840.0,150069.0,241881.0,291090.0,268812.0
2026-04-08 21:37:58.636453,107545,1609503450771396,1050737952,-0.9272,0.070272,0.111264,24.491251,-8.95125,63.41125,22.736002,-19.296001,7.192,concentric,4,3.0,20840.0,150069.0,241881.0,291090.0,268812.0
2026-04-08 21:37:58.640163,107546,1609503450785925,1050752812,-0.997472,0.013664,0.294752,5.80125,-8.6625,66.38625,22.04,-20.096,8.296001,concentric,4,3.0,20840.0,150069.0,241881.0,291090.0,268812.0
2026-04-08 21:37:58.668826,107547,1609503450794872,1050761551,-0.997472,0.013664,0.294752,-9.73875,-16.03875,65.905,22.04,-20.096,8.296001,concentric,4,3.0,20840.0,150069.0,241881.0,291090.0,268812.0
2026-04-08 21:37:58.673315,107548,1609503450803821,1050770291,-0.940864,0.044896,0.236192,-6.74625,-22.46125,64.225,22.04,-20.392,5.808,concentric,4,3.0,20840.0,150069.0,241881.0,291090.0,268812.0
2026-04-08 21:37:58.674796,107549,1609503450818309,1050785146,-0.940864,0.044896,0.236192,11.31375,-22.89875,60.48,22.112001,-20.392,5.808,concentric,4,3.0,20840.0,150069.0,241881.0,291090.0,268812.0
2026-04-08 21:37:58.680183,107550,1609503450827232,1050793810,-0.968192,0.13664,0.093696,32.41875,-22.05,57.076252,21.456001,-21.632002,6.168,concentric,4,3.0,20840.0,150069.0,241881.0,291090.0,268812.0
2026-04-08 21:37:58.708730,107551,1609503450841700,1050808671,-0.968192,0.13664,0.093696,42.9275,-18.45375,55.475,21.456001,-21.632002,6.168,concentric,4,3.0,20840.0,150069.0,241881.0,291090.0,268812.0
2026-04-08 21:37:58.737470,107562,1609503450850670,1050817323,-0.997472,0.062464,0.22448,28.42,-20.88625,56.7525,21.072,-22.032001,5.224001,concentric,4,3.0,20673.0,149462.0,241201.0,290644.0,268508.0
2026-04-08 21:37:58.741547,107563,1609503450865180,1050832229,-0.903776,0.005856,0.304512,3.77125,-24.98125,57.09375,20.528002,-22.368002,7.896,concentric,4,3.0,20673.0,149462.0,241201.0,290644.0,268508.0
2026-04-08 21:37:58.744713,107564,1609503450874112,1050840897,-0.903776,0.005856,0.304512,-6.01125,-26.9325,51.35375,20.528002,-22.368002,7.896,concentric,4,3.0,20673.0,149462.0,241201.0,290644.0,268508.0
2026-04-08 21:37:58.779268,107565,1609503450883057,1050849597,-0.903776,0.005856,0.304512,-5.9325,-27.23875,43.8375,20.528002,-22.368002,7.896,concentric,4,3.0,20673.0,149462.0,241201.0,290644.0,268508.0
2026-04-08 21:37:58.780950,107566,1609503450897574,1050864485,-0.85888,0.109312,0.128832,-1.645,-25.1825,41.16875,20.288,-22.712002,8.728001,concentric,4,3.0,20673.0,149462.0,241201.0,290644.0,268508.0
2026-04-08 21:37:58.782403,107567,1609503450906505,1050873148,-0.94672,0.152256,0.20496,8.1375,-22.60125,40.95875,20.016,-23.256,6.88,concentric,4,3.0,20673.0,149462.0,241201.0,290644.0,268508.0
2026-04-08 21:37:58.792836,107568,1609503450920983,1050888009,-0.94672,0.152256,0.20496,16.51125,-20.3175,40.80125,20.016,-23.256,6.88,concentric,4,3.0,20673.0,149462.0,241201.0,290644.0,268508.0
2026-04-08 21:37:58.794593,107569,1609503450929885,1050896657,-0.979904,0.091744,0.173728,12.27625,-22.225,42.84875,19.584002,-23.864,6.784,concentric,4,3.0,20673.0,149462.0,241201.0,290644.0,268508.0
2026-04-08 21:37:58.821203,107580,1609503450944444,1050911520,-0.901824,0.083936,0.318176,1.5225,-21.49875,44.065,19.584002,-23.864,6.784,concentric,4,3.0,20827.0,150033.0,241838.0,291051.0,268782.0
2026-04-08 21:37:58.824530,107581,1609503450953898,1050920248,-0.892064,0.083936,0.318176,-6.8425,-18.4625,42.98875,19.184,-24.256,6.848001,concentric,4,3.0,20827.0,150033.0,241838.0,291051.0,268782.0
2026-04-08 21:37:58.826216,107582,1609503450962870,1050929002,-0.892064,0.083936,0.318176,-11.54125,-13.895,42.7525,19.184,-24.256,6.848001,concentric,4,3.0,20827.0,150033.0,241838.0,291051.0,268782.0
2026-04-08 21:37:58.830167,107583,1609503450977389,1050943944,-0.958432,0.193248,0.1952,-10.85875,-9.79125,41.7025,18.76,-24.288002,7.456,concentric,4,3.0,20827.0,150033.0,241838.0,291051.0,268782.0
2026-04-08 21:37:58.860143,107584,1609503450986387,1050952653,-0.853024,0.210816,0.42944,-6.95625,-10.185,39.5675,18.728,-24.584002,8.88,concentric,4,3.0,20827.0,150033.0,241838.0,291051.0,268782.0
2026-04-08 21:37:58.863452,107585,1609503451000881,1050967498,-0.853024,0.210816,0.42944,-4.27,-13.93875,36.2075,18.728,-24.584002,8.88,concentric,4,3.0,20827.0,150033.0,241838.0,291051.0,268782.0
2026-04-08 21:37:58.864837,107586,1609503451009795,1050976177,-0.94672,0.115168,0.109312,-0.95375,-16.05625,32.92625,18.320002,-25.104002,7.152,concentric,4,3.0,20827.0,150033.0,241838.0,291051.0,268782.0
2026-04-08 21:37:58.871496,107587,1609503451018767,1050984851,-0.94672,0.115168,0.109312,-3.71,-14.2625,32.585,18.320002,-25.104002,7.152,concentric,4,3.0,20827.0,150033.0,241838.0,291051.0,268782.0
2026-04-08 21:37:58.900082,107588,1609503451033256,1050999708,-0.991616,0.134688,0.113216,-9.52875,-9.79125,32.83875,17.864,-25.608002,7.144001,concentric,4,3.0,20827.0,150033.0,241838.0,291051.0,268782.0
2026-04-08 21:37:58.904627,107589,1609503451042175,1051008376,-0.991616,0.134688,0.113216,-11.31375,-5.67875,31.7625,17.864,-25.608002,7.144001,concentric,4,3.0,20827.0,150033.0,241838.0,291051.0,268782.0
2026-04-08 21:37:58.933331,107600,1609503451056743,1051023312,-0.972096,0.218624,0.402112,-11.20875,-2.96625,28.0525,18.160002,-25.776001,6.920001,concentric,4,3.0,20931.0,150427.0,242265.0,291337.0,268930.0
2026-04-08 21:37:58.934571,107601,1609503451065696,1051032044,-1.01504,0.279136,0.197152,-12.04875,-4.375,25.82125,18.048,-26.112001,5.456,concentric,4,3.0,20931.0,150427.0,242265.0,291337.0,268930.0
2026-04-08 21:37:58.940188,107602,1609503451080234,1051046920,-1.01504,0.279136,0.197152,-10.5875,-4.76875,25.47125,18.048,-26.112001,5.456,concentric,4,3.0,20931.0,150427.0,242265.0,291337.0,268930.0
2026-04-08 21:37:58.942148,107603,1609503451089170,1051055657,-1.071648,0.294752,0.193248,-4.4975,-6.8775,23.49375,17.504002,-26.544,7.992001,concentric,4,3.0,20931.0,150427.0,242265.0,291337.0,268930.0
2026-04-08 21:37:58.969992,107604,1609503451098138,1051064328,-1.071648,0.294752,0.193248,2.87875,-4.47125,19.7925,17.504002,-26.544,7.992001,concentric,4,3.0,20931.0,150427.0,242265.0,291337.0,268930.0
2026-04-08 21:37:58.973556,107605,1609503451112599,1051079172,-1.16144,0.240096,0.162016,8.05,2.30125,14.8575,17.944,-26.680002,6.84,concentric,4,3.0,20931.0,150427.0,242265.0,291337.0,268930.0
2026-04-08 21:37:58.976060,107606,1609503451121480,1051087809,-1.16144,0.240096,0.162016,0.2975,4.82125,13.06375,17.944,-26.680002,6.84,concentric,4,3.0,20931.0,150427.0,242265.0,291337.0,268930.0
2026-04-08 21:37:59.006281,107607,1609503451135925,1051102676,-1.1224,0.300608,0.275232,-7.74375,6.44875,4.48875,18.256,-26.640001,6.816001,concentric,4,3.0,20931.0,150427.0,242265.0,291337.0,268930.0
2026-04-08 21:37:59.034759,107618,1609503451144860,1051111373,-1.1224,0.300608,0.275232,-11.68125,4.3575,-6.69375,18.256,-26.640001,6.816001,concentric,4,3.0,20967.0,150599.0,242452.0,291502.0,269087.0
2026-04-08 21:37:59.037331,107619,1609503451159378,1051126241,-1.114592,0.304512,0.236192,-20.81625,-1.63625,-4.54125,18.384,-26.872002,6.76,concentric,4,3.0,20967.0,150599.0,242452.0,291502.0,269087.0
2026-04-08 21:37:59.039833,107620,1609503451168321,1051134998,-1.114592,0.240096,0.4392,-24.5875,-8.7675,-0.49,18.064001,-26.736002,8.848001,concentric,4,3.0,20967.0,150599.0,242452.0,291502.0,269087.0
2026-04-08 21:37:59.042337,107621,1609503451177270,1051143687,-1.114592,0.240096,0.4392,-21.60375,-12.71375,-4.50625,18.064001,-26.736002,8.848001,concentric,4,3.0,20967.0,150599.0,242452.0,291502.0,269087.0
2026-04-08 21:37:59.080067,107622,1609503451191791,1051158582,-1.192672,0.206912,0.197152,-18.87375,-15.89875,-9.0825,18.216002,-26.592001,9.104,concentric,4,3.0,20967.0,150599.0,242452.0,291502.0,269087.0
2026-04-08 21:37:59.083530,107623,1609503451200725,1051167274,-1.192672,0.206912,0.197152,-15.5925,-16.0125,-10.675,18.216002,-26.592001,9.104,concentric,4,3.0,20967.0,150599.0,242452.0,291502.0,269087.0
2026-04-08 21:37:59.086103,107624,1609503451215202,1051182144,-1.194624,0.324032,0.2928,-15.5575,-14.23625,-13.1775,18.76,-27.264002,7.528,concentric,4,3.0,20967.0,150599.0,242452.0,291502.0,269087.0
2026-04-08 21:37:59.088561,107625,1609503451224112,1051190801,-1.194624,0.324032,0.2928,-16.9225,-12.20625,-19.32,18.76,-27.264002,7.528,concentric,4,3.0,20967.0,150599.0,242452.0,291502.0,269087.0
2026-04-08 21:37:59.091259,107626,1609503451238598,1051205655,-1.19072,0.365024,0.355264,-21.1225,-10.7275,-23.2575,19.368,-26.656002,5.8,concentric,4,3.0,20967.0,150599.0,242452.0,291502.0,269087.0
2026-04-08 21:37:59.121254,107637,1609503451247920,1051214402,-1.16144,0.343552,0.521184,-26.18875,-10.3775,-22.8025,19.28,-26.480001,8.584001,concentric,4,3.0,21151.0,151187.0,243053.0,291929.0,269387.0
2026-04-08 21:37:59.123589,107638,1609503451256946,1051223232,-1.16144,0.343552,0.521184,-31.19375,-9.52,-22.84625,19.28,-26.480001,8.584001,concentric,4,3.0,21151.0,151187.0,243053.0,291929.0,269387.0
2026-04-08 21:37:59.126139,107639,1609503451271453,1051238112,-1.214144,0.324032,0.38064,-30.6075,-8.25125,-22.58375,19.928001,-26.328001,8.744,concentric,4,3.0,21151.0,151187.0,243053.0,291929.0,269387.0
2026-04-08 21:37:59.132308,107640,1609503451280402,1051246790,-1.214144,0.324032,0.38064,-30.51125,-4.0775,-23.94875,19.928001,-26.328001,8.744,concentric,4,3.0,21151.0,151187.0,243053.0,291929.0,269387.0
2026-04-08 21:37:59.162521,107641,1609503451294891,1051261691,-1.260992,0.320128,0.437248,-35.04375,0.6825,-29.2425,20.240002,-25.952002,9.496,concentric,4,3.0,21151.0,151187.0,243053.0,291929.0,269387.0
2026-04-08 21:37:59.166170,107642,1609503451303808,1051270368,-1.260992,0.320128,0.437248,-45.10625,1.42625,-30.93125,20.240002,-25.952002,9.496,concentric,4,3.0,21151.0,151187.0,243053.0,291929.0,269387.0
2026-04-08 21:37:59.170089,107643,1609503451318338,1051285210,-1.22,0.3416,0.388448,-56.8925,-2.5725,-28.93625,20.728,-25.672,8.88,concentric,4,3.0,21151.0,151187.0,243053.0,291929.0,269387.0
2026-04-08 21:37:59.200031,107644,1609503451327309,1051293874,-1.196576,0.25376,0.37088,-59.01875,-6.86875,-30.4325,20.960001,-25.488,10.592001,concentric,4,3.0,21151.0,151187.0,243053.0,291929.0,269387.0
2026-04-08 21:37:59.203671,107645,1609503451336250,1051302601,-1.196576,0.25376,0.37088,-52.38625,-8.1025,-34.53625,20.960001,-25.488,10.592001,concentric,4,3.0,21151.0,151187.0,243053.0,291929.0,269387.0
2026-04-08 21:37:59.231198,107656,1609503451350980,1051317520,-1.208288,0.220576,0.366976,-43.225,-10.85875,-35.245,21.256,-25.568,9.472,concentric,4,3.0,21354.0,151917.0,243924.0,292623.0,269757.0
2026-04-08 21:37:59.233693,107657,1609503451359964,1051326188,-1.208288,0.220576,0.366976,-35.09625,-13.15125,-31.15875,21.256,-25.568,9.472,concentric,4,3.0,21354.0,151917.0,243924.0,292623.0,269757.0
2026-04-08 21:37:59.236431,107658,1609503451374437,1051341066,-1.214144,0.339648,0.376736,-27.30875,-14.1575,-25.59375,21.472,-24.712002,11.312,concentric,4,3.0,21354.0,151917.0,243924.0,292623.0,269757.0
2026-04-08 21:37:59.242442,107659,1609503451383434,1051349772,-1.214144,0.339648,0.376736,-21.37625,-15.74125,-22.9775,21.472,-24.712002,11.312,concentric,4,3.0,21354.0,151917.0,243924.0,292623.0,269757.0
2026-04-08 21:37:59.244832,107660,1609503451392386,1051358462,-1.255136,0.343552,0.3904,-22.02375,-18.31375,-24.82375,21.592001,-24.76,11.544001,concentric,4,3.0,21354.0,151917.0,243924.0,292623.0,269757.0
2026-04-08 21:37:59.275140,107661,1609503451406854,1051373355,-1.255136,0.343552,0.3904,-21.56,-20.64125,-24.955,21.592001,-24.76,11.544001,concentric,4,3.0,21354.0,151917.0,243924.0,292623.0,269757.0
2026-04-08 21:37:59.278521,107662,1609503451415790,1051382035,-1.280512,0.347456,0.655872,-19.11,-22.4875,-21.385,22.128,-24.624,10.288,concentric,4,3.0,21354.0,151917.0,243924.0,292623.0,269757.0
2026-04-08 21:37:59.281074,107663,1609503451430266,1051396921,-1.303936,0.372832,0.450912,-16.65125,-23.24875,-17.8675,22.048,-24.728,10.6,concentric,4,3.0,21354.0,151917.0,243924.0,292623.0,269757.0
2026-04-08 21:37:59.311356,107664,1609503451439201,1051405597,-1.303936,0.372832,0.450912,-13.18625,-23.66875,-14.77,22.048,-24.728,10.6,concentric,4,3.0,21354.0,151917.0,243924.0,292623.0,269757.0
2026-04-08 21:37:59.341067,107675,1609503451453824,1051420514,-1.198528,0.3904,0.52704,-10.78,-24.15,-11.34875,22.2,-24.496,10.864,concentric,4,3.0,21424.0,152262.0,244289.0,292828.0,269873.0
