pc_time,serial_num,sensor_ts,host_ts,ax,ay,az,gx,gy,gz,mx,my,mz,phase,rpe,weight_kg,ppg_a,ppg_b,ppg_c,ppg_d,ppg_e
2026-04-08 21:37:59.379825,107676,1609503451462732,1051429265,-1.198528,0.3904,0.52704,-7.88375,-24.29875,-7.07875,22.2,-24.496,10.864,eccentric,4,3.0,21424.0,152262.0,244289.0,292828.0,269873.0
2026-04-08 21:37:59.382069,107677,1609503451471642,1051438012,-1.21024,0.28304,0.474336,-6.72875,-24.78875,-1.77625,21.992,-24.6,11.768001,eccentric,4,3.0,21424.0,152262.0,244289.0,292828.0,269873.0
2026-04-08 21:37:59.386676,107678,1609503451486189,1051452943,-1.21024,0.28304,0.474336,-3.52625,-23.12625,1.95125,21.992,-24.6,11.768001,eccentric,4,3.0,21424.0,152262.0,244289.0,292828.0,269873.0
2026-04-08 21:37:59.388361,107679,1609503451495116,1051461613,-1.167296,0.306464,0.622688,2.625,-18.69,3.59625,21.792002,-24.656002,11.888001,eccentric,4,3.0,21424.0,152262.0,244289.0,292828.0,269873.0
2026-04-08 21:37:59.390745,107680,1609503451509607,1051476465,-1.065792,0.296704,0.612928,6.72875,-14.13125,7.16625,21.728,-24.800001,10.888001,eccentric,4,3.0,21424.0,152262.0,244289.0,292828.0,269873.0
2026-04-08 21:37:59.392323,107681,1609503451518524,1051485143,-1.065792,0.296704,0.612928,8.8375,-11.01625,10.2025,21.728,-24.800001,10.888001,eccentric,4,3.0,21424.0,152262.0,244289.0,292828.0,269873.0
2026-04-08 21:37:59.396635,107682,1609503451532995,1051500053,-1.145824,0.275232,0.425536,7.7,-7.49875,10.07125,21.224,-24.920002,11.192,eccentric,4,3.0,21424.0,152262.0,244289.0,292828.0,269873.0
2026-04-08 21:37:59.398363,107683,1609503451541903,1051508746,-1.145824,0.275232,0.425536,6.79875,-5.76625,10.56125,21.224,-24.920002,11.192,eccentric,4,3.0,21424.0,152262.0,244289.0,292828.0,269873.0
2026-04-08 21:37:59.460341,107694,1609503451551501,1051517740,-0.977952,0.244,0.593408,8.46125,-5.495,13.02875,20.528002,-25.008001,12.296001,eccentric,4,3.0,21533.0,152717.0,244691.0,292909.0,269933.0
2026-04-08 21:37:59.462069,107695,1609503451566013,1051532720,-0.977952,0.244,0.593408,13.02875,-5.88,13.3525,20.528002,-25.008001,12.296001,eccentric,4,3.0,21533.0,152717.0,244691.0,292909.0,269933.0
2026-04-08 21:37:59.463701,107696,1609503451574946,1051541384,-0.993568,0.226432,0.509472,15.81125,-7.2275,10.9025,20.808,-24.840002,10.552,eccentric,4,3.0,21533.0,152717.0,244691.0,292909.0,269933.0
2026-04-08 21:37:59.467805,107697,1609503451589436,1051556251,-1.056032,0.238144,0.306464,19.53875,-8.86375,10.31625,20.648,-25.296001,9.92,eccentric,4,3.0,21533.0,152717.0,244691.0,292909.0,269933.0
2026-04-08 21:37:59.469489,107698,1609503451598492,1051564960,-1.056032,0.238144,0.306464,24.92,-9.84375,11.8825,20.648,-25.296001,9.92,eccentric,4,3.0,21533.0,152717.0,244691.0,292909.0,269933.0
2026-04-08 21:37:59.471202,107699,1609503451607498,1051573695,-1.056032,0.238144,0.306464,32.76,-9.02125,11.1825,20.648,-25.296001,9.92,eccentric,4,3.0,21533.0,152717.0,244691.0,292909.0,269933.0
2026-04-08 21:37:59.475155,107700,1609503451621979,1051588593,-1.022848,0.245952,0.474336,38.5,-5.7225,7.1225,20.368,-25.776001,10.208,eccentric,4,3.0,21533.0,152717.0,244691.0,292909.0,269933.0
2026-04-08 21:37:59.503704,107701,1609503451630928,1051597253,-1.032608,0.32208,0.413824,37.205,-4.29625,5.92375,20.136002,-25.800001,9.128,eccentric,4,3.0,21533.0,152717.0,244691.0,292909.0,269933.0
2026-04-08 21:37:59.508367,107702,1609503451645379,1051612087,-1.032608,0.32208,0.413824,35.83125,-4.13875,6.685,20.136002,-25.800001,9.128,eccentric,4,3.0,21533.0,152717.0,244691.0,292909.0,269933.0
2026-04-08 21:37:59.541096,107713,1609503451654370,1051620848,-1.13216,0.355264,0.597312,39.26125,-4.0775,7.0525,19.880001,-26.192001,9.824,eccentric,4,3.0,21322.0,151744.0,243483.0,292044.0,269431.0
2026-04-08 21:37:59.543546,107714,1609503451668898,1051635693,-1.13216,0.386496,0.482144,40.635,-4.3225,9.8,19.880001,-26.192001,9.824,eccentric,4,3.0,21322.0,151744.0,243483.0,292044.0,269431.0
2026-04-08 21:37:59.547852,107715,1609503451677928,1051644366,-1.108736,0.376736,0.482144,38.3425,-3.6925,11.90875,19.400002,-25.688002,8.616,eccentric,4,3.0,21322.0,151744.0,243483.0,292044.0,269431.0
2026-04-08 21:37:59.550260,107716,1609503451686967,1051653093,-1.108736,0.376736,0.482144,35.56875,-2.135,10.7625,19.400002,-25.688002,8.616,eccentric,4,3.0,21322.0,151744.0,243483.0,292044.0,269431.0
2026-04-08 21:37:59.554370,107717,1609503451701443,1051668068,-1.202432,0.417728,0.466528,32.3225,-0.65625,9.21375,19.312,-26.144001,9.952001,eccentric,4,3.0,21322.0,151744.0,243483.0,292044.0,269431.0
2026-04-08 21:37:59.584717,107718,1609503451710390,1051676769,-1.120448,0.349408,0.5856,28.035,-0.30625,9.28375,18.512001,-26.072,9.160001,eccentric,4,3.0,21322.0,151744.0,243483.0,292044.0,269431.0
2026-04-08 21:37:59.589249,107719,1609503451724836,1051691616,-1.120448,0.349408,0.5856,25.75125,-0.41125,10.2725,18.512001,-26.072,9.160001,eccentric,4,3.0,21322.0,151744.0,243483.0,292044.0,269431.0
2026-04-08 21:37:59.590705,107720,1609503451733795,1051700287,-1.059936,0.267424,0.36112,24.8325,0.18375,9.03875,19.184,-26.456001,8.76,eccentric,4,3.0,21322.0,151744.0,243483.0,292044.0,269431.0
2026-04-08 21:37:59.685434,107732,1609503451748308,1051715220,-1.059936,0.267424,0.36112,25.19125,1.365,6.79,19.184,-26.456001,8.76,eccentric,4,3.0,21217.0,151214.0,242801.0,291654.0,269257.0
2026-04-08 21:37:59.687071,107733,1609503451757246,1051724022,-1.069696,0.345504,0.538752,25.68125,2.14375,5.95875,18.904001,-26.528002,13.072001,eccentric,4,3.0,21217.0,151214.0,242801.0,291654.0,269257.0
2026-04-08 21:37:59.689541,107734,1609503451766262,1051732694,-1.069696,0.345504,0.538752,25.64625,2.56375,5.285,18.904001,-26.528002,13.072001,eccentric,4,3.0,21217.0,151214.0,242801.0,291654.0,269257.0
2026-04-08 21:37:59.691100,107735,1609503451780720,1051747571,-1.059936,0.304512,0.431392,26.48625,3.3775,3.0275,18.504002,-26.640001,8.328,eccentric,4,3.0,21217.0,151214.0,242801.0,291654.0,269257.0
2026-04-08 21:37:59.695471,107736,1609503451789724,1051756252,-1.059936,0.304512,0.542656,24.29875,4.41875,1.4525,18.504002,-26.640001,8.328,eccentric,4,3.0,21217.0,151214.0,242801.0,291654.0,269257.0
2026-04-08 21:37:59.697031,107737,1609503451804288,1051771147,-1.03456,0.288896,0.542656,21.3325,4.6375,1.42625,18.792002,-26.728,8.408,eccentric,4,3.0,21217.0,151214.0,242801.0,291654.0,269257.0
2026-04-08 21:37:59.698702,107738,1609503451813198,1051779808,-1.016992,0.314272,0.488,19.99375,4.235,1.39125,18.448,-26.448002,7.864,eccentric,4,3.0,21217.0,151214.0,242801.0,291654.0,269257.0
2026-04-08 21:37:59.702858,107739,1609503451827650,1051794652,-1.016992,0.314272,0.488,20.01125,5.17125,0.2625,18.448,-26.448002,7.864,eccentric,4,3.0,21217.0,151214.0,242801.0,291654.0,269257.0
2026-04-08 21:37:59.704494,107740,1609503451836576,1051803319,-1.098976,0.310368,0.255712,22.81125,7.51625,-0.28875,18.024,-26.192001,8.08,eccentric,4,3.0,21217.0,151214.0,242801.0,291654.0,269257.0
2026-04-08 21:37:59.707104,107741,1609503451845532,1051812024,-1.098976,0.310368,0.255712,19.80125,7.72625,-0.25375,18.024,-26.192001,8.08,eccentric,4,3.0,21217.0,151214.0,242801.0,291654.0,269257.0
2026-04-08 21:37:59.738852,107752,1609503451860118,1051826972,-1.059936,0.26352,0.411872,13.02,6.79,-3.00125,17.624,-26.168001,8.696,eccentric,4,3.0,21062.0,150654.0,242122.0,291206.0,269030.0
2026-04-08 21:37:59.740269,107753,1609503451869053,1051835649,-1.059936,0.26352,0.411872,7.20125,5.8275,-4.9,17.624,-26.168001,8.696,eccentric,4,3.0,21062.0,150654.0,242122.0,291206.0,269030.0
2026-04-08 21:37:59.741524,107754,1609503451883514,1051850543,-1.009184,0.240096,0.406016,7.49875,5.0225,-5.74875,17.576,-25.936,8.328,eccentric,4,3.0,21062.0,150654.0,242122.0,291206.0,269030.0
2026-04-08 21:37:59.745622,107755,1609503451892473,1051859243,-0.954528,0.242048,0.316224,13.09875,6.9475,-8.435,17.592001,-26.160002,7.744,eccentric,4,3.0,21062.0,150654.0,242122.0,291206.0,269030.0
2026-04-08 21:37:59.775995,107756,1609503451906997,1051874158,-0.954528,0.242048,0.316224,18.1125,8.67125,-10.5525,17.592001,-26.160002,7.744,eccentric,4,3.0,21062.0,150654.0,242122.0,291206.0,269030.0
2026-04-08 21:37:59.780331,107757,1609503451915997,1051882818,-0.962336,0.183488,0.267424,14.49,8.54875,-12.81875,17.832,-26.024002,7.424,eccentric,4,3.0,21062.0,150654.0,242122.0,291206.0,269030.0
2026-04-08 21:37:59.782737,107758,1609503451924936,1051891498,-0.962336,0.183488,0.267424,4.235,6.4925,-13.4925,17.832,-26.024002,7.424,eccentric,4,3.0,21062.0,150654.0,242122.0,291206.0,269030.0
2026-04-08 21:37:59.811134,107759,1609503451939437,1051906349,-0.915488,0.18544,0.521184,-4.47125,6.11625,-12.075,17.952002,-25.760002,7.36,eccentric,4,3.0,21062.0,150654.0,242122.0,291206.0,269030.0
2026-04-08 21:37:59.840755,107770,1609503451948369,1051915465,-0.915488,0.18544,0.521184,-5.32875,7.105,-12.67,17.952002,-25.760002,7.36,eccentric,4,3.0,20990.0,150382.0,241824.0,291009.0,268891.0
2026-04-08 21:37:59.842315,107771,1609503451962875,1051928276,-0.895968,0.212768,0.304512,3.2375,11.12125,-15.72375,17.808,-25.696001,7.296001,eccentric,4,3.0,20990.0,150382.0,241824.0,291009.0,268891.0
2026-04-08 21:37:59.846614,107772,1609503451972005,1051939029,-0.923296,0.255712,0.398208,11.97,14.46375,-17.50875,17.44,-25.312,8.408,eccentric,4,3.0,20990.0,150382.0,241824.0,291009.0,268891.0
2026-04-08 21:37:59.848267,107773,1609503451980922,1051947713,-0.923296,0.255712,0.398208,15.68875,15.05,-16.38875,17.44,-25.312,8.408,eccentric,4,3.0,20990.0,150382.0,241824.0,291009.0,268891.0
2026-04-08 21:37:59.849819,107774,1609503451995400,1051960612,-1.011136,0.163968,0.193248,9.5725,13.93875,-15.68875,17.376001,-25.016,8.352,eccentric,4,3.0,20990.0,150382.0,241824.0,291009.0,268891.0
2026-04-08 21:37:59.880934,107775,1609503452004650,1051971380,-1.011136,0.163968,0.193248,-3.91125,12.71375,-13.62375,17.376001,-25.016,8.352,eccentric,4,3.0,20990.0,150382.0,241824.0,291009.0,268891.0
2026-04-08 21:37:59.883240,107776,1609503452019174,1051986254,-0.95648,0.173728,0.255712,-10.0975,13.27375,-12.6525,18.312,-25.296001,7.144001,eccentric,4,3.0,20990.0,150382.0,241824.0,291009.0,268891.0
2026-04-08 21:37:59.887849,107777,1609503452028110,1051994922,-0.95648,0.173728,0.255712,-6.65,16.7825,-15.645,18.312,-25.296001,7.144001,eccentric,4,3.0,20990.0,150382.0,241824.0,291009.0,268891.0
2026-04-08 21:37:59.894401,107778,1609503452042622,1052007774,-1.036512,0.238144,0.269376,-1.995,18.725,-17.38625,18.224,-24.952002,7.264,eccentric,4,3.0,20990.0,150382.0,241824.0,291009.0,268891.0
2026-04-08 21:37:59.928679,107789,1609503452052000,1052018554,-0.972096,0.142496,0.228384,1.5925,17.40375,-17.64875,18.224,-24.68,6.792,eccentric,4,3.0,20880.0,149977.0,241472.0,290836.0,268795.0
2026-04-08 21:37:59.933314,107790,1609503452061003,1052027327,-0.972096,0.142496,0.228384,4.31375,14.9625,-19.0925,18.336,-24.68,6.792,eccentric,4,3.0,20880.0,149977.0,241472.0,290836.0,268795.0
2026-04-08 21:37:59.934831,107791,1609503452075523,1052042253,-0.952576,0.144448,0.445056,0.48125,10.73625,-19.915,18.056002,-24.248001,7.448,eccentric,4,3.0,20880.0,149977.0,241472.0,290836.0,268795.0
2026-04-08 21:37:59.938930,107792,1609503452084440,1052050910,-0.952576,0.144448,0.445056,-6.8775,10.71875,-20.65875,18.056002,-24.248001,7.448,eccentric,4,3.0,20880.0,149977.0,241472.0,290836.0,268795.0
2026-04-08 21:37:59.976158,107793,1609503452098913,1052065768,-0.913536,0.187392,0.37088,-6.18625,12.32,-24.36,18.384,-24.296001,6.672,eccentric,4,3.0,20880.0,149977.0,241472.0,290836.0,268795.0
2026-04-08 21:37:59.979779,107794,1609503452107856,1052074454,-0.913536,0.187392,0.37088,0.2625,13.55375,-27.57125,18.384,-24.296001,6.672,eccentric,4,3.0,20880.0,149977.0,241472.0,290836.0,268795.0
2026-04-08 21:37:59.983365,107795,1609503452116798,1052083114,-0.987712,0.238144,0.277184,5.145,13.448751,-29.49625,18.488,-23.704,6.544,eccentric,4,3.0,20880.0,149977.0,241472.0,290836.0,268795.0
2026-04-08 21:37:59.985388,107796,1609503452131261,1052097955,-0.987712,0.238144,0.277184,3.05375,10.99875,-28.848751,18.488,-23.704,6.544,eccentric,4,3.0,20880.0,149977.0,241472.0,290836.0,268795.0
2026-04-08 21:38:00.013840,107797,1609503452140211,1052106634,-0.99552,0.171776,0.236192,-8.1375,7.3675,-25.43625,18.328001,-23.816002,8.176001,eccentric,4,3.0,20880.0,149977.0,241472.0,290836.0,268795.0
2026-04-08 21:38:00.043695,107808,1609503452154959,1052121583,-1.00528,0.130784,0.206912,-20.1075,9.82625,-25.0775,19.056002,-23.184002,6.944,eccentric,4,3.0,20800.0,149623.0,241120.0,290627.0,268632.0
2026-04-08 21:38:00.045974,107809,1609503452163910,1052130260,-1.00528,0.130784,0.206912,-25.64625,15.9075,-29.56625,19.056002,-23.184002,6.944,eccentric,4,3.0,20800.0,149623.0,241120.0,290627.0,268632.0
2026-04-08 21:38:00.047566,107810,1609503452178420,1052145143,-1.013088,0.238144,0.423584,-25.865,20.30875,-35.525,19.080002,-22.736002,7.232,eccentric,4,3.0,20800.0,149623.0,241120.0,290627.0,268632.0
2026-04-08 21:38:00.051819,107811,1609503452187409,1052153813,-1.013088,0.238144,0.423584,-27.29125,21.0875,-38.5525,19.080002,-22.736002,7.232,eccentric,4,3.0,20800.0,149623.0,241120.0,290627.0,268632.0
2026-04-08 21:38:00.054623,107812,1609503452196360,1052162513,-0.882304,0.173728,0.454816,-26.565,18.6725,-38.66625,19.456001,-22.736002,6.928001,eccentric,4,3.0,20800.0,149623.0,241120.0,290627.0,268632.0
2026-04-08 21:38:00.083558,107813,1609503452210850,1052177428,-0.882304,0.173728,0.454816,-24.9725,15.2775,-36.12,19.456001,-22.736002,6.928001,eccentric,4,3.0,20800.0,149623.0,241120.0,290627.0,268632.0
2026-04-08 21:38:00.085723,107814,1609503452219775,1052186123,-0.9272,0.070272,0.199104,-23.45,11.85625,-36.35625,19.752,-22.12,7.36,eccentric,4,3.0,20800.0,149623.0,241120.0,290627.0,268632.0
2026-04-08 21:38:00.090376,107815,1609503452234269,1052200993,-0.962336,0.091744,0.206912,-24.15,10.29,-38.9375,19.872002,-21.560001,7.520001,eccentric,4,3.0,20800.0,149623.0,241120.0,290627.0,268632.0
2026-04-08 21:38:00.118831,107816,1609503452243182,1052209646,-0.962336,0.091744,0.206912,-20.685,12.565,-44.31,19.872002,-21.560001,7.520001,eccentric,4,3.0,20800.0,149623.0,241120.0,290627.0,268632.0
2026-04-08 21:38:00.156096,107827,1609503452257754,1052224597,-0.911584,0.099552,0.46848,-17.35125,15.46125,-50.47875,20.352001,-21.416,7.232,eccentric,4,3.0,20806.0,149635.0,241193.0,290676.0,268585.0
2026-04-08 21:38:00.158633,107828,1609503452266683,1052233331,-0.911584,0.099552,0.46848,-21.6825,12.17125,-50.5925,20.352001,-21.416,7.232,eccentric,4,3.0,20806.0,149635.0,241193.0,290676.0,268585.0
2026-04-08 21:38:00.161090,107829,1609503452275609,1052241983,-0.796416,0.132736,0.402112,-20.3875,8.44375,-46.935,20.752,-20.872002,7.736001,eccentric,4,3.0,20806.0,149635.0,241193.0,290676.0,268585.0
2026-04-08 21:38:00.163596,107830,1609503452290173,1052256875,-0.796416,0.132736,0.402112,-12.285,7.3675,-46.27,20.752,-20.872002,7.736001,eccentric,4,3.0,20806.0,149635.0,241193.0,290676.0,268585.0
2026-04-08 21:38:00.166138,107831,1609503452299218,1052265613,-0.81984,0.076128,0.284992,-5.5475,8.53125,-49.455,21.160002,-20.016,8.248,eccentric,4,3.0,20806.0,149635.0,241193.0,290676.0,268585.0
2026-04-08 21:38:00.168596,107832,1609503452313715,1052280522,-0.882304,-0.05856,0.236192,-4.83,11.19125,-53.357502,21.568,-20.04,7.024,eccentric,4,3.0,20806.0,149635.0,241193.0,290676.0,268585.0
2026-04-08 21:38:00.174943,107833,1609503452322714,1052289225,-0.882304,-0.05856,0.236192,-16.765,14.51625,-54.04875,21.568,-20.04,7.024,eccentric,4,3.0,20806.0,149635.0,241193.0,290676.0,268585.0
2026-04-08 21:38:00.208698,107834,1609503452337132,1052304089,-0.892064,0.046848,0.542656,-33.635,13.93,-52.2025,21.880001,-19.312,8.424001,eccentric,4,3.0,20806.0,149635.0,241193.0,290676.0,268585.0
2026-04-08 21:38:00.211294,107835,1609503452346068,1052312820,-0.892064,0.046848,0.542656,-38.2375,13.20375,-50.4,21.880001,-19.312,8.424001,eccentric,4,3.0,20806.0,149635.0,241193.0,290676.0,268585.0
2026-04-08 21:38:00.238644,107846,1609503452355493,1052321789,-0.905728,0.0488,0.261568,-26.2675,12.1625,-51.388752,22.168001,-18.944,7.496,eccentric,4,3.0,20757.0,149366.0,240867.0,290401.0,268395.0
2026-04-08 21:38:00.241254,107847,1609503452370013,1052336734,-0.905728,0.0488,0.261568,-10.71,13.15125,-54.416252,22.168001,-18.944,7.496,eccentric,4,3.0,20757.0,149366.0,240867.0,290401.0,268395.0
2026-04-08 21:38:00.243669,107848,1609503452379054,1052345411,-0.813984,0.017568,0.396256,-7.105,12.74,-53.935,22.624,-18.480001,7.272,eccentric,4,3.0,20757.0,149366.0,240867.0,290401.0,268395.0
2026-04-08 21:38:00.277519,107849,1609503452393638,1052360277,-0.813984,0.033184,0.3416,-9.45,13.4225,-50.6275,22.624,-18.480001,7.272,eccentric,4,3.0,20757.0,149366.0,240867.0,290401.0,268395.0
2026-04-08 21:38:00.281146,107850,1609503452402630,1052368962,-0.96624,0.031232,0.3416,-14.8225,13.37875,-47.285,22.744001,-17.784,7.208,eccentric,4,3.0,20757.0,149366.0,240867.0,290401.0,268395.0
2026-04-08 21:38:00.286064,107851,1609503452411537,1052377615,-0.96624,0.031232,0.3416,-19.897501,11.06875,-45.24625,22.744001,-17.784,7.208,eccentric,4,3.0,20757.0,149366.0,240867.0,290401.0,268395.0
2026-04-08 21:38:00.288597,107852,1609503452425994,1052392487,-0.972096,-0.033184,0.281088,-15.49625,11.73375,-47.888752,23.064001,-17.752,7.8,eccentric,4,3.0,20757.0,149366.0,240867.0,290401.0,268395.0
2026-04-08 21:38:00.291079,107853,1609503452434893,1052401164,-0.854976,-0.027328,0.413824,-8.09375,13.3875,-52.7625,23.576,-17.208,7.224001,eccentric,4,3.0,20757.0,149366.0,240867.0,290401.0,268395.0
2026-04-08 21:38:00.321438,107854,1609503452449477,1052416084,-0.854976,-0.027328,0.413824,-3.08,17.5875,-54.62625,23.576,-17.208,7.224001,eccentric,4,3.0,20757.0,149366.0,240867.0,290401.0,268395.0
2026-04-08 21:38:00.353624,107865,1609503452458610,1052424830,-1.013088,0.015616,0.163968,-4.3575,17.63125,-52.99,23.656002,-16.816,7.616,eccentric,4,3.0,20691.0,148996.0,240410.0,290011.0,268122.0
2026-04-08 21:38:00.357921,107866,1609503452473123,1052439692,-1.013088,0.015616,0.163968,-13.99125,14.48125,-49.00875,23.656002,-16.816,7.616,eccentric,4,3.0,20691.0,148996.0,240410.0,290011.0,268122.0
2026-04-08 21:38:00.359534,107867,1609503452482027,1052448368,-0.890112,0.013664,0.232288,-17.745,14.14,-46.05125,24.296001,-15.888001,6.544,eccentric,4,3.0,20691.0,148996.0,240410.0,290011.0,268122.0
2026-04-08 21:38:00.361112,107868,1609503452491005,1052457150,-0.890112,0.013664,0.232288,-16.66875,18.76,-46.27,24.296001,-15.888001,6.544,eccentric,4,3.0,20691.0,148996.0,240410.0,290011.0,268122.0
2026-04-08 21:38:00.364540,107869,1609503452505511,1052472088,-0.958432,-0.066368,0.28304,-23.05625,20.8775,-44.66,24.400002,-16.048,7.496,eccentric,4,3.0,20691.0,148996.0,240410.0,290011.0,268122.0
2026-04-08 21:38:00.366119,107870,1609503452514416,1052480750,-0.958432,-0.083936,0.325984,-28.90125,18.31375,-41.475,24.400002,-16.048,7.496,eccentric,4,3.0,20691.0,148996.0,240410.0,290011.0,268122.0
2026-04-08 21:38:00.397282,107871,1609503452528905,1052495617,-0.853024,-0.083936,0.325984,-20.23,15.28625,-38.08,24.656002,-15.360001,8.584001,eccentric,4,3.0,20691.0,148996.0,240410.0,290011.0,268122.0
2026-04-08 21:38:00.401635,107872,1609503452537865,1052504237,-0.931104,0.005856,0.279136,-5.08375,12.25,-34.8775,25.136002,-15.000001,7.096,eccentric,4,3.0,20691.0,148996.0,240410.0,290011.0,268122.0
2026-04-08 21:38:00.429572,107883,1609503452552341,1052519040,-0.931104,0.005856,0.279136,5.57375,9.03,-29.77625,25.136002,-15.000001,7.096,eccentric,4,3.0,20811.0,149253.0,240607.0,290218.0,268298.0
2026-04-08 21:38:00.431198,107884,1609503452561333,1052527745,-0.860832,-0.00976,0.044896,3.73625,7.5075,-25.4975,25.152,-15.296001,7.2,eccentric,4,3.0,20811.0,149253.0,240607.0,290218.0,268298.0
2026-04-08 21:38:00.435500,107885,1609503452570282,1052536528,-0.860832,-0.00976,0.044896,-4.94375,8.1725,-21.88375,25.152,-15.296001,7.2,eccentric,4,3.0,20811.0,149253.0,240607.0,290218.0,268298.0
2026-04-08 21:38:00.437029,107886,1609503452584823,1052551453,-0.847168,-0.025376,0.329888,-15.49625,8.14625,-15.26,24.816002,-14.832001,8.056001,eccentric,4,3.0,20811.0,149253.0,240607.0,290218.0,268298.0
2026-04-08 21:38:00.467288,107887,1609503452593765,1052560201,-0.847168,-0.025376,0.329888,-21.6125,5.85375,-8.93375,24.816002,-14.832001,8.056001,eccentric,4,3.0,20811.0,149253.0,240607.0,290218.0,268298.0
2026-04-08 21:38:00.469896,107888,1609503452608247,1052575077,-0.933056,-0.095648,0.382592,-16.205,2.7825,-6.93875,25.328001,-14.728001,7.552001,eccentric,4,3.0,20811.0,149253.0,240607.0,290218.0,268298.0
2026-04-08 21:38:00.476704,107889,1609503452617169,1052583735,-0.895968,-0.037088,0.355264,-4.48875,1.60125,-7.245,25.256,-14.864,7.672,eccentric,4,3.0,20811.0,149253.0,240607.0,290218.0,268298.0
2026-04-08 21:38:00.479086,107890,1609503452626082,1052592397,-0.895968,-0.037088,0.355264,7.84875,1.6275,-5.9675,25.256,-14.864,7.672,eccentric,4,3.0,20811.0,149253.0,240607.0,290218.0,268298.0
2026-04-08 21:38:00.507582,107891,1609503452640579,1052607258,-0.987712,0.066368,0.040992,10.71,3.6225,-0.77875,25.136002,-15.072001,8.032001,eccentric,4,3.0,20811.0,149253.0,240607.0,290218.0,268298.0
2026-04-08 21:38:00.512146,107892,1609503452649509,1052615932,-0.987712,0.066368,0.040992,1.21625,5.635,5.5125,25.136002,-15.072001,8.032001,eccentric,4,3.0,20811.0,149253.0,240607.0,290218.0,268298.0
2026-04-08 21:38:00.541214,107903,1609503452664079,1052630844,-1.03456,-0.052704,0.17568,-12.64375,3.9725,11.2875,25.136002,-15.032001,6.808,eccentric,4,3.0,20948.0,149786.0,241294.0,290773.0,268646.0
2026-04-08 21:38:00.542578,107904,1609503452673010,1052639609,-1.03456,-0.052704,0.17568,-18.13,0.21,13.78125,25.136002,-15.032001,6.808,eccentric,4,3.0,20948.0,149786.0,241294.0,290773.0,268646.0
2026-04-08 21:38:00.543707,107905,1609503452687497,1052654547,-0.993568,-0.134688,0.343552,-10.24625,-1.855,11.89125,25.288002,-14.968,7.136,eccentric,4,3.0,20948.0,149786.0,241294.0,290773.0,268646.0
2026-04-08 21:38:00.578856,107906,1609503452696417,1052663254,-0.958432,-0.064416,0.267424,4.2,-2.98375,10.0625,25.424002,-15.328001,8.896001,eccentric,4,3.0,20948.0,149786.0,241294.0,290773.0,268646.0
2026-04-08 21:38:00.582353,107907,1609503452705401,1052671922,-0.958432,-0.064416,0.267424,13.6325,-3.745,11.235,25.424002,-15.328001,8.896001,eccentric,4,3.0,20948.0,149786.0,241294.0,290773.0,268646.0
2026-04-08 21:38:00.584802,107908,1609503452719864,1052686783,-1.0248,0.007808,0.109312,14.315001,-3.5525,13.125,25.2,-15.408001,6.752,eccentric,4,3.0,20948.0,149786.0,241294.0,290773.0,268646.0
2026-04-08 21:38:00.587378,107909,1609503452728791,1052695434,-1.0248,0.007808,0.109312,8.715,-1.46125,14.79625,25.2,-15.408001,6.752,eccentric,4,3.0,20948.0,149786.0,241294.0,290773.0,268646.0
2026-04-08 21:38:00.618419,107910,1609503452743334,1052710368,-1.081408,-0.0976,0.132736,-1.51375,-0.91,15.6975,24.416,-15.488001,8.432,concentric,4,3.0,20948.0,149786.0,241294.0,290773.0,268646.0
2026-04-08 21:38:00.624922,107911,1609503452752232,1052719033,-1.081408,-0.0976,0.132736,-9.3975,-0.8225,14.8575,24.416,-15.488001,8.432,concentric,4,3.0,20948.0,149786.0,241294.0,290773.0,268646.0
2026-04-08 21:38:00.652358,107922,1609503452766724,1052731926,-1.10288,-0.095648,0.177632,-9.98375,-1.0675,11.97875,24.952002,-16.024,7.232,concentric,4,3.0,21086.0,150455.0,242114.0,291279.0,268909.0
2026-04-08 21:38:00.654875,107923,1609503452775914,1052742694,-1.10288,-0.095648,0.148352,-3.57875,-0.70875,9.23125,24.952002,-16.024,7.232,concentric,4,3.0,21086.0,150455.0,242114.0,291279.0,268909.0
2026-04-08 21:38:00.659853,107924,1609503452784960,1052751379,-1.118496,-0.05856,0.148352,5.97625,0.49875,7.245,24.784,-16.128,5.84,concentric,4,3.0,21086.0,150455.0,242114.0,291279.0,268909.0
2026-04-08 21:38:00.662320,107925,1609503452799573,1052766238,-1.06384,-0.074176,0.183488,7.81375,-0.55125,7.0525,24.528002,-15.984001,8.120001,concentric,4,3.0,21086.0,150455.0,242114.0,291279.0,268909.0
2026-04-08 21:38:00.664777,107926,1609503452808594,1052774958,-1.06384,-0.074176,0.183488,3.5525,-2.345,6.685,24.528002,-15.984001,8.120001,concentric,4,3.0,21086.0,150455.0,242114.0,291279.0,268909.0
2026-04-08 21:38:00.702736,107927,1609503452823095,1052789829,-1.069696,-0.093696,0.093696,-0.2275,-2.73875,5.635,24.376001,-15.848001,8.504001,concentric,4,3.0,21086.0,150455.0,242114.0,291279.0,268909.0
2026-04-08 21:38:00.706050,107928,1609503452832087,1052798494,-1.069696,-0.093696,0.093696,-5.1275,-1.365,5.43375,24.376001,-15.848001,8.504001,concentric,4,3.0,21086.0,150455.0,242114.0,291279.0,268909.0
2026-04-08 21:38:00.708585,107929,1609503452846572,1052813334,-0.991616,-0.052704,0.353312,-8.33,-0.13125,4.29625,24.928001,-15.920001,7.216001,concentric,4,3.0,21086.0,150455.0,242114.0,291279.0,268909.0
2026-04-08 21:38:00.740036,107940,1609503452856068,1052822645,-0.991616,-0.052704,0.353312,-7.245,-0.56,3.63125,24.928001,-15.920001,7.216001,concentric,4,3.0,21112.0,150509.0,242150.0,291296.0,268890.0
2026-04-08 21:38:00.742301,107941,1609503452865224,1052831402,-1.022848,-0.025376,0.384544,-4.095,-2.75625,3.5,25.000002,-15.888001,5.064,concentric,4,3.0,21112.0,150509.0,242150.0,291296.0,268890.0
2026-04-08 21:38:00.744794,107942,1609503452879722,1052846404,-1.001376,-0.017568,0.368928,2.555,-4.7425,3.64875,24.512001,-15.808001,8.152,concentric,4,3.0,21112.0,150509.0,242150.0,291296.0,268890.0
2026-04-08 21:38:00.747314,107943,1609503452888715,1052855152,-1.001376,-0.017568,0.368928,12.46,-5.845,4.655,24.512001,-15.808001,8.152,concentric,4,3.0,21112.0,150509.0,242150.0,291296.0,268890.0
2026-04-08 21:38:00.778734,107944,1609503452903214,1052870114,-0.958432,-0.02928,0.121024,13.825,-6.53625,6.51875,24.504002,-16.504002,7.448,concentric,4,3.0,21112.0,150509.0,242150.0,291296.0,268890.0
2026-04-08 21:38:00.781567,107945,1609503452912141,1052878806,-0.958432,-0.02928,0.121024,8.19,-5.97625,9.40625,24.504002,-16.504002,7.448,concentric,4,3.0,21112.0,150509.0,242150.0,291296.0,268890.0
2026-04-08 21:38:00.783698,107946,1609503452921101,1052887506,-1.036512,0.003904,0.191296,-0.16625,-4.62,10.64,24.36,-16.536001,7.2,concentric,4,3.0,21112.0,150509.0,242150.0,291296.0,268890.0
2026-04-08 21:38:00.786157,107947,1609503452935562,1052902398,-1.036512,0.003904,0.191296,-7.51625,-3.7275,10.8325,24.36,-16.536001,7.2,concentric,4,3.0,21112.0,150509.0,242150.0,291296.0,268890.0
2026-04-08 21:38:00.816378,107948,1609503452944488,1052911083,-0.970144,-0.074176,0.193248,-10.50875,-4.2175,11.2525,23.864,-16.472,8.656,concentric,4,3.0,21112.0,150509.0,242150.0,291296.0,268890.0
2026-04-08 21:38:00.878828,107959,1609503452959297,1052925961,-0.981856,0.031232,0.343552,-6.65,-5.32875,11.89125,24.536001,-16.944,9.312,concentric,4,3.0,21158.0,150633.0,242330.0,291443.0,268956.0
2026-04-08 21:38:00.882350,107960,1609503452968253,1052934675,-0.981856,0.031232,0.343552,3.96375,-6.1425,13.011251,24.536001,-16.944,9.312,concentric,4,3.0,21158.0,150633.0,242330.0,291443.0,268956.0
2026-04-08 21:38:00.884848,107961,1609503452977213,1052943396,-0.981856,0.031232,0.10736,12.43375,-6.30875,14.665,24.536001,-16.944,9.312,concentric,4,3.0,21158.0,150633.0,242330.0,291443.0,268956.0
2026-04-08 21:38:00.887370,107962,1609503452991717,1052958327,-0.999424,0.017568,0.10736,12.74875,-6.79,17.85875,24.024002,-17.264,5.016,concentric,4,3.0,21158.0,150633.0,242330.0,291443.0,268956.0
2026-04-08 21:38:00.889931,107963,1609503453000692,1052967015,-0.923296,-0.003904,0.316224,4.22625,-8.88125,22.35625,23.880001,-17.36,8.136001,concentric,4,3.0,21158.0,150633.0,242330.0,291443.0,268956.0
2026-04-08 21:38:00.896140,107964,1609503453015231,1052981862,-0.923296,-0.003904,0.316224,-3.675,-10.7975,23.87875,23.880001,-17.36,8.136001,concentric,4,3.0,21158.0,150633.0,242330.0,291443.0,268956.0
2026-04-08 21:38:00.898548,107965,1609503453024123,1052990611,-0.874496,-0.0488,0.357216,-4.305,-12.62625,24.928751,23.752,-17.400002,7.472,concentric,4,3.0,21158.0,150633.0,242330.0,291443.0,268956.0
2026-04-08 21:38:00.901095,107966,1609503453038596,1053005551,-0.919392,0.023424,0.359168,0.84875,-13.7725,27.3525,23.552002,-17.504002,9.112,concentric,4,3.0,21158.0,150633.0,242330.0,291443.0,268956.0
2026-04-08 21:38:00.903626,107967,1609503453047518,1053014259,-0.919392,0.023424,0.359168,8.56625,-14.37625,30.5025,23.552002,-17.504002,9.112,concentric,4,3.0,21158.0,150633.0,242330.0,291443.0,268956.0
2026-04-08 21:38:00.931057,107978,1609503453056463,1053022996,-0.919392,0.023424,0.359168,17.94625,-13.30875,31.5525,23.552002,-17.504002,9.112,concentric,4,3.0,21217.0,150977.0,242735.0,291733.0,269153.0
2026-04-08 21:38:00.934175,107979,1609503453071085,1053037933,-0.958432,-0.02928,0.11712,19.3025,-13.11625,32.62,23.032001,-18.048,7.816001,concentric,4,3.0,21217.0,150977.0,242735.0,291733.0,269153.0
2026-04-08 21:38:00.936165,107980,1609503453080029,1053046660,-0.925248,0.042944,0.308416,11.27,-12.78375,35.9625,22.632002,-18.6,7.464,concentric,4,3.0,21217.0,150977.0,242735.0,291733.0,269153.0
2026-04-08 21:38:00.966253,107981,1609503453094574,1053061543,-0.925248,0.042944,0.308416,4.87375,-12.15375,37.905,22.632002,-18.6,7.464,concentric,4,3.0,21217.0,150977.0,242735.0,291733.0,269153.0
2026-04-08 21:38:00.969999,107982,1609503453103488,1053070223,-0.841312,0.027328,0.423584,2.0125,-13.0025,40.11875,22.376001,-19.048,8.096001,concentric,4,3.0,21217.0,150977.0,242735.0,291733.0,269153.0
2026-04-08 21:38:00.972372,107983,1609503453117946,1053085088,-0.841312,0.027328,0.423584,1.33875,-16.345,44.3275,22.376001,-19.048,8.096001,concentric,4,3.0,21217.0,150977.0,242735.0,291733.0,269153.0
2026-04-08 21:38:00.978574,107984,1609503453126891,1053093785,-0.767136,0.05856,0.406016,3.64,-20.4575,49.30625,22.032001,-19.68,8.432,concentric,4,3.0,21217.0,150977.0,242735.0,291733.0,269153.0
2026-04-08 21:38:01.008808,107985,1609503453135817,1053102473,-0.767136,0.05856,0.406016,13.60625,-21.83125,51.45875,22.032001,-19.68,8.432,concentric,4,3.0,21217.0,150977.0,242735.0,291733.0,269153.0
2026-04-08 21:38:01.012384,107986,1609503453150289,1053117367,-0.890112,0.0488,0.288896,26.3725,-19.43375,48.055,21.416,-20.080002,7.36,concentric,4,3.0,21217.0,150977.0,242735.0,291733.0,269153.0
2026-04-08 21:38:01.042315,107997,1609503453159632,1053126172,-0.933056,0.05856,0.294752,27.23875,-15.505,45.535,21.048,-20.320002,7.328001,concentric,4,3.0,21368.0,151598.0,243445.0,292208.0,269442.0
2026-04-08 21:38:01.044826,107998,1609503453174202,1053141129,-0.933056,0.05856,0.294752,18.52375,-13.74625,47.97625,21.048,-20.320002,7.328001,concentric,4,3.0,21368.0,151598.0,243445.0,292208.0,269442.0
2026-04-08 21:38:01.047355,107999,1609503453183163,1053149849,-0.942816,0.093696,0.308416,12.3025,-13.22125,51.87875,20.704,-20.76,8.336,concentric,4,3.0,21368.0,151598.0,243445.0,292208.0,269442.0
2026-04-08 21:38:01.049846,108000,1609503453197668,1053164735,-0.942816,0.093696,0.308416,10.8675,-14.9975,55.04625,20.704,-20.76,8.336,concentric,4,3.0,21368.0,151598.0,243445.0,292208.0,269442.0
2026-04-08 21:38:01.080063,108001,1609503453206635,1053173396,-0.88816,0.17568,0.343552,9.765,-17.185,58.94,20.240002,-21.320002,9.752001,concentric,4,3.0,21368.0,151598.0,243445.0,292208.0,269442.0
2026-04-08 21:38:01.083677,108002,1609503453215588,1053182048,-0.88816,0.17568,0.343552,15.575,-17.70125,59.59625,20.240002,-21.320002,9.752001,concentric,4,3.0,21368.0,151598.0,243445.0,292208.0,269442.0
2026-04-08 21:38:01.086132,108003,1609503453230055,1053196947,-0.84912,0.181536,0.308416,20.195,-15.1025,57.365,19.856,-21.896002,7.184001,concentric,4,3.0,21368.0,151598.0,243445.0,292208.0,269442.0
2026-04-08 21:38:01.089934,108004,1609503453238963,1053205638,-0.84912,0.181536,0.054656,17.56125,-11.3575,54.62625,19.856,-21.896002,7.184001,concentric,4,3.0,21368.0,151598.0,243445.0,292208.0,269442.0
2026-04-08 21:38:01.120117,108005,1609503453253488,1053220533,-0.88816,0.081984,0.054656,4.9,-10.96375,56.8925,19.112001,-22.248001,10.208,concentric,4,3.0,21368.0,151598.0,243445.0,292208.0,269442.0
2026-04-08 21:38:01.183669,108016,1609503453262534,1053229261,-0.890112,0.10736,0.1464,-8.77625,-13.02,62.3525,18.640001,-23.272001,7.536,concentric,4,3.0,21615.0,152629.0,244701.0,293030.0,269922.0
2026-04-08 21:38:01.186183,108017,1609503453271556,1053237988,-0.890112,0.10736,0.1464,-10.3775,-14.79625,64.46125,18.640001,-23.272001,7.536,concentric,4,3.0,21615.0,152629.0,244701.0,293030.0,269922.0
2026-04-08 21:38:01.188652,108018,1609503453286171,1053252899,-0.909632,0.109312,0.187392,-5.1275,-14.74375,62.06375,18.176,-23.136002,9.04,concentric,4,3.0,21615.0,152629.0,244701.0,293030.0,269922.0
2026-04-08 21:38:01.191127,108019,1609503453295200,1053261604,-0.909632,0.109312,0.187392,0.93625,-15.47,59.43875,18.176,-23.136002,9.04,concentric,4,3.0,21615.0,152629.0,244701.0,293030.0,269922.0
2026-04-08 21:38:01.193639,108020,1609503453309684,1053276480,-0.911584,0.1952,0.152256,10.36875,-14.595,58.0475,17.640001,-24.032001,8.952001,concentric,4,3.0,21615.0,152629.0,244701.0,293030.0,269922.0
2026-04-08 21:38:01.196086,108021,1609503453318613,1053285208,-0.911584,0.1952,0.152256,19.53875,-14.18375,57.076252,17.640001,-24.032001,8.952001,concentric,4,3.0,21615.0,152629.0,244701.0,293030.0,269922.0
2026-04-08 21:38:01.198613,108022,1609503453333088,1053300086,-0.954528,0.18544,0.132736,22.58375,-13.1775,55.74625,17.304,-24.288002,7.480001,concentric,4,3.0,21615.0,152629.0,244701.0,293030.0,269922.0
2026-04-08 21:38:01.201767,108023,1609503453342159,1053308755,-0.86864,0.208864,0.255712,14.56,-12.845,58.87,16.560001,-24.968,8.072001,concentric,4,3.0,21615.0,152629.0,244701.0,293030.0,269922.0
2026-04-08 21:38:01.203712,108024,1609503453351118,1053317441,-0.86864,0.208864,0.255712,-1.435,-13.9125,63.1925,16.560001,-24.968,8.072001,concentric,4,3.0,21615.0,152629.0,244701.0,293030.0,269922.0
2026-04-08 21:38:01.236195,108035,1609503453365717,1053332417,-0.817888,0.277184,0.452864,-10.80625,-14.74375,61.83625,16.272001,-24.752,8.360001,concentric,4,3.0,21613.0,152716.0,244807.0,293131.0,270026.0
2026-04-08 21:38:01.238640,108036,1609503453374675,1053341096,-0.817888,0.277184,0.452864,-9.8175,-14.00875,54.83625,16.272001,-24.752,8.360001,concentric,4,3.0,21613.0,152716.0,244807.0,293131.0,270026.0
2026-04-08 21:38:01.241178,108037,1609503453389217,1053355998,-0.948672,0.18544,0.23424,-6.32625,-11.235,48.64125,15.648001,-25.592001,8.360001,concentric,4,3.0,21613.0,152716.0,244807.0,293131.0,270026.0
2026-04-08 21:38:01.272588,108038,1609503453398151,1053364680,-0.948672,0.18544,0.23424,-8.70625,-12.3375,49.805,15.648001,-25.592001,8.360001,concentric,4,3.0,21613.0,152716.0,244807.0,293131.0,270026.0
2026-04-08 21:38:01.276199,108039,1609503453412641,1053379522,-0.835456,0.265472,0.366976,-11.935,-12.95875,52.92875,15.328001,-25.992,7.872,concentric,4,3.0,21613.0,152716.0,244807.0,293131.0,270026.0
2026-04-08 21:38:01.278600,108040,1609503453421581,1053388208,-0.88816,0.242048,0.152256,-9.05625,-9.73875,51.65125,15.504001,-26.456001,6.112001,concentric,4,3.0,21613.0,152716.0,244807.0,293131.0,270026.0
2026-04-08 21:38:01.282676,108041,1609503453430532,1053396876,-0.88816,0.242048,0.152256,-12.635,-6.90375,48.3175,15.504001,-26.456001,6.112001,concentric,4,3.0,21613.0,152716.0,244807.0,293131.0,270026.0
2026-04-08 21:38:01.313931,108042,1609503453445033,1053411842,-0.864736,0.27328,0.54656,-25.05125,-8.81125,46.69,14.728001,-26.496002,8.200001,concentric,4,3.0,21613.0,152716.0,244807.0,293131.0,270026.0
2026-04-08 21:38:01.317494,108043,1609503453453945,1053420515,-0.864736,0.27328,0.54656,-29.960001,-12.3725,45.07125,14.728001,-26.496002,8.200001,concentric,4,3.0,21613.0,152716.0,244807.0,293131.0,270026.0
2026-04-08 21:38:01.344844,108054,1609503453468544,1053435391,-0.974048,0.27328,0.333792,-24.7975,-15.33,41.11625,14.56,-26.752,8.096001,concentric,4,3.0,21870.0,153740.0,245916.0,293798.0,270417.0
2026-04-08 21:38:01.347444,108055,1609503453477484,1053444091,-0.974048,0.27328,0.333792,-17.80625,-19.01375,35.5075,14.56,-26.752,8.096001,concentric,4,3.0,21870.0,153740.0,245916.0,293798.0,270417.0
2026-04-08 21:38:01.349909,108056,1609503453486479,1053452829,-1.003328,0.298656,0.423584,-9.37125,-17.6575,31.28125,14.120001,-26.968,9.808001,concentric,4,3.0,21870.0,153740.0,245916.0,293798.0,270417.0
2026-04-08 21:38:01.352414,108057,1609503453500956,1053467708,-0.940864,0.345504,0.4392,-7.25375,-14.455,29.46125,14.120001,-26.968,11.856001,concentric,4,3.0,21870.0,153740.0,245916.0,293798.0,270417.0
2026-04-08 21:38:01.383833,108058,1609503453509911,1053476425,-0.952576,0.345504,0.4392,-10.01875,-8.33,25.24375,13.68,-26.904001,10.240001,concentric,4,3.0,21870.0,153740.0,245916.0,293798.0,270417.0
2026-04-08 21:38:01.387408,108059,1609503453524392,1053491287,-0.976,0.318176,0.300608,-17.43875,-4.2175,20.23,14.168,-27.656002,8.496,concentric,4,3.0,21870.0,153740.0,245916.0,293798.0,270417.0
2026-04-08 21:38:01.389853,108060,1609503453533406,1053499974,-0.976,0.318176,0.300608,-32.69875,-4.15625,16.93125,14.168,-27.656002,8.496,concentric,4,3.0,21870.0,153740.0,245916.0,293798.0,270417.0
2026-04-08 21:38:01.421421,108061,1609503453547912,1053514888,-0.99552,0.316224,0.513376,-43.56625,-4.36625,11.9525,13.968,-27.368002,10.144,concentric,4,3.0,21870.0,153740.0,245916.0,293798.0,270417.0
2026-04-08 21:38:01.486113,108072,1609503453556863,1053523896,-0.99552,0.316224,0.513376,-52.78,-6.57125,10.2725,13.968,-27.368002,10.144,concentric,4,3.0,22123.0,154782.0,247048.0,294413.0,270764.0
2026-04-08 21:38:01.488577,108073,1609503453565792,1053532596,-0.931104,0.27328,0.484096,-48.83375,-7.25375,11.2875,14.248001,-27.728,9.368,concentric,4,3.0,22123.0,154782.0,247048.0,294413.0,270764.0
2026-04-08 21:38:01.491043,108074,1609503453580264,1053545415,-0.931104,0.27328,0.484096,-37.66875,-1.39125,8.89875,14.248001,-27.728,9.368,concentric,4,3.0,22123.0,154782.0,247048.0,294413.0,270764.0
2026-04-08 21:38:01.493608,108075,1609503453589396,1053556157,-1.046272,0.310368,0.548512,-33.34625,2.17,3.22875,14.544001,-27.488,12.440001,concentric,4,3.0,22123.0,154782.0,247048.0,294413.0,270764.0
2026-04-08 21:38:01.496087,108076,1609503453603899,1053569066,-1.042368,0.378688,0.495808,-33.1275,2.24875,-0.00875,14.288001,-27.448002,10.536,concentric,4,3.0,22123.0,154782.0,247048.0,294413.0,270764.0
2026-04-08 21:38:01.499043,108077,1609503453613124,1053579813,-1.042368,0.378688,0.495808,-35.16625,2.61625,-1.19,14.288001,-27.448002,10.536,concentric,4,3.0,22123.0,154782.0,247048.0,294413.0,270764.0
2026-04-08 21:38:01.501614,108078,1609503453627589,1053594654,-1.218048,0.437248,0.47824,-39.94375,2.59875,-1.8025,14.776001,-27.240002,10.104,concentric,4,3.0,22123.0,154782.0,247048.0,294413.0,270764.0
2026-04-08 21:38:01.503664,108079,1609503453636500,1053603292,-1.218048,0.437248,0.47824,-41.7375,1.1725,-1.44375,14.776001,-27.240002,10.104,concentric,4,3.0,22123.0,154782.0,247048.0,294413.0,270764.0
2026-04-08 21:38:01.506076,108080,1609503453645422,1053611986,-1.147776,0.433344,0.601216,-40.95875,-2.23125,-3.14125,14.872001,-27.504002,11.384001,concentric,4,3.0,22123.0,154782.0,247048.0,294413.0,270764.0
2026-04-08 21:38:01.534830,108091,1609503453660474,1053626959,-1.147776,0.433344,0.601216,-40.53,-3.5525,-8.79375,14.872001,-27.504002,11.384001,concentric,4,3.0,21773.0,153336.0,245282.0,293243.0,270107.0
2026-04-08 21:38:01.537403,108092,1609503453669501,1053635687,-1.280512,0.55632,0.359168,-37.52,-0.49875,-14.39375,14.872001,-27.192001,12.536,concentric,4,3.0,21773.0,153336.0,245282.0,293243.0,270107.0
2026-04-08 21:38:01.539892,108093,1609503453683981,1053650566,-1.264896,0.581696,0.603168,-36.82,1.33,-19.0925,15.64,-27.424002,11.032001,concentric,4,3.0,21773.0,153336.0,245282.0,293243.0,270107.0
2026-04-08 21:38:01.547371,108094,1609503453692973,1053659301,-1.264896,0.581696,0.603168,-38.255,1.1025,-22.58375,15.64,-27.424002,11.032001,concentric,4,3.0,21773.0,153336.0,245282.0,293243.0,270107.0
2026-04-08 21:38:01.553623,108095,1609503453701900,1053667980,-1.264896,0.581696,0.554368,-39.585,0.5075,-26.59125,15.64,-27.424002,11.032001,concentric,4,3.0,21773.0,153336.0,245282.0,293243.0,270107.0
2026-04-08 21:38:01.583806,108096,1609503453716372,1053682864,-1.206336,0.515328,0.554368,-36.89,-0.3325,-30.6775,15.488001,-27.312002,11.160001,concentric,4,3.0,21773.0,153336.0,245282.0,293243.0,270107.0
2026-04-08 21:38:01.587425,108097,1609503453725271,1053691522,-1.118496,0.55632,0.724192,-31.7275,-1.7325,-35.175,16.528,-26.872002,11.632001,concentric,4,3.0,21773.0,153336.0,245282.0,293243.0,270107.0
2026-04-08 21:38:01.591197,108098,1609503453739796,1053706368,-1.118496,0.55632,0.724192,-27.39625,-3.99,-37.625,16.528,-26.872002,11.632001,concentric,4,3.0,21773.0,153336.0,245282.0,293243.0,270107.0
2026-04-08 21:38:01.621346,108099,1609503453748704,1053715026,-1.065792,0.60512,0.698816,-21.30625,-5.78375,-39.2875,16.944,-26.816002,11.696,concentric,4,3.0,21773.0,153336.0,245282.0,293243.0,270107.0
2026-04-08 21:38:01.649884,108110,1609503453763420,1053729921,-1.21024,0.61488,0.495808,-15.47875,-6.9825,-39.59375,17.648,-26.800001,11.624001,concentric,4,3.0,21537.0,152272.0,243947.0,292346.0,269532.0
2026-04-08 21:38:01.652440,108111,1609503453772516,1053738697,-1.21024,0.61488,0.495808,-12.11875,-9.3975,-35.27125,17.648,-26.800001,11.624001,concentric,4,3.0,21537.0,152272.0,243947.0,292346.0,269532.0
2026-04-08 21:38:01.654905,108112,1609503453781572,1053747355,-1.21024,0.61488,0.495808,-9.02125,-14.20125,-32.2,17.648,-26.800001,11.624001,concentric,4,3.0,21537.0,152272.0,243947.0,292346.0,269532.0
2026-04-08 21:38:01.657452,108113,1609503453796117,1053762200,-1.175104,0.474336,0.651968,-4.55,-17.57,-33.95875,17.304,-26.552002,12.496,concentric,4,3.0,21537.0,152272.0,243947.0,292346.0,269532.0
2026-04-08 21:38:01.661132,108114,1609503453805022,1053770936,-0.972096,0.372832,0.484096,4.48875,-18.2175,-35.69125,17.240002,-26.776001,12.6,concentric,4,3.0,21537.0,152272.0,243947.0,292346.0,269532.0
2026-04-08 21:38:01.691064,108115,1609503453819531,1053785811,-0.972096,0.372832,0.484096,18.5325,-15.42625,-33.27625,17.240002,-26.776001,12.6,concentric,4,3.0,21537.0,152272.0,243947.0,292346.0,269532.0
2026-04-08 21:38:01.692506,108116,1609503453828412,1053794467,-1.091168,0.476288,0.394304,32.36625,-10.21125,-28.32375,17.928001,-27.048,11.320001,concentric,4,3.0,21537.0,152272.0,243947.0,292346.0,269532.0
2026-04-08 21:38:01.696085,108117,1609503453842872,1053809315,-1.091168,0.476288,0.532896,39.5325,-5.4075,-21.32375,17.928001,-27.048,11.320001,concentric,4,3.0,21537.0,152272.0,243947.0,292346.0,269532.0
