pc_time,serial_num,sensor_ts,host_ts,ax,ay,az,gx,gy,gz,mx,my,mz,phase,rpe,weight_kg,ppg_a,ppg_b,ppg_c,ppg_d,ppg_e
2026-04-08 21:38:08.268821,109357,1609503460395719,1060362336,-1.085312,0.085888,0.411872,10.35125,3.17625,3.115,25.840002,-20.856,10.488001,eccentric,4,3.0,22287.0,154703.0,246910.0,294538.0,270829.0
2026-04-08 21:38:08.271253,109358,1609503460404755,1060371042,-1.085312,0.085888,0.411872,7.37625,2.19625,3.6575,25.840002,-20.856,10.488001,eccentric,4,3.0,22287.0,154703.0,246910.0,294538.0,270829.0
2026-04-08 21:38:08.273793,109359,1609503460419251,1060385913,-1.048224,0.054656,0.509472,4.50625,0.4725,3.78875,25.464,-21.008001,10.944,eccentric,4,3.0,22287.0,154703.0,246910.0,294538.0,270829.0
2026-04-08 21:38:08.280040,109360,1609503460428171,1060394615,-0.997472,-0.011712,0.386496,1.995,-1.61,3.6575,25.28,-21.184002,9.984,eccentric,4,3.0,22287.0,154703.0,246910.0,294538.0,270829.0
2026-04-08 21:38:08.310251,109361,1609503460442638,1060409474,-0.997472,-0.011712,0.386496,4.3925,-3.29875,3.1325,25.28,-21.184002,9.984,eccentric,4,3.0,22287.0,154703.0,246910.0,294538.0,270829.0
2026-04-08 21:38:08.313782,109362,1609503460451551,1060418136,-1.095072,0.062464,0.441152,10.14125,-2.63375,2.03,25.248001,-21.136002,10.592001,eccentric,4,3.0,22287.0,154703.0,246910.0,294538.0,270829.0
2026-04-08 21:38:08.316290,109363,1609503460460470,1060426806,-1.095072,0.062464,0.441152,17.8325,-0.14,1.47875,25.248001,-21.136002,10.592001,eccentric,4,3.0,22287.0,154703.0,246910.0,294538.0,270829.0
2026-04-08 21:38:08.386433,109364,1609503460474959,1060441669,-1.040416,0.08784,0.456768,24.08,1.86375,1.8025,25.184002,-21.216002,9.872001,eccentric,4,3.0,22287.0,154703.0,246910.0,294538.0,270829.0
2026-04-08 21:38:08.390089,109365,1609503460483904,1060450362,-1.040416,0.08784,0.456768,25.095,2.4675,2.625,25.184002,-21.216002,9.872001,eccentric,4,3.0,22287.0,154703.0,246910.0,294538.0,270829.0
2026-04-08 21:38:08.448742,109376,1609503460498737,1060465253,-1.048224,0.089792,0.462624,21.06125,3.8675,3.52625,25.072,-21.320002,10.048,eccentric,4,3.0,22279.0,154602.0,246672.0,294349.0,270723.0
2026-04-08 21:38:08.451249,109377,1609503460507693,1060473998,-1.138016,0.091744,0.398208,14.752501,3.8325,4.47125,24.952002,-21.488,7.992001,eccentric,4,3.0,22279.0,154602.0,246672.0,294349.0,270723.0
2026-04-08 21:38:08.453706,109378,1609503460516604,1060482656,-1.138016,0.091744,0.398208,11.75125,4.8125,4.7075,24.952002,-21.488,7.992001,eccentric,4,3.0,22279.0,154602.0,246672.0,294349.0,270723.0
2026-04-08 21:38:08.456255,109379,1609503460531068,1060497514,-1.157536,0.080032,0.382592,10.2725,5.97625,5.04,25.048,-21.344002,9.696,eccentric,4,3.0,22279.0,154602.0,246672.0,294349.0,270723.0
2026-04-08 21:38:08.459414,109380,1609503460539969,1060506149,-1.157536,0.080032,0.382592,9.205,6.86875,4.9875,25.048,-21.344002,9.696,eccentric,4,3.0,22279.0,154602.0,246672.0,294349.0,270723.0
2026-04-08 21:38:08.461211,109381,1609503460554446,1060521014,-1.069696,0.109312,0.609024,11.48875,7.95375,4.55,25.304,-21.768002,9.360001,eccentric,4,3.0,22279.0,154602.0,246672.0,294349.0,270723.0
2026-04-08 21:38:08.463679,109382,1609503460563394,1060529669,-1.069696,0.109312,0.609024,14.02625,7.4025,5.355,25.304,-21.768002,9.360001,eccentric,4,3.0,22279.0,154602.0,246672.0,294349.0,270723.0
2026-04-08 21:38:08.466219,109383,1609503460577891,1060544576,-1.075552,0.109312,0.59536,15.74125,6.74625,5.52125,24.880001,-21.928001,9.936001,eccentric,4,3.0,22279.0,154602.0,246672.0,294349.0,270723.0
2026-04-08 21:38:08.468700,109384,1609503460586875,1060553302,-1.075552,0.093696,0.382592,13.877501,6.3,5.11,24.880001,-21.928001,9.936001,eccentric,4,3.0,22279.0,154602.0,246672.0,294349.0,270723.0
2026-04-08 21:38:08.500536,109396,1609503460595948,1060562016,-1.163392,0.093696,0.382592,9.38,5.83625,5.355,24.568,-21.584002,9.048,eccentric,4,3.0,22109.0,153954.0,245970.0,293878.0,270467.0
2026-04-08 21:38:08.502220,109397,1609503460610498,1060576920,-1.175104,0.099552,0.35136,7.5075,6.4225,4.20875,24.104002,-21.800001,10.504001,eccentric,4,3.0,22109.0,153954.0,245970.0,293878.0,270467.0
2026-04-08 21:38:08.503754,109398,1609503460619439,1060585639,-1.175104,0.099552,0.35136,4.235,6.23875,3.77125,24.104002,-21.800001,10.504001,eccentric,4,3.0,22109.0,153954.0,245970.0,293878.0,270467.0
2026-04-08 21:38:08.508013,109399,1609503460634057,1060600521,-1.124352,0.10736,0.486048,0.525,5.8975,3.78,23.52,-21.68,10.128,eccentric,4,3.0,22109.0,153954.0,245970.0,293878.0,270467.0
2026-04-08 21:38:08.509705,109400,1609503460643004,1060609203,-1.124352,0.10736,0.486048,-0.63875,5.285,3.52625,23.52,-21.68,10.128,eccentric,4,3.0,22109.0,153954.0,245970.0,293878.0,270467.0
2026-04-08 21:38:08.511237,109401,1609503460657528,1060624166,-1.100928,0.052704,0.310368,0.83125,5.7575,2.31,23.872002,-21.528002,10.344001,eccentric,4,3.0,22109.0,153954.0,245970.0,293878.0,270467.0
2026-04-08 21:38:08.519125,109402,1609503460666513,1060632860,-1.100928,0.052704,0.310368,3.85,7.5775,0.23625,23.872002,-21.528002,10.344001,eccentric,4,3.0,22109.0,153954.0,245970.0,293878.0,270467.0
2026-04-08 21:38:08.547847,109403,1609503460675434,1060641528,-1.145824,0.072224,0.425536,6.6675,9.77375,0.1925,23.632002,-21.672,11.240001,eccentric,4,3.0,22109.0,153954.0,245970.0,293878.0,270467.0
2026-04-08 21:38:08.551442,109404,1609503460689880,1060656373,-1.120448,0.040992,0.261568,6.93875,11.33125,0.60375,23.688002,-21.896002,9.272,eccentric,4,3.0,22109.0,153954.0,245970.0,293878.0,270467.0
2026-04-08 21:38:08.579676,109415,1609503460699233,1060665584,-1.120448,0.040992,0.261568,2.7125,12.36375,-0.525,23.688002,-21.896002,9.272,eccentric,4,3.0,21967.0,153417.0,245408.0,293529.0,270260.0
2026-04-08 21:38:08.581344,109416,1609503460713775,1060680497,-1.1224,0.074176,0.366976,-2.485,12.4075,-2.1,23.840002,-21.784,9.344001,eccentric,4,3.0,21967.0,153417.0,245408.0,293529.0,270260.0
2026-04-08 21:38:08.585500,109417,1609503460722735,1060689180,-1.1224,0.074176,0.366976,-4.4625,12.03125,-3.43,23.840002,-21.784,9.344001,eccentric,4,3.0,21967.0,153417.0,245408.0,293529.0,270260.0
2026-04-08 21:38:08.591673,109418,1609503460737248,1060704086,-1.095072,0.035136,0.45872,0.70875,12.67875,-2.6775,23.488,-21.68,9.104,eccentric,4,3.0,21967.0,153417.0,245408.0,293529.0,270260.0
2026-04-08 21:38:08.620299,109419,1609503460746170,1060712747,-1.095072,0.035136,0.45872,5.4075,14.035,-2.2575,23.488,-21.68,9.104,eccentric,4,3.0,21967.0,153417.0,245408.0,293529.0,270260.0
2026-04-08 21:38:08.623768,109420,1609503460755113,1060721456,-1.130208,0.050752,0.415776,6.1425,14.805,-0.8225,23.448002,-21.816002,9.080001,eccentric,4,3.0,21967.0,153417.0,245408.0,293529.0,270260.0
2026-04-08 21:38:08.627891,109421,1609503460769591,1060736320,-1.15168,-0.003904,0.23424,4.7775,14.4025,0.07875,23.672,-21.768002,9.024,eccentric,4,3.0,21967.0,153417.0,245408.0,293529.0,270260.0
2026-04-08 21:38:08.631611,109422,1609503460778504,1060744972,-1.15168,-0.003904,0.23424,-0.0525,13.81625,-0.105,23.672,-21.768002,9.024,eccentric,4,3.0,21967.0,153417.0,245408.0,293529.0,270260.0
2026-04-08 21:38:08.676220,109423,1609503460793015,1060759817,-1.022848,0.035136,0.454816,-1.30375,15.05875,-0.8225,23.304,-21.76,9.400001,eccentric,4,3.0,21967.0,153417.0,245408.0,293529.0,270260.0
2026-04-08 21:38:08.707252,109434,1609503460802003,1060768522,-1.022848,0.035136,0.454816,-1.1025,16.905,-4.10375,23.304,-21.76,9.400001,eccentric,4,3.0,21835.0,152941.0,244821.0,293154.0,270056.0
2026-04-08 21:38:08.708810,109435,1609503460810946,1060777268,-1.026752,0.00976,0.368928,1.86375,19.55625,-6.50125,23.512001,-21.952002,8.536,eccentric,4,3.0,21835.0,152941.0,244821.0,293154.0,270056.0
2026-04-08 21:38:08.713167,109436,1609503460825415,1060792113,-1.026752,0.00976,0.368928,3.9725,20.51875,-5.90625,23.512001,-21.952002,8.536,eccentric,4,3.0,21835.0,152941.0,244821.0,293154.0,270056.0
2026-04-08 21:38:08.721856,109437,1609503460834371,1060800798,-1.06384,0.001952,0.396256,3.3775,19.0925,-3.43,23.464,-21.752,8.984,eccentric,4,3.0,21835.0,152941.0,244821.0,293154.0,270056.0
2026-04-08 21:38:08.723513,109438,1609503460848905,1060815673,-1.106784,-0.031232,0.201056,-2.8875,15.435,-2.33625,23.464,-21.28,7.968,eccentric,4,3.0,21835.0,152941.0,244821.0,293154.0,270056.0
2026-04-08 21:38:08.725177,109439,1609503460857862,1060824431,-1.106784,-0.031232,0.201056,-9.975,10.3775,-3.465,22.960001,-21.28,7.968,eccentric,4,3.0,21835.0,152941.0,244821.0,293154.0,270056.0
2026-04-08 21:38:08.729158,109440,1609503460872391,1060839300,-0.999424,-0.025376,0.460672,-12.17125,8.51375,-6.475,23.136002,-21.560001,9.6,eccentric,4,3.0,21835.0,152941.0,244821.0,293154.0,270056.0
2026-04-08 21:38:08.735449,109441,1609503460881317,1060847986,-0.999424,-0.025376,0.460672,-8.81125,10.03625,-8.1725,23.136002,-21.560001,9.6,eccentric,4,3.0,21835.0,152941.0,244821.0,293154.0,270056.0
2026-04-08 21:38:08.764041,109442,1609503460890230,1060856650,-0.983808,0.00976,0.513376,-3.6925,11.865,-8.9425,23.064001,-20.952002,9.480001,eccentric,4,3.0,21835.0,152941.0,244821.0,293154.0,270056.0
2026-04-08 21:38:08.793522,109453,1609503460904753,1060871557,-0.983808,0.00976,0.513376,4.165,13.99125,-10.12375,23.064001,-20.952002,9.480001,eccentric,4,3.0,21807.0,152756.0,244617.0,293029.0,269972.0
2026-04-08 21:38:08.795204,109454,1609503460913678,1060880361,-1.114592,-0.033184,0.27328,8.33,14.28875,-11.68125,22.848001,-21.552002,8.288,eccentric,4,3.0,21807.0,152756.0,244617.0,293029.0,269972.0
2026-04-08 21:38:08.799282,109455,1609503460928171,1060895259,-1.114592,-0.033184,0.27328,4.82125,11.2525,-11.235,22.848001,-21.552002,8.288,eccentric,4,3.0,21807.0,152756.0,244617.0,293029.0,269972.0
2026-04-08 21:38:08.801738,109456,1609503460937161,1060903934,-1.098976,-0.091744,0.171776,-5.66125,6.74625,-9.065,22.976002,-20.872002,5.944,eccentric,4,3.0,21807.0,152756.0,244617.0,293029.0,269972.0
2026-04-08 21:38:08.805940,109457,1609503460951767,1060918812,-0.93696,0.001952,0.435296,-13.545,7.0525,-11.20875,23.392,-20.632002,8.248,eccentric,4,3.0,21807.0,152756.0,244617.0,293029.0,269972.0
2026-04-08 21:38:08.836213,109458,1609503460960689,1060927520,-0.93696,0.001952,0.435296,-12.7575,10.57,-15.8025,23.392,-20.632002,8.248,eccentric,4,3.0,21807.0,152756.0,244617.0,293029.0,269972.0
2026-04-08 21:38:08.838437,109459,1609503460969580,1060936211,-0.954528,0.033184,0.50752,-6.79,14.91875,-18.725,23.392,-18.584002,10.8,eccentric,4,3.0,21807.0,152756.0,244617.0,293029.0,269972.0
2026-04-08 21:38:08.843075,109460,1609503460984071,1060951081,-0.954528,0.033184,0.50752,-3.535,16.26625,-20.22125,22.984001,-20.464,10.8,eccentric,4,3.0,21807.0,152756.0,244617.0,293029.0,269972.0
2026-04-08 21:38:08.847335,109461,1609503460992974,1060959745,-1.020896,-0.091744,0.245952,-3.82375,14.70875,-19.64375,23.12,-20.320002,8.376,eccentric,4,3.0,21807.0,152756.0,244617.0,293029.0,269972.0
2026-04-08 21:38:08.878581,109472,1609503461007573,1060974662,-1.020896,-0.091744,0.245952,-3.54375,13.22125,-19.85375,23.12,-20.320002,8.376,eccentric,4,3.0,21788.0,152590.0,244460.0,292929.0,269875.0
2026-04-08 21:38:08.880203,109473,1609503461016539,1060983355,-0.981856,-0.16592,0.30256,-5.39,12.9325,-21.49,22.728,-19.584002,8.176001,eccentric,4,3.0,21788.0,152590.0,244460.0,292929.0,269875.0
2026-04-08 21:38:08.884137,109474,1609503461031014,1060996194,-0.905728,-0.056608,0.31232,-10.2725,15.67125,-23.38,23.168001,-19.288,8.816,eccentric,4,3.0,21788.0,152590.0,244460.0,292929.0,269875.0
2026-04-08 21:38:08.912737,109475,1609503461040165,1061006966,-0.905728,-0.056608,0.31232,-18.4625,18.52375,-24.955,23.168001,-19.288,8.816,eccentric,4,3.0,21788.0,152590.0,244460.0,292929.0,269875.0
2026-04-08 21:38:08.917285,109476,1609503461049106,1061015630,-0.905728,-0.056608,0.31232,-17.8325,19.01375,-26.38125,23.168001,-19.288,8.816,eccentric,4,3.0,21788.0,152590.0,244460.0,292929.0,269875.0
2026-04-08 21:38:08.918825,109477,1609503461063566,1061030508,-0.95648,-0.017568,0.349408,-10.5525,16.8175,-27.79875,23.432001,-19.128,8.688001,eccentric,4,3.0,21788.0,152590.0,244460.0,292929.0,269875.0
2026-04-08 21:38:08.925485,109478,1609503461072499,1061039196,-0.98576,-0.128832,0.220576,0.3675,14.74375,-30.14375,23.776001,-18.936,8.8,eccentric,4,3.0,21788.0,152590.0,244460.0,292929.0,269875.0
2026-04-08 21:38:08.975250,109479,1609503461086975,1061054068,-0.98576,-0.128832,0.220576,7.5075,14.07875,-34.7375,23.776001,-18.936,8.8,eccentric,4,3.0,21788.0,152590.0,244460.0,292929.0,269875.0
2026-04-08 21:38:08.978763,109480,1609503461095900,1061062761,-0.972096,-0.12688,0.30256,7.315,18.38375,-39.1825,24.096,-18.504002,7.960001,eccentric,4,3.0,21788.0,152590.0,244460.0,292929.0,269875.0
2026-04-08 21:38:09.014651,109491,1609503461110406,1061075595,-0.95648,-0.02928,0.460672,-2.31,22.7325,-41.25625,24.096,-18.504002,8.584001,eccentric,4,3.0,21765.0,152473.0,244303.0,292829.0,269769.0
2026-04-08 21:38:09.016252,109492,1609503461119560,1061086309,-0.964288,-0.02928,0.460672,-15.5225,21.4725,-40.495,23.744001,-18.072,8.584001,eccentric,4,3.0,21765.0,152473.0,244303.0,292829.0,269769.0
2026-04-08 21:38:09.019329,109493,1609503461128470,1061094960,-0.964288,-0.02928,0.460672,-22.4875,13.93875,-39.445,23.744001,-18.072,8.584001,eccentric,4,3.0,21765.0,152473.0,244303.0,292829.0,269769.0
2026-04-08 21:38:09.021482,109494,1609503461142948,1061109882,-0.952576,-0.054656,0.271328,-11.71625,7.97125,-40.76625,24.352001,-17.688002,6.336,eccentric,4,3.0,21765.0,152473.0,244303.0,292829.0,269769.0
2026-04-08 21:38:09.023724,109495,1609503461151844,1061118611,-0.899872,-0.181536,0.269376,7.30625,7.13125,-47.0575,24.664001,-17.248001,7.864,eccentric,4,3.0,21765.0,152473.0,244303.0,292829.0,269769.0
2026-04-08 21:38:09.026288,109496,1609503461166325,1061131511,-0.899872,-0.181536,0.269376,13.3525,8.00625,-52.0625,24.664001,-17.248001,7.864,eccentric,4,3.0,21765.0,152473.0,244303.0,292829.0,269769.0
2026-04-08 21:38:09.029024,109497,1609503461175693,1061142282,-0.884256,-0.140544,0.22448,11.8475,12.9325,-53.34875,25.12,-16.960001,7.656,eccentric,4,3.0,21765.0,152473.0,244303.0,292829.0,269769.0
2026-04-08 21:38:09.035037,109498,1609503461184739,1061150983,-0.884256,-0.140544,0.22448,1.88125,17.1675,-52.17625,25.12,-16.960001,7.656,eccentric,4,3.0,21765.0,152473.0,244303.0,292829.0,269769.0
2026-04-08 21:38:09.094765,109509,1609503461199775,1061166230,-0.823744,-0.091744,0.435296,-8.40875,16.178751,-52.4125,24.784,-16.136002,8.72,eccentric,4,3.0,21919.0,152955.0,244848.0,293115.0,269941.0
2026-04-08 21:38:09.096275,109510,1609503461208756,1061174932,-0.823744,-0.091744,0.435296,-10.19375,9.8,-53.34,24.784,-16.136002,8.72,eccentric,4,3.0,21919.0,152955.0,244848.0,293115.0,269941.0
2026-04-08 21:38:09.098932,109511,1609503461223204,1061189853,-0.767136,-0.124928,0.382592,3.36,8.07625,-55.30875,25.464,-15.936001,7.84,eccentric,4,3.0,21919.0,152955.0,244848.0,293115.0,269941.0
2026-04-08 21:38:09.101481,109512,1609503461232249,1061198629,-0.792512,-0.162016,0.144448,19.66125,11.05125,-58.7475,26.088001,-15.232,5.928001,eccentric,4,3.0,21919.0,152955.0,244848.0,293115.0,269941.0
2026-04-08 21:38:09.103928,109513,1609503461241150,1061207329,-0.792512,-0.162016,0.144448,14.48125,17.22,-59.78875,26.088001,-15.232,5.928001,eccentric,4,3.0,21919.0,152955.0,244848.0,293115.0,269941.0
2026-04-08 21:38:09.108788,109514,1609503461255662,1061222205,-0.79056,-0.050752,0.374784,-4.445,24.99,-57.54875,26.168001,-14.856001,8.104,eccentric,4,3.0,21919.0,152955.0,244848.0,293115.0,269941.0
2026-04-08 21:38:09.115030,109515,1609503461264585,1061230907,-0.79056,-0.050752,0.374784,-25.803751,26.1625,-54.74875,26.168001,-14.856001,8.104,eccentric,4,3.0,21919.0,152955.0,244848.0,293115.0,269941.0
2026-04-08 21:38:09.146485,109516,1609503461279037,1061245776,-0.815936,-0.06832,0.474336,-33.985,22.49625,-52.482502,26.472002,-14.112,7.136,eccentric,4,3.0,21919.0,152955.0,244848.0,293115.0,269941.0
2026-04-08 21:38:09.150069,109517,1609503461287938,1061254440,-0.815936,-0.06832,0.474336,-22.12875,16.4325,-51.17875,26.472002,-14.112,7.136,eccentric,4,3.0,21919.0,152955.0,244848.0,293115.0,269941.0
2026-04-08 21:38:09.178952,109528,1609503461303072,1061269428,-0.80032,-0.240096,0.236192,-4.17375,12.95,-52.745,26.872002,-13.552001,6.936,eccentric,4,3.0,21942.0,152934.0,244733.0,293069.0,269941.0
2026-04-08 21:38:09.180725,109529,1609503461312140,1061278228,-0.83936,-0.076128,0.044896,7.6825,14.14875,-54.075,27.176,-13.440001,6.832,eccentric,4,3.0,21942.0,152934.0,244733.0,293069.0,269941.0
2026-04-08 21:38:09.182575,109530,1609503461321042,1061286951,-0.83936,-0.076128,0.044896,5.01375,16.19625,-50.5925,27.176,-13.440001,6.832,eccentric,4,3.0,21942.0,152934.0,244733.0,293069.0,269941.0
2026-04-08 21:38:09.187665,109531,1609503461335563,1061301834,-0.788608,0.003904,0.33184,-9.0825,17.7625,-44.14375,27.528002,-12.896001,6.728,eccentric,4,3.0,21942.0,152934.0,244733.0,293069.0,269941.0
2026-04-08 21:38:09.217820,109532,1609503461344508,1061310512,-0.788608,0.003904,0.33184,-24.29,14.8575,-37.8175,27.528002,-12.896001,6.728,eccentric,4,3.0,21942.0,152934.0,244733.0,293069.0,269941.0
2026-04-08 21:38:09.221426,109533,1609503461359008,1061325354,-0.860832,-0.066368,0.277184,-28.53375,9.58125,-28.7525,27.656002,-12.480001,6.968,eccentric,4,3.0,21942.0,152934.0,244733.0,293069.0,269941.0
2026-04-08 21:38:09.223819,109534,1609503461367896,1061334010,-0.860832,-0.066368,0.277184,-14.46375,7.7175,-22.33875,27.656002,-12.480001,6.968,eccentric,4,3.0,21942.0,152934.0,244733.0,293069.0,269941.0
2026-04-08 21:38:09.279047,109535,1609503461382392,1061349049,-0.796416,-0.13664,0.177632,5.74875,7.28,-20.69375,27.232,-12.384001,6.752,eccentric,4,3.0,21942.0,152934.0,244733.0,293069.0,269941.0
2026-04-08 21:38:09.282755,109536,1609503461391280,1061357703,-0.796416,-0.13664,0.177632,10.2725,7.39375,-15.855001,27.232,-12.384001,6.752,eccentric,4,3.0,21942.0,152934.0,244733.0,293069.0,269941.0
2026-04-08 21:38:09.310052,109547,1609503461400226,1061366441,-0.895968,-0.035136,0.115168,1.60125,9.17875,-10.386251,27.624,-12.352,6.304,eccentric,4,3.0,21855.0,152491.0,244207.0,292809.0,269810.0
2026-04-08 21:38:09.312520,109548,1609503461414703,1061381385,-0.938912,-0.111264,0.222528,-11.83,7.95375,-6.67625,27.368002,-12.240001,6.784,eccentric,4,3.0,21855.0,152491.0,244207.0,292809.0,269810.0
2026-04-08 21:38:09.315096,109549,1609503461423604,1061390085,-0.938912,-0.111264,0.222528,-22.5575,2.6075,-3.47375,27.368002,-12.240001,6.784,eccentric,4,3.0,21855.0,152491.0,244207.0,292809.0,269810.0
2026-04-08 21:38:09.317632,109550,1609503461438092,1061404958,-0.987712,-0.08784,0.386496,-17.5175,-2.54625,-1.28625,27.352001,-12.752001,6.752,eccentric,4,3.0,21855.0,152491.0,244207.0,292809.0,269810.0
2026-04-08 21:38:09.320112,109551,1609503461447200,1061413700,-0.987712,-0.08784,0.386496,1.4175,-4.50625,-0.32375,27.352001,-12.752001,6.752,eccentric,4,3.0,21855.0,152491.0,244207.0,292809.0,269810.0
2026-04-08 21:38:09.322584,109552,1609503461456277,1061422410,-0.976,-0.105408,0.040992,18.24375,-1.72375,-0.9975,27.392002,-12.456,7.408001,eccentric,4,3.0,21855.0,152491.0,244207.0,292809.0,269810.0
2026-04-08 21:38:09.325120,109553,1609503461470806,1061437388,-0.976,-0.105408,0.040992,15.46125,1.05875,-0.6475,27.392002,-12.456,7.408001,eccentric,4,3.0,21855.0,152491.0,244207.0,292809.0,269810.0
2026-04-08 21:38:09.331368,109554,1609503461479735,1061446107,-1.038464,-0.046848,0.247904,-1.84625,0.595,1.155,27.432001,-12.120001,7.072001,eccentric,4,3.0,21855.0,152491.0,244207.0,292809.0,269810.0
2026-04-08 21:38:09.361544,109555,1609503461494203,1061460983,-1.036512,-0.119072,0.210816,-12.145,-0.34125,3.08,27.472002,-12.472,8.176001,eccentric,4,3.0,21855.0,152491.0,244207.0,292809.0,269810.0
2026-04-08 21:38:09.390073,109566,1609503461503578,1061469857,-1.036512,-0.119072,0.210816,-12.4075,-1.81125,4.55875,27.472002,-12.472,8.176001,eccentric,4,3.0,21813.0,152375.0,244085.0,292806.0,269790.0
2026-04-08 21:38:09.392540,109567,1609503461518069,1061484739,-0.962336,-0.171776,0.32208,-7.35,-5.6175,7.81375,27.368002,-12.504001,6.656,eccentric,4,3.0,21813.0,152375.0,244085.0,292806.0,269790.0
2026-04-08 21:38:09.395051,109568,1609503461527026,1061493463,-0.962336,-0.171776,0.32208,1.95125,-7.56,9.00375,27.368002,-12.504001,6.656,eccentric,4,3.0,21813.0,152375.0,244085.0,292806.0,269790.0
2026-04-08 21:38:09.397541,109569,1609503461536047,1061502232,-0.96624,-0.12688,0.22448,8.155,-7.04375,7.28875,26.848001,-12.344001,8.408,eccentric,4,3.0,21813.0,152375.0,244085.0,292806.0,269790.0
2026-04-08 21:38:09.402593,109570,1609503461550574,1061517128,-0.96624,-0.12688,0.22448,5.20625,-6.08125,7.63875,26.848001,-12.344001,8.408,eccentric,4,3.0,21813.0,152375.0,244085.0,292806.0,269790.0
2026-04-08 21:38:09.432761,109571,1609503461559504,1061525827,-0.972096,-0.171776,0.288896,-4.36625,-5.31125,9.5375,26.768002,-12.552001,8.52,eccentric,4,3.0,21813.0,152375.0,244085.0,292806.0,269790.0
2026-04-08 21:38:09.436500,109572,1609503461573966,1061540679,-0.981856,-0.281088,0.398208,-11.445,-6.405,8.91625,27.28,-12.960001,5.112001,eccentric,4,3.0,21813.0,152375.0,244085.0,292806.0,269790.0
2026-04-08 21:38:09.438877,109573,1609503461582864,1061549325,-0.981856,-0.281088,0.398208,-11.45375,-8.3825,5.565,27.28,-12.960001,5.112001,eccentric,4,3.0,21813.0,152375.0,244085.0,292806.0,269790.0
2026-04-08 21:38:09.469006,109574,1609503461597345,1061564520,-1.003328,-0.208864,0.177632,-1.54875,-7.7,0.16625,27.080002,-12.792001,6.904,concentric,4,3.0,21813.0,152375.0,244085.0,292806.0,269790.0
2026-04-08 21:38:09.498904,109585,1609503461606419,1061573264,-1.003328,-0.208864,0.177632,8.93375,-5.425,-4.4625,27.080002,-12.792001,6.904,concentric,4,3.0,21894.0,152722.0,244534.0,293063.0,269956.0
2026-04-08 21:38:09.501643,109586,1609503461615357,1061581925,-1.085312,-0.083936,0.144448,7.98,-3.57,-5.52125,27.016,-12.672001,7.28,concentric,4,3.0,21894.0,152722.0,244534.0,293063.0,269956.0
2026-04-08 21:38:09.502661,109587,1609503461629852,1061596828,-1.085312,-0.083936,0.144448,-3.57,-3.33375,-5.565,27.016,-12.672001,7.28,concentric,4,3.0,21894.0,152722.0,244534.0,293063.0,269956.0
2026-04-08 21:38:09.505042,109588,1609503461638783,1061605537,-0.99552,-0.216672,0.232288,-14.83125,-5.6525,-5.48625,27.088001,-12.472,7.736001,concentric,4,3.0,21894.0,152722.0,244534.0,293063.0,269956.0
2026-04-08 21:38:09.507504,109589,1609503461653299,1061620432,-0.99552,-0.216672,0.232288,-18.366251,-7.98875,-5.0925,27.088001,-12.472,7.736001,concentric,4,3.0,21894.0,152722.0,244534.0,293063.0,269956.0
2026-04-08 21:38:09.579846,109590,1609503461662210,1061629111,-0.958432,-0.25376,0.374784,-12.18875,-8.8375,-6.1425,26.784,-12.448001,6.344,concentric,4,3.0,21894.0,152722.0,244534.0,293063.0,269956.0
2026-04-08 21:38:09.583309,109591,1609503461676708,1061641905,-0.950624,-0.18544,0.22448,-2.9575,-7.6825,-7.0,27.304,-12.688001,7.400001,concentric,4,3.0,21894.0,152722.0,244534.0,293063.0,269956.0
2026-04-08 21:38:09.590656,109592,1609503461685941,1061652717,-0.950624,-0.18544,0.22448,4.1475,-5.705,-7.805,27.304,-12.688001,7.400001,concentric,4,3.0,21894.0,152722.0,244534.0,293063.0,269956.0
2026-04-08 21:38:09.592350,109593,1609503461694840,1061661375,-0.933056,-0.115168,0.378688,2.345,-3.64,-7.98875,27.136002,-12.52,7.456,concentric,4,3.0,21894.0,152722.0,244534.0,293063.0,269956.0
2026-04-08 21:38:09.620614,109604,1609503461709321,1061676386,-0.933056,-0.115168,0.378688,-6.895,-3.0275,-7.21,27.136002,-12.52,7.456,concentric,4,3.0,21874.0,152589.0,244408.0,293007.0,269903.0
2026-04-08 21:38:09.622320,109605,1609503461718279,1061685045,-0.960384,-0.210816,0.433344,-15.25125,-5.5475,-6.81625,27.384,-12.792001,7.192,concentric,4,3.0,21874.0,152589.0,244408.0,293007.0,269903.0
2026-04-08 21:38:09.624733,109606,1609503461732757,1061699904,-0.960384,-0.210816,0.433344,-14.79625,-8.0325,-7.105,27.384,-12.792001,7.192,concentric,4,3.0,21874.0,152589.0,244408.0,293007.0,269903.0
2026-04-08 21:38:09.626363,109607,1609503461741684,1061708628,-0.977952,-0.189344,0.158112,-5.8625,-8.225,-8.02375,26.840002,-12.656,9.632001,concentric,4,3.0,21874.0,152589.0,244408.0,293007.0,269903.0
2026-04-08 21:38:09.630545,109608,1609503461750684,1061717322,-0.977952,-0.189344,0.158112,4.8825,-7.1225,-6.30875,26.840002,-12.656,9.632001,concentric,4,3.0,21874.0,152589.0,244408.0,293007.0,269903.0
2026-04-08 21:38:09.632391,109609,1609503461765222,1061732221,-0.931104,-0.081984,0.339648,8.16375,-6.34375,-3.36875,26.928001,-12.656,9.312,concentric,4,3.0,21874.0,152589.0,244408.0,293007.0,269903.0
2026-04-08 21:38:09.634479,109610,1609503461774170,1061740889,-0.931104,-0.081984,0.433344,1.61,-6.895,0.14,26.928001,-12.656,9.312,concentric,4,3.0,21874.0,152589.0,244408.0,293007.0,269903.0
2026-04-08 21:38:09.642000,109611,1609503461788680,1061755789,-0.91744,-0.132736,0.427488,-3.64875,-9.275,4.095,26.848001,-12.824,9.240001,concentric,4,3.0,21874.0,152589.0,244408.0,293007.0,269903.0
2026-04-08 21:38:09.676189,109612,1609503461797665,1061764537,-0.85888,-0.218624,0.394304,-2.35375,-10.115,6.7025,27.28,-12.872001,7.496,concentric,4,3.0,21874.0,152589.0,244408.0,293007.0,269903.0
2026-04-08 21:38:09.709364,109623,1609503461812218,1061777558,-0.85888,-0.218624,0.394304,3.5,-9.1,7.04375,27.28,-12.872001,7.496,concentric,4,3.0,21849.0,152606.0,244420.0,293063.0,269907.0
2026-04-08 21:38:09.711059,109624,1609503461821557,1061788287,-0.854976,-0.171776,0.320128,9.00375,-6.5975,7.875,26.976002,-12.848001,7.216001,concentric,4,3.0,21849.0,152606.0,244420.0,293063.0,269907.0
2026-04-08 21:38:09.712586,109625,1609503461830448,1061796937,-0.854976,-0.171776,0.320128,7.735,-4.82125,10.0275,26.976002,-12.848001,7.216001,concentric,4,3.0,21849.0,152606.0,244420.0,293063.0,269907.0
2026-04-08 21:38:09.716993,109626,1609503461844955,1061811769,-0.958432,-0.119072,0.208864,1.51375,-5.10125,12.32,26.760002,-12.816001,8.616,concentric,4,3.0,21849.0,152606.0,244420.0,293063.0,269907.0
2026-04-08 21:38:09.718567,109627,1609503461853887,1061820455,-0.958432,-0.119072,0.208864,-2.2575,-7.42,14.72625,26.760002,-12.816001,8.616,concentric,4,3.0,21849.0,152606.0,244420.0,293063.0,269907.0
2026-04-08 21:38:09.720160,109628,1609503461868431,1061835327,-0.929152,-0.148352,0.26352,-1.4525,-11.585,17.08875,26.800001,-13.496,5.36,concentric,4,3.0,21849.0,152606.0,244420.0,293063.0,269907.0
2026-04-08 21:38:09.751307,109629,1609503461877447,1061844022,-0.882304,-0.099552,0.265472,4.3225,-14.37625,20.83375,26.592001,-13.712001,8.136001,concentric,4,3.0,21849.0,152606.0,244420.0,293063.0,269907.0
2026-04-08 21:38:09.755766,109630,1609503461891931,1061858913,-0.882304,-0.099552,0.265472,13.0025,-15.07625,24.7275,26.592001,-13.712001,8.136001,concentric,4,3.0,21849.0,152606.0,244420.0,293063.0,269907.0
2026-04-08 21:38:09.781458,109641,1609503461900850,1061867614,-0.77104,-0.103456,0.347456,16.07375,-13.69375,30.89625,26.528002,-13.792001,7.824,concentric,4,3.0,21883.0,152873.0,244845.0,293278.0,270036.0
2026-04-08 21:38:09.784834,109642,1609503461909833,1061876389,-0.77104,-0.103456,0.347456,11.2525,-12.8275,37.10875,26.528002,-13.792001,7.824,concentric,4,3.0,21883.0,152873.0,244845.0,293278.0,270036.0
2026-04-08 21:38:09.786380,109643,1609503461924332,1061891319,-0.895968,-0.16592,0.17568,3.89375,-12.53,41.4225,26.328001,-14.576001,7.608,concentric,4,3.0,21883.0,152873.0,244845.0,293278.0,270036.0
2026-04-08 21:38:09.790433,109644,1609503461933210,1061899979,-0.895968,-0.16592,0.17568,-0.105,-14.0,43.732502,26.328001,-14.576001,7.608,concentric,4,3.0,21883.0,152873.0,244845.0,293278.0,270036.0
2026-04-08 21:38:09.821967,109645,1609503461947685,1061912854,-0.784704,-0.1464,0.464576,2.5025,-15.6975,44.40625,25.904001,-15.024001,8.048,concentric,4,3.0,21883.0,152873.0,244845.0,293278.0,270036.0
2026-04-08 21:38:09.823714,109646,1609503461956867,1061923605,-0.817888,-0.040992,0.294752,11.68125,-14.56,44.91375,25.432001,-15.704,5.688,concentric,4,3.0,21883.0,152873.0,244845.0,293278.0,270036.0
2026-04-08 21:38:09.829232,109647,1609503461965810,1061932258,-0.817888,-0.040992,0.294752,22.9425,-11.69,46.97,25.432001,-15.704,5.688,concentric,4,3.0,21883.0,152873.0,244845.0,293278.0,270036.0
2026-04-08 21:38:09.834213,109648,1609503461980307,1061947132,-0.79056,-0.066368,0.349408,22.225,-11.13875,51.345,25.36,-16.056002,7.736001,concentric,4,3.0,21883.0,152873.0,244845.0,293278.0,270036.0
2026-04-08 21:38:09.876197,109649,1609503461989217,1061955822,-0.79056,-0.066368,0.349408,9.0125,-12.46875,57.77625,25.36,-16.056002,7.736001,concentric,4,3.0,21883.0,152873.0,244845.0,293278.0,270036.0
2026-04-08 21:38:09.904832,109660,1609503462004126,1061971069,-0.759328,-0.18544,0.240096,-3.5,-13.09,61.50375,24.936,-16.904001,7.08,concentric,4,3.0,21965.0,153275.0,245363.0,293603.0,270209.0
2026-04-08 21:38:09.906481,109661,1609503462013109,1061979754,-0.759328,-0.18544,0.240096,-9.63375,-13.95625,60.82125,24.936,-16.904001,7.08,concentric,4,3.0,21965.0,153275.0,245363.0,293603.0,270209.0
2026-04-08 21:38:09.910667,109662,1609503462027614,1061994612,-0.841312,-0.124928,0.238144,-7.3325,-14.385,59.71875,24.488,-17.296001,7.928001,concentric,4,3.0,21965.0,153275.0,245363.0,293603.0,270209.0
2026-04-08 21:38:09.912299,109663,1609503462036740,1062003290,-0.792512,-0.025376,0.425536,1.32125,-14.48125,60.9,24.488,-18.072,8.232,concentric,4,3.0,21965.0,153275.0,245363.0,293603.0,270209.0
2026-04-08 21:38:09.914828,109664,1609503462045678,1062012003,-0.792512,-0.025376,0.425536,16.42375,-14.735,61.32,23.808,-18.072,8.232,concentric,4,3.0,21965.0,153275.0,245363.0,293603.0,270209.0
2026-04-08 21:38:09.916441,109665,1609503462060298,1062026918,-0.872544,-0.083936,0.181536,26.9325,-14.25375,60.0075,23.456001,-18.712002,8.872001,concentric,4,3.0,21965.0,153275.0,245363.0,293603.0,270209.0
2026-04-08 21:38:09.923034,109666,1609503462069259,1062035595,-0.872544,-0.083936,0.181536,21.7525,-15.3125,58.44125,23.456001,-18.712002,8.872001,concentric,4,3.0,21965.0,153275.0,245363.0,293603.0,270209.0
2026-04-08 21:38:09.951580,109667,1609503462083746,1062050471,-0.81984,-0.140544,0.26352,7.9625,-14.175,60.08625,23.12,-19.320002,9.024,concentric,4,3.0,21965.0,153275.0,245363.0,293603.0,270209.0
2026-04-08 21:38:09.956060,109668,1609503462092645,1062059120,-0.81984,-0.140544,0.26352,-2.66875,-11.05125,61.075,23.12,-19.320002,9.024,concentric,4,3.0,21965.0,153275.0,245363.0,293603.0,270209.0
2026-04-08 21:38:09.957574,109669,1609503462101568,1062067823,-0.847168,-0.046848,0.345504,-6.93,-10.98125,59.17625,22.880001,-19.824001,8.168,concentric,4,3.0,21965.0,153275.0,245363.0,293603.0,270209.0
2026-04-08 21:38:09.989817,109680,1609503462116075,1062082771,-0.847168,-0.046848,0.345504,-0.00875,-9.14375,56.74375,22.880001,-19.824001,8.168,concentric,4,3.0,22010.0,153561.0,245722.0,293814.0,270295.0
2026-04-08 21:38:09.991306,109681,1609503462125023,1062091472,-0.991616,0.025376,0.30256,15.49625,-4.6025,51.607502,22.68,-20.536001,8.784,concentric,4,3.0,22010.0,153561.0,245722.0,293814.0,270295.0
2026-04-08 21:38:09.995411,109682,1609503462139552,1062106342,-0.96624,-0.042944,0.206912,23.45875,-3.0625,47.17125,22.616001,-20.256,7.8,concentric,4,3.0,22010.0,153561.0,245722.0,293814.0,270295.0
2026-04-08 21:38:10.001731,109683,1609503462148528,1062115055,-0.96624,-0.042944,0.206912,16.4325,-3.85875,47.66125,22.616001,-20.256,7.8,concentric,4,3.0,22010.0,153561.0,245722.0,293814.0,270295.0
2026-04-08 21:38:10.030272,109684,1609503462163001,1062129966,-0.96624,0.005856,0.154208,8.74125,-5.2325,49.21875,22.368002,-21.04,7.808001,concentric,4,3.0,22010.0,153561.0,245722.0,293814.0,270295.0
2026-04-08 21:38:10.038049,109685,1609503462171893,1062138656,-0.96624,0.005856,0.154208,3.63125,-8.855001,48.58875,22.368002,-21.04,7.808001,concentric,4,3.0,22010.0,153561.0,245722.0,293814.0,270295.0
2026-04-08 21:38:10.038156,109686,1609503462180796,1062147296,-1.026752,0.074176,0.201056,-0.32375,-12.915,46.69875,21.84,-21.704,8.056001,concentric,4,3.0,22010.0,153561.0,245722.0,293814.0,270295.0
2026-04-08 21:38:10.067459,109687,1609503462195424,1062162217,-1.026752,0.074176,0.201056,-3.29875,-15.30375,42.79625,21.84,-21.704,8.056001,concentric,4,3.0,22010.0,153561.0,245722.0,293814.0,270295.0
2026-04-08 21:38:10.099865,109698,1609503462204336,1062170926,-0.958432,0.031232,0.222528,-0.2275,-14.65625,34.4925,21.784,-21.856,9.208,concentric,4,3.0,22010.0,153565.0,245725.0,293841.0,270351.0
2026-04-08 21:38:10.101444,109699,1609503462218892,1062185764,-1.069696,0.042944,0.286944,3.745,-10.59625,26.2675,21.816002,-22.264002,8.368,concentric,4,3.0,22010.0,153565.0,245725.0,293841.0,270351.0
2026-04-08 21:38:10.105672,109700,1609503462227969,1062194544,-1.069696,0.042944,0.286944,1.365,-6.5625,23.695,21.816002,-22.264002,8.368,concentric,4,3.0,22010.0,153565.0,245725.0,293841.0,270351.0
2026-04-08 21:38:10.107360,109701,1609503462242478,1062209443,-1.079456,0.115168,0.222528,-4.725,-6.545,25.725,21.376001,-22.384,9.112,concentric,4,3.0,22010.0,153565.0,245725.0,293841.0,270351.0
2026-04-08 21:38:10.109794,109702,1609503462251384,1062218106,-1.079456,0.115168,0.222528,-6.125,-7.455,26.3725,21.376001,-22.384,9.112,concentric,4,3.0,22010.0,153565.0,245725.0,293841.0,270351.0
2026-04-08 21:38:10.111386,109703,1609503462260311,1062226750,-1.079456,0.083936,0.251808,-2.86125,-8.54,23.5375,21.848001,-22.928001,8.016001,concentric,4,3.0,22010.0,153565.0,245725.0,293841.0,270351.0
2026-04-08 21:38:10.142974,109704,1609503462274841,1062241640,-1.079456,0.083936,0.251808,-2.73,-10.115,20.4925,21.848001,-22.928001,8.016001,concentric,4,3.0,22010.0,153565.0,245725.0,293841.0,270351.0
2026-04-08 21:38:10.177560,109705,1609503462283761,1062250295,-1.124352,0.093696,0.300608,-4.4975,-7.62125,15.365,21.856,-22.544,8.176001,concentric,4,3.0,22010.0,153565.0,245725.0,293841.0,270351.0
2026-04-08 21:38:10.179782,109706,1609503462298194,1062265158,-1.149728,0.115168,0.308416,-7.56875,-3.07125,8.11125,21.856,-22.544,10.608001,concentric,4,3.0,22010.0,153565.0,245725.0,293841.0,270351.0
2026-04-08 21:38:10.207598,109717,1609503462307549,1062274105,-1.149728,0.115168,0.308416,-13.76375,-0.0525,3.03625,21.432001,-22.872002,10.608001,concentric,4,3.0,22013.0,153587.0,245748.0,293923.0,270425.0
2026-04-08 21:38:10.214355,109718,1609503462322038,1062288969,-1.016992,0.05856,0.345504,-20.58,-0.5775,-0.9625,21.880001,-22.672,8.6,concentric,4,3.0,22013.0,153587.0,245748.0,293923.0,270425.0
2026-04-08 21:38:10.216071,109719,1609503462330933,1062297611,-1.016992,0.05856,0.345504,-25.48,-3.815,-4.40125,21.880001,-22.672,8.6,concentric,4,3.0,22013.0,153587.0,245748.0,293923.0,270425.0
2026-04-08 21:38:10.218819,109720,1609503462339895,1062306305,-0.944768,0.07808,0.398208,-27.055,-8.33,-6.125,21.76,-22.872002,11.096001,concentric,4,3.0,22013.0,153587.0,245748.0,293923.0,270425.0
2026-04-08 21:38:10.221895,109721,1609503462354540,1062321142,-0.944768,0.07808,0.398208,-22.00625,-11.69,-8.575,21.76,-22.872002,11.096001,concentric,4,3.0,22013.0,153587.0,245748.0,293923.0,270425.0
2026-04-08 21:38:10.224547,109722,1609503462363443,1062329850,-0.979904,0.056608,0.376736,-16.065,-13.5975,-10.5525,22.016,-22.768002,9.632001,concentric,4,3.0,22013.0,153587.0,245748.0,293923.0,270425.0
2026-04-08 21:38:10.252830,109723,1609503462377948,1062344801,-0.979904,0.056608,0.376736,-15.89875,-15.25125,-11.41875,22.016,-22.768002,9.632001,concentric,4,3.0,22013.0,153587.0,245748.0,293923.0,270425.0
2026-04-08 21:38:10.256323,109724,1609503462386855,1062353455,-1.00528,-0.005856,0.454816,-20.553751,-16.40625,-12.145,22.312,-22.960001,9.608001,concentric,4,3.0,22013.0,153587.0,245748.0,293923.0,270425.0
2026-04-08 21:38:10.258840,109725,1609503462401356,1062368355,-1.143872,0.074176,0.269376,-27.2475,-16.415,-14.30625,22.624,-22.664001,9.080001,concentric,4,3.0,22013.0,153587.0,245748.0,293923.0,270425.0
2026-04-08 21:38:10.290062,109736,1609503462410369,1062377111,-1.143872,0.074176,0.269376,-29.47,-15.995,-15.70625,22.624,-22.664001,9.080001,concentric,4,3.0,22056.0,153725.0,245867.0,293971.0,270477.0
2026-04-08 21:38:10.292610,109737,1609503462419354,1062385855,-1.19072,0.091744,0.316224,-26.705,-13.99125,-17.0625,22.848001,-22.328001,9.528001,concentric,4,3.0,22056.0,153725.0,245867.0,293971.0,270477.0
2026-04-08 21:38:10.295073,109738,1609503462433975,1062400744,-1.19072,0.091744,0.316224,-26.78375,-11.59375,-20.48375,22.848001,-22.328001,9.528001,concentric,4,3.0,22056.0,153725.0,245867.0,293971.0,270477.0
2026-04-08 21:38:10.299408,109739,1609503462442890,1062409429,-1.18096,-0.007808,0.333792,-27.6675,-8.11125,-25.90875,23.264002,-22.312,10.128,concentric,4,3.0,22056.0,153725.0,245867.0,293971.0,270477.0
2026-04-08 21:38:10.327839,109740,1609503462457392,1062424281,-1.18096,-0.007808,0.333792,-29.4,-4.585,-32.55875,23.264002,-22.312,10.128,concentric,4,3.0,22056.0,153725.0,245867.0,293971.0,270477.0
2026-04-08 21:38:10.331315,109741,1609503462466314,1062433012,-1.120448,-0.05856,0.421632,-31.24625,-1.2425,-32.03375,23.848001,-21.968,10.152,concentric,4,3.0,22056.0,153725.0,245867.0,293971.0,270477.0
2026-04-08 21:38:10.333855,109742,1609503462475225,1062441662,-1.120448,-0.05856,0.421632,-25.08625,3.08,-30.19625,23.848001,-21.968,10.152,concentric,4,3.0,22056.0,153725.0,245867.0,293971.0,270477.0
2026-04-08 21:38:10.364099,109743,1609503462489782,1062456564,-1.266848,0.023424,0.306464,-13.3175,8.84625,-30.68625,24.512001,-21.928001,9.376,concentric,4,3.0,22056.0,153725.0,245867.0,293971.0,270477.0
2026-04-08 21:38:10.367619,109744,1609503462498769,1062465239,-1.266848,0.023424,0.306464,-1.35625,13.39625,-32.235,24.512001,-21.928001,9.376,concentric,4,3.0,22056.0,153725.0,245867.0,293971.0,270477.0
2026-04-08 21:38:10.401376,109755,1609503462513323,1062480224,-1.245376,0.05856,0.345504,4.05125,16.56375,-34.25625,24.848001,-21.560001,9.096001,concentric,4,3.0,21934.0,153179.0,245244.0,293649.0,270315.0
2026-04-08 21:38:10.403908,109756,1609503462522252,1062488908,-1.175104,0.046848,0.433344,1.505,16.4675,-34.41375,25.328001,-21.696001,9.160001,concentric,4,3.0,21934.0,153179.0,245244.0,293649.0,270315.0
2026-04-08 21:38:10.406602,109757,1609503462536840,1062503816,-1.175104,0.046848,0.433344,-7.37625,13.4225,-34.44875,25.328001,-21.696001,9.160001,concentric,4,3.0,21934.0,153179.0,245244.0,293649.0,270315.0
2026-04-08 21:38:10.408841,109758,1609503462545773,1062512505,-1.153632,0.035136,0.550464,-13.43125,9.91375,-33.67875,25.352001,-20.864,10.144,concentric,4,3.0,21934.0,153179.0,245244.0,293649.0,270315.0
2026-04-08 21:38:10.411395,109759,1609503462554694,1062521180,-1.153632,0.035136,0.550464,-12.075,8.75,-31.491251,25.352001,-20.864,10.144,concentric,4,3.0,21934.0,153179.0,245244.0,293649.0,270315.0
2026-04-08 21:38:10.441615,109760,1609503462569207,1062536110,-1.270752,0.074176,0.447008,-5.34625,9.42375,-26.0925,25.608002,-20.784,10.192,concentric,4,3.0,21934.0,153179.0,245244.0,293649.0,270315.0
2026-04-08 21:38:10.477583,109761,1609503462578137,1062544785,-1.270752,0.074176,0.447008,0.3675,9.73875,-20.44,25.608002,-20.784,10.192,concentric,4,3.0,21934.0,153179.0,245244.0,293649.0,270315.0
2026-04-08 21:38:10.479706,109762,1609503462592615,1062559638,-1.292224,0.119072,0.491904,0.6125,9.35375,-19.08375,26.136002,-20.656,7.576,concentric,4,3.0,21934.0,153179.0,245244.0,293649.0,270315.0
2026-04-08 21:38:10.484576,109763,1609503462601559,1062568304,-1.251232,0.099552,0.552416,-3.99,7.83125,-18.445,26.496002,-20.568,9.6,concentric,4,3.0,21934.0,153179.0,245244.0,293649.0,270315.0
2026-04-08 21:38:10.511924,109774,1609503462616120,1062583186,-1.251232,0.099552,0.552416,-8.155,5.6175,-15.6625,26.496002,-20.568,9.6,concentric,4,3.0,21867.0,153002.0,245077.0,293519.0,270271.0
2026-04-08 21:38:10.513579,109775,1609503462625010,1062591893,-1.301984,0.124928,0.365024,-6.0375,2.415,-10.03625,26.864002,-20.616001,8.752001,concentric,4,3.0,21867.0,153002.0,245077.0,293519.0,270271.0
2026-04-08 21:38:10.515227,109776,1609503462633943,1062600602,-1.301984,0.124928,0.365024,1.1375,-0.9975,-5.69625,26.864002,-20.616001,8.752001,concentric,4,3.0,21867.0,153002.0,245077.0,293519.0,270271.0
2026-04-08 21:38:10.519415,109777,1609503462648504,1062615566,-1.29808,0.158112,0.359168,9.38,-3.15875,-3.03625,26.800001,-20.984001,9.76,concentric,4,3.0,21867.0,153002.0,245077.0,293519.0,270271.0
2026-04-08 21:38:10.521116,109778,1609503462657426,1062624292,-1.29808,0.158112,0.359168,10.96375,-5.6875,1.155,26.800001,-20.984001,9.76,concentric,4,3.0,21867.0,153002.0,245077.0,293519.0,270271.0
2026-04-08 21:38:10.522967,109779,1609503462671941,1062637119,-1.143872,0.152256,0.509472,6.43125,-8.3475,6.93,26.336,-21.104,9.528001,concentric,4,3.0,21867.0,153002.0,245077.0,293519.0,270271.0
2026-04-08 21:38:10.553760,109780,1609503462681266,1062647883,-1.116544,0.08784,0.51728,1.65375,-9.38875,12.573751,26.104002,-21.296001,8.048,concentric,4,3.0,21867.0,153002.0,245077.0,293519.0,270271.0
2026-04-08 21:38:10.558201,109781,1609503462690187,1062656549,-1.116544,0.08784,0.51728,3.71875,-9.03,15.4525,26.104002,-21.296001,8.048,concentric,4,3.0,21867.0,153002.0,245077.0,293519.0,270271.0
2026-04-08 21:38:10.559842,109782,1609503462704677,1062671417,-1.106784,0.074176,0.353312,8.53125,-7.95375,17.29875,26.368002,-21.616001,8.856,concentric,4,3.0,21867.0,153002.0,245077.0,293519.0,270271.0
2026-04-08 21:38:10.590660,109793,1609503462713696,1062680183,-1.106784,0.074176,0.353312,14.63,-6.37875,19.53875,26.368002,-21.616001,8.856,concentric,4,3.0,22036.0,153681.0,245789.0,293925.0,270506.0
2026-04-08 21:38:10.592309,109794,1609503462728223,1062695090,-1.079456,0.128832,0.300608,19.34625,-4.9,21.49875,25.928001,-22.048,9.8,concentric,4,3.0,22036.0,153681.0,245789.0,293925.0,270506.0
2026-04-08 21:38:10.593884,109795,1609503462737171,1062703783,-1.079456,0.128832,0.300608,18.71625,-3.5,21.95375,25.928001,-22.048,9.8,concentric,4,3.0,22036.0,153681.0,245789.0,293925.0,270506.0
2026-04-08 21:38:10.624964,109796,1609503462751675,1062718671,-0.991616,0.10736,0.3904,14.3325,-3.26375,22.6275,25.840002,-21.776001,8.56,concentric,4,3.0,22036.0,153681.0,245789.0,293925.0,270506.0
2026-04-08 21:38:10.629436,109797,1609503462760603,1062727355,-0.991616,0.10736,0.382592,9.31,-3.745,24.84125,25.840002,-21.776001,8.56,concentric,4,3.0,22036.0,153681.0,245789.0,293925.0,270506.0
2026-04-08 21:38:10.630890,109798,1609503462769520,1062736024,-0.979904,0.085888,0.382592,8.47,-3.54375,25.48,25.384,-22.792002,8.976001,concentric,4,3.0,22036.0,153681.0,245789.0,293925.0,270506.0
2026-04-08 21:38:10.638264,109799,1609503462784022,1062750884,-0.983808,0.056608,0.25376,10.6225,-3.38625,23.6775,25.032001,-22.472,9.424001,concentric,4,3.0,22036.0,153681.0,245789.0,293925.0,270506.0
