pc_time,serial_num,sensor_ts,host_ts,ax,ay,az,gx,gy,gz,mx,my,mz,phase,rpe,weight_kg,ppg_a,ppg_b,ppg_c,ppg_d,ppg_e
2026-04-08 21:38:13.071654,110253,1609503465197467,1065164309,-0.821792,0.121024,0.544608,12.8275,1.33875,1.18125,18.464,-24.6,10.76,eccentric,4,3.0,22729.0,156445.0,248831.0,295699.0,271502.0
2026-04-08 21:38:13.075121,110254,1609503465206394,1065173005,-0.821792,0.121024,0.544608,12.31125,4.22625,-2.5375,18.464,-24.6,10.76,eccentric,4,3.0,22729.0,156445.0,248831.0,295699.0,271502.0
2026-04-08 21:38:13.077586,110255,1609503465215349,1065181713,-0.821792,0.121024,0.544608,11.50625,6.9825,-2.87875,18.464,-24.6,10.76,eccentric,4,3.0,22729.0,156445.0,248831.0,295699.0,271502.0
2026-04-08 21:38:13.105114,110266,1609503465229893,1065196669,-0.942816,0.23424,0.538752,9.21375,9.68625,-1.19,18.544,-25.008001,9.264001,eccentric,4,3.0,22642.0,156031.0,248229.0,295289.0,271299.0
2026-04-08 21:38:13.107589,110267,1609503465238924,1065205399,-1.026752,0.267424,0.587552,7.62125,11.917501,-0.8225,18.376001,-25.032001,11.224001,eccentric,4,3.0,22642.0,156031.0,248229.0,295289.0,271299.0
2026-04-08 21:38:13.110079,110268,1609503465253447,1065220300,-1.026752,0.267424,0.587552,6.7025,13.06375,-1.35625,18.376001,-25.032001,11.224001,eccentric,4,3.0,22642.0,156031.0,248229.0,295289.0,271299.0
2026-04-08 21:38:13.113815,110269,1609503465262372,1065229045,-0.974048,0.240096,0.640256,6.9475,13.37875,-2.98375,18.536001,-25.240002,11.952001,eccentric,4,3.0,22642.0,156031.0,248229.0,295289.0,271299.0
2026-04-08 21:38:13.175347,110270,1609503465271298,1065237718,-0.974048,0.240096,0.640256,8.33,13.9825,-4.1125,18.536001,-25.240002,11.952001,eccentric,4,3.0,22642.0,156031.0,248229.0,295289.0,271299.0
2026-04-08 21:38:13.180286,110271,1609503465285755,1065252574,-1.100928,0.294752,0.589504,12.25,14.34125,-2.73,18.68,-25.320002,11.032001,eccentric,4,3.0,22642.0,156031.0,248229.0,295289.0,271299.0
2026-04-08 21:38:13.185260,110272,1609503465294684,1065261243,-1.100928,0.294752,0.589504,16.23125,14.35875,-0.98,18.68,-25.320002,11.032001,eccentric,4,3.0,22642.0,156031.0,248229.0,295289.0,271299.0
2026-04-08 21:38:13.187666,110273,1609503465309182,1065276143,-1.120448,0.30256,0.67344,17.66625,13.72875,0.0525,18.464,-25.432001,10.568001,eccentric,4,3.0,22642.0,156031.0,248229.0,295289.0,271299.0
2026-04-08 21:38:13.190146,110274,1609503465318109,1065284852,-1.128256,0.325984,0.591456,14.58625,12.3725,-0.6475,18.496,-25.568,9.624001,eccentric,4,3.0,22642.0,156031.0,248229.0,295289.0,271299.0
2026-04-08 21:38:13.217601,110285,1609503465332600,1065299763,-1.128256,0.325984,0.591456,10.99,10.8325,-1.2425,18.496,-25.568,9.624001,eccentric,4,3.0,22253.0,154343.0,246240.0,294054.0,270661.0
2026-04-08 21:38:13.220173,110286,1609503465341496,1065308460,-1.087264,0.349408,0.47824,10.08,11.025,-1.56625,18.184,-25.296001,11.280001,eccentric,4,3.0,22253.0,154343.0,246240.0,294054.0,270661.0
2026-04-08 21:38:13.222865,110287,1609503465356147,1065321328,-1.087264,0.349408,0.47824,9.40625,11.43625,-2.00375,18.184,-25.296001,11.280001,eccentric,4,3.0,22253.0,154343.0,246240.0,294054.0,270661.0
2026-04-08 21:38:13.225140,110288,1609503465365369,1065332059,-1.087264,0.314272,0.534848,9.73875,11.96125,-2.54625,18.144001,-25.208002,10.936001,eccentric,4,3.0,22253.0,154343.0,246240.0,294054.0,270661.0
2026-04-08 21:38:13.227617,110289,1609503465374317,1065340906,-1.087264,0.314272,0.534848,8.42625,11.4975,-0.0875,18.144001,-25.208002,10.936001,eccentric,4,3.0,22253.0,154343.0,246240.0,294054.0,270661.0
2026-04-08 21:38:13.259157,110290,1609503465388810,1065355765,-1.009184,0.31232,0.704672,7.4375,9.96625,2.345,18.272001,-25.568,12.160001,eccentric,4,3.0,22253.0,154343.0,246240.0,294054.0,270661.0
2026-04-08 21:38:13.262258,110291,1609503465397760,1065364411,-1.009184,0.31232,0.579744,7.2975,9.82625,1.60125,18.272001,-25.568,12.160001,eccentric,4,3.0,22253.0,154343.0,246240.0,294054.0,270661.0
2026-04-08 21:38:13.265118,110292,1609503465412217,1065379273,-1.040416,0.314272,0.583648,4.73375,10.5525,0.875,18.392,-25.44,10.104,eccentric,4,3.0,22253.0,154343.0,246240.0,294054.0,270661.0
2026-04-08 21:38:13.307637,110303,1609503465421267,1065388595,-1.059936,0.324032,0.659776,2.205,10.6575,1.785,18.560001,-25.376001,9.992001,eccentric,4,3.0,22027.0,153338.0,244900.0,293081.0,270099.0
2026-04-08 21:38:13.310176,110304,1609503465430296,1065397355,-1.059936,0.324032,0.659776,0.665,11.99625,2.52875,18.560001,-25.376001,9.992001,eccentric,4,3.0,22027.0,153338.0,244900.0,293081.0,270099.0
2026-04-08 21:38:13.312621,110305,1609503465444826,1065410222,-1.106784,0.300608,0.40016,-1.89875,13.46625,3.36,18.12,-25.2,10.464001,eccentric,4,3.0,22027.0,153338.0,244900.0,293081.0,270099.0
2026-04-08 21:38:13.315219,110306,1609503465454209,1065420955,-1.106784,0.300608,0.40016,-2.275,15.96,3.50875,18.12,-25.2,10.464001,eccentric,4,3.0,22027.0,153338.0,244900.0,293081.0,270099.0
2026-04-08 21:38:13.322666,110307,1609503465468722,1065435809,-1.097024,0.275232,0.437248,-1.16375,18.6725,3.78875,18.144001,-25.408,11.096001,eccentric,4,3.0,22027.0,153338.0,244900.0,293081.0,270099.0
2026-04-08 21:38:13.328958,110308,1609503465477676,1065444576,-1.097024,0.275232,0.437248,1.5225,20.58875,5.24125,18.144001,-25.408,11.096001,eccentric,4,3.0,22027.0,153338.0,244900.0,293081.0,270099.0
2026-04-08 21:38:13.359048,110309,1609503465486680,1065453295,-1.087264,0.2928,0.558272,5.87125,22.42625,5.46875,17.824001,-25.288002,10.072001,eccentric,4,3.0,22027.0,153338.0,244900.0,293081.0,270099.0
2026-04-08 21:38:13.362640,110310,1609503465501153,1065468161,-1.079456,0.277184,0.620736,7.98,25.0775,4.38375,17.768002,-25.376001,9.896001,eccentric,4,3.0,22027.0,153338.0,244900.0,293081.0,270099.0
2026-04-08 21:38:13.365080,110311,1609503465510058,1065476812,-1.079456,0.277184,0.620736,8.2075,27.50125,4.9,17.768002,-25.376001,9.896001,eccentric,4,3.0,22027.0,153338.0,244900.0,293081.0,270099.0
2026-04-08 21:38:13.398185,110322,1609503465525347,1065491798,-1.057984,0.27328,0.542656,7.21875,29.12875,5.39875,17.904001,-25.480001,9.440001,eccentric,4,3.0,21845.0,152717.0,244187.0,292570.0,269756.0
2026-04-08 21:38:13.401095,110323,1609503465534334,1065500506,-1.057984,0.27328,0.542656,6.5625,29.75,4.6375,17.904001,-25.480001,9.440001,eccentric,4,3.0,21845.0,152717.0,244187.0,292570.0,269756.0
2026-04-08 21:38:13.406764,110324,1609503465543260,1065509212,-0.972096,0.199104,0.421632,8.47,30.1525,3.98125,17.872002,-25.192001,10.296001,eccentric,4,3.0,21845.0,152717.0,244187.0,292570.0,269756.0
2026-04-08 21:38:13.410511,110325,1609503465557804,1065524092,-0.972096,0.199104,0.421632,13.43125,30.52875,3.73625,17.872002,-25.192001,10.296001,eccentric,4,3.0,21845.0,152717.0,244187.0,292570.0,269756.0
2026-04-08 21:38:13.439060,110326,1609503465566718,1065532808,-1.052128,0.206912,0.534848,18.9525,32.0425,2.415,17.888,-25.392002,8.536,eccentric,4,3.0,21845.0,152717.0,244187.0,292570.0,269756.0
2026-04-08 21:38:13.443466,110327,1609503465581182,1065547680,-1.022848,0.212768,0.456768,18.5675,32.20875,0.3325,17.976002,-25.04,9.68,eccentric,4,3.0,21845.0,152717.0,244187.0,292570.0,269756.0
2026-04-08 21:38:13.478767,110328,1609503465590075,1065556327,-1.022848,0.212768,0.456768,15.09375,30.91375,-2.87,17.976002,-25.04,9.68,eccentric,4,3.0,21845.0,152717.0,244187.0,292570.0,269756.0
2026-04-08 21:38:13.483557,110329,1609503465604563,1065571197,-0.98576,0.230336,0.542656,13.43125,29.63625,-6.23,17.800001,-25.192001,8.648001,eccentric,4,3.0,21845.0,152717.0,244187.0,292570.0,269756.0
2026-04-08 21:38:13.517468,110330,1609503465613461,1065579921,-0.98576,0.230336,0.542656,13.16,29.39125,-9.345,17.800001,-25.192001,8.648001,eccentric,4,3.0,21845.0,152717.0,244187.0,292570.0,269756.0
2026-04-08 21:38:13.546891,110341,1609503465622366,1065588680,-1.081408,0.203008,0.396256,15.1375,28.70875,-10.2725,18.248001,-25.192001,8.256001,eccentric,4,3.0,21682.0,152028.0,243421.0,292102.0,269530.0
2026-04-08 21:38:13.548648,110342,1609503465636919,1065603605,-1.081408,0.203008,0.396256,21.3675,27.72,-9.52,18.248001,-25.192001,8.256001,eccentric,4,3.0,21682.0,152028.0,243421.0,292102.0,269530.0
2026-04-08 21:38:13.550283,110343,1609503465645849,1065612335,-1.057984,0.222528,0.486048,25.585001,27.46625,-9.24875,17.808,-25.048,8.968,eccentric,4,3.0,21682.0,152028.0,243421.0,292102.0,269530.0
2026-04-08 21:38:13.554422,110344,1609503465660297,1065627172,-1.091168,0.242048,0.212768,23.26625,26.880001,-10.19375,17.808,-24.984001,5.480001,eccentric,4,3.0,21682.0,152028.0,243421.0,292102.0,269530.0
2026-04-08 21:38:13.556131,110345,1609503465669294,1065635892,-1.091168,0.242048,0.212768,13.055,27.2475,-13.6325,18.168001,-24.984001,5.480001,eccentric,4,3.0,21682.0,152028.0,243421.0,292102.0,269530.0
2026-04-08 21:38:13.557808,110346,1609503465683869,1065650812,-0.983808,0.228384,0.528992,-0.56875,27.0725,-17.42125,18.160002,-24.648,8.632,eccentric,4,3.0,21682.0,152028.0,243421.0,292102.0,269530.0
2026-04-08 21:38:13.561901,110347,1609503465692824,1065659472,-0.983808,0.228384,0.528992,-8.575,25.85625,-17.64,18.160002,-24.648,8.632,eccentric,4,3.0,21682.0,152028.0,243421.0,292102.0,269530.0
2026-04-08 21:38:13.564346,110348,1609503465701802,1065668165,-0.99552,0.177632,0.50752,-8.2425,23.0825,-16.52,18.376001,-24.488,8.776,eccentric,4,3.0,21682.0,152028.0,243421.0,292102.0,269530.0
2026-04-08 21:38:13.570128,110349,1609503465716291,1065683043,-0.99552,0.177632,0.50752,-3.78875,20.86,-17.96375,18.376001,-24.488,8.776,eccentric,4,3.0,21682.0,152028.0,243421.0,292102.0,269530.0
2026-04-08 21:38:13.602822,110360,1609503465725777,1065692159,-1.057984,0.15616,0.306464,2.00375,18.97,-20.01125,18.648,-24.256,7.504,eccentric,4,3.0,21598.0,151676.0,243041.0,291869.0,269406.0
2026-04-08 21:38:13.607022,110361,1609503465740339,1065707161,-1.057984,0.115168,0.181536,6.195,19.6175,-22.995,18.648,-24.256,7.504,eccentric,4,3.0,21598.0,151676.0,243041.0,291869.0,269406.0
2026-04-08 21:38:13.608607,110362,1609503465749285,1065715836,-1.038464,0.115168,0.181536,2.975,19.45125,-25.585001,18.656,-24.136002,8.976001,eccentric,4,3.0,21598.0,151676.0,243041.0,291869.0,269406.0
2026-04-08 21:38:13.610188,110363,1609503465758225,1065724514,-1.038464,0.115168,0.181536,-2.0825,18.66375,-26.32,18.656,-24.136002,8.976001,eccentric,4,3.0,21598.0,151676.0,243041.0,291869.0,269406.0
2026-04-08 21:38:13.641270,110364,1609503465772700,1065739390,-0.913536,0.238144,0.49776,2.05625,19.45125,-29.37375,18.816,-23.656002,8.632,eccentric,4,3.0,21598.0,151676.0,243041.0,291869.0,269406.0
2026-04-08 21:38:13.643570,110365,1609503465781613,1065748040,-0.972096,0.206912,0.470432,9.16125,21.595,-33.670002,19.320002,-23.376001,6.096,eccentric,4,3.0,21598.0,151676.0,243041.0,291869.0,269406.0
2026-04-08 21:38:13.649247,110366,1609503465796085,1065762910,-0.972096,0.206912,0.470432,11.08625,19.88875,-34.7725,19.320002,-23.376001,6.096,eccentric,4,3.0,21598.0,151676.0,243041.0,291869.0,269406.0
2026-04-08 21:38:13.677853,110367,1609503465804989,1065771598,-0.983808,0.105408,0.16592,10.115,17.38625,-34.23875,19.6,-23.248001,6.88,eccentric,4,3.0,21598.0,151676.0,243041.0,291869.0,269406.0
2026-04-08 21:38:13.682442,110368,1609503465819473,1065786468,-0.983808,0.105408,0.16592,7.35875,15.0675,-37.52,19.6,-23.248001,6.88,eccentric,4,3.0,21598.0,151676.0,243041.0,291869.0,269406.0
2026-04-08 21:38:13.713666,110379,1609503465828507,1065795158,-1.003328,0.105408,0.298656,-2.21375,14.21875,-43.715,19.632002,-22.488,6.976,eccentric,4,3.0,21590.0,151635.0,243104.0,292015.0,269488.0
2026-04-08 21:38:13.716120,110380,1609503465837465,1065803964,-1.003328,0.105408,0.298656,-9.82625,14.63,-50.58375,19.632002,-22.488,6.976,eccentric,4,3.0,21590.0,151635.0,243104.0,292015.0,269488.0
2026-04-08 21:38:13.717686,110381,1609503465852055,1065818897,-0.933056,0.152256,0.407968,-5.38125,14.245,-55.4925,20.2,-22.304,7.432,eccentric,4,3.0,21590.0,151635.0,243104.0,292015.0,269488.0
2026-04-08 21:38:13.721796,110382,1609503465861059,1065827586,-0.933056,0.230336,0.329888,3.92875,11.61125,-57.77625,20.2,-22.304,7.432,eccentric,4,3.0,21590.0,151635.0,243104.0,292015.0,269488.0
2026-04-08 21:38:13.776751,110383,1609503465875540,1065842446,-0.84912,0.226432,0.329888,13.9125,11.73375,-62.58875,20.176,-21.536001,7.936,eccentric,4,3.0,21590.0,151635.0,243104.0,292015.0,269488.0
2026-04-08 21:38:13.781150,110384,1609503465884437,1065851117,-0.837408,0.208864,0.22448,14.16625,11.94375,-67.340004,21.072,-21.400002,6.68,eccentric,4,3.0,21590.0,151635.0,243104.0,292015.0,269488.0
2026-04-08 21:38:13.782717,110385,1609503465898889,1065865968,-0.837408,0.208864,0.22448,5.4775,12.2325,-68.24125,21.072,-21.400002,6.68,eccentric,4,3.0,21590.0,151635.0,243104.0,292015.0,269488.0
2026-04-08 21:38:13.786950,110386,1609503465907822,1065874634,-0.901824,0.007808,0.26352,-7.5075,9.730001,-67.62,21.752,-20.816002,6.928001,eccentric,4,3.0,21590.0,151635.0,243104.0,292015.0,269488.0
2026-04-08 21:38:13.788721,110387,1609503465916738,1065883283,-0.901824,0.007808,0.26352,-26.285,6.0025,-66.7625,21.752,-20.816002,6.928001,eccentric,4,3.0,21590.0,151635.0,243104.0,292015.0,269488.0
2026-04-08 21:38:13.820321,110398,1609503465931239,1065898210,-0.999424,-0.02928,0.284992,-35.035,4.15625,-68.36375,21.904001,-19.856,7.064,eccentric,4,3.0,21733.0,152273.0,244024.0,292641.0,269794.0
2026-04-08 21:38:13.822104,110399,1609503465940300,1065906915,-0.999424,-0.02928,0.284992,-28.90125,5.69625,-75.97625,21.904001,-19.856,7.064,eccentric,4,3.0,21733.0,152273.0,244024.0,292641.0,269794.0
2026-04-08 21:38:13.824105,110400,1609503465954818,1065921844,-0.784704,0.056608,0.236192,-10.29,10.6225,-86.24875,22.832,-19.176,6.504,eccentric,4,3.0,21733.0,152273.0,244024.0,292641.0,269794.0
2026-04-08 21:38:13.825147,110401,1609503465963833,1065930510,-0.812032,0.074176,0.288896,5.03125,16.87,-91.63,23.184002,-18.688002,6.208,eccentric,4,3.0,21733.0,152273.0,244024.0,292641.0,269794.0
2026-04-08 21:38:13.833001,110402,1609503465978343,1065945388,-0.812032,0.074176,0.288896,11.725,19.5475,-89.13625,23.184002,-18.688002,6.208,eccentric,4,3.0,21733.0,152273.0,244024.0,292641.0,269794.0
2026-04-08 21:38:13.861679,110403,1609503465987263,1065954111,-0.882304,-0.083936,0.160064,1.58375,16.6425,-84.34125,23.688002,-18.264,6.552001,eccentric,4,3.0,21733.0,152273.0,244024.0,292641.0,269794.0
2026-04-08 21:38:13.866148,110404,1609503465996195,1065962776,-0.882304,-0.083936,0.160064,-10.6575,11.2,-82.38125,23.688002,-18.264,6.552001,eccentric,4,3.0,21733.0,152273.0,244024.0,292641.0,269794.0
2026-04-08 21:38:13.867733,110405,1609503466010659,1065977634,-0.732,-0.109312,0.345504,-17.21125,9.26625,-79.42375,24.36,-17.256,6.672,eccentric,4,3.0,21733.0,152273.0,244024.0,292641.0,269794.0
2026-04-08 21:38:13.874261,110406,1609503466019619,1065986302,-0.732,-0.109312,0.345504,-13.48375,11.5325,-75.8625,24.36,-17.256,6.672,eccentric,4,3.0,21733.0,152273.0,244024.0,292641.0,269794.0
2026-04-08 21:38:13.901205,110417,1609503466034155,1066001229,-0.675392,0.027328,0.259616,-2.28375,17.15,-74.3575,24.800001,-17.056002,6.488,eccentric,4,3.0,21839.0,152734.0,244574.0,292921.0,269917.0
2026-04-08 21:38:13.903114,110418,1609503466043079,1066009999,-0.792512,-0.093696,0.25376,9.24875,21.9625,-71.96,25.240002,-16.496,6.72,eccentric,4,3.0,21839.0,152734.0,244574.0,292921.0,269917.0
2026-04-08 21:38:13.910626,110419,1609503466057592,1066022893,-0.792512,-0.093696,0.25376,4.2,18.89125,-68.94125,25.240002,-16.496,6.72,eccentric,4,3.0,21839.0,152734.0,244574.0,292921.0,269917.0
2026-04-08 21:38:13.939204,110420,1609503466066944,1066033632,-0.749568,-0.085888,0.335744,-10.6925,11.29625,-65.38,25.52,-16.16,5.88,eccentric,4,3.0,21839.0,152734.0,244574.0,292921.0,269917.0
2026-04-08 21:38:13.943640,110421,1609503466075851,1066042273,-0.749568,-0.085888,0.335744,-12.285,10.05375,-61.87125,25.52,-16.16,5.88,eccentric,4,3.0,21839.0,152734.0,244574.0,292921.0,269917.0
2026-04-08 21:38:13.945275,110422,1609503466090355,1066057191,-0.724192,-0.00976,0.339648,-1.42625,13.78125,-56.14875,26.056002,-15.504001,6.936,eccentric,4,3.0,21839.0,152734.0,244574.0,292921.0,269917.0
2026-04-08 21:38:13.954338,110423,1609503466099285,1066065872,-0.724192,-0.00976,0.339648,4.3575,15.645,-46.305,26.056002,-15.504001,6.936,eccentric,4,3.0,21839.0,152734.0,244574.0,292921.0,269917.0
2026-04-08 21:38:13.986271,110424,1609503466113762,1066080729,-0.806176,0.042944,0.398208,2.0475,12.74,-33.3375,26.136002,-15.144001,6.248,eccentric,4,3.0,21839.0,152734.0,244574.0,292921.0,269917.0
2026-04-08 21:38:13.990772,110425,1609503466122676,1066089397,-0.806176,0.042944,0.111264,1.23375,10.49125,-23.03,26.136002,-15.144001,6.248,eccentric,4,3.0,21839.0,152734.0,244574.0,292921.0,269917.0
2026-04-08 21:38:14.018822,110436,1609503466137188,1066104273,-0.929152,-0.121024,0.111264,2.56375,12.1275,-20.8775,26.192001,-15.208001,5.752,eccentric,4,3.0,21774.0,152357.0,244104.0,292580.0,269709.0
2026-04-08 21:38:14.021313,110437,1609503466146157,1066112949,-0.93696,-0.066368,0.316224,-3.63125,12.78375,-22.7325,26.296001,-15.040001,6.264,eccentric,4,3.0,21774.0,152357.0,244104.0,292580.0,269709.0
2026-04-08 21:38:14.023822,110438,1609503466155106,1066121654,-0.93696,-0.066368,0.316224,-14.6475,11.01625,-18.83875,26.296001,-15.040001,6.264,eccentric,4,3.0,21774.0,152357.0,244104.0,292580.0,269709.0
2026-04-08 21:38:14.027177,110439,1609503466169654,1066136540,-0.894016,0.007808,0.396256,-12.075,9.415,-10.36,26.36,-15.008,5.632,eccentric,4,3.0,21774.0,152357.0,244104.0,292580.0,269709.0
2026-04-08 21:38:14.031420,110440,1609503466178604,1066145213,-0.894016,0.007808,0.396256,0.5775,9.19625,-7.0175,26.36,-15.008,5.632,eccentric,4,3.0,21774.0,152357.0,244104.0,292580.0,269709.0
2026-04-08 21:38:14.075350,110441,1609503466193089,1066160114,-0.993568,-0.017568,0.275232,11.06875,9.45,-5.76625,26.656002,-14.504001,5.976,eccentric,4,3.0,21774.0,152357.0,244104.0,292580.0,269709.0
2026-04-08 21:38:14.078930,110442,1609503466202009,1066168773,-0.993568,-0.017568,0.275232,10.22,10.08,-3.955,26.656002,-14.504001,5.976,eccentric,4,3.0,21774.0,152357.0,244104.0,292580.0,269709.0
2026-04-08 21:38:14.081373,110443,1609503466210918,1066177527,-1.040416,-0.035136,0.218624,-0.91,9.84375,-1.5575,26.656002,-14.616001,5.44,eccentric,4,3.0,21774.0,152357.0,244104.0,292580.0,269709.0
2026-04-08 21:38:14.108894,110454,1609503466225699,1066192876,-1.048224,-0.052704,0.183488,-11.12125,8.21625,0.46375,26.616001,-14.992001,6.256001,eccentric,4,3.0,21717.0,152088.0,243794.0,292458.0,269640.0
2026-04-08 21:38:14.111534,110455,1609503466234722,1066201594,-1.048224,-0.052704,0.183488,-11.9,5.2675,-0.07,26.616001,-14.992001,6.256001,eccentric,4,3.0,21717.0,152088.0,243794.0,292458.0,269640.0
2026-04-08 21:38:14.113892,110456,1609503466249235,1066214425,-1.011136,-0.115168,0.134688,-2.28375,2.75625,0.1925,26.416,-14.992001,6.392,eccentric,4,3.0,21717.0,152088.0,243794.0,292458.0,269640.0
2026-04-08 21:38:14.116446,110457,1609503466258450,1066225193,-1.011136,-0.115168,0.134688,8.925,2.8525,-0.88375,26.416,-14.992001,6.392,eccentric,4,3.0,21717.0,152088.0,243794.0,292458.0,269640.0
2026-04-08 21:38:14.146550,110458,1609503466272994,1066240120,-0.942816,-0.0488,0.255712,15.47875,4.41875,-1.82875,26.336,-14.968,6.264,eccentric,4,3.0,21717.0,152088.0,243794.0,292458.0,269640.0
2026-04-08 21:38:14.150124,110459,1609503466281895,1066248781,-0.942816,-0.0488,0.255712,9.485,6.545,-0.3325,26.336,-14.968,6.264,eccentric,4,3.0,21717.0,152088.0,243794.0,292458.0,269640.0
2026-04-08 21:38:14.152668,110460,1609503466290832,1066257433,-1.022848,-0.033184,0.300608,-5.03125,6.265,4.1125,26.608002,-15.104001,6.28,eccentric,4,3.0,21717.0,152088.0,243794.0,292458.0,269640.0
2026-04-08 21:38:14.159019,110461,1609503466305322,1066272327,-1.009184,-0.150304,0.277184,-15.81125,4.10375,7.42,26.544,-14.984001,5.528,eccentric,4,3.0,21717.0,152088.0,243794.0,292458.0,269640.0
2026-04-08 21:38:14.189087,110462,1609503466314244,1066281072,-1.009184,-0.150304,0.277184,-13.9475,2.68625,7.60375,26.544,-14.984001,5.528,eccentric,4,3.0,21717.0,152088.0,243794.0,292458.0,269640.0
2026-04-08 21:38:14.218489,110473,1609503466329182,1066295991,-0.96624,-0.121024,0.335744,-6.335,2.905,7.5075,26.36,-15.552001,5.488,eccentric,4,3.0,21862.0,152679.0,244532.0,293000.0,269950.0
2026-04-08 21:38:14.221337,110474,1609503466338158,1066304642,-0.96624,-0.121024,0.335744,1.19875,3.0975,10.185,26.36,-15.552001,5.488,eccentric,4,3.0,21862.0,152679.0,244532.0,293000.0,269950.0
2026-04-08 21:38:14.226452,110475,1609503466347083,1066313343,-1.018944,-0.095648,0.060512,2.2225,2.66,13.16875,26.592001,-15.472001,5.216,eccentric,4,3.0,21862.0,152679.0,244532.0,293000.0,269950.0
2026-04-08 21:38:14.228913,110476,1609503466361739,1066328312,-1.018944,-0.095648,0.060512,-2.4675,1.58375,15.67125,26.592001,-15.472001,5.216,eccentric,4,3.0,21862.0,152679.0,244532.0,293000.0,269950.0
2026-04-08 21:38:14.231369,110477,1609503466370677,1066337004,-0.974048,-0.1464,0.21472,-8.65375,0.21875,18.19125,26.352001,-15.744,5.192,eccentric,4,3.0,21862.0,152679.0,244532.0,293000.0,269950.0
2026-04-08 21:38:14.237747,110478,1609503466385195,1066351864,-0.970144,-0.173728,0.324032,-11.12125,-1.155,20.92125,26.048,-15.544001,8.848001,eccentric,4,3.0,21862.0,152679.0,244532.0,293000.0,269950.0
2026-04-08 21:38:14.267887,110479,1609503466394130,1066360567,-0.970144,-0.173728,0.324032,-9.87875,-1.4525,21.875,26.048,-15.544001,8.848001,eccentric,4,3.0,21862.0,152679.0,244532.0,293000.0,269950.0
2026-04-08 21:38:14.272398,110480,1609503466408601,1066375422,-0.987712,-0.101504,0.298656,-4.97875,-2.8875,22.02375,25.808,-15.864,5.416,concentric,4,3.0,21862.0,152679.0,244532.0,293000.0,269950.0
2026-04-08 21:38:14.273916,110481,1609503466417535,1066384072,-0.987712,-0.101504,0.298656,0.21,-3.89375,23.52875,25.808,-15.864,5.416,concentric,4,3.0,21862.0,152679.0,244532.0,293000.0,269950.0
2026-04-08 21:38:14.301707,110492,1609503466426837,1066392750,-1.022848,-0.00976,0.1952,4.795,-5.1275,25.655,25.656002,-16.384,8.024,concentric,4,3.0,21918.0,152985.0,244976.0,293298.0,270127.0
2026-04-08 21:38:14.303849,110493,1609503466441462,1066407703,-1.022848,-0.00976,0.1952,6.88625,-7.70875,27.991251,25.656002,-16.384,8.024,concentric,4,3.0,21918.0,152985.0,244976.0,293298.0,270127.0
2026-04-08 21:38:14.306350,110494,1609503466450388,1066416424,-0.901824,-0.007808,0.244,7.79625,-9.66875,31.01,25.544,-16.472,6.232,concentric,4,3.0,21918.0,152985.0,244976.0,293298.0,270127.0
2026-04-08 21:38:14.336622,110495,1609503466464900,1066431336,-0.901824,-0.054656,0.2928,7.42,-9.17,32.1125,25.544,-16.472,6.232,concentric,4,3.0,21918.0,152985.0,244976.0,293298.0,270127.0
2026-04-08 21:38:14.340212,110496,1609503466473830,1066440033,-0.964288,-0.062464,0.2928,0.28,-9.0825,32.83875,25.04,-16.936,5.64,concentric,4,3.0,21918.0,152985.0,244976.0,293298.0,270127.0
2026-04-08 21:38:14.342705,110497,1609503466482732,1066448726,-0.964288,-0.062464,0.2928,-8.46125,-9.91375,34.5275,25.04,-16.936,5.64,concentric,4,3.0,21918.0,152985.0,244976.0,293298.0,270127.0
2026-04-08 21:38:14.381462,110498,1609503466497238,1066463616,-0.98576,-0.037088,0.212768,-10.4125,-10.5,35.4025,24.888,-17.36,5.824,concentric,4,3.0,21918.0,152985.0,244976.0,293298.0,270127.0
2026-04-08 21:38:14.383005,110499,1609503466506164,1066472337,-0.923296,0.046848,0.33184,-4.76,-10.3425,35.5425,24.616001,-17.336,5.728,concentric,4,3.0,21918.0,152985.0,244976.0,293298.0,270127.0
2026-04-08 21:38:14.385085,110500,1609503466520618,1066487182,-0.923296,0.046848,0.33184,0.735,-10.7275,36.2425,24.616001,-17.336,5.728,concentric,4,3.0,21918.0,152985.0,244976.0,293298.0,270127.0
2026-04-08 21:38:14.416408,110511,1609503466530063,1066495945,-0.880352,0.03904,0.148352,4.83,-13.06375,37.70375,24.544,-17.984001,5.928001,concentric,4,3.0,21886.0,152935.0,244960.0,293283.0,270103.0
2026-04-08 21:38:14.418813,110512,1609503466544624,1066510835,-0.880352,0.03904,0.148352,8.33875,-15.56625,40.74875,24.544,-17.984001,5.928001,concentric,4,3.0,21886.0,152935.0,244960.0,293283.0,270103.0
2026-04-08 21:38:14.421556,110513,1609503466553557,1066519576,-0.899872,0.040992,0.269376,7.3325,-17.1325,43.0675,23.472002,-18.072,8.264,concentric,4,3.0,21886.0,152935.0,244960.0,293283.0,270103.0
2026-04-08 21:38:14.423840,110514,1609503466562498,1066528234,-0.899872,0.040992,0.269376,3.36,-17.68375,43.39125,23.472002,-18.072,8.264,concentric,4,3.0,21886.0,152935.0,244960.0,293283.0,270103.0
2026-04-08 21:38:14.427674,110515,1609503466577033,1066543128,-0.86864,-0.033184,0.232288,-3.1325,-16.8525,44.3625,24.04,-18.92,6.12,concentric,4,3.0,21886.0,152935.0,244960.0,293283.0,270103.0
2026-04-08 21:38:14.458244,110516,1609503466585908,1066551824,-0.86864,0.013664,0.199104,-6.93875,-16.37125,46.445,24.04,-18.92,8.168,concentric,4,3.0,21886.0,152935.0,244960.0,293283.0,270103.0
2026-04-08 21:38:14.461370,110517,1609503466600391,1066566685,-0.880352,0.013664,0.199104,-3.36875,-17.9375,48.67625,23.344002,-19.216002,6.304,concentric,4,3.0,21886.0,152935.0,244960.0,293283.0,270103.0
2026-04-08 21:38:14.463761,110518,1609503466609287,1066575338,-0.84912,0.08784,0.216672,5.7575,-19.9325,50.0675,22.6,-19.912,6.08,concentric,4,3.0,21886.0,152935.0,244960.0,293283.0,270103.0
2026-04-08 21:38:14.496665,110519,1609503466623799,1066590244,-0.84912,0.08784,0.216672,17.80625,-20.7375,50.9775,22.6,-19.912,6.08,concentric,4,3.0,21886.0,152935.0,244960.0,293283.0,270103.0
2026-04-08 21:38:14.525134,110530,1609503466632838,1066599135,-0.913536,0.001952,0.2928,26.241251,-18.655,50.225,22.688002,-20.216002,6.32,concentric,4,3.0,21876.0,152894.0,244888.0,293198.0,270057.0
2026-04-08 21:38:14.527618,110531,1609503466641805,1066607807,-0.913536,0.001952,0.2928,17.9025,-15.00625,50.02375,22.688002,-20.216002,6.32,concentric,4,3.0,21876.0,152894.0,244888.0,293198.0,270057.0
2026-04-08 21:38:14.530067,110532,1609503466656334,1066622689,-0.962336,0.080032,0.327936,0.8575,-13.22125,48.41375,22.544,-20.624,6.264,concentric,4,3.0,21876.0,152894.0,244888.0,293198.0,270057.0
2026-04-08 21:38:14.532591,110533,1609503466665275,1066631438,-0.962336,0.080032,0.327936,-7.70875,-13.5975,47.0225,22.544,-20.624,6.264,concentric,4,3.0,21876.0,152894.0,244888.0,293198.0,270057.0
2026-04-08 21:38:14.535128,110534,1609503466679761,1066646338,-0.931104,0.150304,0.407968,-8.60125,-15.33875,48.04625,21.864,-21.136002,5.520001,concentric,4,3.0,21876.0,152894.0,244888.0,293198.0,270057.0
2026-04-08 21:38:14.541388,110535,1609503466688760,1066655039,-0.845216,0.050752,0.216672,-2.17875,-17.15875,48.055,21.480001,-21.736002,6.264,concentric,4,3.0,21876.0,152894.0,244888.0,293198.0,270057.0
2026-04-08 21:38:14.571623,110536,1609503466697733,1066663713,-0.845216,0.050752,0.216672,6.3525,-17.35125,47.985,21.480001,-21.736002,6.264,concentric,4,3.0,21876.0,152894.0,244888.0,293198.0,270057.0
2026-04-08 21:38:14.575173,110537,1609503466712216,1066678605,-0.884256,0.115168,0.17568,11.06875,-16.9225,48.95625,21.112001,-22.144001,6.368001,concentric,4,3.0,21876.0,152894.0,244888.0,293198.0,270057.0
2026-04-08 21:38:14.577636,110538,1609503466721147,1066687284,-0.884256,0.115168,0.17568,14.315001,-12.04,47.55625,21.112001,-22.144001,6.368001,concentric,4,3.0,21876.0,152894.0,244888.0,293198.0,270057.0
2026-04-08 21:38:14.605107,110549,1609503466735744,1066702316,-0.929152,0.091744,0.251808,4.36625,-10.94625,48.86875,20.864,-22.464,6.784,concentric,4,3.0,21950.0,153250.0,245310.0,293513.0,270243.0
2026-04-08 21:38:14.607616,110550,1609503466744728,1066711174,-0.929152,0.091744,0.251808,-11.10375,-13.72,53.5675,20.864,-22.464,6.784,concentric,4,3.0,21950.0,153250.0,245310.0,293513.0,270243.0
2026-04-08 21:38:14.611683,110551,1609503466759217,1066726038,-0.899872,0.081984,0.20496,-14.980001,-14.5775,53.10375,20.304,-22.944,8.544001,concentric,4,3.0,21950.0,153250.0,245310.0,293513.0,270243.0
2026-04-08 21:38:14.641577,110552,1609503466768141,1066734695,-0.895968,0.228384,0.275232,-11.52375,-16.065,48.3525,19.744001,-23.288002,9.136001,concentric,4,3.0,21950.0,153250.0,245310.0,293513.0,270243.0
2026-04-08 21:38:14.679089,110553,1609503466777064,1066743378,-0.895968,0.228384,0.275232,-0.98875,-18.0425,44.49375,19.744001,-23.288002,9.136001,concentric,4,3.0,21950.0,153250.0,245310.0,293513.0,270243.0
2026-04-08 21:38:14.682641,110554,1609503466791536,1066758321,-0.923296,0.18544,0.193248,14.735,-14.46375,40.25875,19.632002,-23.576,6.416,concentric,4,3.0,21950.0,153250.0,245310.0,293513.0,270243.0
2026-04-08 21:38:14.685171,110555,1609503466800462,1066766984,-0.923296,0.18544,0.193248,18.13875,-10.167501,39.3925,19.632002,-23.576,6.416,concentric,4,3.0,21950.0,153250.0,245310.0,293513.0,270243.0
2026-04-08 21:38:14.687601,110556,1609503466814953,1066781855,-0.85888,0.130784,0.28304,5.1275,-7.5075,41.335,19.664001,-24.104002,6.000001,concentric,4,3.0,21950.0,153250.0,245310.0,293513.0,270243.0
2026-04-08 21:38:14.690155,110557,1609503466823869,1066790513,-0.85888,0.130784,0.28304,-12.635,-6.3525,44.0125,19.664001,-24.104002,6.000001,concentric,4,3.0,21950.0,153250.0,245310.0,293513.0,270243.0
2026-04-08 21:38:14.723915,110568,1609503466838395,1066805444,-0.895968,0.162016,0.431392,-27.36125,-8.575,42.665,18.952002,-24.368002,7.112001,concentric,4,3.0,22044.0,153807.0,245993.0,294026.0,270569.0
2026-04-08 21:38:14.726388,110569,1609503466847317,1066814157,-0.895968,0.162016,0.454816,-27.1075,-10.50875,36.67125,18.952002,-24.368002,7.112001,concentric,4,3.0,22044.0,153807.0,245993.0,294026.0,270569.0
2026-04-08 21:38:14.728886,110570,1609503466856231,1066822883,-0.925248,0.259616,0.454816,-17.0975,-10.33375,29.68,18.952002,-24.664001,9.400001,concentric,4,3.0,22044.0,153807.0,245993.0,294026.0,270569.0
2026-04-08 21:38:14.731339,110571,1609503466870705,1066837770,-1.003328,0.25376,0.413824,-3.50875,-8.4525,23.38,18.904001,-24.632002,6.944,concentric,4,3.0,22044.0,153807.0,245993.0,294026.0,270569.0
2026-04-08 21:38:14.733844,110572,1609503466879656,1066846490,-1.003328,0.25376,0.413824,5.2675,-7.6475,22.53125,18.904001,-24.632002,6.944,concentric,4,3.0,22044.0,153807.0,245993.0,294026.0,270569.0
2026-04-08 21:38:14.785414,110573,1609503466894146,1066859306,-1.022848,0.240096,0.228384,2.0825,-8.89,25.3925,18.536001,-25.240002,6.936,concentric,4,3.0,22044.0,153807.0,245993.0,294026.0,270569.0
2026-04-08 21:38:14.788978,110574,1609503466903304,1066870145,-1.022848,0.240096,0.228384,-9.2225,-12.17125,25.03375,18.536001,-25.240002,6.936,concentric,4,3.0,22044.0,153807.0,245993.0,294026.0,270569.0
2026-04-08 21:38:14.791367,110575,1609503466917801,1066882970,-0.970144,0.269376,0.27328,-18.38375,-14.81375,21.5075,18.752,-25.136002,7.312,concentric,4,3.0,22044.0,153807.0,245993.0,294026.0,270569.0
2026-04-08 21:38:14.793944,110576,1609503466926958,1066893796,-0.970144,0.269376,0.27328,-19.9675,-17.7625,17.78875,18.752,-25.136002,7.312,concentric,4,3.0,22044.0,153807.0,245993.0,294026.0,270569.0
2026-04-08 21:38:14.821364,110587,1609503466935957,1066902487,-1.036512,0.228384,0.445056,-13.50125,-17.85875,11.48875,18.456001,-25.416,7.608,concentric,4,3.0,22306.0,155105.0,247505.0,294930.0,271054.0
2026-04-08 21:38:14.823968,110588,1609503466950517,1066917378,-1.067744,0.27328,0.49776,-10.1325,-15.645,5.97625,18.584002,-25.544,7.384,concentric,4,3.0,22306.0,155105.0,247505.0,294930.0,271054.0
2026-04-08 21:38:14.826425,110589,1609503466959480,1066926064,-1.067744,0.27328,0.49776,-8.30375,-11.71625,-0.175,18.584002,-25.544,7.384,concentric,4,3.0,22306.0,155105.0,247505.0,294930.0,271054.0
2026-04-08 21:38:14.828828,110590,1609503466973979,1066940989,-1.013088,0.333792,0.51728,-8.6975,-7.4725,-7.735,18.784,-25.272001,7.328001,concentric,4,3.0,22306.0,155105.0,247505.0,294930.0,271054.0
2026-04-08 21:38:14.835141,110591,1609503466982940,1066949684,-1.013088,0.333792,0.51728,-13.16,-4.87375,-12.27625,18.784,-25.272001,7.328001,concentric,4,3.0,22306.0,155105.0,247505.0,294930.0,271054.0
2026-04-08 21:38:14.866468,110592,1609503466997427,1066964550,-1.087264,0.2928,0.491904,-17.68375,-2.905,-16.42375,19.056002,-25.408,8.024,concentric,4,3.0,22306.0,155105.0,247505.0,294930.0,271054.0
2026-04-08 21:38:14.868917,110593,1609503467006343,1066973198,-1.087264,0.2928,0.491904,-21.8225,-3.71875,-16.625,19.056002,-25.408,8.024,concentric,4,3.0,22306.0,155105.0,247505.0,294930.0,271054.0
2026-04-08 21:38:14.871397,110594,1609503467015280,1066981883,-1.15168,0.265472,0.435296,-23.40625,-5.8975,-13.0725,19.184,-25.080002,7.856,concentric,4,3.0,22306.0,155105.0,247505.0,294930.0,271054.0
2026-04-08 21:38:14.930098,110605,1609503467030062,1066997255,-1.134112,0.208864,0.540704,-25.33125,-9.58125,-13.69375,19.376001,-24.856,8.152,concentric,4,3.0,22261.0,154885.0,247288.0,294857.0,271019.0
2026-04-08 21:38:14.932833,110606,1609503467039023,1067005973,-1.134112,0.208864,0.540704,-32.68125,-11.9,-19.7925,19.376001,-24.856,8.152,concentric,4,3.0,22261.0,154885.0,247288.0,294857.0,271019.0
2026-04-08 21:38:14.935782,110607,1609503467053482,1067018810,-1.138016,0.20496,0.36112,-35.525,-10.85,-28.35,20.144001,-24.52,8.072001,concentric,4,3.0,22261.0,154885.0,247288.0,294857.0,271019.0
2026-04-08 21:38:14.937896,110608,1609503467062866,1067029540,-1.138016,0.20496,0.36112,-35.638752,-10.0625,-33.24125,20.144001,-24.52,8.072001,concentric,4,3.0,22261.0,154885.0,247288.0,294857.0,271019.0
2026-04-08 21:38:14.940115,110609,1609503467071827,1067038270,-1.10288,0.154208,0.392352,-29.1375,-6.86875,-32.50625,20.224,-24.496,8.832001,concentric,4,3.0,22261.0,154885.0,247288.0,294857.0,271019.0
2026-04-08 21:38:14.942654,110610,1609503467086321,1067053150,-1.10288,0.154208,0.392352,-21.805,-5.6175,-26.022501,20.224,-24.496,8.832001,concentric,4,3.0,22261.0,154885.0,247288.0,294857.0,271019.0
2026-04-08 21:38:14.979081,110611,1609503467095250,1067061825,-1.20048,0.17568,0.363072,-13.79,-4.50625,-20.8075,20.640001,-24.6,8.496,concentric,4,3.0,22261.0,154885.0,247288.0,294857.0,271019.0
2026-04-08 21:38:14.982640,110612,1609503467109710,1067076692,-1.126304,0.193248,0.568032,-6.8425,-5.005,-20.72,20.640001,-24.592001,10.224001,concentric,4,3.0,22261.0,154885.0,247288.0,294857.0,271019.0
2026-04-08 21:38:14.985211,110613,1609503467118618,1067085356,-1.126304,0.193248,0.568032,-4.2875,-5.8975,-24.52625,20.768002,-24.592001,10.224001,concentric,4,3.0,22261.0,154885.0,247288.0,294857.0,271019.0
2026-04-08 21:38:15.012605,110624,1609503467133500,1067100270,-1.216096,0.261568,0.532896,-5.1275,-6.92125,-28.77875,21.248001,-24.136002,8.424001,concentric,4,3.0,22254.0,154861.0,247261.0,294881.0,271061.0
2026-04-08 21:38:15.015147,110625,1609503467142617,1067109008,-1.216096,0.261568,0.532896,-8.8025,-8.04125,-30.616251,21.248001,-24.136002,8.424001,concentric,4,3.0,22254.0,154861.0,247261.0,294881.0,271061.0
2026-04-08 21:38:15.018214,110626,1609503467151564,1067117716,-1.221952,0.275232,0.603168,-12.20625,-8.155,-27.9125,21.472,-24.048,7.976,concentric,4,3.0,22254.0,154861.0,247261.0,294881.0,271061.0
2026-04-08 21:38:15.020246,110627,1609503467166070,1067132657,-1.221952,0.275232,0.603168,-9.79125,-7.0,-24.710001,21.472,-24.048,7.976,concentric,4,3.0,22254.0,154861.0,247261.0,294881.0,271061.0
2026-04-08 21:38:15.026462,110628,1609503467175024,1067141415,-1.341024,0.277184,0.435296,-8.925,-5.60875,-24.78875,21.720001,-24.096,8.84,concentric,4,3.0,22254.0,154861.0,247261.0,294881.0,271061.0
2026-04-08 21:38:15.056662,110629,1609503467189576,1067156296,-1.341024,0.277184,0.534848,-9.24,-4.99625,-24.33375,21.720001,-24.096,8.84,concentric,4,3.0,22254.0,154861.0,247261.0,294881.0,271061.0
2026-04-08 21:38:15.063990,110630,1609503467198489,1067164958,-1.321504,0.30256,0.534848,-7.81375,-3.7625,-24.2375,21.68,-24.28,8.904,concentric,4,3.0,22254.0,154861.0,247261.0,294881.0,271061.0
2026-04-08 21:38:15.066414,110631,1609503467207457,1067173638,-1.321504,0.30256,0.534848,-8.9425,-3.78875,-23.96625,21.68,-24.28,8.904,concentric,4,3.0,22254.0,154861.0,247261.0,294881.0,271061.0
2026-04-08 21:38:15.096682,110632,1609503467221911,1067188518,-1.282464,0.296704,0.421632,-14.07,-5.39875,-21.72625,22.192001,-23.912,8.744,concentric,4,3.0,22254.0,154861.0,247261.0,294881.0,271061.0
2026-04-08 21:38:15.127780,110643,1609503467231103,1067197262,-1.231712,0.244,0.366976,-17.9375,-8.40875,-20.02875,22.224,-23.664001,10.584001,concentric,4,3.0,22254.0,154795.0,247139.0,294781.0,271012.0
2026-04-08 21:38:15.132040,110644,1609503467245652,1067212238,-1.231712,0.244,0.366976,-18.3925,-10.823751,-17.710001,22.224,-23.664001,10.584001,concentric,4,3.0,22254.0,154795.0,247139.0,294781.0,271012.0
2026-04-08 21:38:15.133707,110645,1609503467254578,1067220938,-1.241472,0.20496,0.36112,-15.198751,-13.1775,-14.3675,22.320002,-23.744001,8.976001,concentric,4,3.0,22254.0,154795.0,247139.0,294781.0,271012.0
2026-04-08 21:38:15.135231,110646,1609503467269162,1067235829,-1.241472,0.20496,0.36112,-9.63375,-14.20125,-11.9525,22.320002,-23.744001,8.976001,concentric,4,3.0,22254.0,154795.0,247139.0,294781.0,271012.0
2026-04-08 21:38:15.139503,110647,1609503467278150,1067244489,-1.173152,0.220576,0.519232,-5.425,-13.23875,-12.18,22.128,-23.352001,10.76,concentric,4,3.0,22254.0,154795.0,247139.0,294781.0,271012.0
2026-04-08 21:38:15.141905,110648,1609503467287100,1067253179,-1.173152,0.220576,0.519232,-2.96625,-11.917501,-12.24125,22.128,-23.352001,10.76,concentric,4,3.0,22254.0,154795.0,247139.0,294781.0,271012.0
2026-04-08 21:38:15.170417,110649,1609503467301569,1067268056,-1.056032,0.222528,0.499712,-2.17875,-10.6225,-10.6225,22.12,-23.560001,11.272,concentric,4,3.0,22254.0,154795.0,247139.0,294781.0,271012.0
2026-04-08 21:38:15.184576,110650,1609503467310460,1067276708,-1.056032,0.191296,0.37088,-4.54125,-9.72125,-9.4325,22.12,-23.560001,11.272,concentric,4,3.0,22254.0,154795.0,247139.0,294781.0,271012.0
2026-04-08 21:38:15.186229,110651,1609503467324960,1067291565,-1.050176,0.189344,0.37088,-5.90625,-10.21125,-7.98,22.28,-23.224,11.072001,concentric,4,3.0,22254.0,154795.0,247139.0,294781.0,271012.0
2026-04-08 21:38:15.214427,110662,1609503467334362,1067300276,-0.999424,0.144448,0.495808,-4.45375,-10.64875,-7.34125,22.384,-23.448002,9.688001,concentric,4,3.0,22400.0,155290.0,247666.0,295034.0,271132.0
2026-04-08 21:38:15.216187,110663,1609503467343392,1067308992,-0.999424,0.144448,0.495808,-1.8025,-8.68,-7.79625,22.384,-23.448002,9.688001,concentric,4,3.0,22400.0,155290.0,247666.0,295034.0,271132.0
2026-04-08 21:38:15.217944,110664,1609503467358396,1067323908,-0.98576,0.171776,0.437248,0.34125,-6.545,-5.71375,22.504002,-23.368002,10.160001,concentric,4,3.0,22400.0,155290.0,247666.0,295034.0,271132.0
2026-04-08 21:38:15.221830,110665,1609503467367660,1067334628,-0.98576,0.171776,0.437248,1.67125,-4.15625,-2.38875,22.504002,-23.368002,10.160001,concentric,4,3.0,22400.0,155290.0,247666.0,295034.0,271132.0
2026-04-08 21:38:15.276433,110666,1609503467382122,1067347451,-0.905728,0.158112,0.476288,1.3825,-2.3625,-1.88125,22.272001,-22.792002,10.200001,concentric,4,3.0,22400.0,155290.0,247666.0,295034.0,271132.0
2026-04-08 21:38:15.278619,110667,1609503467391374,1067358162,-1.026752,0.1464,0.279136,-0.3325,-1.3125,-3.03625,22.272001,-23.080002,9.424001,concentric,4,3.0,22400.0,155290.0,247666.0,295034.0,271132.0
2026-04-08 21:38:15.283189,110668,1609503467400292,1067366834,-1.026752,0.1464,0.279136,-1.995,0.83125,-3.59625,22.36,-23.080002,9.424001,concentric,4,3.0,22400.0,155290.0,247666.0,295034.0,271132.0
2026-04-08 21:38:15.284969,110669,1609503467414761,1067381690,-1.032608,0.140544,0.335744,-1.60125,2.7475,-2.5725,22.456001,-22.864,9.416,concentric,4,3.0,22400.0,155290.0,247666.0,295034.0,271132.0
2026-04-08 21:38:15.286553,110670,1609503467423695,1067390392,-1.032608,0.140544,0.335744,-0.18375,4.6725,-2.1,22.456001,-22.864,9.416,concentric,4,3.0,22400.0,155290.0,247666.0,295034.0,271132.0
2026-04-08 21:38:15.316429,110681,1609503467438259,1067403618,-0.964288,0.177632,0.538752,0.86625,6.3,-1.05875,21.744001,-23.256,10.336,concentric,4,3.0,22465.0,155622.0,247979.0,295188.0,271216.0
2026-04-08 21:38:15.320796,110682,1609503467447803,1067414475,-0.964288,0.177632,0.538752,1.77625,5.87125,-0.35,21.744001,-23.256,10.336,concentric,4,3.0,22465.0,155622.0,247979.0,295188.0,271216.0
2026-04-08 21:38:15.322434,110683,1609503467456731,1067423164,-1.077504,0.189344,0.45872,0.56875,5.5825,-1.09375,21.696001,-23.304,10.112,concentric,4,3.0,22465.0,155622.0,247979.0,295188.0,271216.0
2026-04-08 21:38:15.324024,110684,1609503467471214,1067438037,-1.077504,0.189344,0.30256,-2.9925,5.5475,-1.7675,21.696001,-23.304,10.112,concentric,4,3.0,22465.0,155622.0,247979.0,295188.0,271216.0
2026-04-08 21:38:15.354226,110685,1609503467480187,1067446751,-1.091168,0.158112,0.298656,-4.61125,6.30875,-1.3125,22.240002,-23.128,12.248,concentric,4,3.0,22465.0,155622.0,247979.0,295188.0,271216.0
2026-04-08 21:38:15.357764,110686,1609503467494683,1067461622,-1.1712,0.20496,0.41968,-2.63375,7.74375,-1.435,22.192001,-23.160002,9.304001,concentric,4,3.0,22465.0,155622.0,247979.0,295188.0,271216.0
2026-04-08 21:38:15.360207,110687,1609503467503660,1067470592,-1.1712,0.20496,0.41968,-1.46125,8.77625,-1.49625,22.192001,-23.160002,9.304001,concentric,4,3.0,22465.0,155622.0,247979.0,295188.0,271216.0
2026-04-08 21:38:15.365224,110688,1609503467512990,1067479429,-1.139968,0.208864,0.472384,0.63,8.95125,-0.1925,22.416,-22.744001,10.144,concentric,4,3.0,22465.0,155622.0,247979.0,295188.0,271216.0
