pc_time,serial_num,sensor_ts,host_ts,ax,ay,az,gx,gy,gz,mx,my,mz,phase,rpe,weight_kg,ppg_a,ppg_b,ppg_c,ppg_d,ppg_e
2026-04-09 22:06:10.437919,192755,1300460197,1300460889,0.835456,-0.388448,0.203008,8.19,11.27,-5.775,-28.576002,19.032001,23.016,eccentric,6,3.0,32192.0,403431.0,126104.0,4352.0,-150.0
2026-04-09 22:06:10.463057,192765,1300475100,1300475881,0.813984,-0.37088,0.220576,6.8075,12.25875,-5.48625,-28.264002,18.848001,22.592001,eccentric,6,3.0,32106.0,403304.0,124631.0,3945.0,-157.0
2026-04-09 22:06:10.465587,192766,1300484519,1300486747,0.821792,-0.382592,0.218624,6.79,11.698751,-6.335,-28.264002,18.568,22.712002,eccentric,6,3.0,32106.0,403304.0,124631.0,3945.0,-157.0
2026-04-09 22:06:10.468064,192767,1300493553,1300495536,0.821792,-0.382592,0.218624,6.57125,10.89375,-7.32375,-28.616001,18.568,22.712002,eccentric,6,3.0,32106.0,403304.0,124631.0,3945.0,-157.0
2026-04-09 22:06:10.470508,192768,1300502604,1300504291,0.821792,-0.382592,0.218624,5.41625,9.8525,-7.83125,-28.616001,18.568,22.712002,eccentric,6,3.0,32106.0,403304.0,124631.0,3945.0,-157.0
2026-04-09 22:06:10.473184,192769,1300517128,1300519197,0.804224,-0.402112,0.23424,0.035,9.5025,-9.073751,-27.592001,18.640001,21.368002,eccentric,6,3.0,32106.0,403304.0,124631.0,3945.0,-157.0
2026-04-09 22:06:10.503339,192770,1300526082,1300527932,0.831552,-0.333792,0.232288,-3.6225,8.7325,-9.345,-27.864002,19.288,21.328001,eccentric,6,3.0,32106.0,403304.0,124631.0,3945.0,-157.0
2026-04-09 22:06:10.506861,192771,1300535072,1300536641,0.831552,-0.333792,0.232288,-7.1225,7.9975,-9.30125,-27.864002,19.288,21.328001,eccentric,6,3.0,32106.0,403304.0,124631.0,3945.0,-157.0
2026-04-09 22:06:10.509462,192772,1300549552,1300551529,0.856928,-0.366976,0.232288,-12.62625,7.56,-10.12375,-27.848001,17.968,21.512001,eccentric,6,3.0,32106.0,403304.0,124631.0,3945.0,-157.0
2026-04-09 22:06:10.514405,192773,1300558492,1300560263,0.856928,-0.366976,0.232288,-17.29875,6.32625,-11.41875,-27.848001,17.968,21.512001,eccentric,6,3.0,32106.0,403304.0,124631.0,3945.0,-157.0
2026-04-09 22:06:10.544557,192774,1300567448,1300568942,0.911584,-0.345504,0.199104,-17.38625,4.08625,-13.13375,-28.248001,18.336,21.672,eccentric,6,3.0,32106.0,403304.0,124631.0,3945.0,-157.0
2026-04-09 22:06:10.588012,192784,1300576402,1300577626,0.911584,-0.345504,0.199104,-13.85125,0.39375,-14.2975,-28.248001,18.336,21.672,eccentric,6,3.0,31982.0,403431.0,126353.0,4492.0,-153.0
2026-04-09 22:06:10.590698,192785,1300590870,1300592594,0.925248,-0.392352,0.210816,-11.2,-2.40625,-14.096251,-27.704,18.296001,21.456001,eccentric,6,3.0,31982.0,403431.0,126353.0,4492.0,-153.0
2026-04-09 22:06:10.593126,192786,1300599807,1300601357,0.925248,-0.392352,0.210816,-12.41625,-5.18875,-14.34125,-27.704,18.296001,21.456001,eccentric,6,3.0,31982.0,403431.0,126353.0,4492.0,-153.0
2026-04-09 22:06:10.599349,192787,1300608751,1300610100,0.933056,-0.3416,0.238144,-12.55625,-7.49875,-13.41375,-27.544,18.368,20.968,eccentric,6,3.0,31982.0,403431.0,126353.0,4492.0,-153.0
2026-04-09 22:06:10.601846,192788,1300623229,1300625031,0.933056,-0.3416,0.238144,-12.10125,-8.81125,-10.12375,-27.544,18.368,20.968,eccentric,6,3.0,31982.0,403431.0,126353.0,4492.0,-153.0
2026-04-09 22:06:10.604327,192789,1300632181,1300633739,0.931104,-0.337696,0.216672,-13.41375,-9.52875,-8.0325,-27.752,18.072,21.256,eccentric,6,3.0,31982.0,403431.0,126353.0,4492.0,-153.0
2026-04-09 22:06:10.606862,192790,1300641176,1300642391,0.931104,-0.337696,0.216672,-14.74375,-10.386251,-5.48625,-27.752,18.072,21.256,eccentric,6,3.0,31982.0,403431.0,126353.0,4492.0,-153.0
2026-04-09 22:06:10.610578,192791,1300655645,1300657392,0.923296,-0.320128,0.169824,-14.39375,-10.8325,-3.22,-28.088001,17.832,21.6,eccentric,6,3.0,31982.0,403431.0,126353.0,4492.0,-153.0
2026-04-09 22:06:10.653327,192792,1300664601,1300666072,0.923296,-0.320128,0.171776,-14.42875,-11.69,-2.80875,-28.088001,17.832,21.6,eccentric,6,3.0,31982.0,403431.0,126353.0,4492.0,-153.0
2026-04-09 22:06:10.681895,192803,1300673762,1300674834,0.909632,-0.320128,0.171776,-13.53625,-12.92375,-3.185,-28.064001,18.192001,22.160002,eccentric,6,3.0,31938.0,403431.0,127433.0,4881.0,-148.0
2026-04-09 22:06:10.684416,192804,1300688241,1300689729,0.911584,-0.35136,0.17568,-11.71625,-14.35875,-3.63125,-27.704,18.632,20.328001,eccentric,6,3.0,31938.0,403431.0,127433.0,4881.0,-148.0
2026-04-09 22:06:10.686872,192805,1300697170,1300698416,0.911584,-0.35136,0.17568,-9.58125,-14.4025,-2.52875,-27.704,18.632,20.328001,eccentric,6,3.0,31938.0,403431.0,127433.0,4881.0,-148.0
2026-04-09 22:06:10.689403,192806,1300706056,1300707122,0.91744,-0.320128,0.1952,-9.8,-13.37875,-0.63875,-27.376001,18.36,19.12,eccentric,6,3.0,31938.0,403431.0,127433.0,4881.0,-148.0
2026-04-09 22:06:10.691897,192807,1300714992,1300715841,0.91744,-0.320128,0.1952,-11.7775,-12.11875,1.23375,-27.376001,18.36,19.12,eccentric,6,3.0,31938.0,403431.0,127433.0,4881.0,-148.0
2026-04-09 22:06:10.694412,192808,1300729479,1300730793,0.919392,-0.288896,0.12688,-13.58,-11.698751,1.46125,-26.848001,17.76,20.016,eccentric,6,3.0,31938.0,403431.0,127433.0,4881.0,-148.0
2026-04-09 22:06:10.696860,192809,1300738402,1300739501,0.919392,-0.288896,0.12688,-12.45125,-12.1275,-0.13125,-26.848001,17.76,20.016,eccentric,6,3.0,31938.0,403431.0,127433.0,4881.0,-148.0
2026-04-09 22:06:10.703136,192810,1300747314,1300748195,0.9272,-0.394304,0.128832,-10.68375,-14.06125,-1.855,-26.6,17.68,19.880001,eccentric,6,3.0,31938.0,403431.0,127433.0,4881.0,-148.0
2026-04-09 22:06:10.733316,192811,1300761794,1300763142,0.9272,-0.394304,0.128832,-8.365,-16.28375,-2.63375,-26.6,17.68,19.880001,eccentric,6,3.0,31938.0,403431.0,127433.0,4881.0,-148.0
2026-04-09 22:06:10.761823,192821,1300770892,1300771861,0.9272,-0.345504,0.12688,-7.42,-17.8675,-2.14375,-26.744001,17.52,19.464,eccentric,6,3.0,31930.0,403431.0,128744.0,5303.0,-157.0
2026-04-09 22:06:10.764385,192822,1300779950,1300780637,0.9272,-0.345504,0.12688,-4.27875,-18.57625,0.3325,-26.744001,17.52,19.464,eccentric,6,3.0,31930.0,403431.0,128744.0,5303.0,-157.0
2026-04-09 22:06:10.766842,192823,1300794915,1300795652,0.938912,-0.279136,0.140544,-4.22625,-18.235,1.79375,-26.12,17.592001,19.68,eccentric,6,3.0,31930.0,403431.0,128744.0,5303.0,-157.0
2026-04-09 22:06:10.769372,192824,1300804290,1300806453,0.938912,-0.279136,0.140544,-7.245,-17.36,1.715,-26.12,17.592001,19.68,eccentric,6,3.0,31930.0,403431.0,128744.0,5303.0,-157.0
2026-04-09 22:06:10.771901,192825,1300813311,1300815162,0.903776,-0.333792,0.11712,-10.94625,-17.07125,0.74375,-25.896002,18.152,19.456001,eccentric,6,3.0,31930.0,403431.0,128744.0,5303.0,-157.0
2026-04-09 22:06:10.776913,192826,1300822257,1300823934,0.903776,-0.333792,0.11712,-13.011251,-18.38375,-1.18125,-25.896002,18.152,19.456001,eccentric,6,3.0,31930.0,403431.0,128744.0,5303.0,-157.0
2026-04-09 22:06:10.808092,192827,1300836730,1300838899,0.905728,-0.38064,0.081984,-8.26,-19.39,-0.9975,-26.000002,17.776001,19.408,eccentric,6,3.0,31930.0,403431.0,128744.0,5303.0,-157.0
2026-04-09 22:06:10.812487,192828,1300845635,1300847577,0.890112,-0.298656,0.12688,-5.24125,-20.76375,-0.4725,-26.000002,17.776001,18.28,eccentric,6,3.0,31930.0,403431.0,128744.0,5303.0,-157.0
2026-04-09 22:06:10.813949,192829,1300854538,1300856279,0.890112,-0.298656,0.12688,-2.77375,-20.8425,1.54,-25.736002,17.736,18.28,eccentric,6,3.0,31930.0,403431.0,128744.0,5303.0,-157.0
2026-04-09 22:06:10.866951,192839,1300868988,1300871639,0.870592,-0.257664,0.105408,-3.22,-18.03375,2.59,-26.176,17.928001,20.504002,eccentric,6,3.0,31992.0,403431.0,130307.0,5843.0,-145.0
2026-04-09 22:06:10.871153,192840,1300878003,1300878295,0.870592,-0.257664,0.105408,-7.525,-16.28375,0.77875,-26.176,17.928001,20.504002,eccentric,6,3.0,31992.0,403431.0,130307.0,5843.0,-145.0
2026-04-09 22:06:10.873864,192841,1300887146,1300889056,0.851072,-0.337696,0.091744,-8.9075,-15.33875,-1.16375,-24.944,17.392,19.888,eccentric,6,3.0,31992.0,403431.0,130307.0,5843.0,-145.0
2026-04-09 22:06:10.880282,192842,1300896082,1300897761,0.851072,-0.337696,0.091744,-6.44875,-15.89875,-1.89,-24.944,17.392,19.888,eccentric,6,3.0,31992.0,403431.0,130307.0,5843.0,-145.0
2026-04-09 22:06:10.881772,192843,1300910633,1300912769,0.85888,-0.286944,0.103456,-2.42375,-17.26375,-1.715,-24.952002,17.6,19.352001,eccentric,6,3.0,31992.0,403431.0,130307.0,5843.0,-145.0
2026-04-09 22:06:10.884131,192844,1300919607,1300921494,0.85888,-0.286944,0.103456,2.84375,-18.095,-1.05875,-24.952002,17.6,19.352001,eccentric,6,3.0,31992.0,403431.0,130307.0,5843.0,-145.0
2026-04-09 22:06:10.885546,192845,1300928650,1300930235,0.83936,-0.259616,0.095648,3.99875,-17.955,-2.31,-24.840002,17.336,19.232,eccentric,6,3.0,31992.0,403431.0,130307.0,5843.0,-145.0
2026-04-09 22:06:10.916815,192846,1300943121,1300945217,0.83936,-0.259616,0.095648,1.74125,-17.4125,-4.97,-24.840002,17.336,19.232,eccentric,6,3.0,31992.0,403431.0,130307.0,5843.0,-145.0
2026-04-09 22:06:10.921198,192847,1300952055,1300953917,0.872544,-0.27328,0.06832,0.9975,-19.11875,-7.455,-23.904001,18.048,18.864,eccentric,6,3.0,31992.0,403431.0,130307.0,5843.0,-145.0
2026-04-09 22:06:10.923796,192848,1300961092,1300962649,0.872544,-0.27328,0.06832,3.45625,-20.08125,-7.18375,-23.904001,18.048,18.864,eccentric,6,3.0,31992.0,403431.0,130307.0,5843.0,-145.0
2026-04-09 22:06:10.983083,192859,1300975764,1300977639,0.8296,-0.257664,0.142496,3.78,-18.9175,-5.2675,-23.376001,18.464,19.008001,eccentric,6,3.0,31878.0,403431.0,129364.0,5524.0,-159.0
2026-04-09 22:06:10.985628,192860,1300984704,1300986373,0.8296,-0.257664,0.142496,1.855,-18.76,-4.8125,-23.376001,18.464,19.008001,eccentric,6,3.0,31878.0,403431.0,129364.0,5524.0,-159.0
2026-04-09 22:06:10.988405,192861,1300993623,1300995047,0.837408,-0.230336,0.0488,1.61,-19.6175,-6.3525,-23.592001,17.264,18.128,eccentric,6,3.0,31878.0,403431.0,129364.0,5524.0,-159.0
2026-04-09 22:06:10.990597,192862,1301002581,1301003778,0.837408,-0.230336,0.0488,2.94,-21.48125,-8.7325,-23.592001,17.264,18.128,eccentric,6,3.0,31878.0,403431.0,129364.0,5524.0,-159.0
2026-04-09 22:06:10.993125,192863,1301017134,1301018702,0.813984,-0.249856,0.122976,4.0775,-23.205,-10.823751,-24.056002,17.152,18.896002,eccentric,6,3.0,31878.0,403431.0,129364.0,5524.0,-159.0
2026-04-09 22:06:10.995557,192864,1301026102,1301027462,0.813984,-0.296704,0.101504,1.9775,-23.6075,-10.71875,-24.056002,17.152,18.896002,eccentric,6,3.0,31878.0,403431.0,129364.0,5524.0,-159.0
2026-04-09 22:06:10.998120,192865,1301035042,1301036177,0.806176,-0.288896,0.101504,-1.11125,-22.91625,-9.2225,-23.904001,17.312,17.616001,eccentric,6,3.0,31878.0,403431.0,129364.0,5524.0,-159.0
2026-04-09 22:06:11.004428,192866,1301049550,1301051084,0.825696,-0.15616,0.06832,-0.04375,-21.98,-7.5775,-23.224,16.848001,18.744001,eccentric,6,3.0,31878.0,403431.0,129364.0,5524.0,-159.0
2026-04-09 22:06:11.034696,192867,1301058491,1301059775,0.825696,-0.15616,0.06832,2.1525,-21.02625,-6.5625,-23.224,16.848001,18.744001,eccentric,6,3.0,31878.0,403431.0,129364.0,5524.0,-159.0
2026-04-09 22:06:11.038507,192868,1301067396,1301068487,0.81984,-0.255712,0.089792,0.04375,-21.2275,-9.21375,-23.352001,16.848001,18.656,eccentric,6,3.0,31878.0,403431.0,129364.0,5524.0,-159.0
2026-04-09 22:06:11.063132,192878,1301082017,1301083383,0.81984,-0.255712,0.089792,0.07,-21.23625,-11.92625,-23.352001,16.848001,18.656,eccentric,6,3.0,31899.0,403431.0,130221.0,5875.0,-136.0
2026-04-09 22:06:11.065661,192879,1301091065,1301092124,0.79056,-0.382592,0.124928,2.485,-21.37625,-13.3175,-22.904001,16.968,18.784,eccentric,6,3.0,31899.0,403431.0,130221.0,5875.0,-136.0
2026-04-09 22:06:11.068219,192880,1301100070,1301100887,0.79056,-0.382592,0.124928,3.64,-19.31125,-13.16,-22.904001,16.968,18.784,eccentric,6,3.0,31899.0,403431.0,130221.0,5875.0,-136.0
2026-04-09 22:06:11.070569,192881,1301109034,1301109618,0.833504,-0.201056,0.00976,3.5525,-16.49375,-10.15875,-22.072,17.216002,19.016,eccentric,6,3.0,31899.0,403431.0,130221.0,5875.0,-136.0
2026-04-09 22:06:11.100758,192882,1301123887,1301124548,0.833504,-0.201056,0.00976,8.09375,-14.70875,-7.8225,-22.072,17.216002,19.016,eccentric,6,3.0,31899.0,403431.0,130221.0,5875.0,-136.0
2026-04-09 22:06:11.104399,192883,1301133177,1301135306,0.831552,-0.201056,0.0,9.35375,-14.42875,-10.17625,-22.104002,16.592001,19.720001,eccentric,6,3.0,31899.0,403431.0,130221.0,5875.0,-136.0
2026-04-09 22:06:11.106918,192884,1301142152,1301144044,0.831552,-0.201056,0.0,8.12875,-14.77,-13.8075,-22.104002,16.592001,19.720001,eccentric,6,3.0,31899.0,403431.0,130221.0,5875.0,-136.0
2026-04-09 22:06:11.113645,192885,1301156675,1301158986,0.823744,-0.35136,0.121024,10.7275,-14.7,-16.765,-22.704,16.448,18.728,eccentric,6,3.0,31899.0,403431.0,130221.0,5875.0,-136.0
2026-04-09 22:06:11.143356,192886,1301165594,1301167686,0.823744,-0.35136,0.121024,11.87375,-13.57125,-17.91125,-22.704,16.448,18.728,eccentric,6,3.0,31899.0,403431.0,130221.0,5875.0,-136.0
2026-04-09 22:06:11.173124,192896,1301175073,1301176465,0.808128,-0.327936,0.06832,7.9625,-11.12125,-17.1675,-22.504002,16.320002,18.984001,eccentric,6,3.0,31927.0,403431.0,133054.0,7108.0,-149.0
2026-04-09 22:06:11.175616,192897,1301184107,1301185188,0.808128,-0.327936,0.06832,8.96,-8.3825,-14.9275,-22.504002,16.320002,18.984001,eccentric,6,3.0,31927.0,403431.0,133054.0,7108.0,-149.0
2026-04-09 22:06:11.178124,192898,1301198580,1301200162,0.804224,-0.160064,-0.011712,8.636251,-4.99625,-14.20125,-22.560001,16.264,18.68,eccentric,6,3.0,31927.0,403431.0,133054.0,7108.0,-149.0
2026-04-09 22:06:11.180622,192899,1301207545,1301208878,0.788608,-0.337696,-0.033184,5.6175,-4.62875,-17.19375,-22.52,16.184,19.272001,eccentric,6,3.0,31927.0,403431.0,133054.0,7108.0,-149.0
2026-04-09 22:06:11.183131,192900,1301216475,1301217590,0.788608,-0.337696,-0.033184,6.0375,-6.93,-23.2225,-22.52,16.184,19.272001,eccentric,6,3.0,31927.0,403431.0,133054.0,7108.0,-149.0
2026-04-09 22:06:11.185586,192901,1301231020,1301232576,0.733952,-0.318176,0.119072,16.4325,-8.54875,-25.3575,-22.496,16.560001,19.088001,eccentric,6,3.0,31927.0,403431.0,133054.0,7108.0,-149.0
2026-04-09 22:06:11.215898,192902,1301239962,1301241292,0.733952,-0.318176,0.119072,24.15875,-7.3675,-23.52875,-22.496,16.560001,19.088001,eccentric,6,3.0,31927.0,403431.0,133054.0,7108.0,-149.0
2026-04-09 22:06:11.219429,192903,1301248920,1301249994,0.794464,-0.271328,-0.033184,18.10375,-4.15625,-19.985,-21.904001,16.168001,19.584002,eccentric,6,3.0,31927.0,403431.0,133054.0,7108.0,-149.0
2026-04-09 22:06:11.221948,192904,1301263405,1301264930,0.794464,-0.271328,-0.033184,10.325,0.02625,-18.2525,-21.904001,16.168001,19.584002,eccentric,6,3.0,31927.0,403431.0,133054.0,7108.0,-149.0
2026-04-09 22:06:11.286873,192915,1301272355,1301273899,0.782752,-0.197152,-0.06832,7.97125,2.58125,-19.11875,-22.568,15.608001,19.664001,eccentric,6,3.0,31730.0,403431.0,130540.0,6127.0,-151.0
2026-04-09 22:06:11.289465,192916,1301281336,1301282672,0.782752,-0.197152,-0.06832,8.70625,2.17875,-23.9575,-22.568,15.608001,19.664001,eccentric,6,3.0,31730.0,403431.0,130540.0,6127.0,-151.0
2026-04-09 22:06:11.291852,192917,1301290852,1301291441,0.802272,-0.308416,0.054656,13.86875,0.385,-29.0325,-22.2,15.584001,19.824001,eccentric,6,3.0,31730.0,403431.0,130540.0,6127.0,-151.0
2026-04-09 22:06:11.294450,192918,1301306032,1301306458,0.802272,-0.308416,0.054656,18.29625,-0.30625,-29.93375,-22.2,15.584001,19.824001,eccentric,6,3.0,31730.0,403431.0,130540.0,6127.0,-151.0
2026-04-09 22:06:11.297086,192919,1301315337,1301317244,0.845216,-0.310368,-0.015616,17.21125,0.55125,-30.02125,-23.096,15.160001,20.768002,eccentric,6,3.0,31730.0,403431.0,130540.0,6127.0,-151.0
2026-04-09 22:06:11.303319,192920,1301324375,1301325958,0.845216,-0.310368,-0.015616,17.17625,3.115,-27.7025,-23.096,15.160001,20.768002,eccentric,6,3.0,31730.0,403431.0,130540.0,6127.0,-151.0
2026-04-09 22:06:11.305677,192921,1301333333,1301334655,0.817888,-0.255712,0.017568,14.56,6.2125,-27.098751,-23.960001,15.488001,21.272001,eccentric,6,3.0,31730.0,403431.0,130540.0,6127.0,-151.0
2026-04-09 22:06:11.308150,192922,1301347961,1301349664,0.815936,-0.255712,-0.037088,11.76,7.58625,-32.40125,-23.848001,14.968,20.432001,eccentric,6,3.0,31730.0,403431.0,130540.0,6127.0,-151.0
2026-04-09 22:06:11.311957,192923,1301356906,1301358459,0.815936,-0.255712,-0.037088,17.2025,6.72875,-36.61,-23.848001,14.968,20.432001,eccentric,6,3.0,31730.0,403431.0,130540.0,6127.0,-151.0
2026-04-09 22:06:11.320691,192924,1301365864,1301367159,0.815936,-0.255712,-0.037088,25.2,6.8775,-40.4075,-23.848001,14.968,20.432001,eccentric,6,3.0,31730.0,403431.0,130540.0,6127.0,-151.0
2026-04-09 22:06:11.390704,192934,1301380540,1301382173,0.7808,-0.27328,0.033184,27.195,9.26625,-38.465,-23.816002,15.064001,21.52,eccentric,6,3.0,31654.0,403431.0,128439.0,5375.0,-147.0
2026-04-09 22:06:11.393122,192935,1301389514,1301390939,0.77104,-0.18544,-0.037088,22.1725,11.36625,-36.98625,-23.344002,14.752001,18.720001,eccentric,6,3.0,31654.0,403431.0,128439.0,5375.0,-147.0
2026-04-09 22:06:11.395625,192936,1301398478,1301399635,0.77104,-0.18544,-0.037088,18.97875,13.25625,-38.12375,-23.344002,14.752001,18.720001,eccentric,6,3.0,31654.0,403431.0,128439.0,5375.0,-147.0
2026-04-09 22:06:11.398125,192937,1301407389,1301408327,0.77104,-0.18544,0.015616,18.26125,14.7,-40.74,-23.344002,14.752001,18.720001,eccentric,6,3.0,31654.0,403431.0,128439.0,5375.0,-147.0
2026-04-09 22:06:11.404402,192938,1301421899,1301423235,0.716384,-0.232288,0.015616,18.99625,14.39375,-43.35625,-23.496,15.312,21.992,eccentric,6,3.0,31654.0,403431.0,128439.0,5375.0,-147.0
2026-04-09 22:06:11.410647,192939,1301430832,1301431954,0.694912,-0.27328,0.013664,21.07,14.25375,-45.05375,-24.336,14.104001,21.792002,eccentric,6,3.0,31654.0,403431.0,128439.0,5375.0,-147.0
2026-04-09 22:06:11.413141,192940,1301439767,1301440653,0.694912,-0.27328,0.013664,23.28375,14.5075,-42.27125,-24.336,14.104001,21.792002,eccentric,6,3.0,31654.0,403431.0,128439.0,5375.0,-147.0
2026-04-09 22:06:11.415675,192941,1301454280,1301455607,0.708576,-0.163968,0.001952,22.88125,16.45875,-37.275,-24.936,13.752001,23.568,eccentric,6,3.0,31654.0,403431.0,128439.0,5375.0,-147.0
2026-04-09 22:06:11.418144,192942,1301463350,1301464348,0.708576,-0.163968,0.001952,14.35,19.52125,-35.07,-24.936,13.752001,23.568,eccentric,6,3.0,31654.0,403431.0,128439.0,5375.0,-147.0
2026-04-09 22:06:11.448354,192943,1301472301,1301473101,0.67344,-0.115168,0.001952,7.86625,21.945,-34.965,-25.536001,13.480001,24.2,eccentric,6,3.0,31654.0,403431.0,128439.0,5375.0,-147.0
2026-04-09 22:06:11.474402,192953,1301486884,1301488039,0.67344,-0.115168,0.001952,5.04,22.4175,-40.39875,-25.536001,13.480001,24.2,eccentric,6,3.0,31649.0,403431.0,127757.0,5154.0,-149.0
2026-04-09 22:06:11.476897,192954,1301495815,1301496734,0.69296,-0.251808,0.0,7.86625,20.23,-45.49125,-24.608002,12.984,23.024,eccentric,6,3.0,31649.0,403431.0,127757.0,5154.0,-149.0
2026-04-09 22:06:11.479458,192955,1301504752,1301505437,0.69296,-0.251808,0.0,17.54375,17.255,-44.8875,-24.608002,12.984,23.024,eccentric,6,3.0,31649.0,403431.0,127757.0,5154.0,-149.0
2026-04-09 22:06:11.481931,192956,1301514116,1301516304,0.661728,-0.171776,0.081984,22.70625,17.325,-40.6175,-25.152,13.128,22.672,eccentric,6,3.0,31649.0,403431.0,127757.0,5154.0,-149.0
2026-04-09 22:06:11.484474,192957,1301528683,1301529177,0.66368,-0.162016,-0.005856,18.445,18.52375,-37.21375,-25.024002,13.024,22.768002,eccentric,6,3.0,31649.0,403431.0,127757.0,5154.0,-149.0
2026-04-09 22:06:11.514624,192958,1301538159,1301539943,0.66368,-0.162016,-0.005856,9.49375,18.41875,-35.77,-25.024002,13.024,22.768002,eccentric,6,3.0,31649.0,403431.0,127757.0,5154.0,-149.0
2026-04-09 22:06:11.519110,192959,1301547124,1301548727,0.66368,-0.162016,-0.005856,6.08125,16.52875,-33.215,-25.024002,13.024,22.768002,eccentric,6,3.0,31649.0,403431.0,127757.0,5154.0,-149.0
2026-04-09 22:06:11.520837,192960,1301561614,1301563658,0.677344,-0.158112,-0.040992,8.9075,13.11625,-31.43,-25.304,12.608001,23.400002,eccentric,6,3.0,31649.0,403431.0,127757.0,5154.0,-149.0
2026-04-09 22:06:11.555924,192961,1301570535,1301572384,0.714432,-0.222528,0.023424,13.7725,8.435,-30.380001,-26.208002,12.64,24.472002,eccentric,6,3.0,31649.0,403431.0,127757.0,5154.0,-149.0
2026-04-09 22:06:11.588139,192972,1301579606,1301581186,0.714432,-0.222528,0.023424,15.26,5.67875,-26.11875,-26.208002,12.64,24.472002,eccentric,6,3.0,31443.0,403431.0,130128.0,6013.0,-131.0
2026-04-09 22:06:11.590649,192973,1301588663,1301589942,0.733952,-0.113216,0.064416,10.7975,5.43375,-20.475,-26.208002,12.704,24.008001,eccentric,6,3.0,31443.0,403431.0,130128.0,6013.0,-131.0
2026-04-09 22:06:11.593074,192974,1301603122,1301604866,0.733952,-0.113216,0.064416,3.955,6.34375,-16.23125,-25.856,12.704,24.008001,eccentric,6,3.0,31443.0,403431.0,130128.0,6013.0,-131.0
2026-04-09 22:06:11.595794,192975,1301612086,1301613635,0.765184,-0.187392,-0.001952,-1.53125,7.0875,-14.385,-25.704,12.016001,23.976002,eccentric,6,3.0,31443.0,403431.0,130128.0,6013.0,-131.0
2026-04-09 22:06:11.609437,192976,1301621019,1301622373,0.765184,-0.187392,-0.001952,-3.185,5.73125,-14.28,-25.704,12.016001,23.976002,eccentric,6,3.0,31443.0,403431.0,130128.0,6013.0,-131.0
2026-04-09 22:06:11.611849,192977,1301635538,1301637380,0.806176,-0.26352,-0.021472,0.20125,2.0825,-12.55625,-26.680002,12.448001,24.720001,eccentric,6,3.0,31443.0,403431.0,130128.0,6013.0,-131.0
2026-04-09 22:06:11.614340,192978,1301644439,1301646141,0.806176,-0.26352,-0.021472,6.48375,-1.8375,-9.2225,-26.680002,12.448001,24.720001,eccentric,6,3.0,31443.0,403431.0,130128.0,6013.0,-131.0
2026-04-09 22:06:11.616886,192979,1301653388,1301654835,0.847168,-0.140544,0.064416,7.77875,-2.8875,-5.04875,-26.544,12.496,24.552002,eccentric,6,3.0,31443.0,403431.0,130128.0,6013.0,-131.0
2026-04-09 22:06:11.623062,192980,1301667885,1301669788,0.847168,-0.140544,0.064416,1.12875,-0.70875,-3.08875,-26.544,12.496,24.552002,eccentric,6,3.0,31443.0,403431.0,130128.0,6013.0,-131.0
2026-04-09 22:06:11.681821,192990,1301676917,1301678570,0.854976,-0.085888,0.033184,-5.1275,1.9775,-6.20375,-26.648,13.208,24.52,eccentric,6,3.0,31344.0,403431.0,133606.0,7476.0,-134.0
2026-04-09 22:06:11.684444,192991,1301685928,1301687354,0.854976,-0.085888,0.033184,-6.37875,3.64875,-11.92625,-26.648,13.208,24.52,eccentric,6,3.0,31344.0,403431.0,133606.0,7476.0,-134.0
2026-04-09 22:06:11.690828,192992,1301700407,1301702307,0.851072,-0.191296,-0.005856,-2.23125,3.29875,-17.99,-26.960001,12.528001,24.824001,eccentric,6,3.0,31344.0,403431.0,133606.0,7476.0,-134.0
2026-04-09 22:06:11.696928,192993,1301709365,1301711122,0.84912,-0.249856,0.050752,2.49375,2.3975,-21.315,-26.432001,12.6,24.720001,eccentric,6,3.0,31344.0,403431.0,133606.0,7476.0,-134.0
2026-04-09 22:06:11.704444,192994,1301718300,1301719878,0.84912,-0.249856,0.050752,6.2475,2.24,-19.41625,-26.432001,12.6,24.720001,eccentric,6,3.0,31344.0,403431.0,133606.0,7476.0,-134.0
2026-04-09 22:06:11.706935,192995,1301727246,1301728743,0.84912,-0.249856,0.050752,5.7575,3.28125,-15.1375,-26.432001,12.6,24.720001,eccentric,6,3.0,31344.0,403431.0,133606.0,7476.0,-134.0
2026-04-09 22:06:11.709420,192996,1301741789,1301743733,0.835456,-0.158112,0.06832,-2.31875,5.8275,-12.136251,-26.688002,12.024,24.392002,eccentric,6,3.0,31344.0,403431.0,133606.0,7476.0,-134.0
2026-04-09 22:06:11.711937,192997,1301750712,1301752450,0.804224,-0.091744,0.005856,-9.70375,8.05875,-11.261251,-27.128002,11.784,24.408,eccentric,6,3.0,31344.0,403431.0,133606.0,7476.0,-134.0
2026-04-09 22:06:11.714397,192998,1301759688,1301761181,0.804224,-0.091744,0.005856,-11.68125,8.19,-13.72,-27.128002,11.784,24.408,eccentric,6,3.0,31344.0,403431.0,133606.0,7476.0,-134.0
2026-04-09 22:06:11.744597,192999,1301774172,1301776152,0.794464,-0.193248,0.001952,-8.60125,6.545,-16.555,-26.072,11.736001,24.648,eccentric,6,3.0,31344.0,403431.0,133606.0,7476.0,-134.0
2026-04-09 22:06:11.773157,193009,1301783179,1301784860,0.794464,-0.193248,0.001952,-2.40625,3.77125,-17.78,-26.072,11.736001,24.648,eccentric,6,3.0,31316.0,403431.0,132162.0,6879.0,-137.0
2026-04-09 22:06:11.775616,193010,1301792145,1301793628,0.798368,-0.220576,-0.021472,3.94625,0.4025,-15.33875,-26.288002,12.152,23.168001,eccentric,6,3.0,31316.0,403431.0,132162.0,6879.0,-137.0
2026-04-09 22:06:11.778133,193011,1301806641,1301808593,0.798368,-0.220576,-0.021472,6.95625,-2.695,-10.85875,-26.288002,12.152,23.168001,eccentric,6,3.0,31316.0,403431.0,132162.0,6879.0,-137.0
2026-04-09 22:06:11.780683,193012,1301815563,1301817304,0.774944,-0.062464,0.056608,5.145,-4.12125,-5.845,-26.112001,11.744,23.496,eccentric,6,3.0,31316.0,403431.0,132162.0,6879.0,-137.0
2026-04-09 22:06:11.786966,193013,1301824537,1301826056,0.774944,-0.062464,0.056608,-0.67375,-3.22,-3.94625,-26.112001,11.744,23.496,eccentric,6,3.0,31316.0,403431.0,132162.0,6879.0,-137.0
2026-04-09 22:06:11.789459,193014,1301833613,1301834789,0.765184,-0.1464,0.017568,-6.7025,-2.4675,-5.425,-26.072,12.104001,22.992,eccentric,6,3.0,31316.0,403431.0,132162.0,6879.0,-137.0
2026-04-09 22:06:11.819621,193015,1301848102,1301849756,0.765184,-0.1464,0.017568,-6.51875,-2.23125,-5.73125,-26.072,12.104001,22.992,eccentric,6,3.0,31316.0,403431.0,132162.0,6879.0,-137.0
2026-04-09 22:06:11.854577,193016,1301857001,1301858444,0.7808,-0.18544,-0.023424,-0.63875,-3.43,-5.31125,-25.904001,11.84,23.696001,eccentric,6,3.0,31316.0,403431.0,132162.0,6879.0,-137.0
2026-04-09 22:06:11.858182,193017,1301865945,1301868414,0.7808,-0.18544,-0.023424,5.03125,-5.31125,-3.64875,-25.904001,11.84,23.696001,eccentric,6,3.0,31316.0,403431.0,132162.0,6879.0,-137.0
2026-04-09 22:06:11.888144,193028,1301877390,1301879680,0.796416,-0.162016,0.015616,4.90875,-6.39625,-0.81375,-26.096,11.6,23.024,eccentric,6,3.0,31401.0,403431.0,130150.0,6070.0,-137.0
2026-04-09 22:06:11.890671,193029,1301892030,1301892606,0.823744,-0.111264,0.02928,0.6125,-6.055,2.0475,-26.032001,11.824,22.752,eccentric,6,3.0,31401.0,403431.0,130150.0,6070.0,-137.0
2026-04-09 22:06:11.893132,193030,1301901215,1301903361,0.823744,-0.111264,0.02928,-5.32,-4.73375,3.24625,-26.032001,11.824,22.752,eccentric,6,3.0,31401.0,403431.0,130150.0,6070.0,-137.0
2026-04-09 22:06:11.895646,193031,1301910168,1301912086,0.835456,-0.169824,-0.003904,-8.5225,-3.57,3.08875,-25.912,11.968,23.184002,eccentric,6,3.0,31401.0,403431.0,130150.0,6070.0,-137.0
2026-04-09 22:06:11.898176,193032,1301919224,1301920850,0.835456,-0.169824,-0.003904,-7.7875,-3.84125,0.72625,-25.912,11.968,23.184002,eccentric,6,3.0,31401.0,403431.0,130150.0,6070.0,-137.0
2026-04-09 22:06:11.900759,193033,1301933731,1301935821,0.886208,-0.16592,-0.01952,-1.5225,-5.32,0.0525,-25.808,12.232,23.44,eccentric,6,3.0,31401.0,403431.0,130150.0,6070.0,-137.0
2026-04-09 22:06:11.903112,193034,1301942686,1301944523,0.886208,-0.16592,-0.01952,3.84125,-7.0525,0.1925,-25.808,12.232,23.44,eccentric,6,3.0,31401.0,403431.0,130150.0,6070.0,-137.0
2026-04-09 22:06:11.908205,193035,1301951634,1301953232,0.882304,-0.152256,0.035136,1.8375,-7.83125,1.47,-25.376001,12.272,25.44,concentric,6,3.0,31401.0,403431.0,130150.0,6070.0,-137.0
2026-04-09 22:06:11.942219,193036,1301966136,1301968204,0.882304,-0.152256,0.035136,-1.18125,-6.83375,1.225,-25.376001,12.272,25.44,concentric,6,3.0,31401.0,403431.0,130150.0,6070.0,-137.0
2026-04-09 22:06:11.945677,193037,1301975054,1301976901,0.860832,-0.142496,0.017568,-2.5725,-5.22375,0.23625,-25.768002,12.472,22.36,concentric,6,3.0,31401.0,403431.0,130150.0,6070.0,-137.0
2026-04-09 22:06:11.983216,193047,1301984072,1301985651,0.860832,-0.142496,0.017568,-3.17625,-4.76,-0.525,-25.768002,12.472,22.36,concentric,6,3.0,31389.0,403431.0,130168.0,6047.0,-144.0
2026-04-09 22:06:11.985636,193048,1301998579,1302000575,0.854976,-0.158112,-0.021472,0.4725,-5.04,-0.7875,-25.456001,12.320001,22.376001,concentric,6,3.0,31389.0,403431.0,130168.0,6047.0,-144.0
2026-04-09 22:06:11.988234,193049,1302007724,1302009317,0.854976,-0.158112,-0.021472,4.4975,-6.55375,-1.02375,-25.456001,12.320001,22.376001,concentric,6,3.0,31389.0,403431.0,130168.0,6047.0,-144.0
2026-04-09 22:06:11.990634,193050,1302016664,1302018076,0.8296,-0.150304,-0.007808,3.33375,-7.06125,1.02375,-26.744001,12.320001,23.144001,concentric,6,3.0,31389.0,403431.0,130168.0,6047.0,-144.0
2026-04-09 22:06:11.993528,193051,1302025616,1302026775,0.8296,-0.150304,-0.007808,0.00875,-7.035,3.675,-26.744001,12.320001,23.144001,concentric,6,3.0,31389.0,403431.0,130168.0,6047.0,-144.0
2026-04-09 22:06:11.995706,193052,1302040186,1302041796,0.813984,-0.119072,0.0,-2.17,-6.15125,6.04625,-26.232,11.856001,21.864,concentric,6,3.0,31389.0,403431.0,130168.0,6047.0,-144.0
2026-04-09 22:06:12.025949,193053,1302049126,1302050516,0.813984,-0.119072,0.0,-5.03125,-6.71125,7.60375,-26.232,11.856001,21.864,concentric,6,3.0,31389.0,403431.0,130168.0,6047.0,-144.0
2026-04-09 22:06:12.029415,193054,1302058083,1302059219,0.784704,-0.128832,-0.02928,-5.38125,-7.4375,9.05625,-25.160002,12.568001,21.744001,concentric,6,3.0,31389.0,403431.0,130168.0,6047.0,-144.0
2026-04-09 22:06:12.031904,193055,1302072570,1302074092,0.782752,-0.158112,-0.021472,-3.08,-7.7525,10.71,-25.864,12.816001,22.048,concentric,6,3.0,31389.0,403431.0,130168.0,6047.0,-144.0
2026-04-09 22:06:12.061550,193065,1302081979,1302082897,0.782752,-0.158112,-0.021472,-2.98375,-8.1375,13.32625,-25.864,12.816001,22.048,concentric,6,3.0,31342.0,403431.0,130804.0,6273.0,-140.0
2026-04-09 22:06:12.061615,193066,1302091015,1302091686,0.792512,-0.128832,-0.017568,-5.71375,-8.65375,16.66,-25.256,12.080001,22.016,concentric,6,3.0,31342.0,403431.0,130804.0,6273.0,-140.0
2026-04-09 22:06:12.061920,193067,1302100427,1302102483,0.792512,-0.128832,-0.017568,-8.505,-7.91,18.76875,-25.256,12.080001,22.016,concentric,6,3.0,31342.0,403431.0,130804.0,6273.0,-140.0
2026-04-09 22:06:12.092362,193068,1302114952,1302115355,0.772992,-0.144448,-0.011712,-12.005,-7.30625,19.46875,-24.184002,12.936001,21.368002,concentric,6,3.0,31342.0,403431.0,130804.0,6273.0,-140.0
2026-04-09 22:06:12.095701,193069,1302124247,1302126065,0.772992,-0.144448,-0.011712,-13.46625,-7.18375,20.65,-24.184002,12.936001,21.368002,concentric,6,3.0,31342.0,403431.0,130804.0,6273.0,-140.0
2026-04-09 22:06:12.098224,193070,1302133203,1302134791,0.733952,-0.169824,-0.050752,-13.11625,-8.0675,22.2075,-24.608002,12.896001,21.44,concentric,6,3.0,31342.0,403431.0,130804.0,6273.0,-140.0
2026-04-09 22:06:12.103374,193071,1302147689,1302149678,0.733952,-0.169824,-0.050752,-10.47375,-9.6775,24.7275,-24.608002,12.896001,21.44,concentric,6,3.0,31342.0,403431.0,130804.0,6273.0,-140.0
2026-04-09 22:06:12.153693,193072,1302156641,1302158375,0.720288,-0.15616,-0.037088,-10.35125,-10.91125,28.18375,-25.816002,13.120001,23.160002,concentric,6,3.0,31342.0,403431.0,130804.0,6273.0,-140.0
2026-04-09 22:06:12.156970,193073,1302165599,1302167099,0.720288,-0.15616,-0.037088,-17.28125,-11.06,32.305,-25.816002,13.120001,23.160002,concentric,6,3.0,31342.0,403431.0,130804.0,6273.0,-140.0
2026-04-09 22:06:12.160235,193074,1302174504,1302175791,0.786656,-0.187392,-0.056608,-27.772501,-10.22,35.14,-24.240002,13.400001,20.624,concentric,6,3.0,31342.0,403431.0,130804.0,6273.0,-140.0
2026-04-09 22:06:12.186908,193085,1302189080,1302190776,0.786656,-0.187392,-0.056608,-36.84625,-8.198751,35.86625,-24.240002,13.400001,20.624,concentric,6,3.0,31487.0,403431.0,134465.0,7795.0,-140.0
2026-04-09 22:06:12.189479,193086,1302198042,1302199470,0.765184,-0.124928,0.003904,-36.26,-7.14,35.9625,-23.504002,13.448001,19.976002,concentric,6,3.0,31487.0,403431.0,134465.0,7795.0,-140.0
2026-04-09 22:06:12.191945,193087,1302206968,1302208171,0.765184,-0.124928,0.003904,-30.98375,-7.98,33.38125,-23.504002,13.448001,19.976002,concentric,6,3.0,31487.0,403431.0,134465.0,7795.0,-140.0
2026-04-09 22:06:12.194496,193088,1302221511,1302223122,0.737856,-0.255712,-0.031232,-24.491251,-10.10625,31.19375,-23.304,13.64,20.04,concentric,6,3.0,31487.0,403431.0,134465.0,7795.0,-140.0
2026-04-09 22:06:12.196871,193089,1302230465,1302231853,0.737856,-0.255712,-0.001952,-17.77125,-12.5475,32.89125,-23.304,13.64,20.04,concentric,6,3.0,31487.0,403431.0,134465.0,7795.0,-140.0
2026-04-09 22:06:12.199833,193090,1302239405,1302240578,0.739808,-0.259616,-0.001952,-17.12375,-12.59125,36.6975,-22.896002,13.824,21.816002,concentric,6,3.0,31487.0,403431.0,134465.0,7795.0,-140.0
2026-04-09 22:06:12.229644,193091,1302253909,1302255555,0.76128,-0.30256,-0.066368,-25.5675,-10.7275,40.9325,-22.872002,14.992001,18.968,concentric,6,3.0,31487.0,403431.0,134465.0,7795.0,-140.0
2026-04-09 22:06:12.233233,193092,1302262886,1302264284,0.76128,-0.30256,-0.066368,-36.00625,-9.21375,44.8175,-22.872002,14.992001,18.968,concentric,6,3.0,31487.0,403431.0,134465.0,7795.0,-140.0
2026-04-09 22:06:12.235724,193093,1302271823,1302272973,0.755424,-0.16592,-0.052704,-44.07375,-9.292501,45.85875,-22.320002,14.376,19.048,concentric,6,3.0,31487.0,403431.0,134465.0,7795.0,-140.0
2026-04-09 22:06:12.266991,193103,1302286382,1302288072,0.755424,-0.16592,-0.052704,-37.58125,-11.6375,46.20875,-22.320002,14.376,19.048,concentric,6,3.0,31765.0,403431.0,135893.0,8424.0,-153.0
2026-04-09 22:06:12.269428,193104,1302295382,1302296918,0.716384,-0.16592,-0.023424,-25.725,-14.1925,43.14625,-22.744001,15.280001,19.696001,concentric,6,3.0,31765.0,403431.0,135893.0,8424.0,-153.0
2026-04-09 22:06:12.271957,193105,1302304369,1302305654,0.716384,-0.16592,-0.023424,-21.07875,-15.25125,38.14125,-22.744001,15.280001,19.696001,concentric,6,3.0,31765.0,403431.0,135893.0,8424.0,-153.0
2026-04-09 22:06:12.274436,193106,1302313306,1302314371,0.74176,-0.378688,-0.089792,-22.8025,-15.65375,37.54625,-21.608002,14.584001,19.344002,concentric,6,3.0,31765.0,403431.0,135893.0,8424.0,-153.0
2026-04-09 22:06:12.304612,193107,1302327858,1302329311,0.74176,-0.378688,-0.089792,-29.75,-14.07,38.745,-21.608002,14.584001,19.344002,concentric,6,3.0,31765.0,403431.0,135893.0,8424.0,-153.0
2026-04-09 22:06:12.308204,193108,1302336825,1302337997,0.786656,-0.372832,-0.089792,-39.08625,-11.6025,40.145,-22.048,14.712001,18.112001,concentric,6,3.0,31765.0,403431.0,135893.0,8424.0,-153.0
2026-04-09 22:06:12.310664,193109,1302345728,1302346691,0.786656,-0.372832,-0.089792,-40.52125,-9.79125,43.365,-22.048,14.712001,18.112001,concentric,6,3.0,31765.0,403431.0,135893.0,8424.0,-153.0
2026-04-09 22:06:12.317340,193110,1302360181,1302361629,0.813984,-0.142496,-0.050752,-32.725,-8.05875,43.4875,-20.792002,15.616001,16.856,concentric,6,3.0,31765.0,403431.0,135893.0,8424.0,-153.0
2026-04-09 22:06:12.345959,193111,1302369130,1302370334,0.813984,-0.142496,-0.050752,-27.64125,-6.83375,38.2375,-20.792002,15.616001,16.856,concentric,6,3.0,31765.0,403431.0,135893.0,8424.0,-153.0
2026-04-09 22:06:12.349476,193112,1302378038,1302378951,0.77104,-0.300608,-0.132736,-28.44625,-7.2625,31.928751,-21.136002,14.872001,16.2,concentric,6,3.0,31765.0,403431.0,135893.0,8424.0,-153.0
2026-04-09 22:06:12.374460,193122,1302392526,1302393873,0.823744,-0.388448,-0.169824,-24.9725,-9.03,29.68875,-20.312,16.168001,18.720001,concentric,6,3.0,31667.0,403431.0,134763.0,7904.0,-138.0
2026-04-09 22:06:12.376911,193123,1302401439,1302402574,0.823744,-0.388448,-0.169824,-19.90625,-10.4475,30.66,-20.312,16.168001,18.720001,concentric,6,3.0,31667.0,403431.0,134763.0,7904.0,-138.0
2026-04-09 22:06:12.379439,193124,1302410394,1302411331,0.823744,-0.388448,-0.169824,-20.74625,-8.785,32.55875,-20.312,16.168001,18.720001,concentric,6,3.0,31667.0,403431.0,134763.0,7904.0,-138.0
2026-04-09 22:06:12.382015,193125,1302419318,1302420082,0.806176,-0.38064,-0.054656,-27.62375,-5.8625,34.04625,-20.712002,15.920001,16.912,concentric,6,3.0,31667.0,403431.0,134763.0,7904.0,-138.0
2026-04-09 22:06:12.412235,193126,1302434258,1302435052,0.794464,-0.314272,-0.105408,-35.420002,-2.3975,35.21,-20.416,15.672001,17.248001,concentric,6,3.0,31667.0,403431.0,134763.0,7904.0,-138.0
2026-04-09 22:06:12.415773,193127,1302443719,1302445803,0.794464,-0.314272,-0.105408,-38.01875,-0.21875,34.09875,-20.416,15.672001,17.248001,concentric,6,3.0,31667.0,403431.0,134763.0,7904.0,-138.0
2026-04-09 22:06:12.418182,193128,1302452731,1302454501,0.782752,-0.208864,-0.199104,-28.70875,0.0875,33.53,-19.352001,15.320001,14.992001,concentric,6,3.0,31667.0,403431.0,134763.0,7904.0,-138.0
2026-04-09 22:06:12.455916,193129,1302467212,1302469485,0.782752,-0.208864,-0.199104,-16.9925,-1.4525,31.045,-19.352001,15.320001,14.992001,concentric,6,3.0,31667.0,403431.0,134763.0,7904.0,-138.0
2026-04-09 22:06:12.459472,193130,1302476135,1302478174,0.747616,-0.347456,-0.154208,-10.50875,-3.64,29.09375,-19.352001,15.416,15.392001,concentric,6,3.0,31667.0,403431.0,134763.0,7904.0,-138.0
2026-04-09 22:06:12.523281,193141,1302485217,1302487236,0.747616,-0.347456,-0.154208,-10.64875,-4.87375,29.84625,-19.352001,15.416,15.392001,concentric,6,3.0,31799.0,403431.0,135033.0,7996.0,-147.0
2026-04-09 22:06:12.527709,193142,1302494144,1302495979,0.798368,-0.513376,-0.132736,-14.35,-5.34625,31.78,-18.864,16.096,14.936001,concentric,6,3.0,31799.0,403431.0,135033.0,7996.0,-147.0
2026-04-09 22:06:12.533813,193143,1302508601,1302508940,0.798368,-0.513376,-0.132736,-21.27125,-3.5875,32.15625,-18.864,16.096,14.936001,concentric,6,3.0,31799.0,403431.0,135033.0,7996.0,-147.0
2026-04-09 22:06:12.535478,193144,1302517878,1302519797,0.677344,-0.320128,-0.02928,-22.54,-1.53125,33.48625,-20.528002,16.784,15.360001,concentric,6,3.0,31799.0,403431.0,135033.0,7996.0,-147.0
2026-04-09 22:06:12.536977,193145,1302526950,1302528502,0.677344,-0.320128,-0.02928,-19.01375,-0.11375,37.56375,-20.528002,16.784,15.360001,concentric,6,3.0,31799.0,403431.0,135033.0,7996.0,-147.0
2026-04-09 22:06:12.541247,193146,1302541441,1302543475,0.69296,-0.30256,-0.119072,-21.55125,0.1925,36.28625,-17.952002,16.176,14.264001,concentric,6,3.0,31799.0,403431.0,135033.0,7996.0,-147.0
2026-04-09 22:06:12.542959,193147,1302550362,1302552190,0.69296,-0.30256,-0.119072,-17.17625,-0.3325,36.951252,-17.952002,16.176,14.264001,concentric,6,3.0,31799.0,403431.0,135033.0,7996.0,-147.0
2026-04-09 22:06:12.544492,193148,1302559281,1302560879,0.685152,-0.3416,-0.181536,-10.85875,-0.37625,40.39,-17.448,17.08,13.784,concentric,6,3.0,31799.0,403431.0,135033.0,7996.0,-147.0
2026-04-09 22:06:12.548840,193149,1302573791,1302575769,0.706624,-0.474336,-0.197152,-11.3575,0.28,39.41,-17.968,16.584002,13.872001,concentric,6,3.0,31799.0,403431.0,135033.0,7996.0,-147.0
2026-04-09 22:06:12.572992,193159,1302583277,1302584660,0.706624,-0.474336,-0.197152,-15.02375,-0.6825,37.07375,-17.968,16.584002,13.872001,concentric,6,3.0,32254.0,403431.0,135547.0,8133.0,-138.0
2026-04-09 22:06:12.574473,193160,1302592291,1302593392,0.687104,-0.45872,-0.05856,-17.3425,-0.53375,35.25375,-17.968,16.584002,14.344001,concentric,6,3.0,32254.0,403431.0,135547.0,8133.0,-138.0
2026-04-09 22:06:12.578789,193161,1302601243,1302602102,0.687104,-0.45872,-0.05856,-14.533751,0.175,35.420002,-18.136002,17.296001,14.344001,concentric,6,3.0,32254.0,403431.0,135547.0,8133.0,-138.0
2026-04-09 22:06:12.580438,193162,1302615748,1302617065,0.71248,-0.392352,-0.080032,-12.6175,0.91875,36.8025,-17.92,17.336,14.256001,concentric,6,3.0,32254.0,403431.0,135547.0,8133.0,-138.0
2026-04-09 22:06:12.581997,193163,1302624661,1302625802,0.71248,-0.392352,-0.080032,-12.85375,1.88125,36.89,-17.92,17.336,14.256001,concentric,6,3.0,32254.0,403431.0,135547.0,8133.0,-138.0
2026-04-09 22:06:12.589872,193164,1302633586,1302634516,0.694912,-0.437248,-0.173728,-9.0125,2.065,36.88125,-17.720001,17.544,14.320001,concentric,6,3.0,32254.0,403431.0,135547.0,8133.0,-138.0
2026-04-09 22:06:12.618437,193165,1302648080,1302649469,0.694912,-0.437248,-0.173728,-5.20625,1.35625,34.982502,-17.720001,17.544,14.320001,concentric,6,3.0,32254.0,403431.0,135547.0,8133.0,-138.0
2026-04-09 22:06:12.622898,193166,1302656977,1302658179,0.739808,-0.523136,-0.245952,-1.47,1.3125,31.50875,-16.896,18.048,13.008,concentric,6,3.0,32254.0,403431.0,135547.0,8133.0,-138.0
2026-04-09 22:06:12.624408,193167,1302665902,1302666901,0.739808,-0.523136,-0.245952,-1.82875,2.3975,27.09,-16.896,18.048,13.008,concentric,6,3.0,32254.0,403431.0,135547.0,8133.0,-138.0
2026-04-09 22:06:12.680709,193177,1302680388,1302682114,0.72224,-0.42944,-0.050752,-7.60375,3.2725,23.31875,-17.720001,18.056002,12.64,concentric,6,3.0,32109.0,403431.0,132635.0,6848.0,-124.0
2026-04-09 22:06:12.685041,193178,1302689329,1302690876,0.72224,-0.42944,-0.050752,-12.136251,4.725,23.12625,-17.720001,18.056002,12.64,concentric,6,3.0,32109.0,403431.0,132635.0,6848.0,-124.0
2026-04-09 22:06:12.686692,193179,1302698264,1302699586,0.72224,-0.552416,-0.091744,-13.9825,5.8275,21.5775,-16.384,17.904001,12.280001,concentric,6,3.0,32109.0,403431.0,132635.0,6848.0,-124.0
2026-04-09 22:06:12.688258,193180,1302707174,1302708279,0.72224,-0.552416,-0.091744,-4.0075,4.92625,21.210001,-16.384,17.904001,12.280001,concentric,6,3.0,32109.0,403431.0,132635.0,6848.0,-124.0
2026-04-09 22:06:12.692453,193181,1302721693,1302723224,0.749568,-0.42944,-0.22448,11.935,3.28125,20.53625,-17.08,18.024,13.464001,concentric,6,3.0,32109.0,403431.0,132635.0,6848.0,-124.0
2026-04-09 22:06:12.694185,193182,1302730648,1302731918,0.749568,-0.42944,-0.22448,23.1175,3.31625,20.39625,-17.08,18.024,13.464001,concentric,6,3.0,32109.0,403431.0,132635.0,6848.0,-124.0
2026-04-09 22:06:12.695760,193183,1302739661,1302740670,0.704672,-0.462624,-0.152256,18.9,6.36125,19.4075,-17.688002,18.176,14.064001,concentric,6,3.0,32109.0,403431.0,132635.0,6848.0,-124.0
2026-04-09 22:06:12.753403,193184,1302754173,1302755576,0.696864,-0.583648,-0.111264,8.4875,9.37125,17.91125,-15.752001,18.736,13.264001,concentric,6,3.0,32109.0,403431.0,132635.0,6848.0,-124.0
2026-04-09 22:06:12.756985,193185,1302763184,1302764266,0.696864,-0.583648,-0.111264,-1.00625,12.775,14.875,-15.752001,18.736,13.264001,concentric,6,3.0,32109.0,403431.0,132635.0,6848.0,-124.0
2026-04-09 22:06:12.759498,193186,1302772093,1302772936,0.696864,-0.583648,-0.111264,0.70875,15.155,12.67,-15.752001,18.736,13.264001,concentric,6,3.0,32109.0,403431.0,132635.0,6848.0,-124.0
2026-04-09 22:06:12.788184,193196,1302786725,1302787854,0.747616,-0.532896,-0.083936,7.455,15.505,14.1575,-16.136002,18.752,12.84,concentric,6,3.0,32384.0,403431.0,135187.0,7965.0,-147.0
2026-04-09 22:06:12.790723,193197,1302795643,1302796571,0.75152,-0.528992,-0.130784,13.06375,15.42625,15.26875,-16.656,19.176,12.912001,concentric,6,3.0,32384.0,403431.0,135187.0,7965.0,-147.0
2026-04-09 22:06:12.793166,193198,1302804644,1302805314,0.75152,-0.528992,-0.130784,21.84,14.8925,14.5075,-16.656,19.176,12.912001,concentric,6,3.0,32384.0,403431.0,135187.0,7965.0,-147.0
2026-04-09 22:06:12.795662,193199,1302813952,1302816126,0.74176,-0.548512,-0.105408,29.19,14.77875,14.4025,-16.376001,19.400002,11.936001,concentric,6,3.0,32384.0,403431.0,135187.0,7965.0,-147.0
2026-04-09 22:06:12.800071,193200,1302828655,1302828998,0.74176,-0.548512,-0.105408,28.98,15.645,12.215,-16.376001,19.400002,11.936001,concentric,6,3.0,32384.0,403431.0,135187.0,7965.0,-147.0
2026-04-09 22:06:12.800932,193201,1302837956,1302839776,0.769088,-0.64416,-0.163968,27.39625,16.5375,11.96125,-17.592001,19.728,13.744,concentric,6,3.0,32384.0,403431.0,135187.0,7965.0,-147.0
2026-04-09 22:06:12.804055,193202,1302846932,1302848528,0.769088,-0.64416,-0.163968,18.2175,16.6775,8.30375,-17.592001,19.728,13.744,concentric,6,3.0,32384.0,403431.0,135187.0,7965.0,-147.0
2026-04-09 22:06:12.835935,193203,1302861450,1302863482,0.813984,-0.609024,-0.080032,12.45125,17.31625,3.57875,-17.392,19.376001,13.232,concentric,6,3.0,32384.0,403431.0,135187.0,7965.0,-147.0
2026-04-09 22:06:12.839511,193204,1302870389,1302872187,0.813984,-0.609024,-0.080032,17.26375,15.96875,4.12125,-17.392,19.376001,13.232,concentric,6,3.0,32384.0,403431.0,135187.0,7965.0,-147.0
2026-04-09 22:06:12.841970,193205,1302879302,1302880885,0.81008,-0.626592,-0.062464,25.13875,13.55375,3.31625,-16.632,19.344002,12.304001,concentric,6,3.0,32384.0,403431.0,135187.0,7965.0,-147.0
2026-04-09 22:06:12.869535,193216,1302888362,1302889640,0.81008,-0.626592,-0.062464,29.6275,12.06625,0.97125,-16.632,19.344002,12.304001,concentric,6,3.0,32206.0,403431.0,134043.0,7532.0,-151.0
2026-04-09 22:06:12.873112,193217,1302902932,1302904648,0.81984,-0.6344,-0.042944,32.96125,11.261251,-1.75,-16.912,20.0,12.76,concentric,6,3.0,32206.0,403431.0,134043.0,7532.0,-151.0
2026-04-09 22:06:12.874457,193218,1302911887,1302913351,0.81984,-0.6344,-0.042944,35.46375,10.80625,-2.9575,-16.912,20.0,12.76,concentric,6,3.0,32206.0,403431.0,134043.0,7532.0,-151.0
2026-04-09 22:06:12.877514,193219,1302920830,1302922056,0.81984,-0.64416,-0.089792,35.41125,10.5,-5.11,-16.656,20.424002,13.984,concentric,6,3.0,32206.0,403431.0,134043.0,7532.0,-151.0
2026-04-09 22:06:12.907212,193220,1302935330,1302937020,0.808128,-0.657824,-0.013664,30.89625,9.9575,-8.91625,-16.968,20.848001,14.016001,concentric,6,3.0,32206.0,403431.0,134043.0,7532.0,-151.0
2026-04-09 22:06:12.910880,193221,1302944246,1302945744,0.808128,-0.657824,-0.013664,29.81125,8.636251,-10.33375,-16.968,20.848001,14.016001,concentric,6,3.0,32206.0,403431.0,134043.0,7532.0,-151.0
2026-04-09 22:06:12.913229,193222,1302953201,1302954435,0.808128,-0.657824,0.0,36.4,7.1225,-9.7125,-16.968,20.848001,14.016001,concentric,6,3.0,32206.0,403431.0,134043.0,7532.0,-151.0
2026-04-09 22:06:12.943421,193223,1302967741,1302969427,0.782752,-0.648064,0.0,39.92625,4.7775,-8.6275,-16.768002,20.424002,14.048,concentric,6,3.0,32206.0,403431.0,134043.0,7532.0,-151.0
2026-04-09 22:06:12.947010,193224,1302976652,1302978117,0.821792,-0.57584,-0.00976,42.84875,2.485,-6.4575,-16.968,21.216002,13.76,concentric,6,3.0,32206.0,403431.0,134043.0,7532.0,-151.0
2026-04-09 22:06:12.971975,193234,1302985652,1302986855,0.821792,-0.57584,-0.00976,45.73625,1.32125,-5.34625,-16.968,21.216002,13.76,concentric,6,3.0,32107.0,403431.0,131862.0,6595.0,-134.0
2026-04-09 22:06:12.974455,193235,1302994634,1302995648,0.804224,-0.636352,0.023424,43.28625,1.26,-4.73375,-17.512001,21.384,14.328001,concentric,6,3.0,32107.0,403431.0,131862.0,6595.0,-134.0
2026-04-09 22:06:12.976954,193236,1303009166,1303010582,0.804224,-0.636352,0.023424,38.61375,0.51625,-4.4275,-17.512001,21.384,14.328001,concentric,6,3.0,32107.0,403431.0,131862.0,6595.0,-134.0
2026-04-09 22:06:12.979466,193237,1303018098,1303019298,0.794464,-0.694912,0.031232,32.85625,-0.28875,-3.61375,-17.960001,20.976002,15.408001,concentric,6,3.0,32107.0,403431.0,131862.0,6595.0,-134.0
2026-04-09 22:06:12.981982,193238,1303027053,1303028037,0.794464,-0.694912,0.031232,30.6075,-1.19875,-2.82625,-17.960001,20.976002,15.408001,concentric,6,3.0,32107.0,403431.0,131862.0,6595.0,-134.0
2026-04-09 22:06:13.012231,193239,1303041531,1303042961,0.841312,-0.67344,-0.005856,31.745,-1.26,-0.6825,-17.808,21.016,15.344001,concentric,6,3.0,32107.0,403431.0,131862.0,6595.0,-134.0
2026-04-09 22:06:13.015771,193240,1303050471,1303051682,0.841312,-0.67344,-0.005856,31.0625,-1.5575,-1.18125,-17.808,21.016,15.344001,concentric,6,3.0,32107.0,403431.0,131862.0,6595.0,-134.0
2026-04-09 22:06:13.018238,193241,1303059384,1303060328,0.84912,-0.65392,0.013664,29.70625,-0.72625,-1.3475,-17.400002,21.144001,14.480001,concentric,6,3.0,32107.0,403431.0,131862.0,6595.0,-134.0
2026-04-09 22:06:13.057202,193242,1303073901,1303075241,0.84912,-0.687104,-0.013664,30.28375,-1.82875,-0.49,-17.400002,21.144001,14.480001,concentric,6,3.0,32107.0,403431.0,131862.0,6595.0,-134.0
2026-04-09 22:06:13.083142,193252,1303082878,1303084345,0.841312,-0.687104,-0.013664,28.2275,-2.42375,-1.28625,-16.936,21.160002,15.016001,concentric,6,3.0,32106.0,403431.0,129667.0,5733.0,-139.0
2026-04-09 22:06:13.085739,193253,1303091867,1303093072,0.841312,-0.687104,-0.013664,25.82125,-2.65125,-1.93375,-16.936,21.160002,15.016001,concentric,6,3.0,32106.0,403431.0,129667.0,5733.0,-139.0
2026-04-09 22:06:13.091965,193254,1303106423,1303108016,0.802272,-0.685152,-0.001952,26.66125,-3.57875,-2.30125,-16.944,21.592001,14.504001,concentric,6,3.0,32106.0,403431.0,129667.0,5733.0,-139.0
2026-04-09 22:06:13.094476,193255,1303115380,1303116739,0.784704,-0.675392,-0.005856,25.0775,-4.50625,-2.2225,-16.688002,22.304,15.200001,concentric,6,3.0,32106.0,403431.0,129667.0,5733.0,-139.0
2026-04-09 22:06:13.096944,193256,1303124386,1303125452,0.784704,-0.675392,-0.005856,24.2025,-5.71375,-1.1375,-16.688002,22.304,15.200001,concentric,6,3.0,32106.0,403431.0,129667.0,5733.0,-139.0
2026-04-09 22:06:13.099450,193257,1303133375,1303134160,0.784704,-0.675392,-0.005856,24.4825,-6.335,0.27125,-16.688002,22.304,15.200001,concentric,6,3.0,32106.0,403431.0,129667.0,5733.0,-139.0
2026-04-09 22:06:13.101967,193258,1303147867,1303149101,0.77104,-0.6344,0.0,23.178751,-7.0,1.1025,-17.048,22.496,14.472001,concentric,6,3.0,32106.0,403431.0,129667.0,5733.0,-139.0
2026-04-09 22:06:13.132156,193259,1303156759,1303157846,0.753472,-0.62464,-0.017568,22.26,-6.72875,1.4525,-18.04,22.304,16.328001,concentric,6,3.0,32106.0,403431.0,129667.0,5733.0,-139.0
2026-04-09 22:06:13.135735,193260,1303165660,1303166507,0.753472,-0.62464,-0.017568,18.62875,-6.15125,1.05,-18.04,22.304,16.328001,concentric,6,3.0,32106.0,403431.0,129667.0,5733.0,-139.0
2026-04-09 22:06:13.138218,193261,1303180143,1303181465,0.74176,-0.626592,-0.01952,17.325,-5.32,1.81125,-16.624,22.632002,15.328001,concentric,6,3.0,32106.0,403431.0,129667.0,5733.0,-139.0
2026-04-09 22:06:13.165726,193272,1303189280,1303190297,0.74176,-0.626592,-0.01952,15.47,-4.41875,2.17,-16.624,22.632002,15.328001,concentric,6,3.0,32162.0,403431.0,130059.0,5880.0,-135.0
2026-04-09 22:06:13.168190,193273,1303198234,1303199035,0.71248,-0.610976,-0.011712,11.12125,-3.4825,2.24,-16.576,22.256,15.288001,concentric,6,3.0,32162.0,403431.0,130059.0,5880.0,-135.0
2026-04-09 22:06:13.170729,193274,1303212731,1303213912,0.71248,-0.610976,-0.011712,7.0,-2.91375,2.345,-16.576,22.256,15.288001,concentric,6,3.0,32162.0,403431.0,130059.0,5880.0,-135.0
2026-04-09 22:06:13.175823,193275,1303221655,1303222677,0.714432,-0.62464,-0.042944,3.38625,-3.14125,1.89,-16.496,22.512001,15.336,concentric,6,3.0,32162.0,403431.0,130059.0,5880.0,-135.0
