pc_time,serial_num,sensor_ts,host_ts,ax,ay,az,gx,gy,gz,mx,my,mz,phase,rpe,weight_kg,ppg_a,ppg_b,ppg_c,ppg_d,ppg_e
2026-04-09 22:06:16.142842,193823,1306181582,1306183406,0.827648,-0.441152,0.066368,9.44125,8.1725,-12.1625,-23.944,20.912,19.0,eccentric,6,3.0,32140.0,403431.0,132166.0,6736.0,-138.0
2026-04-09 22:06:16.148858,193824,1306190489,1306192130,0.847168,-0.4392,0.103456,8.3825,6.4575,-12.11875,-23.896002,20.768002,18.672,eccentric,6,3.0,32140.0,403431.0,132166.0,6736.0,-138.0
2026-04-09 22:06:16.203302,193834,1306205264,1306207131,0.847168,-0.4392,0.103456,6.71125,5.31125,-11.7425,-23.896002,20.768002,18.672,eccentric,6,3.0,31949.0,403431.0,130654.0,6143.0,-155.0
2026-04-09 22:06:16.205821,193835,1306214193,1306215837,0.856928,-0.443104,0.095648,2.345,4.165,-11.375,-24.576,20.336,18.568,eccentric,6,3.0,31949.0,403431.0,130654.0,6143.0,-155.0
2026-04-09 22:06:16.208266,193836,1306223172,1306224533,0.856928,-0.443104,0.095648,-0.35875,3.54375,-12.27625,-24.576,20.336,18.568,eccentric,6,3.0,31949.0,403431.0,130654.0,6143.0,-155.0
2026-04-09 22:06:16.210741,193837,1306237716,1306239494,0.851072,-0.45872,0.0976,-0.76125,2.26625,-13.1075,-24.920002,20.36,19.288,eccentric,6,3.0,31949.0,403431.0,130654.0,6143.0,-155.0
2026-04-09 22:06:16.213290,193838,1306246724,1306248215,0.851072,-0.495808,0.103456,1.23375,0.18375,-12.73125,-24.920002,20.36,18.448,eccentric,6,3.0,31949.0,403431.0,130654.0,6143.0,-155.0
2026-04-09 22:06:16.215854,193839,1306255677,1306256958,0.856928,-0.495808,0.103456,2.14375,-1.54875,-11.917501,-25.352001,20.28,18.448,eccentric,6,3.0,31949.0,403431.0,130654.0,6143.0,-155.0
2026-04-09 22:06:16.245988,193840,1306270213,1306271934,0.856928,-0.528992,0.113216,1.575,-2.345,-10.167501,-24.896002,20.256,18.824001,eccentric,6,3.0,31949.0,403431.0,130654.0,6143.0,-155.0
2026-04-09 22:06:16.249524,193841,1306279127,1306280638,0.856928,-0.528992,0.113216,1.91625,-2.135,-7.48125,-24.896002,20.256,18.824001,eccentric,6,3.0,31949.0,403431.0,130654.0,6143.0,-155.0
2026-04-09 22:06:16.252027,193842,1306288057,1306289343,0.872544,-0.462624,0.122976,4.15625,-2.2225,-4.69875,-24.768002,20.568,18.736,eccentric,6,3.0,31949.0,403431.0,130654.0,6143.0,-155.0
2026-04-09 22:06:16.254505,193843,1306297000,1306298102,0.872544,-0.462624,0.122976,5.005,-1.91625,-3.3075,-24.768002,20.568,18.736,eccentric,6,3.0,31949.0,403431.0,130654.0,6143.0,-155.0
2026-04-09 22:06:16.282007,193854,1306311583,1306313130,0.864736,-0.488,0.11712,3.2375,-1.89,-3.5,-24.984001,20.344002,19.496,eccentric,6,3.0,32230.0,403431.0,133576.0,7313.0,-149.0
2026-04-09 22:06:16.284567,193855,1306320519,1306321925,0.864736,-0.488,0.11712,0.07875,-0.98,-3.8675,-24.984001,20.344002,19.496,eccentric,6,3.0,32230.0,403431.0,133576.0,7313.0,-149.0
2026-04-09 22:06:16.287024,193856,1306329518,1306330659,0.864736,-0.493856,0.109312,-0.3325,-0.7875,-2.975,-25.552002,20.152,19.952002,eccentric,6,3.0,32230.0,403431.0,133576.0,7313.0,-149.0
2026-04-09 22:06:16.359755,193857,1306344049,1306345585,0.864736,-0.493856,0.109312,-0.0525,-0.34125,-2.66,-25.552002,20.152,19.952002,eccentric,6,3.0,32230.0,403431.0,133576.0,7313.0,-149.0
2026-04-09 22:06:16.363352,193858,1306352973,1306354324,0.851072,-0.447008,0.091744,1.12,0.6475,-2.31875,-24.608002,20.152,18.568,eccentric,6,3.0,32230.0,403431.0,133576.0,7313.0,-149.0
2026-04-09 22:06:16.375889,193859,1306361928,1306363020,0.851072,-0.447008,0.091744,0.2975,1.47,-2.26625,-24.608002,20.152,18.568,eccentric,6,3.0,32230.0,403431.0,133576.0,7313.0,-149.0
2026-04-09 22:06:16.380895,193860,1306376420,1306377915,0.827648,-0.450912,0.081984,-1.70625,3.255,-2.98375,-24.872002,20.76,19.016,eccentric,6,3.0,32230.0,403431.0,133576.0,7313.0,-149.0
2026-04-09 22:06:16.383349,193861,1306385315,1306386607,0.827648,-0.450912,0.081984,-1.33,4.865,-2.98375,-24.872002,20.76,19.016,eccentric,6,3.0,32230.0,403431.0,133576.0,7313.0,-149.0
2026-04-09 22:06:16.385756,193862,1306394240,1306395317,0.788608,-0.41968,0.089792,0.18375,4.865,-4.03375,-25.112001,20.096,18.408,eccentric,6,3.0,32230.0,403431.0,133576.0,7313.0,-149.0
2026-04-09 22:06:16.414566,193872,1306408813,1306410295,0.765184,-0.386496,0.095648,0.69125,5.3725,-5.25875,-24.912,20.136002,18.096,eccentric,6,3.0,32225.0,403431.0,132815.0,7007.0,-155.0
2026-04-09 22:06:16.417085,193873,1306417765,1306419012,0.765184,-0.386496,0.095648,0.41125,6.20375,-6.11625,-24.912,20.136002,18.096,eccentric,6,3.0,32225.0,403431.0,132815.0,7007.0,-155.0
2026-04-09 22:06:16.419571,193874,1306426676,1306427754,0.765184,-0.386496,0.095648,-2.17875,6.9825,-6.6675,-24.912,20.136002,18.096,eccentric,6,3.0,32225.0,403431.0,132815.0,7007.0,-155.0
2026-04-09 22:06:16.422090,193875,1306435609,1306436454,0.757376,-0.40992,0.091744,-3.43875,6.86,-7.60375,-25.488,20.392,20.240002,eccentric,6,3.0,32225.0,403431.0,132815.0,7007.0,-155.0
2026-04-09 22:06:16.424608,193876,1306450197,1306451360,0.7808,-0.363072,0.062464,-1.30375,7.28875,-7.53375,-25.328001,20.792002,19.784,eccentric,6,3.0,32225.0,403431.0,132815.0,7007.0,-155.0
2026-04-09 22:06:16.435202,193877,1306459151,1306460147,0.7808,-0.363072,0.062464,1.8725,7.3325,-7.49,-25.328001,20.792002,19.784,eccentric,6,3.0,32225.0,403431.0,132815.0,7007.0,-155.0
2026-04-09 22:06:16.436782,193878,1306468074,1306468860,0.798368,-0.357216,0.07808,3.0975,7.21,-7.5075,-24.560001,20.896002,19.04,eccentric,6,3.0,32225.0,403431.0,132815.0,7007.0,-155.0
2026-04-09 22:06:16.438589,193879,1306483054,1306483776,0.798368,-0.357216,0.07808,0.07875,7.4025,-8.47,-24.560001,20.896002,19.04,eccentric,6,3.0,32225.0,403431.0,132815.0,7007.0,-155.0
2026-04-09 22:06:16.473202,193880,1306492403,1306494541,0.81984,-0.42944,0.109312,-7.0875,7.41125,-9.56375,-25.912,20.192001,19.992,eccentric,6,3.0,32225.0,403431.0,132815.0,7007.0,-155.0
2026-04-09 22:06:16.500151,193890,1306501378,1306503442,0.81984,-0.42944,0.109312,-12.39875,6.44,-9.84375,-25.912,20.192001,19.992,eccentric,6,3.0,31972.0,403431.0,130535.0,6150.0,-136.0
2026-04-09 22:06:16.501763,193891,1306510344,1306512157,0.921344,-0.423584,0.099552,-12.53875,5.46,-8.09375,-25.096,20.024,18.84,eccentric,6,3.0,31972.0,403431.0,130535.0,6150.0,-136.0
2026-04-09 22:06:16.503387,193892,1306524841,1306527099,0.921344,-0.423584,0.099552,-14.323751,4.1125,-7.91,-25.096,20.024,18.84,eccentric,6,3.0,31972.0,403431.0,130535.0,6150.0,-136.0
2026-04-09 22:06:16.507630,193893,1306533887,1306535870,0.972096,-0.460672,0.027328,-13.965,-0.09625,-7.74375,-25.160002,20.168001,20.656,eccentric,6,3.0,31972.0,403431.0,130535.0,6150.0,-136.0
2026-04-09 22:06:16.509187,193894,1306542887,1306544610,0.972096,-0.460672,0.027328,-10.40375,-5.92375,-6.15125,-25.160002,20.168001,20.656,eccentric,6,3.0,31972.0,403431.0,130535.0,6150.0,-136.0
2026-04-09 22:06:16.515023,193895,1306557555,1306559596,1.00528,-0.532896,0.081984,-7.5775,-12.83625,-3.42125,-25.392002,19.880001,20.2,eccentric,6,3.0,31972.0,403431.0,130535.0,6150.0,-136.0
2026-04-09 22:06:16.543580,193896,1306566576,1306568347,1.00528,-0.532896,0.081984,-5.74875,-18.94375,1.23375,-25.392002,19.880001,20.2,eccentric,6,3.0,31972.0,403431.0,130535.0,6150.0,-136.0
2026-04-09 22:06:16.548047,193897,1306575503,1306577045,0.993568,-0.491904,0.10736,-8.12875,-22.4,5.2325,-24.952002,20.104,20.656,eccentric,6,3.0,31972.0,403431.0,130535.0,6150.0,-136.0
2026-04-09 22:06:16.549738,193898,1306589941,1306591925,0.981856,-0.480192,0.103456,-15.435,-24.70125,8.26,-23.056002,20.272001,17.824001,eccentric,6,3.0,31972.0,403431.0,130535.0,6150.0,-136.0
2026-04-09 22:06:16.555374,193899,1306598939,1306600670,0.981856,-0.480192,0.103456,-20.7025,-25.6725,11.41875,-23.056002,20.272001,17.824001,eccentric,6,3.0,31972.0,403431.0,130535.0,6150.0,-136.0
2026-04-09 22:06:16.584630,193910,1306607990,1306609418,0.981856,-0.480192,0.083936,-23.07375,-27.06375,14.07,-23.056002,20.272001,17.824001,eccentric,6,3.0,32179.0,403431.0,132110.0,6731.0,-148.0
2026-04-09 22:06:16.587047,193911,1306617072,1306618121,0.976,-0.480192,0.083936,-22.8025,-29.33,16.24875,-23.240002,20.04,17.352001,eccentric,6,3.0,32179.0,403431.0,132110.0,6731.0,-148.0
2026-04-09 22:06:16.589541,193912,1306631534,1306633092,0.952576,-0.54656,0.037088,-22.785,-30.94,16.80875,-22.928001,20.032001,17.248001,eccentric,6,3.0,32179.0,403431.0,132110.0,6731.0,-148.0
2026-04-09 22:06:16.595885,193913,1306640478,1306641802,0.952576,-0.54656,0.037088,-23.555,-31.7275,16.66,-22.928001,20.032001,17.248001,eccentric,6,3.0,32179.0,403431.0,132110.0,6731.0,-148.0
2026-04-09 22:06:16.654762,193914,1306649441,1306650531,0.91744,-0.523136,0.054656,-19.83625,-32.61125,17.98125,-23.088001,20.128,17.936,eccentric,6,3.0,32179.0,403431.0,132110.0,6731.0,-148.0
2026-04-09 22:06:16.658357,193915,1306663913,1306665424,0.91744,-0.523136,0.054656,-14.69125,-32.90875,19.36375,-23.088001,20.128,17.936,eccentric,6,3.0,32179.0,403431.0,132110.0,6731.0,-148.0
2026-04-09 22:06:16.660829,193916,1306672874,1306674192,0.864736,-0.456768,0.089792,-11.41,-31.395,20.3525,-22.288,20.208,16.568,eccentric,6,3.0,32179.0,403431.0,132110.0,6731.0,-148.0
2026-04-09 22:06:16.663307,193917,1306681799,1306682864,0.864736,-0.456768,0.089792,-12.985,-29.7675,20.8075,-22.288,20.208,16.568,eccentric,6,3.0,32179.0,403431.0,132110.0,6731.0,-148.0
2026-04-09 22:06:16.665840,193918,1306696260,1306697778,0.874496,-0.45872,-0.013664,-17.00125,-28.37625,20.36125,-21.472,20.024,16.656,eccentric,6,3.0,32179.0,403431.0,132110.0,6731.0,-148.0
2026-04-09 22:06:16.694587,193928,1306705334,1306706697,0.874496,-0.45872,-0.013664,-16.96625,-27.16875,19.11,-21.472,20.024,16.656,eccentric,6,3.0,32843.0,403431.0,133035.0,6963.0,-131.0
2026-04-09 22:06:16.697052,193929,1306714319,1306715481,0.821792,-0.503616,-0.007808,-15.785,-26.13625,16.8,-21.832,20.056002,17.504002,eccentric,6,3.0,32843.0,403431.0,133035.0,6963.0,-131.0
2026-04-09 22:06:16.699611,193930,1306723288,1306724246,0.821792,-0.503616,-0.007808,-11.27,-25.73375,15.30375,-21.832,20.056002,17.504002,eccentric,6,3.0,32843.0,403431.0,133035.0,6963.0,-131.0
2026-04-09 22:06:16.702043,193931,1306737767,1306739184,0.796416,-0.466528,0.046848,-8.75,-24.26375,13.95625,-21.088001,20.44,16.152,eccentric,6,3.0,32843.0,403431.0,133035.0,6963.0,-131.0
2026-04-09 22:06:16.704571,193932,1306746746,1306747939,0.796416,-0.466528,0.046848,-13.2825,-21.98875,11.89125,-21.088001,20.44,16.152,eccentric,6,3.0,32843.0,403431.0,133035.0,6963.0,-131.0
2026-04-09 22:06:16.709576,193933,1306755656,1306756668,0.806176,-0.441152,-0.01952,-20.475,-20.30875,9.24875,-21.088001,20.008001,16.744001,eccentric,6,3.0,32843.0,403431.0,133035.0,6963.0,-131.0
2026-04-09 22:06:16.739907,193934,1306770119,1306771569,0.837408,-0.441152,-0.066368,-22.16375,-18.78625,7.1225,-20.256,19.92,16.16,eccentric,6,3.0,32843.0,403431.0,133035.0,6963.0,-131.0
2026-04-09 22:06:16.743348,193935,1306779035,1306780281,0.837408,-0.441152,-0.066368,-18.5325,-17.57875,5.285,-20.256,19.92,16.16,eccentric,6,3.0,32843.0,403431.0,133035.0,6963.0,-131.0
2026-04-09 22:06:16.745877,193936,1306787900,1306788992,0.837408,-0.441152,-0.066368,-17.08,-16.73,1.7325,-20.256,19.92,16.16,eccentric,6,3.0,32843.0,403431.0,133035.0,6963.0,-131.0
2026-04-09 22:06:16.777273,193937,1306802377,1306803933,0.774944,-0.501664,-0.052704,-19.915,-14.98875,-2.44125,-19.272001,19.488,18.304,eccentric,6,3.0,32843.0,403431.0,133035.0,6963.0,-131.0
2026-04-09 22:06:16.804550,193947,1306811316,1306812642,0.767136,-0.433344,-0.005856,-19.53,-13.3875,-4.13875,-19.36,19.528002,15.408001,eccentric,6,3.0,32886.0,403431.0,134897.0,7830.0,-154.0
2026-04-09 22:06:16.805920,193948,1306820209,1306821352,0.767136,-0.433344,-0.005856,-14.9625,-13.5625,-5.39,-19.36,19.528002,15.408001,eccentric,6,3.0,32886.0,403431.0,134897.0,7830.0,-154.0
2026-04-09 22:06:16.808411,193949,1306834707,1306836243,0.792512,-0.44896,-0.070272,-10.49125,-12.66125,-6.34375,-19.088001,19.368,15.168001,eccentric,6,3.0,32886.0,403431.0,134897.0,7830.0,-154.0
2026-04-09 22:06:16.810853,193950,1306843658,1306844976,0.792512,-0.44896,-0.070272,-9.40625,-11.29625,-8.0325,-19.088001,19.368,15.168001,eccentric,6,3.0,32886.0,403431.0,134897.0,7830.0,-154.0
2026-04-09 22:06:16.813355,193951,1306852656,1306853670,0.786656,-0.488,-0.064416,-5.9325,-11.17375,-10.00125,-19.168001,19.024,15.624001,eccentric,6,3.0,32886.0,403431.0,134897.0,7830.0,-154.0
2026-04-09 22:06:16.817154,193952,1306861600,1306862419,0.786656,-0.488,-0.064416,0.83125,-10.98125,-10.73625,-19.168001,19.024,15.624001,eccentric,6,3.0,32886.0,403431.0,134897.0,7830.0,-154.0
2026-04-09 22:06:16.847325,193953,1306876850,1306877346,0.778848,-0.421632,-0.033184,3.815,-10.14125,-11.99625,-20.632002,19.008001,17.568,eccentric,6,3.0,32886.0,403431.0,134897.0,7830.0,-154.0
2026-04-09 22:06:16.850861,193954,1306886202,1306888187,0.778848,-0.421632,-0.033184,4.85625,-8.88125,-13.5275,-20.632002,19.008001,17.568,eccentric,6,3.0,32886.0,403431.0,134897.0,7830.0,-154.0
2026-04-09 22:06:16.853339,193955,1306895128,1306896910,0.737856,-0.402112,0.027328,2.47625,-6.6325,-13.8425,-18.528002,18.864,15.544001,eccentric,6,3.0,32886.0,403431.0,134897.0,7830.0,-154.0
2026-04-09 22:06:16.898395,193966,1306909788,1306911949,0.778848,-0.413824,-0.072224,-3.54375,-4.795,-14.735,-19.576,19.592001,15.384001,eccentric,6,3.0,32784.0,403431.0,137510.0,9193.0,-143.0
2026-04-09 22:06:16.900891,193967,1306918974,1306920772,0.778848,-0.413824,-0.072224,-6.15125,-3.5175,-15.00625,-19.576,19.592001,15.384001,eccentric,6,3.0,32784.0,403431.0,137510.0,9193.0,-143.0
2026-04-09 22:06:16.907107,193968,1306927971,1306929523,0.778848,-0.413824,-0.072224,-1.67125,-2.6075,-14.77875,-19.576,19.592001,15.384001,eccentric,6,3.0,32784.0,403431.0,137510.0,9193.0,-143.0
2026-04-09 22:06:16.909632,193969,1306936885,1306938232,0.77104,-0.443104,-0.072224,4.41,-1.84625,-14.84,-20.672,19.112001,16.424002,eccentric,6,3.0,32784.0,403431.0,137510.0,9193.0,-143.0
2026-04-09 22:06:16.912111,193970,1306951438,1306953183,0.749568,-0.421632,-0.011712,7.9625,-1.1725,-15.6975,-19.288,18.416,17.216002,eccentric,6,3.0,32784.0,403431.0,137510.0,9193.0,-143.0
2026-04-09 22:06:16.914538,193971,1306960350,1306961927,0.749568,-0.421632,-0.011712,9.70375,-0.27125,-15.07625,-19.288,18.416,17.216002,eccentric,6,3.0,32784.0,403431.0,137510.0,9193.0,-143.0
2026-04-09 22:06:16.965528,193972,1306969290,1306970659,0.749568,-0.376736,-0.027328,5.915,1.33875,-15.86375,-19.288,18.416,17.216002,eccentric,6,3.0,32784.0,403431.0,137510.0,9193.0,-143.0
2026-04-09 22:06:16.965618,193973,1306983777,1306985602,0.733952,-0.376736,-0.027328,1.51375,3.28125,-16.397501,-19.256,18.792002,16.92,eccentric,6,3.0,32784.0,403431.0,137510.0,9193.0,-143.0
2026-04-09 22:06:16.966906,193974,1306992696,1306994290,0.772992,-0.347456,-0.109312,-0.27125,4.55875,-16.2925,-19.264002,18.464,16.288,eccentric,6,3.0,32784.0,403431.0,137510.0,9193.0,-143.0
2026-04-09 22:06:16.968479,193975,1307001756,1307003011,0.772992,-0.347456,-0.109312,0.02625,5.18,-18.095,-19.264002,18.464,16.288,eccentric,6,3.0,32784.0,403431.0,137510.0,9193.0,-143.0
2026-04-09 22:06:16.998939,193985,1307010854,1307011811,0.747616,-0.423584,-0.074176,0.00875,4.82125,-21.69125,-18.872002,17.92,15.992001,eccentric,6,3.0,32545.0,403431.0,135973.0,8473.0,-145.0
2026-04-09 22:06:17.000654,193986,1307025406,1307026722,0.747616,-0.423584,-0.074176,1.60125,3.57875,-23.10875,-18.872002,17.92,15.992001,eccentric,6,3.0,32545.0,403431.0,135973.0,8473.0,-145.0
2026-04-09 22:06:17.002138,193987,1307034343,1307035470,0.714432,-0.445056,-0.003904,0.07875,4.235,-25.29625,-19.384,18.424002,17.472,eccentric,6,3.0,32545.0,403431.0,135973.0,8473.0,-145.0
2026-04-09 22:06:17.006250,193988,1307043335,1307044191,0.714432,-0.445056,-0.003904,-1.8025,6.18625,-24.4125,-19.384,18.424002,17.472,eccentric,6,3.0,32545.0,403431.0,135973.0,8473.0,-145.0
2026-04-09 22:06:17.034787,193989,1307057847,1307059116,0.784704,-0.363072,-0.109312,-1.84625,8.12875,-21.945,-19.968,17.92,17.176,eccentric,6,3.0,32545.0,403431.0,135973.0,8473.0,-145.0
2026-04-09 22:06:17.039531,193990,1307066759,1307067834,0.784704,-0.363072,-0.109312,0.6475,8.4,-22.1725,-19.968,17.92,17.176,eccentric,6,3.0,32545.0,403431.0,135973.0,8473.0,-145.0
2026-04-09 22:06:17.040927,193991,1307075696,1307076546,0.757376,-0.396256,-0.130784,2.38,7.385,-25.43625,-19.584002,17.432001,16.768002,eccentric,6,3.0,32545.0,403431.0,135973.0,8473.0,-145.0
2026-04-09 22:06:17.046761,193992,1307090214,1307091542,0.757376,-0.46848,0.013664,5.145,5.32,-28.428751,-20.784,17.6,17.928001,eccentric,6,3.0,32545.0,403431.0,135973.0,8473.0,-145.0
2026-04-09 22:06:17.077061,193993,1307099159,1307100281,0.757376,-0.46848,0.013664,6.8075,5.41625,-30.765,-20.784,17.6,17.928001,eccentric,6,3.0,32545.0,403431.0,135973.0,8473.0,-145.0
2026-04-09 22:06:17.102187,194003,1307108515,1307109069,0.757376,-0.46848,0.013664,5.36375,7.81375,-29.61,-20.784,17.6,17.928001,eccentric,6,3.0,32130.0,403431.0,133728.0,7475.0,-153.0
2026-04-09 22:06:17.106405,194004,1307118019,1307119917,0.75152,-0.386496,-0.042944,1.89875,10.115,-26.81,-20.328001,17.728,16.024,eccentric,6,3.0,32130.0,403431.0,133728.0,7475.0,-153.0
2026-04-09 22:06:17.108146,194005,1307132760,1307134901,0.747616,-0.388448,-0.13664,-0.5075,12.66125,-25.025,-20.024,17.496,17.168001,eccentric,6,3.0,32130.0,403431.0,133728.0,7475.0,-153.0
2026-04-09 22:06:17.109902,194006,1307141792,1307143658,0.747616,-0.388448,-0.13664,-1.65375,13.440001,-26.7225,-20.024,17.496,17.168001,eccentric,6,3.0,32130.0,403431.0,133728.0,7475.0,-153.0
2026-04-09 22:06:17.126516,194007,1307150885,1307152375,0.769088,-0.417728,-0.027328,1.49625,11.97875,-29.067501,-20.152,17.096,16.904001,eccentric,6,3.0,32130.0,403431.0,133728.0,7475.0,-153.0
2026-04-09 22:06:17.128121,194008,1307159864,1307161123,0.769088,-0.417728,-0.027328,7.07875,10.92,-31.99,-20.152,17.096,16.904001,eccentric,6,3.0,32130.0,403431.0,133728.0,7475.0,-153.0
2026-04-09 22:06:17.129678,194009,1307174401,1307176136,0.728096,-0.415776,0.00976,9.625,11.698751,-33.565,-20.192001,17.392,17.736,eccentric,6,3.0,32130.0,403431.0,133728.0,7475.0,-153.0
2026-04-09 22:06:17.160771,194010,1307183357,1307184854,0.728096,-0.415776,0.00976,7.14875,13.8425,-31.57875,-20.192001,17.392,17.736,eccentric,6,3.0,32130.0,403431.0,133728.0,7475.0,-153.0
2026-04-09 22:06:17.165304,194011,1307192295,1307193554,0.796416,-0.349408,-0.111264,3.745,15.47875,-30.10875,-20.84,17.36,17.720001,eccentric,6,3.0,32130.0,403431.0,133728.0,7475.0,-153.0
2026-04-09 22:06:17.198570,194022,1307207137,1307208526,0.796416,-0.349408,-0.111264,4.55,16.52875,-29.82875,-20.84,17.36,17.720001,eccentric,6,3.0,31753.0,403431.0,131254.0,6411.0,-148.0
2026-04-09 22:06:17.202262,194023,1307216136,1307217366,0.778848,-0.339648,-0.074176,5.6875,15.96875,-33.075,-21.000002,16.504002,17.832,eccentric,6,3.0,31753.0,403431.0,131254.0,6411.0,-148.0
2026-04-09 22:06:17.206556,194024,1307225162,1307226150,0.778848,-0.339648,-0.074176,10.9725,14.93625,-36.00625,-21.000002,16.504002,17.832,eccentric,6,3.0,31753.0,403431.0,131254.0,6411.0,-148.0
2026-04-09 22:06:17.206662,194025,1307239728,1307241126,0.737856,-0.413824,0.080032,11.935,15.60125,-37.44125,-22.36,16.648,19.848001,eccentric,6,3.0,31753.0,403431.0,131254.0,6411.0,-148.0
2026-04-09 22:06:17.207140,194026,1307248674,1307249832,0.737856,-0.413824,0.080032,8.60125,18.17375,-36.4,-22.36,16.648,19.848001,eccentric,6,3.0,31753.0,403431.0,131254.0,6411.0,-148.0
2026-04-09 22:06:17.213815,194027,1307257676,1307258606,0.732,-0.363072,-0.054656,2.35375,19.41625,-34.64125,-21.144001,15.968,18.240002,eccentric,6,3.0,31753.0,403431.0,131254.0,6411.0,-148.0
2026-04-09 22:06:17.257054,194028,1307266622,1307267337,0.732,-0.363072,-0.054656,4.22625,18.22625,-32.48,-21.144001,15.968,18.240002,eccentric,6,3.0,31753.0,403431.0,131254.0,6411.0,-148.0
2026-04-09 22:06:17.261121,194029,1307281507,1307282242,0.7808,-0.259616,-0.122976,7.98,17.28125,-32.78625,-21.880001,15.984001,18.776001,eccentric,6,3.0,31753.0,403431.0,131254.0,6411.0,-148.0
2026-04-09 22:06:17.263871,194030,1307290868,1307293031,0.79056,-0.35136,0.003904,9.695,16.625,-35.27125,-21.880001,15.728001,19.144001,eccentric,6,3.0,31753.0,403431.0,131254.0,6411.0,-148.0
2026-04-09 22:06:17.265754,194031,1307299810,1307301787,0.79056,-0.35136,0.003904,9.19625,15.58375,-36.435,-21.984001,15.728001,19.144001,eccentric,6,3.0,31753.0,403431.0,131254.0,6411.0,-148.0
2026-04-09 22:06:17.293366,194041,1307314588,1307316833,0.765184,-0.3904,0.040992,5.45125,16.835001,-35.875,-21.824001,15.976001,18.776001,eccentric,6,3.0,31505.0,403431.0,128542.0,5384.0,-151.0
2026-04-09 22:06:17.297619,194042,1307323551,1307325608,0.765184,-0.3904,0.040992,2.66875,17.63125,-33.232502,-21.824001,15.976001,18.776001,eccentric,6,3.0,31505.0,403431.0,128542.0,5384.0,-151.0
2026-04-09 22:06:17.299319,194043,1307332516,1307334329,0.7808,-0.228384,-0.066368,1.9775,18.43625,-31.33375,-23.568,15.848001,21.096,eccentric,6,3.0,31505.0,403431.0,128542.0,5384.0,-151.0
2026-04-09 22:06:17.302090,194044,1307341508,1307343036,0.7808,-0.228384,-0.066368,3.07125,18.725,-30.625,-23.568,15.848001,21.096,eccentric,6,3.0,31505.0,403431.0,128542.0,5384.0,-151.0
2026-04-09 22:06:17.331104,194045,1307356081,1307357973,0.76128,-0.275232,0.011712,2.21375,18.585001,-33.845,-22.856,15.184001,20.52,eccentric,6,3.0,31505.0,403431.0,128542.0,5384.0,-151.0
2026-04-09 22:06:17.335630,194046,1307365072,1307366684,0.76128,-0.275232,0.011712,2.1875,17.71875,-36.68,-22.856,15.184001,20.52,eccentric,6,3.0,31505.0,403431.0,128542.0,5384.0,-151.0
2026-04-09 22:06:17.337175,194047,1307374025,1307375385,0.75152,-0.335744,0.040992,5.17125,17.47375,-37.03875,-22.528002,14.56,19.888,eccentric,6,3.0,31505.0,403431.0,128542.0,5384.0,-151.0
2026-04-09 22:06:17.345009,194048,1307388638,1307390305,0.75152,-0.335744,0.040992,5.92375,17.2025,-38.42125,-22.528002,14.56,19.888,eccentric,6,3.0,31505.0,403431.0,128542.0,5384.0,-151.0
2026-04-09 22:06:17.373576,194049,1307397590,1307399011,0.77104,-0.28304,-0.042944,4.76875,16.84375,-36.732502,-23.208,14.304001,20.976002,eccentric,6,3.0,31505.0,403431.0,128542.0,5384.0,-151.0
2026-04-09 22:06:17.378130,194050,1307406510,1307407713,0.77104,-0.28304,-0.042944,2.12625,16.84375,-36.11125,-23.208,14.304001,20.976002,eccentric,6,3.0,31505.0,403431.0,128542.0,5384.0,-151.0
2026-04-09 22:06:17.402325,194060,1307415463,1307416446,0.72224,-0.124928,0.027328,1.6975,16.275,-36.1725,-24.288002,14.576001,20.136002,eccentric,6,3.0,31505.0,403431.0,125138.0,4258.0,-136.0
2026-04-09 22:06:17.406384,194061,1307429932,1307431440,0.72224,-0.124928,0.027328,4.08625,15.295,-38.00125,-24.288002,14.576001,20.136002,eccentric,6,3.0,31505.0,403431.0,125138.0,4258.0,-136.0
2026-04-09 22:06:17.408110,194062,1307438904,1307440197,0.74176,-0.333792,-0.001952,3.45625,13.51875,-42.4725,-23.624,14.120001,21.984001,eccentric,6,3.0,31505.0,403431.0,125138.0,4258.0,-136.0
2026-04-09 22:06:17.410016,194063,1307449496,1307450564,0.74176,-0.333792,-0.001952,4.585,12.215,-41.13375,-23.624,14.120001,21.984001,eccentric,6,3.0,31505.0,403431.0,125138.0,4258.0,-136.0
2026-04-09 22:06:17.415042,194064,1307458467,1307459262,0.716384,-0.257664,0.083936,3.115,13.79,-35.00875,-23.904001,14.136001,20.336,eccentric,6,3.0,31505.0,403431.0,125138.0,4258.0,-136.0
2026-04-09 22:06:17.445704,194065,1307472974,1307474154,0.718336,-0.1464,0.037088,-4.62,16.56375,-29.86375,-23.616001,14.224001,19.68,eccentric,6,3.0,31505.0,403431.0,125138.0,4258.0,-136.0
2026-04-09 22:06:17.447135,194066,1307481936,1307482881,0.718336,-0.1464,0.037088,-10.185,18.3575,-30.065,-23.616001,14.224001,19.68,eccentric,6,3.0,31505.0,403431.0,125138.0,4258.0,-136.0
2026-04-09 22:06:17.451277,194067,1307490840,1307491576,0.718336,-0.1464,0.031232,-8.7325,18.54125,-33.4075,-23.616001,14.224001,19.68,eccentric,6,3.0,31505.0,403431.0,125138.0,4258.0,-136.0
2026-04-09 22:06:17.479835,194068,1307505755,1307506497,0.691008,-0.216672,0.031232,-1.47,15.67125,-36.91625,-23.880001,13.616,20.096,eccentric,6,3.0,31505.0,403431.0,125138.0,4258.0,-136.0
2026-04-09 22:06:17.515611,194079,1307515206,1307517467,0.759328,-0.27328,-0.02928,8.225,10.43875,-39.8125,-24.072,13.56,20.064001,eccentric,6,3.0,31403.0,403431.0,130480.0,6002.0,-141.0
2026-04-09 22:06:17.517628,194080,1307524114,1307526204,0.759328,-0.27328,-0.02928,15.53125,6.685,-36.3825,-24.072,13.56,20.064001,eccentric,6,3.0,31403.0,403431.0,130480.0,6002.0,-141.0
2026-04-09 22:06:17.523296,194081,1307533036,1307534918,0.755424,-0.201056,0.025376,10.815,7.27125,-29.8725,-24.128,13.368001,20.552,eccentric,6,3.0,31403.0,403431.0,130480.0,6002.0,-141.0
2026-04-09 22:06:17.523943,194082,1307547647,1307549899,0.755424,-0.201056,0.025376,-2.135,9.9225,-23.58125,-24.128,13.368001,20.552,eccentric,6,3.0,31403.0,403431.0,130480.0,6002.0,-141.0
2026-04-09 22:06:17.556981,194083,1307556604,1307558642,0.716384,-0.148352,0.015616,-10.28125,10.56125,-20.16,-24.072,13.120001,20.44,eccentric,6,3.0,31403.0,403431.0,130480.0,6002.0,-141.0
2026-04-09 22:06:17.559217,194084,1307565529,1307567335,0.716384,-0.148352,0.015616,-10.68375,8.25125,-20.965,-24.072,13.120001,20.44,eccentric,6,3.0,31403.0,403431.0,130480.0,6002.0,-141.0
2026-04-09 22:06:17.563854,194085,1307580055,1307582309,0.769088,-0.316224,-0.017568,-3.35125,3.92875,-23.485,-26.008001,12.664001,22.648,eccentric,6,3.0,31403.0,403431.0,130480.0,6002.0,-141.0
2026-04-09 22:06:17.565568,194086,1307588963,1307591011,0.769088,-0.316224,-0.017568,5.48625,0.18375,-20.9125,-26.008001,12.664001,22.648,eccentric,6,3.0,31403.0,403431.0,130480.0,6002.0,-141.0
2026-04-09 22:06:17.567080,194087,1307597855,1307599698,0.804224,-0.1952,0.001952,10.63125,-0.67375,-15.190001,-24.6,12.960001,20.216002,eccentric,6,3.0,31403.0,403431.0,130480.0,6002.0,-141.0
2026-04-09 22:06:17.592151,194097,1307612972,1307614660,0.772992,-0.191296,0.060512,4.82125,1.225,-12.29375,-26.368002,13.072001,21.432001,eccentric,6,3.0,31575.0,403431.0,128498.0,5218.0,-134.0
2026-04-09 22:06:17.597163,194098,1307622053,1307623391,0.772992,-0.191296,0.060512,-4.865,3.745,-13.1775,-26.368002,13.072001,21.432001,eccentric,6,3.0,31575.0,403431.0,128498.0,5218.0,-134.0
2026-04-09 22:06:17.631262,194099,1307631014,1307632125,0.772992,-0.191296,0.060512,-8.4525,4.06,-13.79875,-26.368002,13.072001,21.432001,eccentric,6,3.0,31575.0,403431.0,128498.0,5218.0,-134.0
2026-04-09 22:06:17.635138,194100,1307639922,1307640832,0.804224,-0.261568,-0.023424,-3.45625,1.40875,-16.0825,-25.656002,12.936001,22.328001,eccentric,6,3.0,31575.0,403431.0,128498.0,5218.0,-134.0
2026-04-09 22:06:17.636872,194101,1307654417,1307655850,0.841312,-0.169824,-0.003904,6.55375,-1.5575,-16.5375,-24.664001,12.752001,19.848001,eccentric,6,3.0,31575.0,403431.0,128498.0,5218.0,-134.0
2026-04-09 22:06:17.638481,194102,1307663333,1307664549,0.841312,-0.169824,-0.003904,11.3575,-2.24,-15.26,-24.664001,12.752001,19.848001,eccentric,6,3.0,31575.0,403431.0,128498.0,5218.0,-134.0
2026-04-09 22:06:17.642613,194103,1307672199,1307673289,0.831552,-0.208864,0.007808,6.125,-0.07,-16.33625,-22.616001,12.824,20.568,eccentric,6,3.0,31575.0,403431.0,128498.0,5218.0,-134.0
2026-04-09 22:06:17.646782,194104,1307686732,1307688183,0.831552,-0.208864,0.007808,-2.24875,2.30125,-18.6375,-24.44,12.824,20.568,eccentric,6,3.0,31575.0,403431.0,128498.0,5218.0,-134.0
2026-04-09 22:06:17.673526,194105,1307695727,1307696925,0.806176,-0.251808,-0.044896,-4.19125,3.1325,-20.2125,-25.160002,12.088,20.944,eccentric,6,3.0,31575.0,403431.0,128498.0,5218.0,-134.0
2026-04-09 22:06:17.679551,194106,1307704633,1307705619,0.806176,-0.251808,-0.044896,1.28625,0.9975,-19.97625,-25.160002,12.088,20.944,eccentric,6,3.0,31575.0,403431.0,128498.0,5218.0,-134.0
2026-04-09 22:06:17.704564,194116,1307719153,1307720601,0.847168,-0.232288,-0.0488,7.04375,-2.45875,-17.85875,-25.056002,12.464001,20.456001,concentric,6,3.0,31671.0,403431.0,125473.0,4200.0,-139.0
2026-04-09 22:06:17.707070,194117,1307728051,1307729328,0.847168,-0.232288,-0.0488,8.636251,-3.71,-14.67375,-25.056002,12.464001,20.456001,concentric,6,3.0,31671.0,403431.0,125473.0,4200.0,-139.0
2026-04-09 22:06:17.709570,194118,1307737014,1307738113,0.851072,-0.11712,0.02928,3.5,-1.68,-13.195,-25.920002,12.368001,21.288,concentric,6,3.0,31671.0,403431.0,125473.0,4200.0,-139.0
2026-04-09 22:06:17.712142,194119,1307745968,1307746838,0.851072,-0.11712,0.02928,0.11375,1.855,-13.8425,-25.920002,12.368001,21.288,concentric,6,3.0,31671.0,403431.0,125473.0,4200.0,-139.0
2026-04-09 22:06:17.715920,194120,1307760475,1307761744,0.81984,-0.183488,-0.001952,-4.61125,3.40375,-17.38625,-25.368002,12.504001,21.184002,concentric,6,3.0,31671.0,403431.0,125473.0,4200.0,-139.0
2026-04-09 22:06:17.746160,194121,1307769405,1307770509,0.81984,-0.183488,-0.001952,-1.8025,2.30125,-20.02,-25.368002,12.504001,21.184002,concentric,6,3.0,31671.0,403431.0,125473.0,4200.0,-139.0
2026-04-09 22:06:17.749641,194122,1307778363,1307779231,0.85888,-0.251808,-0.072224,6.50125,-0.1575,-19.46875,-25.728,13.064001,20.016,concentric,6,3.0,31671.0,403431.0,125473.0,4200.0,-139.0
2026-04-09 22:06:17.752041,194123,1307792831,1307794114,0.864736,-0.119072,0.007808,11.29625,-1.98625,-16.89625,-24.848001,12.320001,21.36,concentric,6,3.0,31671.0,403431.0,125473.0,4200.0,-139.0
2026-04-09 22:06:17.757251,194124,1307801765,1307802832,0.864736,-0.119072,0.007808,9.4675,-1.14625,-12.73125,-24.848001,12.320001,21.36,concentric,6,3.0,31671.0,403431.0,125473.0,4200.0,-139.0
2026-04-09 22:06:17.814562,194135,1307811359,1307813656,0.864736,-0.119072,0.007808,2.86125,1.79375,-12.50375,-24.848001,12.320001,21.36,concentric,6,3.0,31700.0,403301.0,124142.0,3853.0,-139.0
2026-04-09 22:06:17.817093,194136,1307820387,1307822435,0.8296,-0.173728,0.035136,-3.21125,3.9025,-12.85375,-25.064001,11.984,20.072,concentric,6,3.0,31700.0,403301.0,124142.0,3853.0,-139.0
2026-04-09 22:06:17.819577,194137,1307834864,1307835287,0.813984,-0.212768,-0.05856,-1.60125,2.9925,-13.53625,-25.768002,12.160001,20.216002,concentric,6,3.0,31700.0,403301.0,124142.0,3853.0,-139.0
2026-04-09 22:06:17.822149,194138,1307844185,1307846099,0.813984,-0.212768,-0.05856,7.44625,0.42875,-12.11875,-25.768002,12.160001,20.216002,concentric,6,3.0,31700.0,403301.0,124142.0,3853.0,-139.0
2026-04-09 22:06:17.855994,194139,1307853131,1307854813,0.854976,-0.160064,-0.08784,15.0675,-2.2575,-10.08,-25.544,12.432,20.208,concentric,6,3.0,31700.0,403301.0,124142.0,3853.0,-139.0
2026-04-09 22:06:17.859621,194140,1307867646,1307869703,0.854976,-0.160064,-0.08784,16.10875,-3.05375,-7.4375,-25.544,12.432,20.208,concentric,6,3.0,31700.0,403301.0,124142.0,3853.0,-139.0
2026-04-09 22:06:17.862137,194141,1307876634,1307878437,0.83936,-0.062464,0.01952,13.5975,-2.345,-5.5125,-25.080002,12.400001,20.376001,concentric,6,3.0,31700.0,403301.0,124142.0,3853.0,-139.0
2026-04-09 22:06:17.864602,194142,1307885563,1307887135,0.83936,-0.062464,0.01952,8.3825,-0.14875,-6.965,-25.080002,12.400001,20.376001,concentric,6,3.0,31700.0,403301.0,124142.0,3853.0,-139.0
2026-04-09 22:06:17.867122,194143,1307900080,1307902024,0.817888,-0.1952,0.00976,5.9325,1.21625,-9.84375,-25.320002,12.480001,20.392,concentric,6,3.0,31700.0,403301.0,124142.0,3853.0,-139.0
2026-04-09 22:06:17.869631,194144,1307909051,1307910729,0.817888,-0.1952,0.00976,9.58125,1.3125,-12.29375,-25.320002,12.480001,20.392,concentric,6,3.0,31700.0,403301.0,124142.0,3853.0,-139.0
2026-04-09 22:06:17.898109,194154,1307918035,1307919461,0.825696,-0.210816,-0.054656,14.91875,0.77875,-10.63125,-24.744001,12.552001,20.192001,concentric,6,3.0,31782.0,402185.0,122577.0,3453.0,-140.0
2026-04-09 22:06:17.899662,194155,1307927009,1307928230,0.825696,-0.210816,-0.054656,17.22,0.49,-6.44,-24.744001,12.552001,20.192001,concentric,6,3.0,31782.0,402185.0,122577.0,3453.0,-140.0
2026-04-09 22:06:17.902143,194156,1307941621,1307943152,0.798368,-0.160064,-0.01952,14.42875,1.16375,-2.42375,-25.384,12.048,20.400002,concentric,6,3.0,31782.0,402185.0,122577.0,3453.0,-140.0
2026-04-09 22:06:17.907498,194157,1307950592,1307951880,0.798368,-0.160064,-0.01952,7.65625,2.16125,-0.13125,-25.384,12.048,20.400002,concentric,6,3.0,31782.0,402185.0,122577.0,3453.0,-140.0
2026-04-09 22:06:17.936038,194158,1307959585,1307960611,0.776896,-0.148352,-0.033184,3.255,2.8175,1.84625,-25.52,12.464001,20.464,concentric,6,3.0,31782.0,402185.0,122577.0,3453.0,-140.0
2026-04-09 22:06:17.940611,194159,1307974097,1307975444,0.76128,-0.183488,-0.06832,2.9225,2.23125,3.0975,-25.096,12.328001,20.52,concentric,6,3.0,31782.0,402185.0,122577.0,3453.0,-140.0
2026-04-09 22:06:17.942061,194160,1307983077,1307984148,0.76128,-0.183488,-0.06832,4.17375,0.34125,4.89125,-25.096,12.328001,20.52,concentric,6,3.0,31782.0,402185.0,122577.0,3453.0,-140.0
2026-04-09 22:06:17.948858,194161,1307992011,1307992837,0.76128,-0.183488,-0.06832,4.47125,-1.4,7.2625,-25.096,12.328001,20.52,concentric,6,3.0,31782.0,402185.0,122577.0,3453.0,-140.0
2026-04-09 22:06:17.977320,194162,1308006496,1308007725,0.763232,-0.20496,-0.054656,1.74125,-1.84625,10.3775,-25.008001,12.784,19.968,concentric,6,3.0,31782.0,402185.0,122577.0,3453.0,-140.0
2026-04-09 22:06:18.013975,194172,1308015583,1308016476,0.765184,-0.152256,-0.03904,-3.70125,-1.40875,13.658751,-25.320002,12.376,20.400002,concentric,6,3.0,31799.0,401956.0,122225.0,3346.0,-148.0
2026-04-09 22:06:18.015694,194173,1308024594,1308025197,0.765184,-0.152256,-0.03904,-10.87625,-0.65625,16.7125,-25.320002,12.376,20.400002,concentric,6,3.0,31799.0,401956.0,122225.0,3346.0,-148.0
2026-04-09 22:06:18.017189,194174,1308033965,1308035962,0.735904,-0.179584,-0.052704,-14.2975,0.18375,17.675,-25.688002,13.184001,25.072,concentric,6,3.0,31799.0,401956.0,122225.0,3346.0,-148.0
2026-04-09 22:06:18.025278,194175,1308048571,1308050881,0.735904,-0.179584,-0.052704,-13.011251,-0.53375,16.7125,-25.688002,13.184001,25.072,concentric,6,3.0,31799.0,401956.0,122225.0,3346.0,-148.0
2026-04-09 22:06:18.026840,194176,1308057501,1308059628,0.718336,-0.22448,-0.06832,-8.89,-2.31875,16.4325,-24.536001,13.288001,20.720001,concentric,6,3.0,31799.0,401956.0,122225.0,3346.0,-148.0
2026-04-09 22:06:18.028454,194177,1308066463,1308068346,0.718336,-0.22448,-0.06832,-3.82375,-3.9375,18.96125,-24.536001,13.288001,20.720001,concentric,6,3.0,31799.0,401956.0,122225.0,3346.0,-148.0
2026-04-09 22:06:18.059549,194178,1308081009,1308083286,0.694912,-0.257664,-0.033184,-2.58125,-4.20875,24.01875,-24.336,12.856001,21.352001,concentric,6,3.0,31799.0,401956.0,122225.0,3346.0,-148.0
2026-04-09 22:06:18.061833,194179,1308089994,1308091987,0.694912,-0.257664,-0.033184,-9.4325,-3.64,29.741251,-24.336,12.856001,21.352001,concentric,6,3.0,31799.0,401956.0,122225.0,3346.0,-148.0
2026-04-09 22:06:18.066460,194180,1308098960,1308100683,0.72224,-0.216672,-0.040992,-19.4075,-2.47625,34.4925,-24.128,13.360001,19.456001,concentric,6,3.0,31799.0,401956.0,122225.0,3346.0,-148.0
2026-04-09 22:06:18.069842,194181,1308107869,1308109364,0.72224,-0.216672,-0.040992,-24.6575,-1.2075,37.45,-24.128,13.360001,19.456001,concentric,6,3.0,31799.0,401956.0,122225.0,3346.0,-148.0
2026-04-09 22:06:18.098984,194192,1308122491,1308124294,0.71248,-0.130784,-0.052704,-23.02125,-1.65375,37.07375,-24.432001,13.336,20.192001,concentric,6,3.0,31627.0,403431.0,125315.0,4158.0,-143.0
2026-04-09 22:06:18.100665,194193,1308131448,1308133025,0.71248,-0.130784,-0.052704,-19.81875,-3.45625,33.39,-24.432001,13.336,20.192001,concentric,6,3.0,31627.0,403431.0,125315.0,4158.0,-143.0
2026-04-09 22:06:18.102240,194194,1308140382,1308141720,0.685152,-0.232288,-0.046848,-15.61875,-6.1425,31.36,-24.368002,13.928,19.92,concentric,6,3.0,31627.0,403431.0,125315.0,4158.0,-143.0
2026-04-09 22:06:18.153300,194195,1308154954,1308156738,0.704672,-0.290848,-0.076128,-12.83625,-8.5225,32.5675,-23.888,13.968,22.272001,concentric,6,3.0,31627.0,403431.0,125315.0,4158.0,-143.0
2026-04-09 22:06:18.159287,194196,1308163940,1308165448,0.704672,-0.290848,-0.076128,-13.90375,-9.24875,37.26625,-23.888,13.968,22.272001,concentric,6,3.0,31627.0,403431.0,125315.0,4158.0,-143.0
2026-04-09 22:06:18.160608,194197,1308172897,1308174128,0.704672,-0.290848,-0.076128,-22.11125,-7.6825,41.86,-23.888,13.968,22.272001,concentric,6,3.0,31627.0,403431.0,125315.0,4158.0,-143.0
2026-04-09 22:06:18.161492,194198,1308187349,1308189048,0.794464,-0.318176,-0.081984,-37.19625,-5.32875,43.0325,-22.872002,14.216001,18.248001,concentric,6,3.0,31627.0,403431.0,125315.0,4158.0,-143.0
2026-04-09 22:06:18.165250,194199,1308196317,1308197719,0.757376,-0.130784,0.003904,-38.3425,-3.885,42.74375,-22.024,14.920001,18.088001,concentric,6,3.0,31627.0,403431.0,125315.0,4158.0,-143.0
2026-04-09 22:06:18.166925,194200,1308205245,1308206411,0.757376,-0.130784,0.003904,-26.46875,-4.15625,36.04125,-22.024,14.920001,18.088001,concentric,6,3.0,31627.0,403431.0,125315.0,4158.0,-143.0
2026-04-09 22:06:18.191092,194210,1308219957,1308221718,0.774944,-0.298656,-0.113216,-18.41,-6.58,25.13875,-21.968,14.320001,18.008001,concentric,6,3.0,31560.0,403431.0,125515.0,4260.0,-156.0
2026-04-09 22:06:18.195167,194211,1308228955,1308230484,0.774944,-0.298656,-0.113216,-8.715,-10.386251,20.895,-21.968,14.320001,18.008001,concentric,6,3.0,31560.0,403431.0,125515.0,4260.0,-156.0
2026-04-09 22:06:18.196757,194212,1308237961,1308239236,0.765184,-0.41968,-0.035136,1.51375,-11.06,25.66375,-21.984001,14.664001,17.400002,concentric,6,3.0,31560.0,403431.0,125515.0,4260.0,-156.0
2026-04-09 22:06:18.203836,194213,1308246897,1308247980,0.765184,-0.41968,-0.035136,-5.13625,-9.28375,29.61875,-21.984001,14.664001,17.400002,concentric,6,3.0,31560.0,403431.0,125515.0,4260.0,-156.0
2026-04-09 22:06:18.233563,194214,1308261370,1308262887,0.827648,-0.3904,-0.066368,-19.897501,-5.39,33.6525,-22.904001,15.152,18.208,concentric,6,3.0,31560.0,403431.0,125515.0,4260.0,-156.0
2026-04-09 22:06:18.252931,194215,1308270331,1308271582,0.827648,-0.3904,-0.066368,-29.085001,-1.86375,36.4,-22.904001,15.152,18.208,concentric,6,3.0,31560.0,403431.0,125515.0,4260.0,-156.0
2026-04-09 22:06:18.254367,194216,1308279253,1308280367,0.749568,-0.26352,0.021472,-33.32,2.3975,30.31875,-21.344002,15.000001,16.800001,concentric,6,3.0,31560.0,403431.0,125515.0,4260.0,-156.0
2026-04-09 22:06:18.256831,194217,1308293719,1308295276,0.749568,-0.26352,0.021472,-21.84875,3.77125,28.32375,-21.344002,15.000001,16.800001,concentric,6,3.0,31560.0,403431.0,125515.0,4260.0,-156.0
2026-04-09 22:06:18.258329,194218,1308302659,1308303983,0.743712,-0.296704,-0.08784,-10.64,3.255,22.575,-21.224,15.488001,16.256,concentric,6,3.0,31560.0,403431.0,125515.0,4260.0,-156.0
2026-04-09 22:06:18.268998,194219,1308311636,1308312717,0.743712,-0.296704,-0.08784,-0.0175,2.03875,18.2175,-21.224,15.488001,16.256,concentric,6,3.0,31560.0,403431.0,125515.0,4260.0,-156.0
2026-04-09 22:06:18.294137,194229,1308326162,1308327671,0.65392,-0.374784,0.025376,7.035,1.89875,21.3325,-20.816002,15.408001,16.752,concentric,6,3.0,31622.0,403426.0,124530.0,3957.0,-143.0
2026-04-09 22:06:18.300202,194230,1308335145,1308336358,0.650016,-0.40016,-0.03904,3.4825,3.0275,25.41875,-21.6,15.920001,17.304,concentric,6,3.0,31622.0,403426.0,124530.0,3957.0,-143.0
2026-04-09 22:06:18.301749,194231,1308344073,1308345076,0.650016,-0.40016,-0.03904,-5.8275,4.36625,28.70875,-21.6,15.920001,17.304,concentric,6,3.0,31622.0,403426.0,124530.0,3957.0,-143.0
2026-04-09 22:06:18.307275,194232,1308352991,1308353797,0.650016,-0.40016,-0.03904,-17.31625,7.0175,30.07375,-21.6,15.920001,17.304,concentric,6,3.0,31622.0,403426.0,124530.0,3957.0,-143.0
2026-04-09 22:06:18.337342,194233,1308367479,1308368723,0.616832,-0.316224,-0.033184,-22.785,8.89,31.0625,-21.080002,15.976001,17.68,concentric,6,3.0,31622.0,403426.0,124530.0,3957.0,-143.0
2026-04-09 22:06:18.340965,194234,1308376383,1308377477,0.642208,-0.255712,-0.011712,-17.85,8.0675,29.75,-20.272001,16.488,16.232,concentric,6,3.0,31622.0,403426.0,124530.0,3957.0,-143.0
2026-04-09 22:06:18.343334,194235,1308385277,1308386179,0.642208,-0.255712,-0.011712,-8.96875,7.18375,26.241251,-20.272001,16.488,16.232,concentric,6,3.0,31622.0,403426.0,124530.0,3957.0,-143.0
2026-04-09 22:06:18.373593,194236,1308399837,1308401188,0.665632,-0.35136,-0.064416,-2.555,5.18875,24.535,-21.584002,16.496,16.984001,concentric,6,3.0,31622.0,403426.0,124530.0,3957.0,-143.0
2026-04-09 22:06:18.377184,194237,1308408741,1308409886,0.665632,-0.35136,-0.064416,-1.54875,3.5525,22.0325,-21.584002,16.496,16.984001,concentric,6,3.0,31622.0,403426.0,124530.0,3957.0,-143.0
2026-04-09 22:06:18.405172,194248,1308417749,1308418763,0.726144,-0.396256,-0.062464,-1.89,2.58125,20.88625,-20.024,16.288,15.624001,concentric,6,3.0,31830.0,403429.0,124834.0,3989.0,-141.0
2026-04-09 22:06:18.407207,194249,1308432363,1308433756,0.726144,-0.396256,-0.062464,-0.2975,0.53375,22.155,-20.024,16.288,15.624001,concentric,6,3.0,31830.0,403429.0,124834.0,3989.0,-141.0
2026-04-09 22:06:18.409712,194250,1308441362,1308442526,0.708576,-0.355264,-0.007808,-2.38875,0.735,19.81875,-19.992,16.76,15.288001,concentric,6,3.0,31830.0,403429.0,124834.0,3989.0,-141.0
2026-04-09 22:06:18.412106,194251,1308450285,1308451242,0.708576,-0.355264,-0.007808,0.1575,-0.35,19.32,-19.992,16.76,15.288001,concentric,6,3.0,31830.0,403429.0,124834.0,3989.0,-141.0
2026-04-09 22:06:18.456162,194252,1308464812,1308466261,0.747616,-0.32208,-0.01952,4.655,-1.02375,18.5325,-20.128,16.776001,15.512001,concentric,6,3.0,31830.0,403429.0,124834.0,3989.0,-141.0
2026-04-09 22:06:18.459798,194253,1308473721,1308474964,0.747616,-0.32208,-0.01952,5.6875,-0.8575,13.3175,-20.128,16.776001,15.512001,concentric,6,3.0,31830.0,403429.0,124834.0,3989.0,-141.0
2026-04-09 22:06:18.462146,194254,1308482627,1308483692,0.753472,-0.398208,-0.07808,6.65,-1.98625,10.22875,-20.176,17.544,14.496,concentric,6,3.0,31830.0,403429.0,124834.0,3989.0,-141.0
2026-04-09 22:06:18.464648,194255,1308491543,1308492397,0.753472,-0.398208,-0.07808,10.22,-2.1875,9.275,-20.176,17.544,14.496,concentric,6,3.0,31830.0,403429.0,124834.0,3989.0,-141.0
2026-04-09 22:06:18.467145,194256,1308505995,1308507324,0.813984,-0.396256,-0.050752,13.2825,-1.5575,9.54625,-19.44,17.456001,15.312,concentric,6,3.0,31830.0,403429.0,124834.0,3989.0,-141.0
2026-04-09 22:06:18.492371,194266,1308515445,1308516102,0.813984,-0.396256,-0.035136,12.66125,0.63,9.70375,-19.44,17.456001,15.312,concentric,6,3.0,31932.0,403391.0,124688.0,3916.0,-153.0
2026-04-09 22:06:18.494602,194267,1308524821,1308526957,0.806176,-0.489952,-0.035136,-1.505,4.55,3.115,-20.312,17.736,15.264001,concentric,6,3.0,31932.0,403391.0,124688.0,3916.0,-153.0
2026-04-09 22:06:18.497111,194268,1308539438,1308539859,0.851072,-0.376736,0.011712,-2.1175,6.32625,1.925,-20.576,17.464,14.952001,concentric,6,3.0,31932.0,403391.0,124688.0,3916.0,-153.0
2026-04-09 22:06:18.527432,194269,1308548731,1308550672,0.851072,-0.376736,0.011712,9.073751,7.7875,0.6825,-20.576,17.464,14.952001,concentric,6,3.0,31932.0,403391.0,124688.0,3916.0,-153.0
2026-04-09 22:06:18.530880,194270,1308557637,1308559351,0.833504,-0.41968,-0.027328,16.9225,8.68875,-3.5875,-20.056002,17.584002,15.568001,concentric,6,3.0,31932.0,403391.0,124688.0,3916.0,-153.0
2026-04-09 22:06:18.533359,194271,1308566566,1308568091,0.833504,-0.41968,-0.027328,26.01375,9.695,-6.46625,-20.056002,17.584002,15.568001,concentric,6,3.0,31932.0,403391.0,124688.0,3916.0,-153.0
2026-04-09 22:06:18.535834,194272,1308581056,1308583001,0.854976,-0.386496,0.00976,30.77375,11.31375,-10.4125,-20.704,17.768002,15.512001,concentric,6,3.0,31932.0,403391.0,124688.0,3916.0,-153.0
2026-04-09 22:06:18.567096,194273,1308589971,1308591713,0.854976,-0.386496,0.00976,34.16875,14.323751,-13.51875,-20.704,17.768002,15.512001,concentric,6,3.0,31932.0,403391.0,124688.0,3916.0,-153.0
2026-04-09 22:06:18.569272,194274,1308598919,1308600418,0.821792,-0.45872,0.064416,36.19875,17.6925,-14.35875,-20.848001,18.04,15.64,concentric,6,3.0,31932.0,403391.0,124688.0,3916.0,-153.0
2026-04-09 22:06:18.598441,194284,1308613401,1308615468,0.821792,-0.45872,0.064416,29.23375,21.8925,-14.6825,-20.848001,18.04,15.64,concentric,6,3.0,32314.0,403431.0,128014.0,4850.0,-131.0
2026-04-09 22:06:18.602679,194285,1308622398,1308624170,0.880352,-0.450912,0.054656,22.86375,25.3225,-11.0075,-20.456001,18.304,16.096,concentric,6,3.0,32314.0,403431.0,128014.0,4850.0,-131.0
2026-04-09 22:06:18.604427,194286,1308631353,1308632977,0.880352,-0.450912,0.054656,17.36875,28.7,-8.26,-20.456001,18.304,16.096,concentric,6,3.0,32314.0,403431.0,128014.0,4850.0,-131.0
2026-04-09 22:06:18.605934,194287,1308645876,1308647930,0.940864,-0.378688,0.023424,15.37375,30.12625,-7.98,-21.384,18.856,17.12,concentric,6,3.0,32314.0,403431.0,128014.0,4850.0,-131.0
2026-04-09 22:06:18.614279,194288,1308654820,1308656677,0.940864,-0.378688,0.023424,22.91625,31.08,-8.0325,-21.384,18.856,17.12,concentric,6,3.0,32314.0,403431.0,128014.0,4850.0,-131.0
2026-04-09 22:06:18.620131,194289,1308663751,1308665437,0.854976,-0.425536,0.099552,34.3525,32.2525,-7.90125,-22.896002,18.648,17.184,concentric,6,3.0,32314.0,403431.0,128014.0,4850.0,-131.0
2026-04-09 22:06:18.648532,194290,1308672740,1308674149,0.854976,-0.425536,0.099552,40.18875,32.48,-10.56125,-22.896002,18.648,17.184,concentric,6,3.0,32314.0,403431.0,128014.0,4850.0,-131.0
2026-04-09 22:06:18.653091,194291,1308687204,1308689048,0.843264,-0.394304,0.128832,42.2275,32.75125,-12.285,-22.392,18.408,17.480001,concentric,6,3.0,32314.0,403431.0,128014.0,4850.0,-131.0
2026-04-09 22:06:18.655421,194292,1308696123,1308697788,0.83936,-0.38064,0.08784,42.18375,32.75125,-10.3075,-22.392,20.456001,18.04,concentric,6,3.0,32314.0,403431.0,128014.0,4850.0,-131.0
2026-04-09 22:06:18.661269,194293,1308705131,1308706529,0.83936,-0.38064,0.08784,35.23625,33.425,-8.53125,-22.512001,18.912,18.04,concentric,6,3.0,32314.0,403431.0,128014.0,4850.0,-131.0
2026-04-09 22:06:18.717459,194304,1308719827,1308721474,0.825696,-0.363072,0.095648,28.4725,33.985,-6.41375,-22.936,18.616001,17.384,concentric,6,3.0,31999.0,403431.0,128220.0,5012.0,-130.0
2026-04-09 22:06:18.718617,194305,1308728815,1308730259,0.825696,-0.363072,0.095648,20.0725,35.105,-7.245,-22.936,18.616001,17.384,concentric,6,3.0,31999.0,403431.0,128220.0,5012.0,-130.0
2026-04-09 22:06:18.722713,194306,1308737718,1308738952,0.81984,-0.366976,0.10736,16.6425,34.3875,-10.63125,-22.632002,18.624,17.808,concentric,6,3.0,31999.0,403431.0,128220.0,5012.0,-130.0
2026-04-09 22:06:18.754816,194307,1308752363,1308753965,0.81984,-0.366976,0.10736,17.84125,32.52375,-13.83375,-22.632002,18.624,17.808,concentric,6,3.0,31999.0,403431.0,128220.0,5012.0,-130.0
2026-04-09 22:06:18.758375,194308,1308761333,1308762697,0.806176,-0.392352,0.152256,19.80125,30.1,-16.80875,-23.576,19.128,17.68,concentric,6,3.0,31999.0,403431.0,128220.0,5012.0,-130.0
2026-04-09 22:06:18.760871,194309,1308770325,1308771404,0.806176,-0.392352,0.152256,20.27375,27.71125,-19.241251,-23.576,19.128,17.68,concentric,6,3.0,31999.0,403431.0,128220.0,5012.0,-130.0
2026-04-09 22:06:18.763430,194310,1308779292,1308780150,0.825696,-0.411872,0.103456,19.64375,25.97875,-19.7225,-23.28,19.152,18.016,concentric,6,3.0,31999.0,403431.0,128220.0,5012.0,-130.0
2026-04-09 22:06:18.765887,194311,1308794331,1308795089,0.825696,-0.411872,0.103456,17.82375,25.43625,-19.7575,-23.28,19.152,18.016,concentric,6,3.0,31999.0,403431.0,128220.0,5012.0,-130.0
2026-04-09 22:06:18.768416,194312,1308803686,1308805850,0.837408,-0.40992,0.103456,14.77875,25.803751,-18.17375,-23.920002,18.960001,19.112001,concentric,6,3.0,31999.0,403431.0,128220.0,5012.0,-130.0
2026-04-09 22:06:18.770842,194313,1308812716,1308814560,0.837408,-0.40992,0.103456,11.025,25.55875,-16.58125,-23.920002,18.960001,19.112001,concentric,6,3.0,31999.0,403431.0,128220.0,5012.0,-130.0
2026-04-09 22:06:18.796261,194323,1308821832,1308823340,0.886208,-0.49776,0.0976,8.67125,24.68375,-17.15875,-24.288002,18.784,18.696001,concentric,6,3.0,31910.0,403431.0,125497.0,4226.0,-146.0
2026-04-09 22:06:18.798679,194324,1308836397,1308838323,0.886208,-0.415776,0.152256,6.69375,23.2575,-19.425,-24.288002,18.784,18.696001,concentric,6,3.0,31910.0,403431.0,125497.0,4226.0,-146.0
2026-04-09 22:06:18.801890,194325,1308845335,1308847053,0.944768,-0.415776,0.152256,14.0525,21.53375,-18.6025,-24.472002,19.112001,18.192001,concentric,6,3.0,31910.0,403431.0,125497.0,4226.0,-146.0
2026-04-09 22:06:18.832383,194326,1308854309,1308855802,0.944768,-0.415776,0.152256,16.485,20.72875,-20.74625,-24.472002,19.112001,18.192001,concentric,6,3.0,31910.0,403431.0,125497.0,4226.0,-146.0
2026-04-09 22:06:18.835962,194327,1308868779,1308870681,0.991616,-0.484096,0.105408,13.5625,20.39625,-23.77375,-26.080002,18.76,18.608002,concentric,6,3.0,31910.0,403431.0,125497.0,4226.0,-146.0
2026-04-09 22:06:18.838385,194328,1308877700,1308879412,1.003328,-0.523136,0.122976,12.01375,20.57125,-23.16125,-25.016,19.264002,18.248001,concentric,6,3.0,31910.0,403431.0,125497.0,4226.0,-146.0
2026-04-09 22:06:18.840968,194329,1308886644,1308888116,1.003328,-0.523136,0.122976,9.47625,20.43125,-21.95375,-25.016,19.264002,18.248001,concentric,6,3.0,31910.0,403431.0,125497.0,4226.0,-146.0
2026-04-09 22:06:18.871084,194330,1308901180,1308903035,1.01504,-0.52704,0.134688,7.23625,20.195,-18.8825,-26.088001,18.344002,19.080002,concentric,6,3.0,31910.0,403431.0,125497.0,4226.0,-146.0
2026-04-09 22:06:18.874644,194331,1308910081,1308911736,1.01504,-0.52704,0.134688,3.185,19.8275,-16.26625,-26.088001,18.344002,19.080002,concentric,6,3.0,31910.0,403431.0,125497.0,4226.0,-146.0
2026-04-09 22:06:18.935854,194341,1308919717,1308920529,1.020896,-0.521184,0.16592,1.6975,19.460001,-14.72625,-25.304,18.624,18.712002,concentric,6,3.0,31970.0,402056.0,122899.0,3534.0,-137.0
2026-04-09 22:06:18.938433,194342,1308929263,1308931343,1.020896,-0.521184,0.16592,2.2575,18.2875,-14.28,-25.304,18.624,18.712002,concentric,6,3.0,31970.0,402056.0,122899.0,3534.0,-137.0
2026-04-09 22:06:18.940921,194343,1308943767,1308944182,1.003328,-0.503616,0.177632,3.61375,17.07125,-13.448751,-26.104002,18.736,19.256,concentric,6,3.0,31970.0,402056.0,122899.0,3534.0,-137.0
2026-04-09 22:06:18.943399,194344,1308953040,1308954940,1.003328,-0.503616,0.177632,4.59375,16.10875,-12.985,-26.104002,18.736,19.256,concentric,6,3.0,31970.0,402056.0,122899.0,3534.0,-137.0
2026-04-09 22:06:18.945891,194345,1308962021,1308963654,0.96624,-0.476288,0.189344,4.66375,15.015,-11.9875,-26.312002,19.088001,19.240002,concentric,6,3.0,31970.0,402056.0,122899.0,3534.0,-137.0
2026-04-09 22:06:18.948430,194346,1308971092,1308972400,0.96624,-0.476288,0.189344,3.57875,14.35875,-10.00125,-26.312002,19.088001,19.240002,concentric,6,3.0,31970.0,402056.0,122899.0,3534.0,-137.0
2026-04-09 22:06:18.950910,194347,1308985684,1308987360,0.901824,-0.460672,0.169824,0.16625,13.79875,-8.1725,-26.960001,18.832,20.240002,concentric,6,3.0,31970.0,402056.0,122899.0,3534.0,-137.0
2026-04-09 22:06:18.953520,194348,1308994613,1308996093,0.901824,-0.460672,0.169824,-1.61,12.985,-6.65,-26.960001,18.832,20.240002,concentric,6,3.0,31970.0,402056.0,122899.0,3534.0,-137.0
2026-04-09 22:06:18.960518,194349,1309003570,1309004814,0.864736,-0.423584,0.150304,-0.14,11.095,-4.9525,-26.672,18.936,20.344002,concentric,6,3.0,31970.0,402056.0,122899.0,3534.0,-137.0
2026-04-09 22:06:19.019638,194360,1309018591,1309019941,0.833504,-0.3904,0.15616,-0.5075,9.98375,-2.415,-26.512001,18.376001,21.36,concentric,6,3.0,31832.0,403326.0,124624.0,4023.0,-137.0
2026-04-09 22:06:19.056160,194361,1309027778,1309028750,0.833504,-0.3904,0.15616,-1.6275,9.05625,0.07,-26.512001,18.376001,21.36,concentric,6,3.0,31832.0,403326.0,124624.0,4023.0,-137.0
2026-04-09 22:06:19.059732,194362,1309036724,1309037439,0.833504,-0.3904,0.15616,-2.63375,8.21625,2.1,-26.512001,18.376001,21.36,concentric,6,3.0,31832.0,403326.0,124624.0,4023.0,-137.0
2026-04-09 22:06:19.062178,194363,1309046043,1309048186,0.802272,-0.337696,0.148352,-5.99375,7.32375,2.54625,-26.352001,18.464,21.2,concentric,6,3.0,31832.0,403326.0,124624.0,4023.0,-137.0
2026-04-09 22:06:19.064657,194364,1309060542,1309061116,0.769088,-0.304512,0.13664,-9.75625,6.09,1.63625,-25.608002,18.76,18.776001,concentric,6,3.0,31832.0,403326.0,124624.0,4023.0,-137.0
2026-04-09 22:06:19.067155,194365,1309070121,1309071890,0.769088,-0.304512,0.13664,-11.515,5.2325,1.51375,-25.608002,18.76,18.776001,concentric,6,3.0,31832.0,403326.0,124624.0,4023.0,-137.0
2026-04-09 22:06:19.069631,194366,1309079055,1309080605,0.743712,-0.327936,0.134688,-13.72875,4.1125,0.53375,-26.12,18.944,18.688002,concentric,6,3.0,31832.0,403326.0,124624.0,4023.0,-137.0
2026-04-09 22:06:19.072175,194367,1309087979,1309089305,0.743712,-0.327936,0.134688,-16.94,3.3425,-0.51625,-26.12,18.944,18.688002,concentric,6,3.0,31832.0,403326.0,124624.0,4023.0,-137.0
2026-04-09 22:06:19.074676,194368,1309102437,1309104220,0.724192,-0.308416,0.119072,-18.4975,3.68375,-0.8925,-25.936,18.68,18.472,concentric,6,3.0,31832.0,403326.0,124624.0,4023.0,-137.0
2026-04-09 22:06:19.077145,194369,1309111382,1309112921,0.724192,-0.308416,0.119072,-18.585001,2.70375,-0.805,-25.936,18.68,18.472,concentric,6,3.0,31832.0,403326.0,124624.0,4023.0,-137.0
2026-04-09 22:06:19.102161,194379,1309120934,1309121701,0.716384,-0.325984,0.0976,-18.41875,1.8025,-1.225,-25.736002,18.728,18.528002,concentric,6,3.0,31797.0,403431.0,125473.0,4252.0,-146.0
2026-04-09 22:06:19.104672,194380,1309135980,1309136642,0.716384,-0.325984,0.0976,-17.675,0.8575,-1.21625,-25.736002,18.728,18.528002,concentric,6,3.0,31797.0,403431.0,125473.0,4252.0,-146.0
