pc_time,serial_num,sensor_ts,host_ts,ax,ay,az,gx,gy,gz,mx,my,mz,phase,rpe,weight_kg,ppg_a,ppg_b,ppg_c,ppg_d,ppg_e
2026-04-09 22:06:19.107840,194381,1309145270,1309147486,0.730048,-0.36112,0.08784,-15.225,-1.085,-1.4,-26.368002,18.672,17.528002,eccentric,6,3.0,31797.0,403431.0,125473.0,4252.0,-146.0
2026-04-09 22:06:19.109650,194382,1309154199,1309156214,0.730048,-0.36112,0.08784,-13.02,-2.6775,-1.82,-26.368002,18.672,17.528002,eccentric,6,3.0,31797.0,403431.0,125473.0,4252.0,-146.0
2026-04-09 22:06:19.140036,194383,1309163155,1309164941,0.782752,-0.347456,0.076128,-12.53875,-4.0425,-2.625,-26.048,18.896002,18.072,eccentric,6,3.0,31797.0,403431.0,125473.0,4252.0,-146.0
2026-04-09 22:06:19.143463,194384,1309177633,1309179875,0.782752,-0.36112,0.081984,-11.095,-4.71625,-2.905,-26.048,18.896002,18.072,eccentric,6,3.0,31797.0,403431.0,125473.0,4252.0,-146.0
2026-04-09 22:06:19.145846,194385,1309186541,1309188569,0.874496,-0.36112,0.081984,-11.57625,-5.17125,-3.43,-25.904001,18.768002,16.264,eccentric,6,3.0,31797.0,403431.0,125473.0,4252.0,-146.0
2026-04-09 22:06:19.150988,194386,1309195497,1309197313,0.874496,-0.36112,0.081984,-11.80375,-5.4775,-3.955,-25.904001,18.768002,16.264,eccentric,6,3.0,31797.0,403431.0,125473.0,4252.0,-146.0
2026-04-09 22:06:19.181183,194387,1309209978,1309212256,0.921344,-0.470432,0.122976,-12.7225,-6.51,-5.355,-27.288002,18.936,18.424002,eccentric,6,3.0,31797.0,403431.0,125473.0,4252.0,-146.0
2026-04-09 22:06:19.213452,194397,1309219527,1309221127,1.069696,-0.564128,-0.06832,-13.1775,-9.89625,-7.51625,-25.408,18.632,16.28,eccentric,6,3.0,31838.0,403431.0,125805.0,4335.0,-141.0
2026-04-09 22:06:19.215948,194398,1309228516,1309229966,1.069696,-0.564128,-0.06832,-7.28,-13.72875,-8.6625,-25.408,18.632,16.28,eccentric,6,3.0,31838.0,403431.0,125805.0,4335.0,-141.0
2026-04-09 22:06:19.221816,194399,1309237445,1309238720,1.069696,-0.564128,-0.06832,0.48125,-17.33375,-7.53375,-25.408,18.632,16.28,eccentric,6,3.0,31838.0,403431.0,125805.0,4335.0,-141.0
2026-04-09 22:06:19.221872,194400,1309251962,1309253735,1.139968,-0.677344,0.148352,5.67,-19.88,-1.2775,-25.392002,18.736,18.608002,eccentric,6,3.0,31838.0,403431.0,125805.0,4335.0,-141.0
2026-04-09 22:06:19.223526,194401,1309260909,1309262458,1.1712,-0.650016,0.122976,-1.09375,-20.65875,4.96125,-26.064001,18.416,18.264,eccentric,6,3.0,31838.0,403431.0,125805.0,4335.0,-141.0
2026-04-09 22:06:19.225876,194402,1309269833,1309271169,1.1712,-0.650016,0.122976,-10.885,-20.8075,8.46125,-26.064001,18.416,18.264,eccentric,6,3.0,31838.0,403431.0,125805.0,4335.0,-141.0
2026-04-09 22:06:19.256212,194403,1309284328,1309286087,1.194624,-0.620736,0.031232,-12.27625,-22.91625,10.675,-25.6,18.832,17.744001,eccentric,6,3.0,31838.0,403431.0,125805.0,4335.0,-141.0
2026-04-09 22:06:19.259681,194404,1309293257,1309294809,1.194624,-0.620736,0.031232,-8.21625,-27.265,11.87375,-25.6,18.832,17.744001,eccentric,6,3.0,31838.0,403431.0,125805.0,4335.0,-141.0
2026-04-09 22:06:19.262170,194405,1309302180,1309303496,1.110688,-0.657824,0.085888,-2.485,-31.57,13.7375,-24.704,18.496,16.584002,eccentric,6,3.0,31838.0,403431.0,125805.0,4335.0,-141.0
2026-04-09 22:06:19.292532,194406,1309316789,1309318383,1.110688,-0.657824,0.085888,0.595,-34.51875,14.98875,-24.704,18.496,16.584002,eccentric,6,3.0,31838.0,403431.0,125805.0,4335.0,-141.0
2026-04-09 22:06:19.360414,194417,1309325716,1309327170,1.046272,-0.59536,0.072224,2.91375,-36.30375,15.68,-25.408,18.984001,16.880001,eccentric,6,3.0,31774.0,403431.0,129435.0,5524.0,-148.0
2026-04-09 22:06:19.363503,194418,1309334635,1309335879,1.046272,-0.59536,0.072224,4.48,-36.63625,15.75875,-25.408,18.984001,16.880001,eccentric,6,3.0,31774.0,403431.0,129435.0,5524.0,-148.0
2026-04-09 22:06:19.365920,194419,1309343535,1309344599,0.944768,-0.521184,0.10736,2.6425,-34.895,16.10875,-23.840002,19.400002,16.096,eccentric,6,3.0,31774.0,403431.0,129435.0,5524.0,-148.0
2026-04-09 22:06:19.368437,194420,1309358022,1309359569,0.944768,-0.521184,0.044896,-1.18125,-32.1125,17.03625,-23.840002,19.400002,16.096,eccentric,6,3.0,31774.0,403431.0,129435.0,5524.0,-148.0
2026-04-09 22:06:19.370912,194421,1309366950,1309368279,0.913536,-0.493856,0.040992,-4.2175,-29.942501,17.71875,-23.840002,19.056002,15.696001,eccentric,6,3.0,31774.0,403431.0,129435.0,5524.0,-148.0
2026-04-09 22:06:19.373394,194422,1309375948,1309377028,0.913536,-0.493856,0.040992,-3.07125,-27.685,18.68125,-23.840002,19.056002,15.696001,eccentric,6,3.0,31774.0,403431.0,129435.0,5524.0,-148.0
2026-04-09 22:06:19.375965,194423,1309390403,1309391956,0.862784,-0.454816,0.05856,-0.4375,-25.55875,18.165,-22.944,18.928001,15.936001,eccentric,6,3.0,31774.0,403431.0,129435.0,5524.0,-148.0
2026-04-09 22:06:19.378490,194424,1309399295,1309400653,0.81008,-0.49776,0.037088,-2.73,-23.0475,14.980001,-22.640001,19.160002,16.16,eccentric,6,3.0,31774.0,403431.0,129435.0,5524.0,-148.0
2026-04-09 22:06:19.380913,194425,1309408209,1309409349,0.81008,-0.49776,0.037088,-3.22,-20.20375,11.94375,-22.640001,19.160002,16.16,eccentric,6,3.0,31774.0,403431.0,129435.0,5524.0,-148.0
2026-04-09 22:06:19.413964,194435,1309423201,1309424306,0.804224,-0.427488,0.040992,1.015,-17.08,10.01,-22.2,18.904001,16.08,eccentric,6,3.0,31960.0,403431.0,131025.0,6081.0,-148.0
2026-04-09 22:06:19.415717,194436,1309432243,1309433106,0.804224,-0.427488,0.040992,5.67875,-15.07625,9.24,-22.2,18.904001,16.08,eccentric,6,3.0,31960.0,403431.0,131025.0,6081.0,-148.0
2026-04-09 22:06:19.417256,194437,1309441179,1309441890,0.782752,-0.415776,0.035136,5.38125,-11.75125,8.417501,-21.456001,18.880001,16.112001,eccentric,6,3.0,31960.0,403431.0,131025.0,6081.0,-148.0
2026-04-09 22:06:19.421499,194438,1309450550,1309452687,0.782752,-0.415776,0.035136,2.8525,-9.2575,5.62625,-21.456001,18.880001,16.112001,eccentric,6,3.0,31960.0,403431.0,131025.0,6081.0,-148.0
2026-04-09 22:06:19.423895,194439,1309465022,1309465527,0.788608,-0.445056,-0.013664,3.8325,-7.49875,2.40625,-21.264002,18.968,16.504002,eccentric,6,3.0,31960.0,403431.0,131025.0,6081.0,-148.0
2026-04-09 22:06:19.452634,194440,1309474404,1309476291,0.788608,-0.445056,-0.013664,6.265,-7.13125,-1.19875,-21.264002,18.968,16.504002,eccentric,6,3.0,31960.0,403431.0,131025.0,6081.0,-148.0
2026-04-09 22:06:19.456905,194441,1309483383,1309485072,0.772992,-0.462624,0.017568,6.5625,-6.85125,-5.38125,-22.232,19.176,17.736,eccentric,6,3.0,31960.0,403431.0,131025.0,6081.0,-148.0
2026-04-09 22:06:19.458381,194442,1309497833,1309500101,0.772992,-0.462624,0.017568,11.01625,-7.34125,-5.4775,-22.232,19.176,17.736,eccentric,6,3.0,31960.0,403431.0,131025.0,6081.0,-148.0
2026-04-09 22:06:19.465279,194443,1309506709,1309508820,0.788608,-0.413824,0.035136,12.32875,-6.93875,-7.14,-21.152,19.008001,16.672,eccentric,6,3.0,31960.0,403431.0,131025.0,6081.0,-148.0
2026-04-09 22:06:19.493627,194444,1309515651,1309517633,0.788608,-0.413824,0.035136,13.1075,-5.5475,-8.8725,-21.152,19.008001,16.672,eccentric,6,3.0,31960.0,403431.0,131025.0,6081.0,-148.0
2026-04-09 22:06:19.520856,194454,1309530205,1309530603,0.81008,-0.415776,0.017568,9.8525,-2.94875,-9.8875,-21.256,18.960001,17.232,eccentric,6,3.0,31806.0,403431.0,129824.0,5675.0,-143.0
2026-04-09 22:06:19.524704,194455,1309539451,1309541365,0.808128,-0.388448,0.003904,8.46125,-0.07875,-10.71875,-21.256,18.864,17.504002,eccentric,6,3.0,31806.0,403431.0,129824.0,5675.0,-143.0
2026-04-09 22:06:19.524834,194456,1309548400,1309550109,0.808128,-0.388448,0.003904,9.1,1.84625,-11.47125,-20.28,18.864,17.504002,eccentric,6,3.0,31806.0,403431.0,129824.0,5675.0,-143.0
2026-04-09 22:06:19.528965,194457,1309557346,1309558843,0.808128,-0.388448,0.003904,3.5175,3.08875,-15.33,-20.28,18.864,17.504002,eccentric,6,3.0,31806.0,403431.0,129824.0,5675.0,-143.0
2026-04-09 22:06:19.530583,194458,1309571890,1309573764,0.853024,-0.382592,-0.0488,2.4675,2.6425,-16.47625,-21.624,18.552,17.68,eccentric,6,3.0,31806.0,403431.0,129824.0,5675.0,-143.0
2026-04-09 22:06:19.536933,194459,1309580827,1309582535,0.776896,-0.415776,0.099552,6.5975,3.28125,-16.05625,-21.848001,18.384,18.256,eccentric,6,3.0,31806.0,403431.0,129824.0,5675.0,-143.0
2026-04-09 22:06:19.567062,194460,1309589768,1309591251,0.776896,-0.415776,0.099552,4.57625,6.0375,-16.415,-21.848001,18.384,18.256,eccentric,6,3.0,31806.0,403431.0,129824.0,5675.0,-143.0
2026-04-09 22:06:19.571826,194461,1309604256,1309606145,0.841312,-0.288896,0.005856,1.0675,7.69125,-15.14625,-20.488,18.240002,17.68,eccentric,6,3.0,31806.0,403431.0,129824.0,5675.0,-143.0
2026-04-09 22:06:19.573279,194462,1309613164,1309614859,0.841312,-0.288896,0.005856,-1.19,9.42375,-17.10625,-20.488,18.240002,17.68,eccentric,6,3.0,31806.0,403431.0,129824.0,5675.0,-143.0
2026-04-09 22:06:19.602824,194473,1309622717,1309624071,0.812032,-0.394304,-0.050752,-1.75,9.45875,-22.39125,-22.000002,18.368,18.896002,eccentric,6,3.0,31715.0,403431.0,126718.0,4593.0,-145.0
2026-04-09 22:06:19.606453,194474,1309631840,1309632877,0.812032,-0.394304,-0.050752,-1.505,6.8775,-28.55125,-22.000002,18.368,18.896002,eccentric,6,3.0,31715.0,403431.0,126718.0,4593.0,-145.0
2026-04-09 22:06:19.608205,194475,1309646384,1309647841,0.778848,-0.38064,0.050752,7.0175,1.81125,-29.82,-21.232,18.704,18.056002,eccentric,6,3.0,31715.0,403431.0,126718.0,4593.0,-145.0
2026-04-09 22:06:19.610095,194476,1309655360,1309656529,0.778848,-0.38064,0.050752,15.09375,-0.76125,-26.9675,-21.232,18.704,18.056002,eccentric,6,3.0,31715.0,403431.0,126718.0,4593.0,-145.0
2026-04-09 22:06:19.654606,194477,1309664320,1309665237,0.728096,-0.333792,0.081984,9.8525,-1.21625,-26.565,-21.752,17.976002,18.064001,eccentric,6,3.0,31715.0,403431.0,126718.0,4593.0,-145.0
2026-04-09 22:06:19.656884,194478,1309678828,1309680163,0.728096,-0.333792,0.081984,3.5525,-0.37625,-24.115,-21.752,17.976002,18.064001,eccentric,6,3.0,31715.0,403431.0,126718.0,4593.0,-145.0
2026-04-09 22:06:19.661522,194479,1309687735,1309688873,0.75152,-0.286944,-0.007808,-1.67125,-0.04375,-25.62875,-20.824001,17.432001,18.216002,eccentric,6,3.0,31715.0,403431.0,126718.0,4593.0,-145.0
2026-04-09 22:06:19.663988,194480,1309696653,1309697549,0.75152,-0.286944,-0.007808,-2.87875,-0.41125,-29.40875,-20.824001,17.432001,18.216002,eccentric,6,3.0,31715.0,403431.0,126718.0,4593.0,-145.0
2026-04-09 22:06:19.667582,194481,1309711129,1309712486,0.763232,-0.421632,0.011712,1.855,-0.6475,-31.6225,-20.656,17.336,18.096,eccentric,6,3.0,31715.0,403431.0,126718.0,4593.0,-145.0
2026-04-09 22:06:19.696254,194482,1309720072,1309721220,0.735904,-0.327936,0.119072,3.7275,0.07,-33.8625,-20.656,17.336,21.144001,eccentric,6,3.0,31715.0,403431.0,126718.0,4593.0,-145.0
2026-04-09 22:06:19.726168,194492,1309728991,1309729969,0.735904,-0.327936,0.119072,7.245,1.225,-30.93125,-21.168001,16.592001,21.144001,eccentric,6,3.0,31918.0,401035.0,121135.0,3032.0,-146.0
2026-04-09 22:06:19.730253,194493,1309737937,1309738791,0.735904,-0.327936,0.119072,6.15125,3.1675,-29.19875,-21.168001,16.592001,21.144001,eccentric,6,3.0,31918.0,401035.0,121135.0,3032.0,-146.0
2026-04-09 22:06:19.731978,194494,1309752444,1309753778,0.716384,-0.286944,0.035136,-0.76125,4.03375,-30.68625,-21.584002,17.056002,18.488,eccentric,6,3.0,31918.0,401035.0,121135.0,3032.0,-146.0
2026-04-09 22:06:19.733510,194495,1309761391,1309762477,0.772992,-0.431392,-0.056608,-5.635,3.64,-31.24625,-21.824001,16.712,17.536001,eccentric,6,3.0,31918.0,401035.0,121135.0,3032.0,-146.0
2026-04-09 22:06:19.737617,194496,1309770334,1309771217,0.772992,-0.431392,-0.056608,-5.845,3.955,-32.85625,-21.824001,16.712,17.536001,eccentric,6,3.0,31918.0,401035.0,121135.0,3032.0,-146.0
2026-04-09 22:06:19.740555,194497,1309784844,1309786171,0.778848,-0.333792,0.050752,-5.32875,5.95875,-34.55375,-22.648,16.800001,20.928001,eccentric,6,3.0,31918.0,401035.0,121135.0,3032.0,-146.0
2026-04-09 22:06:19.773339,194498,1309793778,1309794887,0.778848,-0.333792,0.050752,1.12875,7.72625,-32.2875,-22.648,16.800001,20.928001,eccentric,6,3.0,31918.0,401035.0,121135.0,3032.0,-146.0
2026-04-09 22:06:19.777760,194499,1309802797,1309803581,0.772992,-0.251808,0.06832,2.0825,9.8,-32.64625,-22.032001,16.392,18.232,eccentric,6,3.0,31918.0,401035.0,121135.0,3032.0,-146.0
2026-04-09 22:06:19.779483,194500,1309817326,1309818532,0.772992,-0.251808,0.06832,-2.70375,11.17375,-35.13125,-22.032001,16.392,18.232,eccentric,6,3.0,31918.0,401035.0,121135.0,3032.0,-146.0
2026-04-09 22:06:19.805892,194510,1309826364,1309827332,0.726144,-0.366976,0.060512,-5.53875,12.005,-36.6975,-22.208,15.880001,18.752,eccentric,6,3.0,31879.0,401088.0,121134.0,3067.0,-154.0
2026-04-09 22:06:19.808463,194511,1309835458,1309836083,0.726144,-0.366976,0.060512,-3.71,12.15375,-37.1175,-22.208,15.880001,18.752,eccentric,6,3.0,31879.0,401088.0,121134.0,3067.0,-154.0
2026-04-09 22:06:19.810902,194512,1309844783,1309846893,0.698816,-0.445056,0.001952,-0.8225,12.845,-35.385,-23.856,15.856001,20.168001,eccentric,6,3.0,31879.0,401088.0,121134.0,3067.0,-154.0
2026-04-09 22:06:19.813521,194513,1309859324,1309859812,0.698816,-0.445056,0.001952,-0.525,13.4575,-33.1975,-23.856,15.856001,20.168001,eccentric,6,3.0,31879.0,401088.0,121134.0,3067.0,-154.0
2026-04-09 22:06:19.844855,194514,1309868785,1309870615,0.763232,-0.267424,0.02928,-1.05,14.945,-31.911251,-22.936,15.224001,19.808,eccentric,6,3.0,31879.0,401088.0,121134.0,3067.0,-154.0
2026-04-09 22:06:19.847243,194515,1309877720,1309879323,0.763232,-0.267424,0.02928,-2.345,17.08,-32.87375,-22.936,15.224001,19.808,eccentric,6,3.0,31879.0,401088.0,121134.0,3067.0,-154.0
2026-04-09 22:06:19.849625,194516,1309892273,1309894203,0.767136,-0.220576,0.08784,0.74375,18.1825,-37.415,-22.792002,14.992001,19.152,eccentric,6,3.0,31879.0,401088.0,121134.0,3067.0,-154.0
2026-04-09 22:06:19.856079,194517,1309901190,1309902884,0.730048,-0.413824,0.101504,2.835,17.66625,-44.23125,-22.400002,14.792001,19.856,eccentric,6,3.0,31879.0,401088.0,121134.0,3067.0,-154.0
2026-04-09 22:06:19.886148,194518,1309910143,1309911614,0.730048,-0.413824,0.101504,9.8875,16.66875,-46.0425,-22.400002,14.792001,19.856,eccentric,6,3.0,31879.0,401088.0,121134.0,3067.0,-154.0
2026-04-09 22:06:19.889721,194519,1309919043,1309920310,0.730048,-0.413824,0.101504,17.19375,16.19625,-41.78125,-22.400002,14.792001,19.856,eccentric,6,3.0,31879.0,401088.0,121134.0,3067.0,-154.0
2026-04-09 22:06:19.914666,194529,1309933802,1309935259,0.675392,-0.454816,0.017568,14.79625,16.765,-37.0825,-22.912,15.368001,18.728,eccentric,6,3.0,31847.0,401488.0,121605.0,3193.0,-148.0
2026-04-09 22:06:19.918063,194530,1309942792,1309943996,0.726144,-0.130784,-0.042944,5.94125,16.616251,-34.965,-23.072,14.648001,20.528002,eccentric,6,3.0,31847.0,401488.0,121605.0,3193.0,-148.0
2026-04-09 22:06:19.921553,194531,1309951760,1309952752,0.726144,-0.130784,-0.042944,8.9425,15.49625,-30.75625,-23.072,14.648001,20.528002,eccentric,6,3.0,31847.0,401488.0,121605.0,3193.0,-148.0
2026-04-09 22:06:19.922430,194532,1309966267,1309967684,0.71248,-0.128832,0.074176,12.985,15.225,-32.78625,-24.272001,14.472001,21.328001,eccentric,6,3.0,31847.0,401488.0,121605.0,3193.0,-148.0
2026-04-09 22:06:19.958716,194533,1309975216,1309976404,0.71248,-0.128832,0.074176,9.9925,16.87875,-38.56125,-24.272001,14.472001,21.328001,eccentric,6,3.0,31847.0,401488.0,121605.0,3193.0,-148.0
2026-04-09 22:06:19.964736,194534,1309984126,1309985091,0.675392,-0.427488,0.154208,8.74125,16.45875,-41.48375,-23.336,14.104001,20.624,eccentric,6,3.0,31847.0,401488.0,121605.0,3193.0,-148.0
2026-04-09 22:06:19.967212,194535,1309998603,1310000044,0.675392,-0.427488,0.154208,12.90625,15.846251,-40.92375,-23.336,14.104001,20.624,eccentric,6,3.0,31847.0,401488.0,121605.0,3193.0,-148.0
2026-04-09 22:06:19.969674,194536,1310007540,1310008772,0.675392,-0.304512,-0.021472,14.65625,14.971251,-36.68875,-23.448002,14.392001,20.84,eccentric,6,3.0,31847.0,401488.0,121605.0,3193.0,-148.0
2026-04-09 22:06:19.972209,194537,1310016423,1310017497,0.675392,-0.304512,-0.021472,11.935,12.52125,-29.9775,-23.448002,14.392001,20.84,eccentric,6,3.0,31847.0,401488.0,121605.0,3193.0,-148.0
2026-04-09 22:06:20.014378,194548,1310025955,1310026450,0.747616,-0.105408,-0.054656,7.7,10.85875,-26.7225,-24.448002,13.8,21.928001,eccentric,6,3.0,31613.0,403263.0,123993.0,3861.0,-144.0
2026-04-09 22:06:20.015969,194549,1310040943,1310041604,0.747616,-0.152256,0.130784,6.8425,9.84375,-25.71625,-24.448002,13.8,21.928001,eccentric,6,3.0,31613.0,403263.0,123993.0,3861.0,-144.0
2026-04-09 22:06:20.020276,194550,1310050396,1310052452,0.714432,-0.144448,0.130784,7.5775,10.5175,-30.178751,-23.536001,13.568001,20.408,eccentric,6,3.0,31613.0,403263.0,123993.0,3861.0,-144.0
2026-04-09 22:06:20.021937,194551,1310059312,1310061146,0.714432,-0.144448,0.130784,11.042501,10.535,-35.91,-23.536001,13.568001,20.408,eccentric,6,3.0,31613.0,403263.0,123993.0,3861.0,-144.0
2026-04-09 22:06:20.023527,194552,1310068249,1310069844,0.704672,-0.298656,0.066368,19.1275,10.465,-39.20875,-24.096,13.896001,21.288,eccentric,6,3.0,31613.0,403263.0,123993.0,3861.0,-144.0
2026-04-09 22:06:20.054589,194553,1310082749,1310084763,0.737856,-0.314272,0.01952,20.991251,9.63375,-38.01,-24.288002,13.552001,22.736002,eccentric,6,3.0,31613.0,403263.0,123993.0,3861.0,-144.0
2026-04-09 22:06:20.056930,194554,1310091699,1310093465,0.737856,-0.314272,0.01952,17.33375,9.79125,-33.25,-24.288002,13.552001,22.736002,eccentric,6,3.0,31613.0,403263.0,123993.0,3861.0,-144.0
2026-04-09 22:06:20.061450,194555,1310100616,1310102152,0.737856,-0.314272,0.01952,11.261251,11.480001,-27.67625,-24.288002,13.552001,22.736002,eccentric,6,3.0,31613.0,403263.0,123993.0,3861.0,-144.0
2026-04-09 22:06:20.089918,194556,1310115140,1310117122,0.753472,-0.015616,0.0976,10.36,13.64125,-28.07,-24.456001,13.272,21.448002,eccentric,6,3.0,31613.0,403263.0,123993.0,3861.0,-144.0
2026-04-09 22:06:20.116965,194566,1310124552,1310125861,0.728096,-0.284992,0.027328,10.22,14.9975,-35.4725,-24.800001,12.888001,21.864,eccentric,6,3.0,31602.0,403423.0,124604.0,4043.0,-140.0
2026-04-09 22:06:20.118557,194567,1310133502,1310134630,0.728096,-0.284992,0.027328,15.68875,13.22125,-40.1625,-24.800001,12.888001,21.864,eccentric,6,3.0,31602.0,403423.0,124604.0,4043.0,-140.0
2026-04-09 22:06:20.122777,194568,1310148202,1310149577,0.757376,-0.298656,0.031232,26.74875,9.65125,-39.10375,-24.704,12.384001,21.792002,eccentric,6,3.0,31602.0,403423.0,124604.0,4043.0,-140.0
2026-04-09 22:06:20.124406,194569,1310157199,1310158320,0.757376,-0.298656,0.031232,29.723751,7.4025,-32.445,-24.704,12.384001,21.792002,eccentric,6,3.0,31602.0,403423.0,124604.0,4043.0,-140.0
2026-04-09 22:06:20.126008,194570,1310166117,1310167015,0.765184,-0.208864,0.074176,18.7775,6.83375,-24.92,-25.104002,11.920001,21.632002,eccentric,6,3.0,31602.0,403423.0,124604.0,4043.0,-140.0
2026-04-09 22:06:20.130122,194571,1310175029,1310175824,0.765184,-0.208864,0.074176,9.93125,7.175,-19.57375,-25.104002,11.920001,21.632002,eccentric,6,3.0,31602.0,403423.0,124604.0,4043.0,-140.0
2026-04-09 22:06:20.175866,194572,1310189990,1310190743,0.767136,-0.11712,0.031232,8.4875,6.97375,-18.27,-25.184002,12.064,22.376001,eccentric,6,3.0,31602.0,403423.0,124604.0,4043.0,-140.0
2026-04-09 22:06:20.178129,194573,1310199333,1310201504,0.767136,-0.11712,0.031232,10.12375,5.25875,-22.46125,-25.184002,12.064,22.376001,eccentric,6,3.0,31602.0,403423.0,124604.0,4043.0,-140.0
2026-04-09 22:06:20.182754,194574,1310208230,1310210237,0.772992,-0.267424,0.001952,14.28875,2.1,-25.76,-25.224,12.368001,22.248001,eccentric,6,3.0,31602.0,403423.0,124604.0,4043.0,-140.0
2026-04-09 22:06:20.184530,194575,1310217166,1310218964,0.772992,-0.267424,0.001952,20.9475,-1.07625,-24.54375,-25.224,12.368001,22.248001,eccentric,6,3.0,31602.0,403423.0,124604.0,4043.0,-140.0
2026-04-09 22:06:20.208542,194585,1310231719,1310233947,0.808128,-0.226432,0.07808,21.455,-1.28625,-20.65,-24.976002,12.528001,22.472,eccentric,6,3.0,31603.0,403385.0,124363.0,3954.0,-144.0
2026-04-09 22:06:20.212781,194586,1310240665,1310242694,0.808128,-0.226432,0.07808,15.07625,1.12875,-17.605,-24.976002,12.528001,22.472,eccentric,6,3.0,31603.0,403385.0,124363.0,3954.0,-144.0
2026-04-09 22:06:20.215220,194587,1310249675,1310251399,0.808128,-0.152256,0.085888,7.34125,5.53875,-17.675,-25.424002,12.064,23.456001,eccentric,6,3.0,31603.0,403385.0,124363.0,3954.0,-144.0
2026-04-09 22:06:20.254960,194588,1310264174,1310266308,0.782752,-0.206912,0.007808,3.00125,7.74375,-20.86875,-26.160002,12.200001,23.744001,eccentric,6,3.0,31603.0,403385.0,124363.0,3954.0,-144.0
2026-04-09 22:06:20.258549,194589,1310273163,1310275014,0.782752,-0.206912,0.007808,9.065,6.5275,-23.17,-26.160002,12.200001,23.744001,eccentric,6,3.0,31603.0,403385.0,124363.0,3954.0,-144.0
2026-04-09 22:06:20.266536,194590,1310282122,1310283720,0.782752,-0.226432,0.017568,18.43625,3.22,-23.24875,-26.160002,12.200001,21.696001,eccentric,6,3.0,31603.0,403385.0,124363.0,3954.0,-144.0
2026-04-09 22:06:20.268228,194591,1310296562,1310298628,0.792512,-0.226432,0.017568,22.11125,0.945,-20.08125,-25.68,11.888001,22.416,eccentric,6,3.0,31603.0,403385.0,124363.0,3954.0,-144.0
2026-04-09 22:06:20.269756,194592,1310305486,1310307305,0.79056,-0.154208,0.074176,19.32,0.3325,-14.83125,-25.984001,11.576,22.656,eccentric,6,3.0,31603.0,403385.0,124363.0,3954.0,-144.0
2026-04-09 22:06:20.273847,194593,1310314447,1310316039,0.79056,-0.154208,0.074176,11.5675,1.575,-10.73625,-25.984001,11.576,22.656,eccentric,6,3.0,31603.0,403385.0,124363.0,3954.0,-144.0
2026-04-09 22:06:20.304528,194604,1310329085,1310331010,0.7808,-0.13664,0.060512,2.45,3.49125,-9.292501,-25.504002,11.76,22.432001,eccentric,6,3.0,31823.0,401907.0,122371.0,3444.0,-145.0
2026-04-09 22:06:20.306032,194605,1310338137,1310339750,0.7808,-0.13664,0.060512,0.74375,4.235,-9.5725,-25.504002,11.76,22.432001,eccentric,6,3.0,31823.0,401907.0,122371.0,3444.0,-145.0
2026-04-09 22:06:20.310114,194606,1310347075,1310348468,0.778848,-0.199104,0.021472,6.23,2.8,-10.54375,-26.368002,11.672001,24.04,eccentric,6,3.0,31823.0,401907.0,122371.0,3444.0,-145.0
2026-04-09 22:06:20.313897,194607,1310356009,1310357194,0.778848,-0.199104,0.021472,12.53,0.315,-9.54625,-26.368002,11.672001,24.04,eccentric,6,3.0,31823.0,401907.0,122371.0,3444.0,-145.0
2026-04-09 22:06:20.342427,194608,1310370530,1310372079,0.804224,-0.171776,0.052704,14.665,-1.18125,-5.6525,-25.904001,12.120001,22.560001,eccentric,6,3.0,31823.0,401907.0,122371.0,3444.0,-145.0
2026-04-09 22:06:20.346086,194609,1310379439,1310380791,0.804224,-0.171776,0.052704,9.135,-1.02375,-0.97125,-25.904001,12.120001,22.560001,eccentric,6,3.0,31823.0,401907.0,122371.0,3444.0,-145.0
2026-04-09 22:06:20.350171,194610,1310388353,1310389478,0.81984,-0.10736,0.080032,2.2225,0.06125,0.56875,-25.048,11.88,22.52,eccentric,6,3.0,31823.0,401907.0,122371.0,3444.0,-145.0
2026-04-09 22:06:20.378702,194611,1310402931,1310404423,0.81984,-0.181536,0.0488,-3.3075,1.25125,0.13125,-25.048,11.568001,22.408,eccentric,6,3.0,31823.0,401907.0,122371.0,3444.0,-145.0
2026-04-09 22:06:20.382249,194612,1310411865,1310413144,0.81984,-0.181536,0.0488,-3.56125,1.33875,-0.91,-25.552002,11.568001,22.408,eccentric,6,3.0,31823.0,401907.0,122371.0,3444.0,-145.0
2026-04-09 22:06:20.384723,194613,1310420826,1310421881,0.81984,-0.181536,0.0488,0.44625,0.37625,-0.30625,-25.552002,11.568001,22.408,eccentric,6,3.0,31823.0,401907.0,122371.0,3444.0,-145.0
2026-04-09 22:06:20.409733,194623,1310435375,1310436858,0.825696,-0.197152,0.017568,5.67875,-1.74125,1.855,-25.768002,12.392,22.552002,eccentric,6,3.0,31939.0,401277.0,121687.0,3283.0,-152.0
2026-04-09 22:06:20.412228,194624,1310444365,1310445588,0.823744,-0.140544,0.062464,6.4575,-2.7125,5.565,-25.152,12.000001,22.400002,eccentric,6,3.0,31939.0,401277.0,121687.0,3283.0,-152.0
2026-04-09 22:06:20.414690,194625,1310453253,1310454325,0.823744,-0.140544,0.062464,0.5075,-2.17875,8.2425,-25.152,12.000001,22.400002,eccentric,6,3.0,31939.0,401277.0,121687.0,3283.0,-152.0
2026-04-09 22:06:20.417199,194626,1310462353,1310463064,0.823744,-0.140544,0.062464,-3.7275,-1.085,9.03,-25.152,12.000001,22.400002,eccentric,6,3.0,31939.0,401277.0,121687.0,3283.0,-152.0
2026-04-09 22:06:20.447417,194627,1310477240,1310477968,0.833504,-0.142496,0.080032,-6.37875,-0.315,8.12,-25.760002,12.392,22.224,eccentric,6,3.0,31939.0,401277.0,121687.0,3283.0,-152.0
2026-04-09 22:06:20.451025,194628,1310486582,1310488731,0.835456,-0.18544,0.031232,-6.09875,0.21875,6.58875,-25.224,12.688001,22.536001,eccentric,6,3.0,31939.0,401277.0,121687.0,3283.0,-152.0
2026-04-09 22:06:20.453494,194629,1310495505,1310497418,0.835456,-0.18544,0.031232,-2.9575,0.25375,6.29125,-25.224,12.688001,22.536001,eccentric,6,3.0,31939.0,401277.0,121687.0,3283.0,-152.0
2026-04-09 22:06:20.483720,194630,1310510028,1310512254,0.8296,-0.197152,0.070272,-1.61875,0.18375,7.2625,-26.04,12.952001,23.368002,concentric,6,3.0,31939.0,401277.0,121687.0,3283.0,-152.0
2026-04-09 22:06:20.487271,194631,1310518951,1310520955,0.8296,-0.197152,0.070272,-3.675,0.0525,8.96875,-26.04,12.952001,23.368002,concentric,6,3.0,31939.0,401277.0,121687.0,3283.0,-152.0
2026-04-09 22:06:20.517237,194641,1310528466,1310529721,0.833504,-0.193248,0.064416,-7.14875,0.4375,10.89375,-24.720001,12.744,22.488,concentric,6,3.0,31832.0,402139.0,122626.0,3488.0,-142.0
2026-04-09 22:06:20.519706,194642,1310537519,1310538468,0.833504,-0.193248,0.064416,-10.42125,1.49625,12.2325,-24.720001,12.744,22.488,concentric,6,3.0,31832.0,402139.0,122626.0,3488.0,-142.0
2026-04-09 22:06:20.522235,194643,1310552127,1310553414,0.841312,-0.12688,0.046848,-12.6525,1.96875,11.52375,-25.288002,12.736001,22.496,concentric,6,3.0,31832.0,402139.0,122626.0,3488.0,-142.0
2026-04-09 22:06:20.559751,194644,1310561121,1310562136,0.841312,-0.12688,0.046848,-11.515,1.77625,10.2025,-25.288002,12.736001,22.496,concentric,6,3.0,31832.0,402139.0,122626.0,3488.0,-142.0
2026-04-09 22:06:20.563708,194645,1310570219,1310570904,0.8296,-0.216672,0.042944,-9.75625,1.33875,7.97125,-24.52,12.544001,22.696001,concentric,6,3.0,31832.0,402139.0,122626.0,3488.0,-142.0
2026-04-09 22:06:20.564684,194646,1310579575,1310581733,0.8296,-0.216672,0.042944,-7.13125,-0.28,8.0675,-24.52,12.544001,22.696001,concentric,6,3.0,31832.0,402139.0,122626.0,3488.0,-142.0
2026-04-09 22:06:20.567244,194647,1310594058,1310594585,0.806176,-0.230336,0.08784,-5.94125,-0.7,10.12375,-24.512001,12.768001,21.904001,concentric,6,3.0,31832.0,402139.0,122626.0,3488.0,-142.0
2026-04-09 22:06:20.569744,194648,1310603506,1310605341,0.798368,-0.230336,0.05856,-8.81125,-0.13125,13.09875,-24.512001,12.768001,21.112001,concentric,6,3.0,31832.0,402139.0,122626.0,3488.0,-142.0
2026-04-09 22:06:20.572293,194649,1310612491,1310614050,0.798368,-0.230336,0.05856,-13.230001,0.34125,16.1175,-24.472002,12.904,21.112001,concentric,6,3.0,31832.0,402139.0,122626.0,3488.0,-142.0
2026-04-09 22:06:20.628428,194660,1310627251,1310628947,0.80032,-0.160064,0.040992,-15.91625,0.18375,18.515,-24.912,13.368001,22.928001,concentric,6,3.0,31479.0,403431.0,125618.0,4339.0,-152.0
2026-04-09 22:06:20.630974,194661,1310636224,1310637749,0.80032,-0.160064,0.040992,-14.175,-0.81375,18.48875,-24.912,13.368001,22.928001,concentric,6,3.0,31479.0,403431.0,125618.0,4339.0,-152.0
2026-04-09 22:06:20.633428,194662,1310645155,1310646455,0.776896,-0.216672,0.037088,-12.5125,-1.995,16.63375,-24.144001,13.728001,21.208,concentric,6,3.0,31479.0,403431.0,125618.0,4339.0,-152.0
2026-04-09 22:06:20.636711,194663,1310654099,1310655164,0.776896,-0.216672,0.037088,-8.96,-3.92875,15.07625,-24.144001,13.728001,21.208,concentric,6,3.0,31479.0,403431.0,125618.0,4339.0,-152.0
2026-04-09 22:06:20.638805,194664,1310668635,1310670102,0.753472,-0.261568,0.066368,-6.755,-5.5825,15.68875,-24.448002,13.664001,21.264002,concentric,6,3.0,31479.0,403431.0,125618.0,4339.0,-152.0
2026-04-09 22:06:20.641952,194665,1310677585,1310678821,0.753472,-0.261568,0.066368,-6.50125,-6.1425,17.92,-24.448002,13.664001,21.264002,concentric,6,3.0,31479.0,403431.0,125618.0,4339.0,-152.0
2026-04-09 22:06:20.643426,194666,1310686558,1310687580,0.739808,-0.267424,0.06832,-8.54875,-6.0725,21.4375,-23.856,13.768001,21.072,concentric,6,3.0,31479.0,403431.0,125618.0,4339.0,-152.0
2026-04-09 22:06:20.674564,194667,1310701086,1310702486,0.739808,-0.267424,0.06832,-14.21,-5.6525,24.91125,-23.856,13.768001,21.072,concentric,6,3.0,31479.0,403431.0,125618.0,4339.0,-152.0
2026-04-09 22:06:20.678991,194668,1310710090,1310711177,0.724192,-0.218624,0.015616,-18.54125,-4.99625,27.265,-23.800001,13.832001,20.504002,concentric,6,3.0,31479.0,403431.0,125618.0,4339.0,-152.0
2026-04-09 22:06:20.680817,194669,1310719056,1310719879,0.724192,-0.218624,0.015616,-18.19125,-7.315,27.83375,-23.800001,13.832001,20.504002,concentric,6,3.0,31479.0,403431.0,125618.0,4339.0,-152.0
2026-04-09 22:06:20.708260,194679,1310733707,1310734933,0.765184,-0.232288,0.031232,-15.82,-10.54375,26.39,-23.208,13.904,20.584002,concentric,6,3.0,31427.0,403431.0,126214.0,4481.0,-135.0
2026-04-09 22:06:20.709824,194680,1310742813,1310743818,0.765184,-0.232288,0.031232,-10.955,-11.917501,24.395,-23.208,13.904,20.584002,concentric,6,3.0,31427.0,403431.0,126214.0,4481.0,-135.0
2026-04-09 22:06:20.713843,194681,1310751863,1310752524,0.732,-0.290848,0.085888,-7.9625,-11.917501,23.94875,-24.168001,14.304001,22.184002,concentric,6,3.0,31427.0,403431.0,126214.0,4481.0,-135.0
2026-04-09 22:06:20.718965,194682,1310761146,1310763307,0.732,-0.290848,0.085888,-9.72125,-10.885,24.4475,-24.168001,14.304001,22.184002,concentric,6,3.0,31427.0,403431.0,126214.0,4481.0,-135.0
2026-04-09 22:06:20.747461,194683,1310775641,1310776168,0.685152,-0.327936,0.052704,-11.585,-10.78,27.7375,-24.048,14.496,22.44,concentric,6,3.0,31427.0,403431.0,126214.0,4481.0,-135.0
2026-04-09 22:06:20.751991,194684,1310785082,1310786965,0.675392,-0.257664,0.011712,-12.792501,-10.98125,31.87625,-22.224,14.848001,20.816002,concentric,6,3.0,31427.0,403431.0,126214.0,4481.0,-135.0
2026-04-09 22:06:20.754330,194685,1310794020,1310795658,0.675392,-0.257664,0.011712,-15.54875,-11.9,34.85125,-22.224,14.848001,20.816002,concentric,6,3.0,31427.0,403431.0,126214.0,4481.0,-135.0
2026-04-09 22:06:20.760148,194686,1310802953,1310804363,0.675392,-0.257664,0.011712,-18.4275,-12.005,35.875,-22.224,14.848001,20.816002,concentric,6,3.0,31427.0,403431.0,126214.0,4481.0,-135.0
2026-04-09 22:06:20.788684,194687,1310817448,1310819281,0.710528,-0.247904,-0.00976,-21.5425,-12.95,34.107502,-21.968,14.496,19.448002,concentric,6,3.0,31427.0,403431.0,126214.0,4481.0,-135.0
2026-04-09 22:06:20.792232,194688,1310826377,1310827963,0.681248,-0.32208,0.052704,-23.205,-13.5275,32.29625,-21.480001,14.776001,19.44,concentric,6,3.0,31427.0,403431.0,126214.0,4481.0,-135.0
2026-04-09 22:06:20.871975,194698,1310835327,1310836708,0.681248,-0.32208,0.052704,-21.9975,-14.39375,30.817501,-21.480001,14.776001,19.44,concentric,6,3.0,31411.0,403431.0,127684.0,4911.0,-150.0
2026-04-09 22:06:20.873590,194699,1310849813,1310851656,0.67344,-0.3416,0.05856,-20.2475,-15.1375,31.08,-22.048,15.136001,19.832,concentric,6,3.0,31411.0,403431.0,127684.0,4911.0,-150.0
2026-04-09 22:06:20.875972,194700,1310858772,1310860372,0.67344,-0.3416,0.05856,-21.315,-16.23125,34.44,-22.048,15.136001,19.832,concentric,6,3.0,31411.0,403431.0,127684.0,4911.0,-150.0
2026-04-09 22:06:20.879426,194701,1310867883,1310869102,0.687104,-0.357216,-0.017568,-23.21375,-17.78,37.49375,-20.824001,14.992001,18.488,concentric,6,3.0,31411.0,403431.0,127684.0,4911.0,-150.0
2026-04-09 22:06:20.881046,194702,1310882361,1310884095,0.687104,-0.357216,-0.017568,-23.1875,-18.17375,39.78625,-20.824001,14.992001,18.488,concentric,6,3.0,31411.0,403431.0,127684.0,4911.0,-150.0
2026-04-09 22:06:20.885907,194703,1310891320,1310892787,0.75152,-0.36112,-0.025376,-25.165,-17.68375,39.66375,-20.336,15.432001,18.712002,concentric,6,3.0,31411.0,403431.0,127684.0,4911.0,-150.0
2026-04-09 22:06:20.888483,194704,1310900222,1310901477,0.75152,-0.36112,-0.025376,-27.30875,-15.6975,36.65375,-20.336,15.432001,18.712002,concentric,6,3.0,31411.0,403431.0,127684.0,4911.0,-150.0
2026-04-09 22:06:20.890992,194705,1310914805,1310916395,0.71248,-0.298656,-0.00976,-25.13,-14.665,33.32875,-20.392,15.296001,18.272001,concentric,6,3.0,31411.0,403431.0,127684.0,4911.0,-150.0
2026-04-09 22:06:20.893443,194706,1310923807,1310925107,0.71248,-0.298656,-0.00976,-23.30125,-14.84,29.33,-20.392,15.296001,18.272001,concentric,6,3.0,31411.0,403431.0,127684.0,4911.0,-150.0
2026-04-09 22:06:20.920942,194717,1310932875,1310933894,0.69296,-0.396256,-0.046848,-20.991251,-17.1675,28.5075,-20.384,16.112001,18.04,concentric,6,3.0,31611.0,403431.0,128967.0,5301.0,-155.0
2026-04-09 22:06:20.923480,194718,1310941861,1310942673,0.69296,-0.396256,-0.046848,-17.21125,-18.78625,30.51125,-20.384,16.112001,18.04,concentric,6,3.0,31611.0,403431.0,128967.0,5301.0,-155.0
2026-04-09 22:06:20.925970,194719,1310956923,1310957640,0.726144,-0.4392,-0.044896,-18.22625,-18.96125,32.20875,-20.472,16.008001,18.0,concentric,6,3.0,31611.0,403431.0,128967.0,5301.0,-155.0
2026-04-09 22:06:20.928490,194720,1310966297,1310968404,0.823744,-0.329888,-0.105408,-23.07375,-17.710001,33.4075,-19.992,15.720001,18.880001,concentric,6,3.0,31611.0,403431.0,128967.0,5301.0,-155.0
2026-04-09 22:06:20.930993,194721,1310975234,1310977164,0.823744,-0.329888,-0.105408,-26.9675,-15.54,30.82625,-19.992,15.720001,18.880001,concentric,6,3.0,31611.0,403431.0,128967.0,5301.0,-155.0
2026-04-09 22:06:20.961442,194722,1310984154,1310985877,0.823744,-0.329888,-0.105408,-31.605,-12.9675,21.7525,-19.992,15.720001,18.880001,concentric,6,3.0,31611.0,403431.0,128967.0,5301.0,-155.0
2026-04-09 22:06:20.966087,194723,1310998612,1311000781,0.732,-0.431392,-0.027328,-25.375,-13.46625,15.995,-19.800001,16.264,16.864,concentric,6,3.0,31611.0,403431.0,128967.0,5301.0,-155.0
2026-04-09 22:06:20.967234,194724,1311007530,1311009468,0.726144,-0.454816,-0.037088,-12.41625,-16.05625,14.63875,-18.944,16.232,16.024,concentric,6,3.0,31611.0,403431.0,128967.0,5301.0,-155.0
2026-04-09 22:06:20.972258,194725,1311016441,1311018240,0.726144,-0.454816,-0.037088,2.3625,-17.0275,15.5225,-18.944,16.232,16.024,concentric,6,3.0,31611.0,403431.0,128967.0,5301.0,-155.0
2026-04-09 22:06:21.025948,194735,1311031451,1311033189,0.747616,-0.443104,-0.10736,11.76875,-17.1675,18.83,-19.016,16.960001,15.936001,concentric,6,3.0,31856.0,403431.0,130896.0,5962.0,-153.0
2026-04-09 22:06:21.028533,194736,1311040431,1311041933,0.747616,-0.443104,-0.10736,9.8,-15.86375,19.62625,-19.016,16.960001,15.936001,concentric,6,3.0,31856.0,403431.0,130896.0,5962.0,-153.0
2026-04-09 22:06:21.031004,194737,1311049321,1311050579,0.794464,-0.394304,-0.130784,-0.0875,-11.095,19.64375,-18.632,16.928001,15.744,concentric,6,3.0,31856.0,403431.0,130896.0,5962.0,-153.0
2026-04-09 22:06:21.034218,194738,1311063902,1311065507,0.794464,-0.394304,-0.130784,-3.28125,-7.25375,19.11,-18.632,16.928001,15.744,concentric,6,3.0,31856.0,403431.0,130896.0,5962.0,-153.0
2026-04-09 22:06:21.035982,194739,1311072854,1311074225,0.76128,-0.359168,-0.091744,-4.17375,-2.905,14.315001,-19.872002,17.216002,17.464,concentric,6,3.0,31856.0,403431.0,130896.0,5962.0,-153.0
2026-04-09 22:06:21.038646,194740,1311081771,1311082927,0.76128,-0.359168,-0.091744,-6.86,-1.1025,9.37125,-19.872002,17.216002,17.464,concentric,6,3.0,31856.0,403431.0,130896.0,5962.0,-153.0
2026-04-09 22:06:21.046037,194741,1311090771,1311091673,0.778848,-0.472384,-0.150304,-6.67625,-1.4,6.86875,-19.192001,17.232,17.560001,concentric,6,3.0,31856.0,403431.0,130896.0,5962.0,-153.0
2026-04-09 22:06:21.075033,194742,1311105240,1311106628,0.774944,-0.42944,-0.070272,4.6375,-2.96625,8.37375,-19.192001,17.232,14.76,concentric,6,3.0,31856.0,403431.0,130896.0,5962.0,-153.0
2026-04-09 22:06:21.078540,194743,1311114143,1311115316,0.774944,-0.42944,-0.070272,18.66375,-3.17625,12.0925,-18.424002,17.28,14.76,concentric,6,3.0,31856.0,403431.0,130896.0,5962.0,-153.0
2026-04-09 22:06:21.081012,194744,1311123162,1311123996,0.774944,-0.42944,-0.070272,16.86125,0.42,14.81375,-18.424002,17.28,14.76,concentric,6,3.0,31856.0,403431.0,130896.0,5962.0,-153.0
2026-04-09 22:06:21.109682,194754,1311137703,1311138985,0.700768,-0.447008,-0.054656,3.15875,5.11875,13.22125,-18.072,17.592001,15.408001,concentric,6,3.0,32316.0,403431.0,135084.0,7697.0,-145.0
2026-04-09 22:06:21.112918,194755,1311146645,1311147728,0.733952,-0.423584,-0.140544,-1.23375,8.75,12.74,-20.240002,17.720001,15.648001,concentric,6,3.0,32316.0,403431.0,135084.0,7697.0,-145.0
2026-04-09 22:06:21.114752,194756,1311155559,1311156445,0.733952,-0.423584,-0.140544,-3.15,10.8325,8.5575,-20.240002,17.720001,15.648001,concentric,6,3.0,32316.0,403431.0,135084.0,7697.0,-145.0
2026-04-09 22:06:21.153831,194757,1311170079,1311171367,0.757376,-0.37088,-0.103456,4.27,10.0275,4.5675,-18.536001,17.664001,15.248001,concentric,6,3.0,32316.0,403431.0,135084.0,7697.0,-145.0
2026-04-09 22:06:21.157262,194758,1311178979,1311180161,0.757376,-0.37088,-0.103456,13.25625,9.10875,3.6575,-18.536001,17.664001,15.248001,concentric,6,3.0,32316.0,403431.0,135084.0,7697.0,-145.0
2026-04-09 22:06:21.159767,194759,1311187893,1311188862,0.72224,-0.484096,-0.085888,16.5375,7.5075,2.38875,-18.768002,17.936,15.424001,concentric,6,3.0,32316.0,403431.0,135084.0,7697.0,-145.0
2026-04-09 22:06:21.162261,194760,1311202361,1311203784,0.72224,-0.484096,-0.085888,19.985,6.2825,2.45875,-18.768002,17.936,15.424001,concentric,6,3.0,32316.0,403431.0,135084.0,7697.0,-145.0
2026-04-09 22:06:21.167254,194761,1311211288,1311212489,0.733952,-0.396256,-0.027328,25.69875,5.76625,4.52375,-18.584002,18.072,15.376,concentric,6,3.0,32316.0,403431.0,135084.0,7697.0,-145.0
2026-04-09 22:06:21.198561,194762,1311220239,1311221263,0.733952,-0.396256,-0.027328,28.13125,6.99125,6.16,-18.584002,18.072,15.376,concentric,6,3.0,32316.0,403431.0,135084.0,7697.0,-145.0
2026-04-09 22:06:21.201333,194763,1311229187,1311229965,0.706624,-0.396256,0.023424,21.4725,9.14375,4.64625,-18.888,18.808,14.920001,concentric,6,3.0,32316.0,403431.0,135084.0,7697.0,-145.0
2026-04-09 22:06:21.228408,194774,1311243704,1311244952,0.706624,-0.396256,0.023424,15.26,10.59625,4.12125,-18.888,18.808,14.920001,concentric,6,3.0,32739.0,403431.0,135900.0,8021.0,-147.0
2026-04-09 22:06:21.231024,194775,1311252624,1311253687,0.737856,-0.372832,-0.037088,11.57625,12.97625,0.5075,-18.76,18.152,16.176,concentric,6,3.0,32739.0,403431.0,135900.0,8021.0,-147.0
2026-04-09 22:06:21.233486,194776,1311261592,1311262416,0.737856,-0.372832,-0.037088,15.32125,15.61875,-4.4975,-18.76,18.152,16.176,concentric,6,3.0,32739.0,403431.0,135900.0,8021.0,-147.0
2026-04-09 22:06:21.236004,194777,1311276666,1311277398,0.747616,-0.40016,-0.035136,21.63875,15.82875,-6.64125,-20.384,18.432001,16.728,concentric,6,3.0,32739.0,403431.0,135900.0,8021.0,-147.0
2026-04-09 22:06:21.242248,194778,1311286008,1311288155,0.737856,-0.462624,0.021472,22.8025,14.91,-7.46375,-20.384,18.136002,16.056002,concentric,6,3.0,32739.0,403431.0,135900.0,8021.0,-147.0
2026-04-09 22:06:21.273682,194779,1311294938,1311296854,0.737856,-0.462624,0.021472,23.765,14.67375,-4.9525,-20.264002,18.136002,16.056002,concentric,6,3.0,32739.0,403431.0,135900.0,8021.0,-147.0
2026-04-09 22:06:21.276063,194780,1311303858,1311305551,0.737856,-0.462624,0.021472,23.178751,14.62125,-1.2425,-20.264002,18.136002,16.056002,concentric,6,3.0,32739.0,403431.0,135900.0,8021.0,-147.0
2026-04-09 22:06:21.279698,194781,1311318291,1311320434,0.765184,-0.406016,0.105408,20.7025,15.5225,1.23375,-19.856,18.912,15.568001,concentric,6,3.0,32739.0,403431.0,135900.0,8021.0,-147.0
2026-04-09 22:06:21.282682,194782,1311327256,1311329174,0.843264,-0.396256,0.062464,16.00375,18.12125,0.5775,-19.216002,19.144001,16.136002,concentric,6,3.0,32739.0,403431.0,135900.0,8021.0,-147.0
2026-04-09 22:06:21.308523,194792,1311336403,1311337950,0.843264,-0.396256,0.062464,16.80875,19.775,-1.5925,-19.216002,19.144001,16.136002,concentric,6,3.0,32459.0,403431.0,131331.0,6029.0,-143.0
2026-04-09 22:06:21.311003,194793,1311350985,1311352866,0.854976,-0.4392,-0.037088,20.93,20.51875,-4.12125,-19.84,18.936,16.28,concentric,6,3.0,32459.0,403431.0,131331.0,6029.0,-143.0
2026-04-09 22:06:21.314764,194794,1311359950,1311361687,0.854976,-0.4392,-0.037088,27.755001,19.25875,-5.81,-19.84,18.936,16.28,concentric,6,3.0,32459.0,403431.0,131331.0,6029.0,-143.0
2026-04-09 22:06:21.344966,194795,1311368947,1311370413,0.86864,-0.427488,0.011712,28.25375,17.54375,-7.70875,-20.488,19.536001,17.36,concentric,6,3.0,32459.0,403431.0,131331.0,6029.0,-143.0
2026-04-09 22:06:21.348502,194796,1311383415,1311385287,0.86864,-0.427488,0.011712,28.60375,16.07375,-7.91875,-20.488,19.536001,17.36,concentric,6,3.0,32459.0,403431.0,131331.0,6029.0,-143.0
2026-04-09 22:06:21.350998,194797,1311392359,1311393986,0.882304,-0.406016,0.101504,27.8425,15.855001,-7.30625,-20.064001,19.944,16.792002,concentric,6,3.0,32459.0,403431.0,131331.0,6029.0,-143.0
2026-04-09 22:06:21.355995,194798,1311401313,1311402731,0.882304,-0.406016,0.101504,22.2075,18.0075,-7.14,-20.064001,19.944,16.792002,concentric,6,3.0,32459.0,403431.0,131331.0,6029.0,-143.0
2026-04-09 22:06:21.386327,194799,1311410287,1311411451,0.825696,-0.52704,0.091744,12.136251,20.65,-6.37,-19.952002,19.664001,17.824001,concentric,6,3.0,32459.0,403431.0,131331.0,6029.0,-143.0
2026-04-09 22:06:21.389816,194800,1311424789,1311426347,0.825696,-0.52704,0.091744,4.97,22.04125,-4.2175,-19.952002,19.664001,17.824001,concentric,6,3.0,32459.0,403431.0,131331.0,6029.0,-143.0
2026-04-09 22:06:21.414809,194810,1311433934,1311435097,0.890112,-0.42944,0.0,8.53125,22.19875,-2.2225,-20.408,19.232,16.888,concentric,6,3.0,32109.0,403431.0,129190.0,5276.0,-146.0
2026-04-09 22:06:21.417288,194811,1311442929,1311443928,0.890112,-0.42944,0.0,15.33,22.3125,-0.00875,-20.408,19.232,16.888,concentric,6,3.0,32109.0,403431.0,129190.0,5276.0,-146.0
2026-04-09 22:06:21.419813,194812,1311457533,1311458882,0.882304,-0.513376,0.054656,16.66,23.44125,1.9775,-22.2,19.864,18.512001,concentric,6,3.0,32109.0,403431.0,129190.0,5276.0,-146.0
2026-04-09 22:06:21.422314,194813,1311466497,1311467591,0.882304,-0.52704,0.122976,14.42,24.1675,6.195,-22.2,19.864,16.464,concentric,6,3.0,32109.0,403431.0,129190.0,5276.0,-146.0
2026-04-09 22:06:21.461747,194814,1311475464,1311476301,0.882304,-0.52704,0.122976,10.50875,26.355,8.6975,-22.336,19.832,17.608002,concentric,6,3.0,32109.0,403431.0,129190.0,5276.0,-146.0
2026-04-09 22:06:21.483759,194815,1311489966,1311491234,0.915488,-0.447008,0.074176,5.99375,28.83125,9.70375,-21.248001,20.088001,16.824001,concentric,6,3.0,32109.0,403431.0,129190.0,5276.0,-146.0
2026-04-09 22:06:21.487858,194816,1311498876,1311499957,0.915488,-0.447008,0.074176,6.6675,30.3275,10.92,-21.248001,20.088001,16.824001,concentric,6,3.0,32109.0,403431.0,129190.0,5276.0,-146.0
2026-04-09 22:06:21.489543,194817,1311507807,1311508698,0.909632,-0.564128,0.122976,9.87,31.36,11.71625,-20.52,20.248001,17.216002,concentric,6,3.0,32109.0,403431.0,129190.0,5276.0,-146.0
2026-04-09 22:06:21.491145,194818,1311516732,1311517402,0.909632,-0.564128,0.122976,13.99125,32.50625,14.2975,-20.52,20.248001,17.216002,concentric,6,3.0,32109.0,403431.0,129190.0,5276.0,-146.0
2026-04-09 22:06:21.519588,194829,1311531562,1311532665,0.882304,-0.581696,0.062464,11.27,34.545002,17.2025,-20.336,20.576,17.04,concentric,6,3.0,32046.0,403431.0,127639.0,4760.0,-142.0
2026-04-09 22:06:21.521472,194830,1311541378,1311543494,0.882304,-0.581696,0.062464,8.68875,36.4525,19.94125,-20.336,20.576,17.04,concentric,6,3.0,32046.0,403431.0,127639.0,4760.0,-142.0
2026-04-09 22:06:21.525700,194831,1311550392,1311552280,0.870592,-0.503616,0.130784,6.1075,38.78875,19.32875,-20.92,20.688002,17.968,concentric,6,3.0,32046.0,403431.0,127639.0,4760.0,-142.0
2026-04-09 22:06:21.526829,194832,1311559320,1311560985,0.870592,-0.503616,0.130784,3.325,40.04875,18.235,-20.92,20.688002,17.968,concentric,6,3.0,32046.0,403431.0,127639.0,4760.0,-142.0
2026-04-09 22:06:21.532705,194833,1311573922,1311575907,0.835456,-0.571936,0.113216,1.82,39.85625,17.59625,-21.048,21.152,19.288,concentric,6,3.0,32046.0,403431.0,127639.0,4760.0,-142.0
2026-04-09 22:06:21.561346,194834,1311582874,1311584588,0.835456,-0.571936,0.113216,-0.20125,38.68375,15.4525,-21.048,21.152,19.288,concentric,6,3.0,32046.0,403431.0,127639.0,4760.0,-142.0
2026-04-09 22:06:21.565806,194835,1311591801,1311593281,0.77104,-0.65392,0.081984,1.30375,36.6625,14.6475,-21.592001,20.736,18.888,concentric,6,3.0,32046.0,403431.0,127639.0,4760.0,-142.0
2026-04-09 22:06:21.567312,194836,1311606249,1311608177,0.77104,-0.65392,0.081984,7.35,32.4975,14.542501,-21.592001,20.736,18.888,concentric,6,3.0,32046.0,403431.0,127639.0,4760.0,-142.0
2026-04-09 22:06:21.573999,194837,1311615203,1311616871,0.808128,-0.558272,0.06832,14.55125,28.875,14.4025,-21.112001,21.112001,17.776001,concentric,6,3.0,32046.0,403431.0,127639.0,4760.0,-142.0
2026-04-09 22:06:21.580223,194838,1311624131,1311625590,0.808128,-0.558272,0.06832,16.0125,26.6525,15.33875,-21.112001,21.112001,17.776001,concentric,6,3.0,32046.0,403431.0,127639.0,4760.0,-142.0
2026-04-09 22:06:21.610761,194848,1311638656,1311640515,0.784704,-0.5856,0.138592,11.042501,24.57875,15.05,-22.152,21.288,17.856,concentric,6,3.0,31974.0,403274.0,124456.0,3806.0,-147.0
2026-04-09 22:06:21.612450,194849,1311647581,1311649255,0.792512,-0.651968,0.103456,2.3625,23.89625,12.95875,-21.464,21.776001,20.464,concentric,6,3.0,31974.0,403274.0,124456.0,3806.0,-147.0
2026-04-09 22:06:21.616453,194850,1311656533,1311657947,0.792512,-0.651968,0.103456,-2.89625,21.805,10.7275,-21.464,21.776001,20.464,concentric,6,3.0,31974.0,403274.0,124456.0,3806.0,-147.0
2026-04-09 22:06:21.645047,194851,1311671101,1311672908,0.80032,-0.659776,0.119072,-3.36875,18.6025,8.82875,-20.52,21.752,17.2,concentric,6,3.0,31974.0,403274.0,124456.0,3806.0,-147.0
2026-04-09 22:06:21.649460,194852,1311680054,1311681616,0.80032,-0.659776,0.119072,-1.3125,15.61875,8.44375,-20.52,21.752,17.2,concentric,6,3.0,31974.0,403274.0,124456.0,3806.0,-147.0
2026-04-09 22:06:21.651924,194853,1311688996,1311690324,0.825696,-0.64416,0.111264,3.42125,12.705,9.7475,-20.696001,21.504002,20.152,concentric,6,3.0,31974.0,403274.0,124456.0,3806.0,-147.0
2026-04-09 22:06:21.653468,194854,1311697905,1311698987,0.825696,-0.64416,0.111264,3.955,10.99875,8.4,-20.696001,21.504002,20.152,concentric,6,3.0,31974.0,403274.0,124456.0,3806.0,-147.0
2026-04-09 22:06:21.684460,194855,1311712376,1311713925,0.806176,-0.661728,0.07808,3.1675,9.555,6.8425,-20.720001,21.832,18.68,concentric,6,3.0,31974.0,403274.0,124456.0,3806.0,-147.0
2026-04-09 22:06:21.687296,194856,1311721322,1311722646,0.806176,-0.661728,0.07808,3.5,7.49875,5.34625,-20.720001,21.832,18.68,concentric,6,3.0,31974.0,403274.0,124456.0,3806.0,-147.0
2026-04-09 22:06:21.690729,194857,1311730246,1311731316,0.804224,-0.69296,0.085888,3.3075,6.4225,4.76,-20.36,21.728,17.504002,concentric,6,3.0,31974.0,403274.0,124456.0,3806.0,-147.0
2026-04-09 22:06:21.714863,194867,1311744832,1311746416,0.804224,-0.69296,0.085888,2.23125,4.85625,4.06,-20.36,21.728,17.504002,concentric,6,3.0,32005.0,403350.0,124673.0,3879.0,-137.0
2026-04-09 22:06:21.719044,194868,1311753776,1311755119,0.80032,-0.655872,0.095648,3.99875,3.7275,3.78,-20.792002,21.752,18.008001,concentric,6,3.0,32005.0,403350.0,124673.0,3879.0,-137.0
2026-04-09 22:06:21.720554,194869,1311762751,1311763828,0.80032,-0.655872,0.095648,2.49375,3.22875,2.86125,-20.792002,21.752,18.008001,concentric,6,3.0,32005.0,403350.0,124673.0,3879.0,-137.0
2026-04-09 22:06:21.755904,194870,1311777247,1311778784,0.772992,-0.69296,0.07808,-1.1725,2.82625,2.1875,-20.2,21.736002,17.728,concentric,6,3.0,32005.0,403350.0,124673.0,3879.0,-137.0
2026-04-09 22:06:21.761951,194871,1311786174,1311787532,0.772992,-0.69296,0.07808,-3.50875,2.7825,2.19625,-20.2,21.736002,17.728,concentric,6,3.0,32005.0,403350.0,124673.0,3879.0,-137.0
2026-04-09 22:06:21.763622,194872,1311795068,1311796217,0.749568,-0.64416,0.066368,-2.19625,2.73,2.1,-20.528002,22.136002,17.936,concentric,6,3.0,32005.0,403350.0,124673.0,3879.0,-137.0
2026-04-09 22:06:21.769133,194873,1311809532,1311811151,0.733952,-0.67344,0.091744,-1.04125,1.82875,0.8575,-21.872002,22.28,18.784,concentric,6,3.0,32005.0,403350.0,124673.0,3879.0,-137.0
2026-04-09 22:06:21.796159,194874,1311818552,1311819861,0.733952,-0.67344,0.091744,-1.70625,0.385,-0.175,-21.872002,22.28,18.784,concentric,6,3.0,32005.0,403350.0,124673.0,3879.0,-137.0
2026-04-09 22:06:21.800795,194875,1311827466,1311828585,0.733952,-0.67344,0.0976,-1.575,-0.35875,0.5425,-21.872002,22.28,18.784,concentric,6,3.0,32005.0,403350.0,124673.0,3879.0,-137.0
