pc_time,serial_num,sensor_ts,host_ts,ax,ay,az,gx,gy,gz,mx,my,mz,phase,rpe,weight_kg,ppg_a,ppg_b,ppg_c,ppg_d,ppg_e
2026-04-09 22:38:17.800510,542464,3227686019,3227686876,-1.052128,0.15616,0.10736,3.73625,2.47625,-5.06625,14.288001,-31.072002,41.640003,inter_set_rest,7,5.0,24530.0,403431.0,194800.0,53862.0,1467.0
2026-04-09 22:38:17.803039,542465,3227694972,3227695642,-1.048224,0.15616,0.111264,2.87875,3.08,-4.83875,14.040001,-31.128002,41.424004,inter_set_rest,7,5.0,24530.0,403431.0,194800.0,53862.0,1467.0
2026-04-09 22:38:17.805522,542466,3227709850,3227710585,-1.048224,0.15616,0.111264,0.86625,2.84375,-4.69875,14.040001,-31.128002,41.424004,inter_set_rest,7,5.0,24530.0,403431.0,194800.0,53862.0,1467.0
2026-04-09 22:38:17.835789,542467,3227719246,3227721355,-1.06384,0.13664,0.08784,0.13125,2.94,-5.0225,13.848001,-31.672,41.808002,inter_set_rest,7,5.0,24530.0,403431.0,194800.0,53862.0,1467.0
2026-04-09 22:38:17.840287,542468,3227728148,3227730069,-1.06384,0.13664,0.08784,0.07,3.045,-5.66125,13.848001,-31.672,41.808002,inter_set_rest,7,5.0,24530.0,403431.0,194800.0,53862.0,1467.0
2026-04-09 22:38:17.841836,542469,3227742672,3227742994,-1.050176,0.138592,0.085888,-0.04375,2.1175,-5.10125,14.768001,-31.368002,40.0,inter_set_rest,7,5.0,24530.0,403431.0,194800.0,53862.0,1467.0
2026-04-09 22:38:17.847630,542470,3227751924,3227753783,-1.050176,0.138592,0.085888,1.5925,1.61,-4.75125,14.768001,-31.368002,40.0,inter_set_rest,7,5.0,24530.0,403431.0,194800.0,53862.0,1467.0
2026-04-09 22:38:17.880904,542471,3227760926,3227762520,-1.040416,0.144448,0.119072,2.86125,1.295,-4.99625,15.000001,-31.056002,40.24,inter_set_rest,7,5.0,24530.0,403431.0,194800.0,53862.0,1467.0
2026-04-09 22:38:17.885175,542472,3227769862,3227771200,-1.040416,0.144448,0.119072,3.22,1.28625,-4.795,15.000001,-31.056002,40.24,inter_set_rest,7,5.0,24530.0,403431.0,194800.0,53862.0,1467.0
2026-04-09 22:38:17.913822,542482,3227784696,3227786200,-1.03456,0.15616,0.105408,3.45625,1.2425,-4.40125,14.688001,-31.152002,40.792004,inter_set_rest,7,5.0,24533.0,403431.0,195000.0,54126.0,1502.0
2026-04-09 22:38:17.921109,542483,3227793710,3227794912,-1.03456,0.140544,0.089792,2.09125,2.38875,-5.11875,14.688001,-31.152002,42.84,inter_set_rest,7,5.0,24533.0,403431.0,195000.0,54126.0,1502.0
2026-04-09 22:38:17.922814,542484,3227802624,3227803677,-1.059936,0.140544,0.089792,0.00875,2.8875,-5.25,14.368001,-31.208002,40.984,inter_set_rest,7,5.0,24533.0,403431.0,195000.0,54126.0,1502.0
2026-04-09 22:38:17.924368,542485,3227817160,3227818681,-1.050176,0.132736,0.0976,0.1225,2.6775,-4.9175,13.816001,-31.160002,42.576,inter_set_rest,7,5.0,24533.0,403431.0,195000.0,54126.0,1502.0
2026-04-09 22:38:17.928611,542486,3227826155,3227827470,-1.050176,0.132736,0.0976,0.93625,2.24,-5.8625,13.816001,-31.160002,42.576,inter_set_rest,7,5.0,24533.0,403431.0,195000.0,54126.0,1502.0
2026-04-09 22:38:17.931072,542487,3227835072,3227836186,-1.038464,0.1464,0.115168,1.0675,2.415,-5.53875,14.200001,-31.216002,39.776,inter_set_rest,7,5.0,24533.0,403431.0,195000.0,54126.0,1502.0
2026-04-09 22:38:17.959499,542488,3227844024,3227844898,-1.038464,0.1464,0.115168,2.0125,2.0825,-5.17125,14.200001,-31.216002,39.776,inter_set_rest,7,5.0,24533.0,403431.0,195000.0,54126.0,1502.0
2026-04-09 22:38:17.964793,542489,3227858531,3227859785,-1.052128,0.148352,0.0976,2.52,2.4325,-6.04625,14.816001,-31.664001,40.480003,inter_set_rest,7,5.0,24533.0,403431.0,195000.0,54126.0,1502.0
2026-04-09 22:38:17.965763,542490,3227867446,3227868491,-1.052128,0.148352,0.0976,2.24875,2.7475,-6.41375,14.816001,-31.664001,40.480003,inter_set_rest,7,5.0,24533.0,403431.0,195000.0,54126.0,1502.0
2026-04-09 22:38:17.970988,542491,3227876375,3227877255,-1.056032,0.134688,0.113216,2.0125,2.9225,-6.4575,13.304001,-31.496002,41.264004,inter_set_rest,7,5.0,24533.0,403431.0,195000.0,54126.0,1502.0
2026-04-09 22:38:17.999014,542501,3227891017,3227892242,-1.056032,0.134688,0.113216,1.1025,2.59,-7.44625,13.304001,-31.496002,41.264004,inter_set_rest,7,5.0,24496.0,403431.0,195277.0,54408.0,1534.0
2026-04-09 22:38:18.000604,542502,3227899961,3227901005,-1.042368,0.144448,0.103456,2.28375,2.555,-7.735,12.976001,-30.816002,42.024002,inter_set_rest,7,5.0,24496.0,403431.0,195277.0,54408.0,1534.0
2026-04-09 22:38:18.004796,542503,3227908920,3227909802,-1.042368,0.144448,0.103456,2.54625,3.21125,-7.4025,12.976001,-30.816002,42.024002,inter_set_rest,7,5.0,24496.0,403431.0,195277.0,54408.0,1534.0
2026-04-09 22:38:18.044631,542504,3227923457,3227924756,-1.050176,0.142496,0.109312,2.2225,3.535,-6.9475,13.808001,-31.088001,42.104004,inter_set_rest,7,5.0,24496.0,403431.0,195277.0,54408.0,1534.0
2026-04-09 22:38:18.046776,542505,3227932393,3227933473,-1.050176,0.142496,0.109312,2.45875,3.395,-7.04375,13.808001,-31.088001,42.104004,inter_set_rest,7,5.0,24496.0,403431.0,195277.0,54408.0,1534.0
2026-04-09 22:38:18.051130,542506,3227941307,3227942167,-1.042368,0.152256,0.10736,3.73625,3.14125,-7.48125,14.448001,-31.168001,41.112003,inter_set_rest,7,5.0,24496.0,403431.0,195277.0,54408.0,1534.0
2026-04-09 22:38:18.052699,542507,3227955808,3227957059,-1.06384,0.138592,0.099552,3.57,3.5875,-7.3325,14.712001,-31.088001,42.296,inter_set_rest,7,5.0,24496.0,403431.0,195277.0,54408.0,1534.0
2026-04-09 22:38:18.084213,542508,3227964817,3227965884,-1.06384,0.138592,0.099552,3.01,3.85,-6.93875,14.712001,-31.088001,42.296,inter_set_rest,7,5.0,24496.0,403431.0,195277.0,54408.0,1534.0
2026-04-09 22:38:18.085648,542509,3227973742,3227974656,-1.06384,0.138592,0.099552,1.96,3.91125,-6.74625,14.712001,-31.088001,42.296,inter_set_rest,7,5.0,24496.0,403431.0,195277.0,54408.0,1534.0
2026-04-09 22:38:18.089953,542510,3227982687,3227983382,-1.056032,0.13664,0.089792,1.58375,3.94625,-6.69375,14.56,-31.560001,39.920002,inter_set_rest,7,5.0,24496.0,403431.0,195277.0,54408.0,1534.0
2026-04-09 22:38:18.115681,542521,3227997971,3227998342,-1.050176,0.1464,0.103456,2.21375,3.70125,-6.4925,15.104001,-31.328001,40.752003,inter_set_rest,7,5.0,24478.0,403431.0,195683.0,54750.0,1572.0
2026-04-09 22:38:18.119900,542522,3228007423,3228009192,-1.050176,0.1464,0.103456,2.87,3.6575,-6.23875,15.104001,-31.328001,40.752003,inter_set_rest,7,5.0,24478.0,403431.0,195683.0,54750.0,1572.0
2026-04-09 22:38:18.122573,542523,3228016367,3228017930,-1.048224,0.150304,0.105408,3.395,3.36,-6.30875,14.376,-31.472002,41.440002,inter_set_rest,7,5.0,24478.0,403431.0,195683.0,54750.0,1572.0
2026-04-09 22:38:18.125733,542524,3228025346,3228026650,-1.048224,0.150304,0.105408,3.6225,3.68375,-6.02,14.376,-31.472002,41.440002,inter_set_rest,7,5.0,24478.0,403431.0,195683.0,54750.0,1572.0
2026-04-09 22:38:18.157365,542525,3228039925,3228041620,-1.042368,0.144448,0.08784,3.63125,3.7975,-6.13375,14.480001,-31.2,40.056004,inter_set_rest,7,5.0,24478.0,403431.0,195683.0,54750.0,1572.0
2026-04-09 22:38:18.166226,542526,3228048850,3228050306,-1.042368,0.144448,0.08784,3.4475,3.92875,-6.685,14.480001,-31.2,40.056004,inter_set_rest,7,5.0,24478.0,403431.0,195683.0,54750.0,1572.0
2026-04-09 22:38:18.167826,542527,3228057760,3228059000,-1.048224,0.134688,0.093696,3.21125,4.24375,-6.4575,15.360001,-30.944002,40.88,inter_set_rest,7,5.0,24478.0,403431.0,195683.0,54750.0,1572.0
2026-04-09 22:38:18.169424,542528,3228072260,3228073951,-1.048224,0.134688,0.093696,3.08875,4.1125,-6.09,15.360001,-30.944002,40.88,inter_set_rest,7,5.0,24478.0,403431.0,195683.0,54750.0,1572.0
2026-04-09 22:38:18.177457,542529,3228081198,3228082659,-1.028704,0.122976,0.083936,2.37125,3.3775,-5.74,14.352,-31.432001,40.4,inter_set_rest,7,5.0,24478.0,403431.0,195683.0,54750.0,1572.0
2026-04-09 22:38:18.201865,542539,3228090193,3228091425,-1.028704,0.122976,0.083936,2.52875,3.64875,-5.8275,14.352,-31.432001,40.4,inter_set_rest,7,5.0,24497.0,403431.0,195285.0,54568.0,1554.0
2026-04-09 22:38:18.204787,542540,3228104761,3228106422,-1.028704,0.128832,0.089792,3.4475,4.27875,-4.76,14.936001,-31.800001,40.432003,inter_set_rest,7,5.0,24497.0,403431.0,195285.0,54568.0,1554.0
2026-04-09 22:38:18.208447,542541,3228113714,3228115135,-1.028704,0.128832,0.089792,3.05375,5.005,-4.095,14.936001,-31.800001,40.432003,inter_set_rest,7,5.0,24497.0,403431.0,195285.0,54568.0,1554.0
2026-04-09 22:38:18.237095,542542,3228122741,3228123852,-1.013088,0.12688,0.0976,3.73625,5.425,-4.62875,15.344001,-31.536001,40.984,inter_set_rest,7,5.0,24497.0,403431.0,195285.0,54568.0,1554.0
2026-04-09 22:38:18.241587,542543,3228131700,3228132546,-1.013088,0.12688,0.0976,6.37,5.915,-5.6875,15.344001,-31.536001,40.984,inter_set_rest,7,5.0,24497.0,403431.0,195285.0,54568.0,1554.0
2026-04-09 22:38:18.243105,542544,3228146209,3228147460,-1.003328,0.140544,0.101504,7.56875,6.685,-7.07,14.920001,-31.448002,40.592003,inter_set_rest,7,5.0,24497.0,403431.0,195285.0,54568.0,1554.0
2026-04-09 22:38:18.249787,542545,3228155145,3228156212,-0.979904,0.152256,0.101504,8.198751,6.71125,-6.0725,14.920001,-31.448002,40.424004,inter_set_rest,7,5.0,24497.0,403431.0,195285.0,54568.0,1554.0
2026-04-09 22:38:18.283120,542546,3228164086,3228164909,-0.979904,0.152256,0.101504,6.9475,7.14875,-7.39375,14.448001,-31.28,40.424004,inter_set_rest,7,5.0,24497.0,403431.0,195285.0,54568.0,1554.0
2026-04-09 22:38:18.286841,542547,3228178567,3228179815,-0.977952,0.132736,0.054656,5.18,7.88375,-9.065,15.224001,-31.504002,40.392002,inter_set_rest,7,5.0,24497.0,403431.0,195285.0,54568.0,1554.0
2026-04-09 22:38:18.345502,542557,3228188124,3228188645,-0.977952,0.132736,0.054656,4.165,8.51375,-9.93125,15.224001,-31.504002,40.392002,inter_set_rest,7,5.0,24511.0,403431.0,193872.0,53794.0,1456.0
2026-04-09 22:38:18.349918,542558,3228197629,3228199580,-0.977952,0.119072,0.042944,3.1675,9.44125,-10.3075,13.928,-31.048002,41.776,inter_set_rest,7,5.0,24511.0,403431.0,193872.0,53794.0,1456.0
2026-04-09 22:38:18.351653,542559,3228206635,3228208372,-0.977952,0.119072,0.042944,1.365,10.42125,-10.15875,13.928,-31.048002,41.776,inter_set_rest,7,5.0,24511.0,403431.0,193872.0,53794.0,1456.0
2026-04-09 22:38:18.354060,542560,3228221261,3228223312,-0.981856,0.138592,0.046848,1.0675,11.05125,-11.97875,15.536001,-31.192001,40.584003,inter_set_rest,7,5.0,24511.0,403431.0,193872.0,53794.0,1456.0
2026-04-09 22:38:18.355671,542561,3228230227,3228232084,-0.981856,0.138592,0.046848,0.735,11.480001,-13.9125,15.536001,-31.192001,40.584003,inter_set_rest,7,5.0,24511.0,403431.0,193872.0,53794.0,1456.0
2026-04-09 22:38:18.359918,542562,3228239143,3228240789,-1.013088,0.134688,0.02928,-3.7275,13.37875,-14.72625,15.68,-31.328001,40.064003,inter_set_rest,7,5.0,24511.0,403431.0,193872.0,53794.0,1456.0
2026-04-09 22:38:18.362818,542563,3228253662,3228255689,-1.013088,0.134688,0.02928,-8.5225,14.665,-15.9075,15.68,-31.328001,40.064003,inter_set_rest,7,5.0,24511.0,403431.0,193872.0,53794.0,1456.0
2026-04-09 22:38:18.366071,542564,3228262673,3228264431,-1.01504,0.089792,0.0488,-11.01625,16.03875,-16.7125,15.288001,-31.088001,38.248,inter_set_rest,7,5.0,24511.0,403431.0,193872.0,53794.0,1456.0
2026-04-09 22:38:18.367350,542565,3228271664,3228273223,-1.01504,0.089792,0.0488,-11.6725,17.01875,-16.49375,15.288001,-31.088001,38.248,inter_set_rest,7,5.0,24511.0,403431.0,193872.0,53794.0,1456.0
2026-04-09 22:38:18.426522,542576,3228286666,3228288158,-0.999424,0.081984,0.040992,-11.27,18.68125,-16.3275,15.792001,-30.712002,40.456,concentric,7,5.0,24434.0,403431.0,193438.0,53683.0,1446.0
2026-04-09 22:38:18.428117,542577,3228295676,3228296973,-0.98576,0.085888,0.02928,-10.56125,21.35,-16.26625,15.792001,-32.760002,40.656002,concentric,7,5.0,24434.0,403431.0,193438.0,53683.0,1446.0
2026-04-09 22:38:18.432378,542578,3228304646,3228305722,-0.98576,0.085888,0.02928,-11.34,24.35125,-15.9425,16.104,-30.760002,40.656002,concentric,7,5.0,24434.0,403431.0,193438.0,53683.0,1446.0
2026-04-09 22:38:18.435265,542579,3228313570,3228314480,-0.98576,0.085888,0.02928,-12.04875,26.48625,-15.82875,16.104,-30.760002,40.656002,concentric,7,5.0,24434.0,403431.0,193438.0,53683.0,1446.0
2026-04-09 22:38:18.439362,542580,3228328153,3228329523,-0.977952,0.101504,0.021472,-11.27875,27.6675,-16.70375,15.488001,-30.496002,41.024002,concentric,7,5.0,24434.0,403431.0,193438.0,53683.0,1446.0
2026-04-09 22:38:18.442664,542581,3228337188,3228338258,-0.99552,0.113216,0.007808,-10.3775,28.8925,-17.9375,16.12,-29.608002,41.256,concentric,7,5.0,24434.0,403431.0,193438.0,53683.0,1446.0
2026-04-09 22:38:18.445739,542582,3228346117,3228347045,-0.99552,0.113216,0.007808,-10.815,28.9625,-19.41625,16.12,-29.608002,41.256,concentric,7,5.0,24434.0,403431.0,193438.0,53683.0,1446.0
2026-04-09 22:38:18.475876,542583,3228360631,3228361968,-0.98576,0.076128,0.021472,-13.25625,28.00875,-19.66125,15.896001,-30.624,41.392002,concentric,7,5.0,24434.0,403431.0,193438.0,53683.0,1446.0
2026-04-09 22:38:18.479389,542584,3228369572,3228370684,-0.98576,0.076128,0.021472,-14.91875,27.95625,-19.95875,15.896001,-30.624,41.392002,concentric,7,5.0,24434.0,403431.0,193438.0,53683.0,1446.0
2026-04-09 22:38:18.481831,542585,3228378502,3228379375,-0.98576,0.062464,0.044896,-12.7225,28.411251,-20.2475,16.800001,-30.304,40.248,concentric,7,5.0,24434.0,403431.0,193438.0,53683.0,1446.0
2026-04-09 22:38:18.510597,542595,3228387973,3228388587,-0.98576,0.062464,0.044896,-10.21125,30.09125,-20.615,16.800001,-30.304,40.248,concentric,7,5.0,24344.0,403431.0,193894.0,54460.0,1524.0
2026-04-09 22:38:18.513113,542596,3228402935,3228403576,-0.987712,0.103456,0.054656,-7.77,31.22875,-20.65,16.480001,-29.800001,42.256,concentric,7,5.0,24344.0,403431.0,193894.0,54460.0,1524.0
2026-04-09 22:38:18.515598,542597,3228412334,3228414355,-0.987712,0.103456,0.054656,-7.84,31.745,-20.74625,16.480001,-29.800001,42.256,concentric,7,5.0,24344.0,403431.0,193894.0,54460.0,1524.0
2026-04-09 22:38:18.518084,542598,3228421288,3228423062,-1.022848,0.072224,0.005856,-9.5025,32.19125,-20.8075,16.776001,-29.968002,41.216003,concentric,7,5.0,24344.0,403431.0,193894.0,54460.0,1524.0
2026-04-09 22:38:18.525331,542599,3228430331,3228431774,-1.022848,0.072224,0.005856,-12.52125,31.80625,-19.8275,16.776001,-29.968002,41.216003,concentric,7,5.0,24344.0,403431.0,193894.0,54460.0,1524.0
2026-04-09 22:38:18.554673,542600,3228444825,3228446698,-1.050176,0.021472,0.01952,-13.51,30.73875,-18.24375,17.84,-29.768002,39.920002,concentric,7,5.0,24344.0,403431.0,193894.0,54460.0,1524.0
2026-04-09 22:38:18.558174,542601,3228453741,3228455397,-1.050176,0.021472,0.01952,-13.0025,30.1875,-16.975,17.84,-29.768002,39.920002,concentric,7,5.0,24344.0,403431.0,193894.0,54460.0,1524.0
2026-04-09 22:38:18.560669,542602,3228462678,3228464125,-1.0736,0.042944,0.035136,-10.57875,29.53125,-15.82,18.464,-29.44,39.976,concentric,7,5.0,24344.0,403431.0,193894.0,54460.0,1524.0
2026-04-09 22:38:18.590790,542603,3228477166,3228479077,-1.08336,0.052704,0.025376,-7.91,28.65625,-14.74375,18.696001,-29.392002,39.632004,concentric,7,5.0,24344.0,403431.0,193894.0,54460.0,1524.0
2026-04-09 22:38:18.670581,542613,3228486081,3228487824,-1.08336,0.052704,0.025376,-7.98875,27.51875,-12.775,18.696001,-29.392002,39.632004,concentric,7,5.0,24195.0,403431.0,196224.0,56631.0,1796.0
2026-04-09 22:38:18.673111,542614,3228495542,3228496532,-1.08336,0.052704,0.025376,-7.42,25.585001,-11.935,18.696001,-29.392002,39.632004,concentric,7,5.0,24195.0,403431.0,196224.0,56631.0,1796.0
2026-04-09 22:38:18.675601,542615,3228504461,3228505237,-1.0736,0.06832,0.031232,-4.66375,23.765,-12.6525,18.368,-29.216002,39.152,concentric,7,5.0,24195.0,403431.0,196224.0,56631.0,1796.0
2026-04-09 22:38:18.678146,542616,3228518962,3228520192,-1.067744,0.076128,0.0488,-2.58125,23.31,-12.27625,18.784,-29.528002,38.920002,concentric,7,5.0,24195.0,403431.0,196224.0,56631.0,1796.0
2026-04-09 22:38:18.684480,542617,3228527849,3228528926,-1.067744,0.076128,0.0488,-4.01625,23.0475,-12.3375,18.784,-29.528002,38.920002,concentric,7,5.0,24195.0,403431.0,196224.0,56631.0,1796.0
2026-04-09 22:38:18.686818,542618,3228536743,3228537567,-1.067744,0.0488,0.007808,-9.49375,23.30125,-12.53875,18.784,-29.144001,39.112003,concentric,7,5.0,24195.0,403431.0,196224.0,56631.0,1796.0
2026-04-09 22:38:18.689361,542619,3228551253,3228552471,-1.067744,0.0488,0.007808,-13.440001,21.95375,-12.25875,18.888,-29.144001,39.112003,concentric,7,5.0,24195.0,403431.0,196224.0,56631.0,1796.0
2026-04-09 22:38:18.691858,542620,3228560119,3228561210,-1.036512,0.021472,-0.013664,-16.3625,20.51875,-11.27875,19.224,-29.400002,39.320004,concentric,7,5.0,24195.0,403431.0,196224.0,56631.0,1796.0
2026-04-09 22:38:18.694304,542621,3228569030,3228569902,-1.036512,0.021472,-0.013664,-16.31,19.022501,-9.40625,19.224,-29.400002,39.320004,concentric,7,5.0,24195.0,403431.0,196224.0,56631.0,1796.0
2026-04-09 22:38:18.696815,542622,3228583621,3228584969,-1.0248,0.03904,-0.013664,-11.917501,17.955,-9.485,17.776001,-28.968002,41.144,concentric,7,5.0,24195.0,403431.0,196224.0,56631.0,1796.0
2026-04-09 22:38:18.725564,542632,3228592680,3228594065,-1.0248,0.03904,-0.013664,-6.29125,16.2575,-9.89625,17.776001,-28.968002,41.144,concentric,7,5.0,24079.0,403431.0,198196.0,58372.0,2022.0
2026-04-09 22:38:18.728051,542633,3228601657,3228602823,-1.042368,0.093696,-0.027328,-2.38,15.505,-9.23125,19.248001,-29.04,39.096,concentric,7,5.0,24079.0,403431.0,198196.0,58372.0,2022.0
2026-04-09 22:38:18.730564,542634,3228616251,3228617745,-1.042368,0.093696,-0.027328,-1.74125,15.56625,-8.91625,19.248001,-29.04,39.096,concentric,7,5.0,24079.0,403431.0,198196.0,58372.0,2022.0
2026-04-09 22:38:18.733056,542635,3228625168,3228626597,-1.052128,0.06832,-0.013664,-4.06875,13.18625,-9.5375,19.912,-29.008001,38.656002,concentric,7,5.0,24079.0,403431.0,198196.0,58372.0,2022.0
2026-04-09 22:38:18.735600,542636,3228634168,3228635401,-1.052128,0.06832,-0.013664,-3.78875,11.24375,-9.24875,19.912,-29.008001,38.656002,concentric,7,5.0,24079.0,403431.0,198196.0,58372.0,2022.0
2026-04-09 22:38:18.738121,542637,3228643061,3228644143,-1.048224,0.089792,0.023424,-0.2275,10.29875,-8.3475,18.952002,-29.168001,40.536003,concentric,7,5.0,24079.0,403431.0,198196.0,58372.0,2022.0
2026-04-09 22:38:18.768243,542638,3228657538,3228659078,-1.04432,0.103456,0.0,2.6075,9.58125,-8.51375,19.576,-29.248001,39.536003,concentric,7,5.0,24079.0,403431.0,198196.0,58372.0,2022.0
2026-04-09 22:38:18.771888,542639,3228666433,3228667771,-1.04432,0.103456,0.0,3.43,9.2225,-8.77625,19.576,-29.248001,39.536003,concentric,7,5.0,24079.0,403431.0,198196.0,58372.0,2022.0
2026-04-09 22:38:18.774325,542640,3228675350,3228676483,-1.04432,0.103456,0.0,4.03375,9.1175,-9.1525,19.576,-29.248001,39.536003,concentric,7,5.0,24079.0,403431.0,198196.0,58372.0,2022.0
2026-04-09 22:38:18.805485,542651,3228689919,3228691507,-1.091168,0.099552,-0.011712,5.11,9.26625,-10.24625,20.384,-28.840002,38.528004,concentric,7,5.0,24117.0,403431.0,200726.0,60051.0,2273.0
2026-04-09 22:38:18.808086,542652,3228699169,3228700284,-1.09312,0.121024,-0.01952,9.2225,8.4875,-11.2175,19.432001,-29.152002,39.352,concentric,7,5.0,24117.0,403431.0,200726.0,60051.0,2273.0
2026-04-09 22:38:18.810592,542653,3228708099,3228708994,-1.09312,0.121024,-0.01952,9.98375,7.84875,-11.76,19.432001,-29.152002,39.352,concentric,7,5.0,24117.0,403431.0,200726.0,60051.0,2273.0
2026-04-09 22:38:18.815644,542654,3228722722,3228724012,-1.057984,0.085888,-0.021472,11.41875,6.60625,-11.52375,19.736,-28.680002,38.896004,concentric,7,5.0,24117.0,403431.0,200726.0,60051.0,2273.0
2026-04-09 22:38:18.845971,542655,3228731729,3228732728,-1.057984,0.085888,-0.021472,11.4275,5.29375,-10.43875,19.736,-28.680002,38.896004,concentric,7,5.0,24117.0,403431.0,200726.0,60051.0,2273.0
2026-04-09 22:38:18.849206,542656,3228740705,3228741431,-1.046272,0.076128,-0.023424,10.70125,4.3925,-8.2425,20.36,-28.816002,38.800003,concentric,7,5.0,24117.0,403431.0,200726.0,60051.0,2273.0
2026-04-09 22:38:18.852168,542657,3228750056,3228752204,-1.046272,0.076128,-0.023424,10.98125,4.0075,-7.5775,20.36,-28.816002,38.800003,concentric,7,5.0,24117.0,403431.0,200726.0,60051.0,2273.0
2026-04-09 22:38:18.855654,542658,3228764666,3228765097,-1.095072,0.080032,-0.025376,13.51,4.26125,-8.5225,20.36,-28.616001,40.328003,concentric,7,5.0,24117.0,403431.0,200726.0,60051.0,2273.0
2026-04-09 22:38:18.887285,542659,3228773972,3228775860,-1.095072,0.080032,-0.025376,16.02125,4.375,-9.03875,20.36,-28.616001,40.328003,concentric,7,5.0,24117.0,403431.0,200726.0,60051.0,2273.0
2026-04-09 22:38:18.890541,542660,3228782890,3228784555,-1.08336,0.066368,0.0,16.96625,3.57,-9.40625,20.944,-28.768002,38.128002,concentric,7,5.0,24117.0,403431.0,200726.0,60051.0,2273.0
2026-04-09 22:38:18.959542,542670,3228797430,3228799472,-1.08336,0.03904,0.003904,15.3125,1.9075,-9.56375,20.944,-28.768002,38.128002,concentric,7,5.0,24196.0,403431.0,200199.0,59489.0,2170.0
2026-04-09 22:38:18.995800,542671,3228806366,3228808212,-1.042368,0.03904,0.003904,11.375,0.25375,-8.6975,20.744001,-29.256,38.68,concentric,7,5.0,24196.0,403431.0,200199.0,59489.0,2170.0
2026-04-09 22:38:19.000128,542672,3228815373,3228816987,-1.042368,0.03904,0.003904,8.785,-0.385,-7.9275,20.744001,-29.256,38.68,concentric,7,5.0,24196.0,403431.0,200199.0,59489.0,2170.0
2026-04-09 22:38:19.002149,542673,3228824433,3228825733,-1.059936,0.023424,-0.003904,11.042501,-0.945,-8.72375,20.664001,-29.176,38.600002,concentric,7,5.0,24196.0,403431.0,200199.0,59489.0,2170.0
2026-04-09 22:38:19.004358,542674,3228838946,3228840683,-1.048224,0.085888,0.005856,10.605001,-0.74375,-8.9775,20.568,-29.320002,38.064003,concentric,7,5.0,24196.0,403431.0,200199.0,59489.0,2170.0
2026-04-09 22:38:19.006859,542675,3228847909,3228849409,-1.048224,0.085888,0.005856,7.315,-0.2275,-8.995,20.568,-29.320002,38.064003,concentric,7,5.0,24196.0,403431.0,200199.0,59489.0,2170.0
2026-04-09 22:38:19.009394,542676,3228856821,3228858104,-1.048224,0.085888,0.005856,1.1725,-0.035,-10.535,20.568,-29.320002,38.064003,concentric,7,5.0,24196.0,403431.0,200199.0,59489.0,2170.0
2026-04-09 22:38:19.011786,542677,3228871327,3228873031,-1.067744,0.050752,-0.017568,-4.3925,0.0,-11.64625,20.656,-29.680002,40.36,concentric,7,5.0,24196.0,403431.0,200199.0,59489.0,2170.0
2026-04-09 22:38:19.014440,542678,3228880274,3228881726,-1.04432,0.021472,-0.015616,-4.78625,-1.155,-11.31375,20.616001,-29.336,38.392002,concentric,7,5.0,24196.0,403431.0,200199.0,59489.0,2170.0
2026-04-09 22:38:19.041863,542688,3228889197,3228890389,-1.04432,0.021472,-0.015616,-1.9775,-2.70375,-10.3425,20.616001,-29.336,38.392002,concentric,7,5.0,24282.0,403431.0,199422.0,58880.0,2070.0
2026-04-09 22:38:19.044829,542689,3228903731,3228905282,-1.026752,0.064416,-0.017568,2.52875,-4.2875,-9.2225,21.136002,-29.088001,38.136,concentric,7,5.0,24282.0,403431.0,199422.0,58880.0,2070.0
2026-04-09 22:38:19.046902,542690,3228912702,3228914036,-1.026752,0.064416,-0.017568,5.17125,-4.5675,-8.7675,21.136002,-29.088001,38.136,concentric,7,5.0,24282.0,403431.0,199422.0,58880.0,2070.0
2026-04-09 22:38:19.049342,542691,3228921647,3228922758,-1.087264,0.054656,-0.056608,3.82375,-3.3425,-9.05625,20.640001,-29.312002,39.224003,concentric,7,5.0,24282.0,403431.0,199422.0,58880.0,2070.0
2026-04-09 22:38:19.051865,542692,3228930743,3228931527,-1.087264,0.054656,-0.056608,1.365,-2.79125,-9.30125,20.640001,-29.312002,39.224003,concentric,7,5.0,24282.0,403431.0,199422.0,58880.0,2070.0
2026-04-09 22:38:19.054339,542693,3228945304,3228946456,-1.05408,0.02928,-0.040992,0.525,-3.885,-10.12375,20.568,-29.28,37.512,concentric,7,5.0,24282.0,403431.0,199422.0,58880.0,2070.0
2026-04-09 22:38:19.056877,542694,3228954245,3228955192,-1.05408,0.02928,-0.040992,4.5325,-5.55625,-10.85875,20.568,-29.28,37.512,concentric,7,5.0,24282.0,403431.0,199422.0,58880.0,2070.0
2026-04-09 22:38:19.059341,542695,3228963168,3228964013,-1.018944,0.052704,0.011712,9.65125,-6.41375,-9.98375,20.528002,-29.832,39.768,concentric,7,5.0,24282.0,403431.0,199422.0,58880.0,2070.0
2026-04-09 22:38:19.089537,542696,3228977651,3228978928,-1.018944,0.052704,0.011712,12.18875,-7.49875,-8.645,20.528002,-29.832,39.768,concentric,7,5.0,24282.0,403431.0,199422.0,58880.0,2070.0
2026-04-09 22:38:19.093120,542697,3228986558,3228987658,-1.011136,0.052704,-0.00976,11.9875,-6.60625,-8.44375,21.224,-29.728,39.928,concentric,7,5.0,24282.0,403431.0,199422.0,58880.0,2070.0
2026-04-09 22:38:19.120536,542708,3228995541,3228996430,-1.011136,0.052704,-0.00976,10.22875,-5.1975,-8.25125,21.224,-29.728,39.928,concentric,7,5.0,24347.0,403431.0,198595.0,58114.0,1954.0
2026-04-09 22:38:19.123106,542709,3229010123,3229011416,-1.052128,0.054656,-0.042944,6.895,-3.12375,-8.30375,21.072,-29.504002,38.224003,concentric,7,5.0,24347.0,403431.0,198595.0,58114.0,1954.0
2026-04-09 22:38:19.125601,542710,3229019053,3229020226,-1.071648,-0.007808,-0.083936,4.34,-2.65125,-8.72375,20.832,-29.136002,39.52,concentric,7,5.0,24347.0,403431.0,198595.0,58114.0,1954.0
2026-04-09 22:38:19.128109,542711,3229027997,3229028947,-1.071648,-0.007808,-0.083936,3.14125,-3.05375,-8.68,20.832,-29.136002,39.52,concentric,7,5.0,24347.0,403431.0,198595.0,58114.0,1954.0
2026-04-09 22:38:19.158749,542712,3229042565,3229043847,-1.04432,0.035136,-0.007808,5.5125,-3.84125,-8.21625,20.296001,-29.312002,38.944,concentric,7,5.0,24347.0,403431.0,198595.0,58114.0,1954.0
2026-04-09 22:38:19.161947,542713,3229051498,3229052613,-1.04432,0.035136,-0.007808,12.3725,-4.82125,-7.1225,20.296001,-29.312002,38.944,concentric,7,5.0,24347.0,403431.0,198595.0,58114.0,1954.0
2026-04-09 22:38:19.165018,542714,3229060468,3229061299,-1.0248,0.083936,0.003904,17.535,-5.355,-6.5625,22.112001,-29.2,37.456,concentric,7,5.0,24347.0,403431.0,198595.0,58114.0,1954.0
2026-04-09 22:38:19.166926,542715,3229069381,3229069988,-1.0248,0.083936,0.003904,16.94,-4.4975,-6.22125,22.112001,-29.2,37.456,concentric,7,5.0,24347.0,403431.0,198595.0,58114.0,1954.0
2026-04-09 22:38:19.197099,542716,3229084226,3229084942,-1.089216,0.050752,-0.074176,11.99625,-3.31625,-6.48375,21.36,-29.696001,38.08,concentric,7,5.0,24347.0,403431.0,198595.0,58114.0,1954.0
2026-04-09 22:38:19.259411,542726,3229093667,3229095798,-1.089216,0.050752,-0.074176,6.93875,-2.45,-6.88625,21.36,-29.696001,38.08,concentric,7,5.0,24449.0,403431.0,196936.0,56510.0,1754.0
2026-04-09 22:38:19.261903,542727,3229102790,3229104489,-1.114592,0.05856,-0.046848,3.5175,-4.05125,-7.16625,21.160002,-29.472002,37.728,concentric,7,5.0,24449.0,403431.0,196936.0,56510.0,1754.0
2026-04-09 22:38:19.268228,542728,3229111721,3229113188,-1.114592,0.05856,-0.046848,3.9025,-4.78625,-6.85125,21.160002,-29.472002,37.728,concentric,7,5.0,24449.0,403431.0,196936.0,56510.0,1754.0
2026-04-09 22:38:19.270638,542729,3229126276,3229128123,-1.069696,-0.001952,0.021472,11.261251,-5.4075,-10.9025,21.128,-29.016,40.120003,concentric,7,5.0,24449.0,403431.0,196936.0,56510.0,1754.0
2026-04-09 22:38:19.273156,542730,3229135270,3229136825,-1.069696,-0.001952,0.021472,15.9775,-5.90625,-12.15375,21.128,-29.016,40.120003,concentric,7,5.0,24449.0,403431.0,196936.0,56510.0,1754.0
2026-04-09 22:38:19.275703,542731,3229144193,3229145528,-1.018944,0.111264,0.0488,16.5725,-5.39875,-8.4525,21.608002,-29.704,37.968002,concentric,7,5.0,24449.0,403431.0,196936.0,56510.0,1754.0
2026-04-09 22:38:19.278144,542732,3229158739,3229160467,-1.018944,0.080032,-0.00976,11.0075,-4.41,-9.14375,21.608002,-29.704,37.968002,concentric,7,5.0,24449.0,403431.0,196936.0,56510.0,1754.0
2026-04-09 22:38:19.283081,542733,3229167813,3229169199,-1.139968,0.083936,-0.00976,11.97875,-4.5325,-12.97625,21.672,-29.712002,37.84,concentric,7,5.0,24449.0,403431.0,196936.0,56510.0,1754.0
2026-04-09 22:38:19.285623,542734,3229176752,3229177907,-1.139968,0.083936,-0.00976,10.70125,-1.2775,-15.627501,21.672,-29.712002,37.84,concentric,7,5.0,24449.0,403431.0,196936.0,56510.0,1754.0
2026-04-09 22:38:19.310606,542744,3229191777,3229193099,-1.24928,0.072224,-0.0488,0.07875,-1.14625,-15.47875,22.320002,-30.04,39.872,concentric,7,5.0,22686.0,403431.0,206453.0,64210.0,3091.0
2026-04-09 22:38:19.313082,542745,3229200852,3229201931,-1.126304,0.05856,-0.03904,-3.43875,-1.785,-13.18625,21.568,-29.208002,38.600002,concentric,7,5.0,22686.0,403431.0,206453.0,64210.0,3091.0
2026-04-09 22:38:19.315668,542746,3229209830,3229210641,-1.126304,0.05856,-0.03904,-7.95375,-1.84625,-13.667501,21.568,-29.208002,38.600002,concentric,7,5.0,22686.0,403431.0,206453.0,64210.0,3091.0
2026-04-09 22:38:19.318144,542747,3229218770,3229219349,-1.126304,0.05856,-0.072224,-10.15875,-1.5225,-15.417501,21.568,-29.208002,38.600002,concentric,7,5.0,22686.0,403431.0,206453.0,64210.0,3091.0
2026-04-09 22:38:19.348448,542748,3229233533,3229234268,-1.095072,-0.050752,-0.072224,-1.3125,-0.77875,-15.61,22.344002,-28.808,39.288002,concentric,7,5.0,22686.0,403431.0,206453.0,64210.0,3091.0
2026-04-09 22:38:19.351941,542749,3229242993,3229245061,-1.11264,0.023424,-0.085888,6.265,0.21,-14.63,22.432001,-28.928001,38.304,concentric,7,5.0,22686.0,403431.0,206453.0,64210.0,3091.0
2026-04-09 22:38:19.354370,542750,3229251938,3229253753,-1.11264,0.023424,-0.085888,6.43125,-0.63875,-10.7625,22.432001,-28.928001,38.304,concentric,7,5.0,22686.0,403431.0,206453.0,64210.0,3091.0
2026-04-09 22:38:19.356872,542751,3229260869,3229262459,-1.155584,-0.001952,-0.052704,17.19375,-1.58375,-10.85875,22.184002,-29.936,37.608,concentric,7,5.0,22686.0,403431.0,206453.0,64210.0,3091.0
2026-04-09 22:38:19.387100,542752,3229275363,3229277357,-1.155584,-0.001952,-0.052704,21.76125,-1.61,-14.096251,22.184002,-29.936,37.608,concentric,7,5.0,22686.0,403431.0,206453.0,64210.0,3091.0
2026-04-09 22:38:19.390746,542753,3229284286,3229286123,-1.155584,0.0488,-0.054656,18.20875,-1.1375,-11.9525,22.816002,-29.704,37.904003,concentric,7,5.0,22686.0,403431.0,206453.0,64210.0,3091.0
2026-04-09 22:38:19.420605,542764,3229293322,3229294871,-1.155584,0.0488,-0.054656,13.78125,-0.665,-9.16125,22.816002,-29.704,37.904003,concentric,7,5.0,23082.0,403431.0,201360.0,59526.0,2284.0
2026-04-09 22:38:19.423148,542765,3229307903,3229309936,-1.155584,0.011712,-0.111264,12.36375,-0.875,-10.77125,22.648,-29.968002,38.008003,concentric,7,5.0,23082.0,403431.0,201360.0,59526.0,2284.0
2026-04-09 22:38:19.425617,542766,3229316911,3229318741,-1.155584,0.011712,-0.111264,13.23875,-0.9975,-11.3575,22.648,-29.968002,38.008003,concentric,7,5.0,23082.0,403431.0,201360.0,59526.0,2284.0
2026-04-09 22:38:19.428155,542767,3229325941,3229327466,-1.177056,0.01952,-0.01952,16.10875,-0.84875,-10.26375,22.28,-29.776001,38.472,concentric,7,5.0,23082.0,403431.0,201360.0,59526.0,2284.0
2026-04-09 22:38:19.434362,542768,3229340433,3229342416,-1.145824,0.056608,0.064416,18.03375,-0.70875,-11.10375,22.688002,-28.952002,38.232002,concentric,7,5.0,23082.0,403431.0,201360.0,59526.0,2284.0
2026-04-09 22:38:19.464589,542769,3229349353,3229351118,-1.145824,0.056608,0.064416,17.36,-0.0175,-10.7625,22.688002,-28.952002,38.232002,concentric,7,5.0,23082.0,403431.0,201360.0,59526.0,2284.0
2026-04-09 22:38:19.469429,542770,3229358271,3229359782,-1.145824,0.056608,0.064416,13.25625,1.37375,-9.59875,22.688002,-28.952002,38.232002,concentric,7,5.0,23082.0,403431.0,201360.0,59526.0,2284.0
2026-04-09 22:38:19.471934,542771,3229372759,3229374734,-1.179008,0.037088,0.023424,6.0375,4.22625,-8.8725,23.056002,-29.608002,35.456,concentric,7,5.0,23082.0,403431.0,201360.0,59526.0,2284.0
2026-04-09 22:38:19.475701,542772,3229381742,3229383452,-1.153632,0.00976,-0.070272,2.555,5.48625,-8.65375,23.000002,-29.752,37.744003,concentric,7,5.0,23082.0,403431.0,201360.0,59526.0,2284.0
2026-04-09 22:38:19.566452,542782,3229390702,3229392102,-1.153632,0.00976,-0.070272,2.1,5.57375,-8.81125,23.000002,-29.752,37.744003,concentric,7,5.0,23082.0,403431.0,201833.0,59920.0,2345.0
2026-04-09 22:38:19.568466,542783,3229399631,3229400816,-1.153632,-0.005856,-0.060512,2.835,5.285,-8.9075,23.000002,-29.752,37.744003,concentric,7,5.0,23082.0,403431.0,201833.0,59920.0,2345.0
2026-04-09 22:38:19.570622,542784,3229414101,3229415705,-1.163392,-0.007808,-0.060512,4.2,5.075,-7.56875,23.12,-29.36,37.968002,concentric,7,5.0,23082.0,403431.0,201833.0,59920.0,2345.0
2026-04-09 22:38:19.573211,542785,3229423017,3229424538,-1.110688,0.033184,0.021472,5.38125,4.8125,-6.76375,22.560001,-29.928001,40.064003,concentric,7,5.0,23082.0,403431.0,201833.0,59920.0,2345.0
2026-04-09 22:38:19.575648,542786,3229431950,3229433274,-1.110688,0.033184,0.021472,4.4625,4.9525,-5.90625,22.560001,-29.928001,40.064003,concentric,7,5.0,23082.0,403431.0,201833.0,59920.0,2345.0
2026-04-09 22:38:19.580742,542787,3229446405,3229448191,-1.106784,0.081984,0.031232,0.4375,6.055,-6.1075,23.44,-29.720001,37.640003,concentric,7,5.0,23082.0,403431.0,201833.0,59920.0,2345.0
2026-04-09 22:38:19.584931,542788,3229455306,3229456881,-1.106784,0.081984,0.031232,-6.20375,7.35,-8.0325,23.44,-29.720001,37.640003,concentric,7,5.0,23082.0,403431.0,201833.0,59920.0,2345.0
2026-04-09 22:38:19.586681,542789,3229464251,3229465584,-1.208288,0.01952,-0.121024,-9.8,7.34125,-10.43,22.824001,-29.640001,37.960003,concentric,7,5.0,23082.0,403431.0,201833.0,59920.0,2345.0
2026-04-09 22:38:19.588180,542790,3229478765,3229480513,-1.208288,0.01952,-0.121024,-11.52375,7.69125,-12.18875,22.824001,-29.640001,37.960003,concentric,7,5.0,23082.0,403431.0,201833.0,59920.0,2345.0
2026-04-09 22:38:19.592469,542791,3229487734,3229489204,-1.202432,-0.095648,-0.10736,-10.823751,5.775,-12.60875,23.304,-29.608002,38.128002,concentric,7,5.0,23082.0,403431.0,201833.0,59920.0,2345.0
2026-04-09 22:38:19.619157,542801,3229496823,3229497927,-1.202432,-0.095648,-0.10736,0.21,2.44125,-10.45625,23.304,-29.608002,38.128002,concentric,7,5.0,21157.0,403431.0,212428.0,68662.0,4319.0
2026-04-09 22:38:19.620731,542802,3229505773,3229506686,-1.1224,-0.037088,0.072224,5.41625,3.01,-7.97125,23.288002,-29.536001,37.496002,concentric,7,5.0,21157.0,403431.0,212428.0,68662.0,4319.0
2026-04-09 22:38:19.624090,542803,3229520319,3229521612,-1.1224,0.105408,0.050752,5.36375,3.325,-7.41125,23.288002,-29.536001,38.744003,concentric,7,5.0,21157.0,403431.0,212428.0,68662.0,4319.0
2026-04-09 22:38:19.625614,542804,3229529230,3229530339,-1.110688,0.105408,0.050752,10.2025,3.0275,-9.10875,23.568,-29.52,38.744003,concentric,7,5.0,21157.0,403431.0,212428.0,68662.0,4319.0
2026-04-09 22:38:19.632445,542805,3229538250,3229539079,-1.110688,0.105408,0.050752,9.835,4.6025,-10.823751,23.568,-29.52,38.744003,concentric,7,5.0,21157.0,403431.0,212428.0,68662.0,4319.0
2026-04-09 22:38:19.661043,542806,3229552726,3229553973,-1.218048,0.042944,-0.05856,0.46375,6.25625,-11.6725,23.312,-28.920002,35.104,concentric,7,5.0,21157.0,403431.0,212428.0,68662.0,4319.0
2026-04-09 22:38:19.665390,542807,3229561610,3229562709,-1.167296,-0.070272,-0.050752,-7.6825,6.16875,-12.6525,23.52,-29.584002,37.392002,concentric,7,5.0,21157.0,403431.0,212428.0,68662.0,4319.0
2026-04-09 22:38:19.666994,542808,3229570611,3229571421,-1.167296,-0.070272,-0.050752,-8.5225,5.74875,-13.83375,23.52,-29.584002,37.392002,concentric,7,5.0,21157.0,403431.0,212428.0,68662.0,4319.0
2026-04-09 22:38:19.698471,542809,3229585082,3229586386,-1.110688,-0.001952,0.02928,-5.39,3.78875,-14.11375,23.080002,-29.208002,38.624,concentric,7,5.0,21157.0,403431.0,212428.0,68662.0,4319.0
2026-04-09 22:38:19.736180,542820,3229594036,3229595313,-1.110688,-0.001952,0.02928,-2.35375,2.065,-11.96125,23.080002,-29.208002,38.624,concentric,7,5.0,20580.0,403431.0,215766.0,71147.0,4955.0
2026-04-09 22:38:19.737922,542821,3229603087,3229604136,-1.18096,0.02928,0.021472,-0.315,2.31,-10.63125,23.984001,-29.28,37.600002,concentric,7,5.0,20580.0,403431.0,215766.0,71147.0,4955.0
2026-04-09 22:38:19.739453,542822,3229617573,3229619054,-1.18096,0.02928,0.021472,-4.0075,2.625,-10.43875,23.984001,-29.28,37.600002,concentric,7,5.0,20580.0,403431.0,215766.0,71147.0,4955.0
2026-04-09 22:38:19.743703,542823,3229626619,3229627842,-1.155584,-0.011712,-0.005856,-10.17625,2.87875,-10.19375,23.536001,-28.768002,38.168003,concentric,7,5.0,20580.0,403431.0,215766.0,71147.0,4955.0
2026-04-09 22:38:19.745372,542824,3229635643,3229636544,-1.155584,-0.011712,-0.005856,-13.965,3.00125,-11.0075,23.536001,-28.768002,38.168003,concentric,7,5.0,20580.0,403431.0,215766.0,71147.0,4955.0
2026-04-09 22:38:19.747065,542825,3229644596,3229645311,-1.143872,-0.06832,-0.02928,-15.77625,2.89625,-9.8,22.800001,-29.048002,39.104,concentric,7,5.0,20580.0,403431.0,215766.0,71147.0,4955.0
