pc_time,serial_num,sensor_ts,host_ts,ax,ay,az,gx,gy,gz,mx,my,mz,phase,rpe,weight_kg,ppg_a,ppg_b,ppg_c,ppg_d,ppg_e
2026-04-09 22:03:31.607363,165747,1141645981,1141647484,0.75152,-0.599264,0.054656,3.85,10.22,-8.5225,-18.808,20.768002,18.144001,eccentric,4,3.0,39318.0,341507.0,89774.0,-67.0,-126.0
2026-04-09 22:03:31.609901,165748,1141654954,1141656289,0.76128,-0.612928,0.05856,3.71,9.77375,-9.40625,-18.808,20.992,20.792002,eccentric,4,3.0,39318.0,341507.0,89774.0,-67.0,-126.0
2026-04-09 22:03:31.612602,165749,1141664010,1141665017,0.76128,-0.612928,0.05856,3.815,9.09125,-10.07125,-19.336,20.992,20.792002,eccentric,4,3.0,39318.0,341507.0,89774.0,-67.0,-126.0
2026-04-09 22:03:31.616213,165750,1141673014,1141673727,0.76128,-0.612928,0.05856,3.12375,8.4875,-10.78,-19.336,20.992,20.792002,eccentric,4,3.0,39318.0,341507.0,89774.0,-67.0,-126.0
2026-04-09 22:03:31.646419,165751,1141687919,1141688631,0.755424,-0.597312,0.050752,4.34875,7.21875,-10.99875,-19.072,20.912,21.328001,eccentric,4,3.0,39318.0,341507.0,89774.0,-67.0,-126.0
2026-04-09 22:03:31.649881,165752,1141697295,1141699477,0.745664,-0.583648,0.070272,5.6,5.7925,-11.375,-19.816002,20.728,17.872002,eccentric,4,3.0,39318.0,341507.0,89774.0,-67.0,-126.0
2026-04-09 22:03:31.652393,165753,1141706218,1141708180,0.745664,-0.583648,0.070272,4.7425,5.06625,-11.6375,-19.816002,20.728,17.872002,eccentric,4,3.0,39318.0,341507.0,89774.0,-67.0,-126.0
2026-04-09 22:03:31.658657,165754,1141715175,1141716899,0.755424,-0.60512,0.07808,2.65125,4.2875,-12.29375,-19.816002,21.000002,17.536001,eccentric,4,3.0,39318.0,341507.0,89774.0,-67.0,-126.0
2026-04-09 22:03:31.688943,165755,1141729741,1141731796,0.755424,-0.60512,0.07808,1.35625,3.7625,-11.8125,-19.664001,21.000002,17.536001,eccentric,4,3.0,39318.0,341507.0,89774.0,-67.0,-126.0
2026-04-09 22:03:31.692440,165756,1141738817,1141740490,0.77104,-0.587552,0.07808,1.7675,3.255,-11.68125,-19.328001,20.488,17.952002,eccentric,4,3.0,39318.0,341507.0,89774.0,-67.0,-126.0
2026-04-09 22:03:31.719867,165767,1141747807,1141749297,0.77104,-0.587552,0.07808,2.485,3.91125,-11.59375,-19.328001,20.488,17.952002,eccentric,4,3.0,39361.0,341192.0,89595.0,-61.0,-150.0
2026-04-09 22:03:31.722381,165768,1141762465,1141764187,0.774944,-0.593408,0.066368,1.96,3.92,-11.7425,-19.864,20.36,19.088001,eccentric,4,3.0,39361.0,341192.0,89595.0,-61.0,-150.0
2026-04-09 22:03:31.724953,165769,1141771528,1141772919,0.774944,-0.593408,0.066368,2.30125,2.975,-11.5325,-19.864,20.36,19.088001,eccentric,4,3.0,39361.0,341192.0,89595.0,-61.0,-150.0
2026-04-09 22:03:31.727376,165770,1141780518,1141781675,0.7808,-0.573888,0.066368,3.325,1.70625,-11.025,-20.184,20.744001,18.192001,eccentric,4,3.0,39361.0,341192.0,89595.0,-61.0,-150.0
2026-04-09 22:03:31.757690,165771,1141795012,1141796600,0.7808,-0.589504,0.083936,2.765,0.69125,-10.22875,-20.184,20.744001,18.192001,eccentric,4,3.0,39361.0,341192.0,89595.0,-61.0,-150.0
2026-04-09 22:03:31.761355,165772,1141803899,1141805294,0.792512,-0.5856,0.083936,0.2625,0.8575,-9.9225,-19.272001,20.464,17.176,eccentric,4,3.0,39361.0,341192.0,89595.0,-61.0,-150.0
2026-04-09 22:03:31.768731,165773,1141812867,1141814010,0.792512,-0.5856,0.083936,-0.79625,1.0325,-9.33625,-19.272001,20.464,17.176,eccentric,4,3.0,39361.0,341192.0,89595.0,-61.0,-150.0
2026-04-09 22:03:31.771180,165774,1141821792,1141822702,0.806176,-0.577792,0.076128,-0.7525,1.26875,-8.70625,-19.76,20.376001,18.400002,eccentric,4,3.0,39361.0,341192.0,89595.0,-61.0,-150.0
2026-04-09 22:03:31.801363,165775,1141836350,1141837615,0.804224,-0.577792,0.076128,-0.105,1.32125,-8.5575,-20.848001,20.2,18.208,eccentric,4,3.0,39361.0,341192.0,89595.0,-61.0,-150.0
2026-04-09 22:03:31.860716,165785,1141845444,1141846309,0.804224,-0.577792,0.076128,-0.7525,0.9275,-8.51375,-20.848001,20.2,18.208,eccentric,4,3.0,39493.0,342170.0,90423.0,-58.0,-134.0
2026-04-09 22:03:31.862422,165786,1141854398,1141855050,0.804224,-0.577792,0.076128,-0.7175,-0.14,-8.05,-20.848001,20.2,18.208,eccentric,4,3.0,39493.0,342170.0,90423.0,-58.0,-134.0
2026-04-09 22:03:31.866240,165787,1141869246,1141869959,0.817888,-0.60512,0.066368,-1.4175,-1.84625,-7.5775,-19.6,19.936,17.92,eccentric,4,3.0,39493.0,342170.0,90423.0,-58.0,-134.0
2026-04-09 22:03:31.868660,165788,1141878715,1141880777,0.843264,-0.618784,0.042944,-2.0475,-3.8675,-6.3175,-19.960001,20.656,18.768002,eccentric,4,3.0,39493.0,342170.0,90423.0,-58.0,-134.0
2026-04-09 22:03:31.869977,165789,1141887757,1141889464,0.843264,-0.618784,0.042944,-1.4525,-5.03125,-5.075,-19.960001,20.656,18.768002,eccentric,4,3.0,39493.0,342170.0,90423.0,-58.0,-134.0
2026-04-09 22:03:31.874944,165790,1141896679,1141898168,0.86864,-0.59536,0.081984,-2.52875,-5.18,-4.795,-19.528002,20.408,19.248001,eccentric,4,3.0,39493.0,342170.0,90423.0,-58.0,-134.0
2026-04-09 22:03:31.877421,165791,1141911384,1141913115,0.86864,-0.59536,0.081984,-1.40875,-4.095,-5.81875,-19.528002,20.408,19.248001,eccentric,4,3.0,39493.0,342170.0,90423.0,-58.0,-134.0
2026-04-09 22:03:31.879934,165792,1141920396,1141921820,0.872544,-0.632448,0.027328,-0.65625,-4.55,-7.90125,-20.04,20.272001,19.304,eccentric,4,3.0,39493.0,342170.0,90423.0,-58.0,-134.0
2026-04-09 22:03:31.882341,165793,1141929342,1141930553,0.872544,-0.632448,0.027328,-2.00375,-5.39875,-10.17625,-20.04,20.272001,19.304,eccentric,4,3.0,39493.0,342170.0,90423.0,-58.0,-134.0
2026-04-09 22:03:31.907360,165803,1141944205,1141945567,0.903776,-0.704672,0.007808,-2.3975,-6.93,-11.165,-19.792002,20.248001,19.528002,eccentric,4,3.0,39452.0,343498.0,91338.0,-30.0,-122.0
2026-04-09 22:03:31.909932,165804,1141953303,1141954350,0.903776,-0.704672,0.007808,1.88125,-9.345,-11.06875,-19.792002,20.248001,19.528002,eccentric,4,3.0,39452.0,343498.0,91338.0,-30.0,-122.0
2026-04-09 22:03:31.912424,165805,1141962239,1141963127,0.950624,-0.630496,0.095648,7.76125,-9.6775,-9.9225,-19.312,20.032001,20.304,eccentric,4,3.0,39452.0,343498.0,91338.0,-30.0,-122.0
2026-04-09 22:03:31.914946,165806,1141971201,1141971836,0.950624,-0.630496,0.095648,6.2475,-8.7325,-9.415,-19.312,20.032001,20.304,eccentric,4,3.0,39452.0,343498.0,91338.0,-30.0,-122.0
2026-04-09 22:03:31.945201,165807,1141986040,1141986827,0.98576,-0.622688,0.03904,5.0925,-6.97375,-11.2875,-20.112001,20.088001,19.776001,eccentric,4,3.0,39452.0,343498.0,91338.0,-30.0,-122.0
2026-04-09 22:03:31.949091,165808,1141995539,1141997620,0.98576,-0.622688,0.023424,7.3325,-5.73125,-13.65,-20.112001,20.088001,19.776001,eccentric,4,3.0,39452.0,343498.0,91338.0,-30.0,-122.0
2026-04-09 22:03:31.953017,165809,1142004438,1142006303,0.976,-0.60512,0.017568,8.26875,-6.20375,-14.27125,-19.208,19.688002,17.704,eccentric,4,3.0,39452.0,343498.0,91338.0,-30.0,-122.0
2026-04-09 22:03:31.957513,165810,1142013415,1142014999,0.976,-0.60512,0.017568,7.7525,-7.175,-15.72375,-19.208,19.688002,17.704,eccentric,4,3.0,39452.0,343498.0,91338.0,-30.0,-122.0
2026-04-09 22:03:31.987614,165811,1142027955,1142029960,0.942816,-0.620736,0.060512,8.4875,-8.54875,-15.225,-18.808,19.712002,18.128,eccentric,4,3.0,39452.0,343498.0,91338.0,-30.0,-122.0
2026-04-09 22:03:31.991197,165812,1142036874,1142038711,0.962336,-0.515328,0.099552,6.7375,-9.03875,-15.74125,-18.816,19.928001,18.624,eccentric,4,3.0,39452.0,343498.0,91338.0,-30.0,-122.0
2026-04-09 22:03:32.018703,165823,1142046235,1142047454,0.962336,-0.515328,0.099552,5.62625,-8.417501,-14.665,-18.816,19.928001,18.624,eccentric,4,3.0,39539.0,345604.0,92968.0,24.0,-146.0
2026-04-09 22:03:32.021190,165824,1142060766,1142062501,0.944768,-0.50752,0.050752,1.61,-6.44875,-15.82,-19.016,19.432001,18.976002,eccentric,4,3.0,39539.0,345604.0,92968.0,24.0,-146.0
2026-04-09 22:03:32.025019,165825,1142069769,1142071207,0.944768,-0.50752,0.050752,-0.1575,-6.08125,-17.7625,-19.016,19.432001,18.976002,eccentric,4,3.0,39539.0,345604.0,92968.0,24.0,-146.0
2026-04-09 22:03:32.027811,165826,1142078708,1142079916,0.921344,-0.564128,0.076128,1.95125,-6.51875,-19.80125,-18.912,19.304,18.92,eccentric,4,3.0,39539.0,345604.0,92968.0,24.0,-146.0
2026-04-09 22:03:32.058915,165827,1142093244,1142094853,0.921344,-0.564128,0.076128,4.9,-6.44,-21.8225,-18.912,19.304,18.92,eccentric,4,3.0,39539.0,345604.0,92968.0,24.0,-146.0
2026-04-09 22:03:32.062457,165828,1142102201,1142103568,0.909632,-0.52704,0.103456,9.80875,-6.2475,-20.95625,-18.472,19.176,18.832,eccentric,4,3.0,39539.0,345604.0,92968.0,24.0,-146.0
2026-04-09 22:03:32.064939,165829,1142111132,1142112262,0.909632,-0.52704,0.103456,6.8075,-5.285,-20.13375,-18.472,19.176,18.832,eccentric,4,3.0,39539.0,345604.0,92968.0,24.0,-146.0
2026-04-09 22:03:32.067405,165830,1142120046,1142120969,0.843264,-0.452864,0.128832,0.35875,-3.5525,-19.3025,-18.408,19.488,19.296001,eccentric,4,3.0,39539.0,345604.0,92968.0,24.0,-146.0
2026-04-09 22:03:32.097622,165831,1142134544,1142135875,0.843264,-0.452864,0.128832,-0.7175,-1.70625,-18.9175,-18.408,19.488,19.296001,eccentric,4,3.0,39539.0,345604.0,92968.0,24.0,-146.0
2026-04-09 22:03:32.159019,165841,1142143482,1142144552,0.85888,-0.40016,0.076128,4.3575,-1.46125,-21.35,-18.776001,19.048,20.44,eccentric,4,3.0,39769.0,345614.0,93250.0,30.0,-131.0
2026-04-09 22:03:32.161258,165842,1142152367,1142153270,0.85888,-0.40016,0.076128,10.15875,-1.365,-24.92,-18.776001,19.048,20.44,eccentric,4,3.0,39769.0,345614.0,93250.0,30.0,-131.0
2026-04-09 22:03:32.163658,165843,1142166921,1142168227,0.774944,-0.554368,0.109312,8.155,-0.41125,-28.2625,-18.456001,19.880001,19.584002,eccentric,4,3.0,39769.0,345614.0,93250.0,30.0,-131.0
2026-04-09 22:03:32.166272,165844,1142175878,1142176921,0.774944,-0.554368,0.109312,3.22,0.91,-30.66875,-18.456001,19.880001,19.584002,eccentric,4,3.0,39769.0,345614.0,93250.0,30.0,-131.0
2026-04-09 22:03:32.168651,165845,1142184775,1142185617,0.75152,-0.40992,0.15616,7.7175,1.8375,-29.015,-18.688002,18.856,19.2,eccentric,4,3.0,39769.0,345614.0,93250.0,30.0,-131.0
2026-04-09 22:03:32.171135,165846,1142199244,1142200488,0.696864,-0.329888,0.130784,9.47625,3.78,-29.6975,-18.208,18.544,19.912,eccentric,4,3.0,39769.0,345614.0,93250.0,30.0,-131.0
2026-04-09 22:03:32.173698,165847,1142208151,1142209172,0.696864,-0.329888,0.130784,8.435,6.0025,-31.8675,-18.208,18.544,19.912,eccentric,4,3.0,39769.0,345614.0,93250.0,30.0,-131.0
2026-04-09 22:03:32.177716,165848,1142217089,1142217886,0.735904,-0.493856,0.011712,7.5775,7.55125,-35.21,-20.256,17.928001,21.2,eccentric,4,3.0,39769.0,345614.0,93250.0,30.0,-131.0
2026-04-09 22:03:32.178692,165849,1142231575,1142232826,0.735904,-0.493856,0.011712,8.53125,7.9975,-40.71375,-19.688002,17.928001,21.2,eccentric,4,3.0,39769.0,345614.0,93250.0,30.0,-131.0
2026-04-09 22:03:32.190202,165850,1142240471,1142241570,0.657824,-0.431392,0.122976,10.92,8.33,-45.745,-19.936,18.008001,21.272001,eccentric,4,3.0,39769.0,345614.0,93250.0,30.0,-131.0
2026-04-09 22:03:32.209889,165860,1142249456,1142250366,0.657824,-0.431392,0.122976,21.63,7.49875,-44.87875,-19.936,18.008001,21.272001,eccentric,4,3.0,39771.0,345736.0,93324.0,39.0,-136.0
2026-04-09 22:03:32.212354,165861,1142258503,1142259175,0.689056,-0.284992,0.1464,29.33,7.2275,-44.3275,-19.312,17.92,20.784,eccentric,4,3.0,39771.0,345736.0,93324.0,39.0,-136.0
2026-04-09 22:03:32.217378,165862,1142273386,1142274095,0.689056,-0.284992,0.1464,31.036251,8.16375,-46.05125,-19.312,17.92,20.784,eccentric,4,3.0,39771.0,345736.0,93324.0,39.0,-136.0
2026-04-09 22:03:32.247545,165863,1142282718,1142284847,0.71248,-0.365024,0.05856,29.05875,10.6225,-48.48375,-19.712002,17.880001,21.632002,eccentric,4,3.0,39771.0,345736.0,93324.0,39.0,-136.0
2026-04-09 22:03:32.251198,165864,1142291729,1142293582,0.71248,-0.365024,0.05856,25.235,14.62125,-50.5575,-19.712002,17.880001,21.632002,eccentric,4,3.0,39771.0,345736.0,93324.0,39.0,-136.0
2026-04-09 22:03:32.253745,165865,1142306188,1142308475,0.632448,-0.417728,0.122976,24.5,17.56125,-49.0,-19.68,17.568,21.592001,eccentric,4,3.0,39771.0,345736.0,93324.0,39.0,-136.0
2026-04-09 22:03:32.260314,165866,1142315105,1142317169,0.632448,-0.417728,0.122976,21.76125,19.76625,-48.25625,-19.68,17.568,21.592001,eccentric,4,3.0,39771.0,345736.0,93324.0,39.0,-136.0
2026-04-09 22:03:32.290082,165867,1142324103,1142325877,0.677344,-0.320128,0.115168,21.13125,21.7525,-44.42375,-20.856,17.224,23.688002,eccentric,4,3.0,39771.0,345736.0,93324.0,39.0,-136.0
2026-04-09 22:03:32.293689,165868,1142333095,1142334570,0.677344,-0.320128,0.115168,16.16125,23.94875,-43.19875,-20.856,17.224,23.688002,eccentric,4,3.0,39771.0,345736.0,93324.0,39.0,-136.0
2026-04-09 22:03:32.325001,165879,1142347839,1142349545,0.669536,-0.201056,0.080032,15.79375,25.92625,-42.98,-20.176,16.272001,22.400002,eccentric,4,3.0,39525.0,344868.0,92394.0,-10.0,-146.0
2026-04-09 22:03:32.332424,165880,1142356812,1142358254,0.669536,-0.201056,0.033184,19.20625,26.25,-44.31875,-20.176,16.272001,22.400002,eccentric,4,3.0,39525.0,344868.0,92394.0,-10.0,-146.0
2026-04-09 22:03:32.334938,165881,1142365756,1142367012,0.661728,-0.382592,0.037088,19.08375,25.92625,-49.735,-22.160002,15.976001,23.04,eccentric,4,3.0,39525.0,344868.0,92394.0,-10.0,-146.0
2026-04-09 22:03:32.337386,165882,1142380274,1142381962,0.622688,-0.318176,0.181536,22.7675,25.31375,-50.5575,-21.192001,15.760001,23.432001,eccentric,4,3.0,39525.0,344868.0,92394.0,-10.0,-146.0
2026-04-09 22:03:32.340041,165883,1142389217,1142390705,0.622688,-0.318176,0.181536,29.46125,25.10375,-44.80875,-21.192001,15.760001,23.432001,eccentric,4,3.0,39525.0,344868.0,92394.0,-10.0,-146.0
2026-04-09 22:03:32.342931,165884,1142398138,1142399426,0.677344,-0.304512,0.031232,28.2975,24.96375,-40.94125,-21.472,15.936001,23.728,eccentric,4,3.0,39525.0,344868.0,92394.0,-10.0,-146.0
2026-04-09 22:03:32.372578,165885,1142412641,1142414364,0.677344,-0.304512,0.031232,23.03875,25.2875,-40.76625,-21.472,15.936001,23.728,eccentric,4,3.0,39525.0,344868.0,92394.0,-10.0,-146.0
2026-04-09 22:03:32.376210,165886,1142421549,1142423055,0.669536,-0.171776,0.142496,22.19,25.20875,-41.195,-21.712002,15.616001,23.76,eccentric,4,3.0,39525.0,344868.0,92394.0,-10.0,-146.0
2026-04-09 22:03:32.378669,165887,1142430476,1142431793,0.669536,-0.171776,0.142496,29.785,25.0075,-42.49,-21.712002,15.616001,23.76,eccentric,4,3.0,39525.0,344868.0,92394.0,-10.0,-146.0
2026-04-09 22:03:32.382436,165888,1142439409,1142440505,0.66368,-0.376736,0.144448,34.51,24.52625,-44.35375,-22.664001,15.880001,23.208,eccentric,4,3.0,39525.0,344868.0,92394.0,-10.0,-146.0
2026-04-09 22:03:32.409939,165898,1142453986,1142455632,0.66368,-0.376736,0.144448,25.7075,24.85,-49.201252,-22.664001,15.880001,23.208,eccentric,4,3.0,39325.0,341878.0,90095.0,-65.0,-117.0
2026-04-09 22:03:32.445149,165899,1142463000,1142464399,0.599264,-0.355264,0.154208,22.09375,24.40375,-45.12375,-21.544,15.880001,25.36,eccentric,4,3.0,39325.0,341878.0,90095.0,-65.0,-117.0
2026-04-09 22:03:32.447367,165900,1142471977,1142473127,0.599264,-0.355264,0.154208,24.1675,23.89625,-38.56125,-21.544,15.880001,25.36,eccentric,4,3.0,39325.0,341878.0,90095.0,-65.0,-117.0
2026-04-09 22:03:32.449919,165901,1142486537,1142488069,0.642208,-0.191296,0.066368,21.16625,23.5725,-35.7525,-22.296001,14.800001,24.856,eccentric,4,3.0,39325.0,341878.0,90095.0,-65.0,-117.0
2026-04-09 22:03:32.452429,165902,1142495525,1142496797,0.642208,-0.191296,0.066368,14.5075,24.6225,-32.85625,-22.296001,14.800001,24.856,eccentric,4,3.0,39325.0,341878.0,90095.0,-65.0,-117.0
2026-04-09 22:03:32.454977,165903,1142504430,1142505619,0.650016,-0.208864,0.197152,7.2625,26.145,-33.80125,-22.528002,14.736001,25.296001,eccentric,4,3.0,39325.0,341878.0,90095.0,-65.0,-117.0
2026-04-09 22:03:32.490109,165904,1142518973,1142520565,0.60512,-0.28304,0.17568,5.39,27.5975,-35.735,-23.472002,14.76,25.984001,eccentric,4,3.0,39325.0,341878.0,90095.0,-65.0,-117.0
2026-04-09 22:03:32.493726,165905,1142527883,1142529288,0.60512,-0.28304,0.17568,7.95375,25.89125,-38.80625,-23.472002,14.76,25.984001,eccentric,4,3.0,39325.0,341878.0,90095.0,-65.0,-117.0
2026-04-09 22:03:32.496118,165906,1142536794,1142538007,0.60512,-0.28304,0.17568,12.25,22.0675,-42.945,-23.472002,14.76,25.984001,eccentric,4,3.0,39325.0,341878.0,90095.0,-65.0,-117.0
2026-04-09 22:03:32.523735,165916,1142551365,1142552937,0.64416,-0.325984,0.111264,18.9,18.025,-40.73125,-23.032001,14.632001,25.552002,eccentric,4,3.0,39229.0,344543.0,91814.0,1.0,-134.0
2026-04-09 22:03:32.527961,165917,1142560327,1142561702,0.646112,-0.1952,0.181536,22.6625,15.2775,-36.12875,-22.928001,14.040001,27.816002,eccentric,4,3.0,39229.0,344543.0,91814.0,1.0,-134.0
2026-04-09 22:03:32.529664,165918,1142569397,1142570420,0.646112,-0.1952,0.181536,21.25375,14.8225,-30.21375,-22.928001,14.040001,27.816002,eccentric,4,3.0,39229.0,344543.0,91814.0,1.0,-134.0
2026-04-09 22:03:32.532106,165919,1142578472,1142579137,0.646112,-0.222528,0.167872,15.0325,15.53125,-26.495,-22.928001,16.088001,26.456001,eccentric,4,3.0,39229.0,344543.0,91814.0,1.0,-134.0
2026-04-09 22:03:32.537864,165920,1142593435,1142594107,0.640256,-0.222528,0.167872,8.42625,15.295,-25.90875,-23.104002,14.456,26.456001,eccentric,4,3.0,39229.0,344543.0,91814.0,1.0,-134.0
2026-04-09 22:03:32.566376,165921,1142602829,1142604912,0.632448,-0.474336,0.044896,11.095,13.04625,-24.28125,-24.28,14.200001,26.976002,eccentric,4,3.0,39229.0,344543.0,91814.0,1.0,-134.0
2026-04-09 22:03:32.569987,165922,1142611782,1142613605,0.632448,-0.474336,0.044896,14.4375,9.7125,-28.56,-24.28,14.200001,26.976002,eccentric,4,3.0,39229.0,344543.0,91814.0,1.0,-134.0
2026-04-09 22:03:32.572368,165923,1142620759,1142622365,0.714432,-0.054656,0.183488,25.22625,5.11,-39.55,-23.888,13.424001,26.808,eccentric,4,3.0,39229.0,344543.0,91814.0,1.0,-134.0
2026-04-09 22:03:32.602599,165924,1142635249,1142637269,0.714432,-0.054656,0.183488,53.96125,1.28625,-20.83375,-23.888,13.424001,26.808,eccentric,4,3.0,39229.0,344543.0,91814.0,1.0,-134.0
2026-04-09 22:03:32.634958,165935,1142644210,1142646254,0.71248,-0.212768,0.199104,43.81125,2.42375,-19.34625,-24.512001,13.544001,26.872002,eccentric,4,3.0,39161.0,344891.0,92009.0,-1.0,-128.0
2026-04-09 22:03:32.637430,165936,1142653213,1142655035,0.71248,-0.212768,0.199104,16.05625,6.055,-20.72,-24.512001,13.544001,26.872002,eccentric,4,3.0,39161.0,344891.0,92009.0,-1.0,-128.0
2026-04-09 22:03:32.639920,165937,1142667717,1142669984,0.726144,-0.244,0.163968,14.0525,7.37625,-17.64,-23.920002,13.512001,26.608002,eccentric,4,3.0,39161.0,344891.0,92009.0,-1.0,-128.0
2026-04-09 22:03:32.642444,165938,1142676651,1142678769,0.726144,-0.244,0.163968,22.07625,5.95875,-19.69625,-23.920002,13.512001,26.608002,eccentric,4,3.0,39161.0,344891.0,92009.0,-1.0,-128.0
2026-04-09 22:03:32.644932,165939,1142685654,1142687497,0.788608,-0.30256,0.169824,30.89625,2.40625,-19.460001,-24.752,13.872001,27.904001,eccentric,4,3.0,39161.0,344891.0,92009.0,-1.0,-128.0
2026-04-09 22:03:32.647450,165940,1142700168,1142702426,0.786656,-0.27328,0.189344,30.4325,0.86625,-18.03375,-24.608002,13.568001,27.528002,eccentric,4,3.0,39161.0,344891.0,92009.0,-1.0,-128.0
2026-04-09 22:03:32.653677,165941,1142709193,1142711144,0.786656,-0.27328,0.189344,28.35875,1.1375,-13.5975,-24.608002,13.568001,27.528002,eccentric,4,3.0,39161.0,344891.0,92009.0,-1.0,-128.0
2026-04-09 22:03:32.683888,165942,1142718137,1142719808,0.786656,-0.27328,0.189344,24.31625,2.89625,-9.89625,-24.608002,13.568001,27.528002,eccentric,4,3.0,39161.0,344891.0,92009.0,-1.0,-128.0
2026-04-09 22:03:32.687398,165943,1142727061,1142728500,0.808128,-0.193248,0.212768,15.8025,4.76,-8.295,-23.904001,13.52,25.552002,eccentric,4,3.0,39161.0,344891.0,92009.0,-1.0,-128.0
2026-04-09 22:03:32.698750,165944,1142741574,1142743384,0.786656,-0.242048,0.160064,13.81625,5.27625,-8.2075,-23.568,13.632001,27.44,eccentric,4,3.0,39161.0,344891.0,92009.0,-1.0,-128.0
2026-04-09 22:03:32.758698,165954,1142750646,1142752202,0.786656,-0.242048,0.160064,14.542501,4.38375,-12.04875,-23.568,13.632001,27.44,eccentric,4,3.0,39200.0,342023.0,90143.0,-47.0,-141.0
2026-04-09 22:03:32.761225,165955,1142759568,1142760930,0.808128,-0.269376,0.179584,17.815,2.4325,-14.971251,-24.104002,13.72,30.480001,eccentric,4,3.0,39200.0,342023.0,90143.0,-47.0,-141.0
2026-04-09 22:03:32.763762,165956,1142774169,1142775873,0.808128,-0.269376,0.179584,22.12875,1.575,-14.0875,-24.104002,13.72,30.480001,eccentric,4,3.0,39200.0,342023.0,90143.0,-47.0,-141.0
2026-04-09 22:03:32.766211,165957,1142783160,1142784577,0.782752,-0.23424,0.22448,16.6775,3.36,-12.3725,-24.160002,13.376,27.576002,eccentric,4,3.0,39200.0,342023.0,90143.0,-47.0,-141.0
2026-04-09 22:03:32.768727,165958,1142792083,1142793287,0.782752,-0.23424,0.22448,8.91625,5.0575,-9.30125,-24.160002,13.376,27.576002,eccentric,4,3.0,39200.0,342023.0,90143.0,-47.0,-141.0
2026-04-09 22:03:32.771183,165959,1142806643,1142808168,0.804224,-0.132736,0.203008,5.005,7.35875,-9.14375,-24.336,13.416,27.768002,eccentric,4,3.0,39200.0,342023.0,90143.0,-47.0,-141.0
2026-04-09 22:03:32.773609,165960,1142815588,1142816939,0.804224,-0.132736,0.203008,4.38375,8.61,-13.04625,-24.336,13.416,27.768002,eccentric,4,3.0,39200.0,342023.0,90143.0,-47.0,-141.0
2026-04-09 22:03:32.776367,165961,1142824555,1142825720,0.812032,-0.216672,0.150304,6.78125,7.42875,-17.38625,-24.960001,13.288001,29.104002,eccentric,4,3.0,39200.0,342023.0,90143.0,-47.0,-141.0
2026-04-09 22:03:32.778652,165962,1142833478,1142834475,0.812032,-0.216672,0.150304,10.42125,5.69625,-19.97625,-24.960001,13.288001,29.104002,eccentric,4,3.0,39200.0,342023.0,90143.0,-47.0,-141.0
2026-04-09 22:03:32.832336,165972,1142848204,1142849573,0.812032,-0.269376,0.21472,11.025,4.69875,-18.6725,-25.144001,13.288001,28.856,eccentric,4,3.0,39225.0,340934.0,89400.0,-77.0,-135.0
2026-04-09 22:03:32.834972,165973,1142857255,1142858310,0.812032,-0.269376,0.21472,4.87375,6.02,-15.68875,-25.144001,13.288001,28.856,eccentric,4,3.0,39225.0,340934.0,89400.0,-77.0,-135.0
2026-04-09 22:03:32.837424,165974,1142866166,1142867171,0.798368,-0.154208,0.240096,-3.1325,8.505,-11.8475,-24.648,13.504001,25.224,eccentric,4,3.0,39225.0,340934.0,89400.0,-77.0,-135.0
2026-04-09 22:03:32.839932,165975,1142880650,1142882106,0.788608,-0.16592,0.181536,-8.53125,9.38,-10.98125,-24.216002,13.248001,27.04,eccentric,4,3.0,39225.0,340934.0,89400.0,-77.0,-135.0
2026-04-09 22:03:32.842408,165976,1142889623,1142890817,0.788608,-0.16592,0.181536,-10.22,9.275,-12.0225,-24.216002,13.248001,27.04,eccentric,4,3.0,39225.0,340934.0,89400.0,-77.0,-135.0
2026-04-09 22:03:32.844971,165977,1142898543,1142899630,0.788608,-0.16592,0.181536,-4.19125,6.7375,-13.3875,-24.216002,13.248001,27.04,eccentric,4,3.0,39225.0,340934.0,89400.0,-77.0,-135.0
2026-04-09 22:03:32.875116,165978,1142913040,1142914541,0.80032,-0.203008,0.199104,2.73,4.6725,-14.55125,-24.736002,13.360001,29.312002,eccentric,4,3.0,39225.0,340934.0,89400.0,-77.0,-135.0
2026-04-09 22:03:32.878848,165979,1142921977,1142923233,0.804224,-0.171776,0.218624,5.11,3.38625,-13.7725,-24.072,12.952001,27.800001,eccentric,4,3.0,39225.0,340934.0,89400.0,-77.0,-135.0
2026-04-09 22:03:32.881255,165980,1142930877,1142931964,0.804224,-0.171776,0.218624,3.2025,2.93125,-11.92625,-24.072,12.952001,27.800001,eccentric,4,3.0,39225.0,340934.0,89400.0,-77.0,-135.0
2026-04-09 22:03:32.890042,165981,1142945382,1142946886,0.798368,-0.148352,0.238144,-1.53125,4.1125,-10.115,-26.336,13.376,29.160002,eccentric,4,3.0,39225.0,340934.0,89400.0,-77.0,-135.0
2026-04-09 22:03:32.919872,165992,1142954325,1142955634,0.798368,-0.148352,0.238144,-6.5975,5.32,-9.91375,-26.336,13.376,29.160002,eccentric,4,3.0,39285.0,339637.0,88490.0,-97.0,-132.0
2026-04-09 22:03:32.922410,165993,1142963253,1142964468,0.794464,-0.173728,0.210816,-7.28,5.705,-10.56125,-24.792002,13.544001,28.136002,eccentric,4,3.0,39285.0,339637.0,88490.0,-97.0,-132.0
2026-04-09 22:03:32.924971,165994,1142972177,1142973218,0.794464,-0.173728,0.210816,-4.795,4.55875,-11.99625,-24.792002,13.544001,28.136002,eccentric,4,3.0,39285.0,339637.0,88490.0,-97.0,-132.0
2026-04-09 22:03:32.931379,165995,1142986643,1142988165,0.80032,-0.173728,0.201056,-2.3275,4.12125,-12.17125,-25.248001,13.584001,29.760002,eccentric,4,3.0,39285.0,339637.0,88490.0,-97.0,-132.0
2026-04-09 22:03:32.961452,165996,1142995626,1142996838,0.80032,-0.173728,0.201056,-2.87,3.9375,-10.6925,-25.248001,13.584001,29.760002,concentric,4,3.0,39285.0,339637.0,88490.0,-97.0,-132.0
2026-04-09 22:03:32.964958,165997,1143004521,1143005544,0.817888,-0.169824,0.21472,-5.80125,4.43625,-9.17,-24.984001,12.968,27.800001,concentric,4,3.0,39285.0,339637.0,88490.0,-97.0,-132.0
2026-04-09 22:03:32.967444,165998,1143018976,1143020440,0.817888,-0.169824,0.21472,-10.115,4.9525,-8.18125,-24.984001,12.968,27.800001,concentric,4,3.0,39285.0,339637.0,88490.0,-97.0,-132.0
2026-04-09 22:03:32.972485,165999,1143027888,1143029126,0.808128,-0.189344,0.189344,-12.17125,4.8475,-8.1375,-24.752,13.736001,26.608002,concentric,4,3.0,39285.0,339637.0,88490.0,-97.0,-132.0
2026-04-09 22:03:33.002649,166000,1143036866,1143037873,0.808128,-0.189344,0.189344,-8.72375,3.7975,-8.1025,-24.752,13.736001,26.608002,concentric,4,3.0,39285.0,339637.0,88490.0,-97.0,-132.0
2026-04-09 22:03:33.061185,166010,1143051751,1143052843,0.808128,-0.201056,0.191296,-3.9725,2.19625,-8.5225,-24.376001,13.304001,27.496002,concentric,4,3.0,39325.0,339111.0,88125.0,-96.0,-129.0
2026-04-09 22:03:33.063771,166011,1143060684,1143061535,0.8296,-0.183488,0.191296,-1.04125,1.4875,-8.12,-24.736002,12.864,27.728,concentric,4,3.0,39325.0,339111.0,88125.0,-96.0,-129.0
2026-04-09 22:03:33.067743,166012,1143069590,1143070292,0.8296,-0.183488,0.191296,-0.44625,1.02375,-7.63875,-24.736002,12.864,27.728,concentric,4,3.0,39325.0,339111.0,88125.0,-96.0,-129.0
2026-04-09 22:03:33.068593,166013,1143078948,1143081095,0.8296,-0.183488,0.191296,-2.835,2.84375,-8.32125,-24.736002,12.864,27.728,concentric,4,3.0,39325.0,339111.0,88125.0,-96.0,-129.0
2026-04-09 22:03:33.071129,166014,1143093403,1143093925,0.84912,-0.132736,0.23424,-5.1275,5.3375,-9.5725,-24.744001,13.192,27.552002,concentric,4,3.0,39325.0,339111.0,88125.0,-96.0,-129.0
2026-04-09 22:03:33.073632,166015,1143102766,1143104681,0.843264,-0.1952,0.203008,-6.895,7.77,-12.915,-25.208002,12.816001,27.248001,concentric,4,3.0,39325.0,339111.0,88125.0,-96.0,-129.0
2026-04-09 22:03:33.076168,166016,1143111769,1143113394,0.843264,-0.1952,0.203008,-5.1275,8.7675,-15.636251,-25.208002,12.816001,27.248001,concentric,4,3.0,39325.0,339111.0,88125.0,-96.0,-129.0
2026-04-09 22:03:33.078673,166017,1143126272,1143128295,0.825696,-0.187392,0.193248,0.20125,9.1175,-17.10625,-26.056002,12.920001,27.400002,concentric,4,3.0,39325.0,339111.0,88125.0,-96.0,-129.0
2026-04-09 22:03:33.083618,166018,1143135279,1143137012,0.825696,-0.187392,0.193248,4.6025,8.6975,-16.8175,-26.056002,12.920001,27.400002,concentric,4,3.0,39325.0,339111.0,88125.0,-96.0,-129.0
2026-04-09 22:03:33.087448,166019,1143144210,1143145707,0.825696,-0.162016,0.191296,5.1275,8.575,-15.636251,-25.248001,12.464001,27.448002,concentric,4,3.0,39325.0,339111.0,88125.0,-96.0,-129.0
2026-04-09 22:03:33.112304,166029,1143153363,1143154581,0.825696,-0.162016,0.191296,1.3475,8.855001,-13.4225,-25.248001,12.464001,27.448002,concentric,4,3.0,39319.0,341858.0,90001.0,-67.0,-143.0
2026-04-09 22:03:33.114907,166030,1143167920,1143169511,0.804224,-0.162016,0.220576,-2.0825,8.77625,-11.68125,-26.080002,12.616,28.128002,concentric,4,3.0,39319.0,341858.0,90001.0,-67.0,-143.0
2026-04-09 22:03:33.120019,166031,1143176847,1143178254,0.804224,-0.162016,0.220576,-2.45875,8.49625,-10.5175,-26.080002,12.616,28.128002,concentric,4,3.0,39319.0,341858.0,90001.0,-67.0,-143.0
2026-04-09 22:03:33.150300,166032,1143185776,1143186968,0.792512,-0.167872,0.208864,-0.2975,8.14625,-10.1325,-25.224,12.52,27.128002,concentric,4,3.0,39319.0,341858.0,90001.0,-67.0,-143.0
2026-04-09 22:03:33.153684,166033,1143200256,1143201859,0.792512,-0.167872,0.193248,2.2925,6.81625,-9.625,-25.224,12.52,27.128002,concentric,4,3.0,39319.0,341858.0,90001.0,-67.0,-143.0
2026-04-09 22:03:33.156311,166034,1143209190,1143210559,0.77104,-0.169824,0.201056,5.29375,5.74875,-9.3275,-25.232,12.856001,26.048,concentric,4,3.0,39319.0,341858.0,90001.0,-67.0,-143.0
2026-04-09 22:03:33.162558,166035,1143218103,1143219282,0.77104,-0.169824,0.201056,6.90375,4.80375,-7.44625,-25.232,12.856001,26.048,concentric,4,3.0,39319.0,341858.0,90001.0,-67.0,-143.0
2026-04-09 22:03:33.192619,166036,1143232645,1143234256,0.749568,-0.169824,0.20496,6.475,4.305,-4.87375,-25.592001,12.68,27.776001,concentric,4,3.0,39319.0,341858.0,90001.0,-67.0,-143.0
2026-04-09 22:03:33.196193,166037,1143241569,1143242972,0.735904,-0.17568,0.210816,3.5875,3.605,-2.73,-25.184002,12.776001,28.024002,concentric,4,3.0,39319.0,341858.0,90001.0,-67.0,-143.0
2026-04-09 22:03:33.223801,166048,1143250534,1143251828,0.735904,-0.17568,0.210816,1.4,2.87,-0.56875,-25.184002,12.776001,28.024002,concentric,4,3.0,39272.0,342795.0,90652.0,-52.0,-137.0
2026-04-09 22:03:33.226658,166049,1143265120,1143266834,0.74176,-0.16592,0.191296,1.8025,2.1875,0.67375,-25.368002,13.000001,27.424002,concentric,4,3.0,39272.0,342795.0,90652.0,-52.0,-137.0
2026-04-09 22:03:33.228622,166050,1143274065,1143275646,0.74176,-0.16592,0.191296,2.9575,1.015,1.19875,-25.368002,13.000001,27.424002,concentric,4,3.0,39272.0,342795.0,90652.0,-52.0,-137.0
2026-04-09 22:03:33.231114,166051,1143283024,1143284393,0.735904,-0.1952,0.197152,4.89125,-0.42,1.46125,-25.376001,13.048,27.744001,concentric,4,3.0,39272.0,342795.0,90652.0,-52.0,-137.0
2026-04-09 22:03:33.234910,166052,1143292162,1143293136,0.735904,-0.1952,0.197152,5.71375,-1.8025,2.14375,-25.376001,13.048,27.744001,concentric,4,3.0,39272.0,342795.0,90652.0,-52.0,-137.0
2026-04-09 22:03:33.265162,166053,1143306674,1143308036,0.724192,-0.218624,0.20496,5.04875,-2.54625,4.4975,-25.000002,13.352,27.536001,concentric,4,3.0,39272.0,342795.0,90652.0,-52.0,-137.0
2026-04-09 22:03:33.268693,166054,1143315581,1143316752,0.724192,-0.218624,0.20496,1.9075,-3.33375,8.225,-25.000002,13.352,27.536001,concentric,4,3.0,39272.0,342795.0,90652.0,-52.0,-137.0
2026-04-09 22:03:33.271196,166055,1143324501,1143325455,0.706624,-0.1952,0.193248,-2.79125,-2.63375,12.01375,-25.176,13.872001,27.416,concentric,4,3.0,39272.0,342795.0,90652.0,-52.0,-137.0
2026-04-09 22:03:33.301938,166056,1143339010,1143340333,0.706624,-0.1952,0.193248,-5.20625,-3.0975,15.28625,-25.176,13.872001,27.416,concentric,4,3.0,39272.0,342795.0,90652.0,-52.0,-137.0
2026-04-09 22:03:33.305679,166057,1143347919,1143349060,0.708576,-0.193248,0.16592,-5.66125,-3.8675,17.1325,-24.720001,13.280001,27.048,concentric,4,3.0,39272.0,342795.0,90652.0,-52.0,-137.0
2026-04-09 22:03:33.362471,166067,1143356906,1143357825,0.708576,-0.193248,0.16592,-5.45125,-4.3575,17.815,-24.720001,13.280001,27.048,concentric,4,3.0,39274.0,341249.0,89629.0,-88.0,-131.0
2026-04-09 22:03:33.365664,166068,1143371481,1143372795,0.685152,-0.206912,0.148352,-3.6925,-6.09,18.7075,-24.688002,14.024001,27.208002,concentric,4,3.0,39274.0,341249.0,89629.0,-88.0,-131.0
2026-04-09 22:03:33.367442,166069,1143380421,1143381527,0.685152,-0.206912,0.148352,-3.1325,-7.76125,20.41375,-24.688002,14.024001,27.208002,concentric,4,3.0,39274.0,341249.0,89629.0,-88.0,-131.0
2026-04-09 22:03:33.369925,166070,1143389330,1143390261,0.708576,-0.238144,0.167872,-3.77125,-8.60125,23.68625,-24.744001,13.848001,27.720001,concentric,4,3.0,39274.0,341249.0,89629.0,-88.0,-131.0
2026-04-09 22:03:33.372403,166071,1143398268,1143398982,0.708576,-0.238144,0.167872,-8.1025,-8.96875,26.41625,-24.744001,13.848001,27.720001,concentric,4,3.0,39274.0,341249.0,89629.0,-88.0,-131.0
2026-04-09 22:03:33.374922,166072,1143413245,1143413928,0.700768,-0.21472,0.154208,-12.3725,-8.82875,29.9075,-23.992,14.240001,26.632002,concentric,4,3.0,39274.0,341249.0,89629.0,-88.0,-131.0
2026-04-09 22:03:33.377442,166073,1143422579,1143424716,0.753472,-0.173728,0.11712,-13.6325,-9.96625,31.21125,-25.184002,14.76,26.184002,concentric,4,3.0,39274.0,341249.0,89629.0,-88.0,-131.0
2026-04-09 22:03:33.380243,166074,1143431534,1143433456,0.753472,-0.173728,0.11712,-9.511251,-12.32875,29.942501,-25.184002,14.76,26.184002,concentric,4,3.0,39274.0,341249.0,89629.0,-88.0,-131.0
2026-04-09 22:03:33.410196,166075,1143446041,1143446383,0.767136,-0.197152,0.124928,-2.24875,-15.74125,27.4575,-23.536001,14.400001,26.36,concentric,4,3.0,39274.0,341249.0,89629.0,-88.0,-131.0
2026-04-09 22:03:33.443675,166085,1143455429,1143457246,0.767136,-0.197152,0.124928,3.94625,-18.1125,24.38625,-23.536001,14.400001,26.36,concentric,4,3.0,39439.0,342336.0,90512.0,-61.0,-130.0
2026-04-09 22:03:33.446188,166086,1143464369,1143465966,0.767136,-0.255712,0.160064,7.14875,-19.915,24.45625,-23.424002,15.512001,25.672,concentric,4,3.0,39439.0,342336.0,90512.0,-61.0,-130.0
2026-04-09 22:03:33.451163,166087,1143473325,1143474653,0.767136,-0.255712,0.160064,5.8975,-20.51875,27.58,-23.424002,15.512001,25.672,concentric,4,3.0,39439.0,342336.0,90512.0,-61.0,-130.0
2026-04-09 22:03:33.453656,166088,1143488021,1143489588,0.728096,-0.230336,0.16592,-1.33,-18.57625,31.50875,-23.976002,15.448001,26.680002,concentric,4,3.0,39439.0,342336.0,90512.0,-61.0,-130.0
2026-04-09 22:03:33.456215,166089,1143497035,1143498294,0.728096,-0.230336,0.16592,-10.36875,-16.7125,34.763752,-23.976002,15.448001,26.680002,concentric,4,3.0,39439.0,342336.0,90512.0,-61.0,-130.0
2026-04-09 22:03:33.458749,166090,1143506032,1143507043,0.700768,-0.191296,0.160064,-14.55125,-15.3475,36.47875,-23.208,15.136001,26.424002,concentric,4,3.0,39439.0,342336.0,90512.0,-61.0,-130.0
2026-04-09 22:03:33.465090,166091,1143520604,1143522085,0.700768,-0.191296,0.160064,-14.69125,-15.33875,34.69375,-23.208,15.136001,26.424002,concentric,4,3.0,39439.0,342336.0,90512.0,-61.0,-130.0
2026-04-09 22:03:33.496099,166092,1143529522,1143530781,0.694912,-0.216672,0.160064,-9.345,-16.80875,33.17125,-23.76,15.800001,26.768002,concentric,4,3.0,39439.0,342336.0,90512.0,-61.0,-130.0
2026-04-09 22:03:33.498340,166093,1143538484,1143539538,0.694912,-0.216672,0.160064,-2.52875,-16.66875,32.5325,-23.76,15.800001,26.768002,concentric,4,3.0,39439.0,342336.0,90512.0,-61.0,-130.0
2026-04-09 22:03:33.502957,166094,1143547385,1143548228,0.689056,-0.277184,0.150304,-0.48125,-16.45,32.97875,-22.456001,16.008001,25.344002,concentric,4,3.0,39439.0,342336.0,90512.0,-61.0,-130.0
2026-04-09 22:03:33.527999,166104,1143562019,1143563189,0.689056,-0.277184,0.171776,-4.50625,-14.875,34.23,-22.456001,16.008001,25.344002,concentric,4,3.0,39649.0,343484.0,91552.0,-50.0,-131.0
2026-04-09 22:03:33.529697,166105,1143571021,1143571928,0.72224,-0.275232,0.171776,-12.52125,-12.775,34.86875,-23.296001,16.176,27.032001,concentric,4,3.0,39649.0,343484.0,91552.0,-50.0,-131.0
2026-04-09 22:03:33.531236,166106,1143579961,1143580738,0.72224,-0.275232,0.171776,-16.45,-10.535,33.39,-23.296001,16.176,27.032001,concentric,4,3.0,39649.0,343484.0,91552.0,-50.0,-131.0
2026-04-09 22:03:33.537373,166107,1143594866,1143595690,0.714432,-0.21472,0.210816,-11.33125,-9.625,31.36875,-23.264002,16.320002,26.304,concentric,4,3.0,39649.0,343484.0,91552.0,-50.0,-131.0
2026-04-09 22:03:33.567670,166108,1143603804,1143604406,0.696864,-0.284992,0.17568,-6.22125,-10.71,27.58875,-21.648,17.208,23.856,concentric,4,3.0,39649.0,343484.0,91552.0,-50.0,-131.0
2026-04-09 22:03:33.571253,166109,1143613055,1143615167,0.696864,-0.284992,0.17568,-0.98,-12.15375,24.745,-21.648,17.208,23.856,concentric,4,3.0,39649.0,343484.0,91552.0,-50.0,-131.0
2026-04-09 22:03:33.573715,166110,1143621980,1143623854,0.696864,-0.284992,0.21472,2.835,-13.0025,26.32,-21.648,17.208,23.856,concentric,4,3.0,39649.0,343484.0,91552.0,-50.0,-131.0
2026-04-09 22:03:33.603883,166111,1143636486,1143638782,0.669536,-0.329888,0.21472,1.715,-12.32875,32.06875,-21.136002,16.936,24.560001,concentric,4,3.0,39649.0,343484.0,91552.0,-50.0,-131.0
2026-04-09 22:03:33.607452,166112,1143645410,1143647486,0.675392,-0.31232,0.179584,-8.23375,-9.91375,38.12375,-20.92,17.320002,24.248001,concentric,4,3.0,39649.0,343484.0,91552.0,-50.0,-131.0
2026-04-09 22:03:33.669905,166123,1143654827,1143656275,0.675392,-0.31232,0.179584,-22.26875,-6.79875,39.26125,-20.92,17.320002,24.248001,concentric,4,3.0,39953.0,342842.0,91444.0,-52.0,-129.0
2026-04-09 22:03:33.672403,166124,1143669418,1143671277,0.667584,-0.199104,0.226432,-25.08625,-4.13875,37.84375,-20.624,17.544,23.896002,concentric,4,3.0,39953.0,342842.0,91444.0,-52.0,-129.0
2026-04-09 22:03:33.674907,166125,1143678360,1143679998,0.667584,-0.199104,0.226432,-17.77125,-4.1825,34.25625,-20.624,17.544,23.896002,concentric,4,3.0,39953.0,342842.0,91444.0,-52.0,-129.0
2026-04-09 22:03:33.677393,166126,1143687273,1143688736,0.700768,-0.320128,0.181536,-8.39125,-6.60625,29.09375,-20.232,17.888,23.728,concentric,4,3.0,39953.0,342842.0,91444.0,-52.0,-129.0
2026-04-09 22:03:33.679906,166127,1143701783,1143703612,0.700768,-0.320128,0.181536,-1.33,-8.60125,28.69125,-20.232,17.888,23.728,concentric,4,3.0,39953.0,342842.0,91444.0,-52.0,-129.0
2026-04-09 22:03:33.683168,166128,1143710739,1143712306,0.6832,-0.413824,0.134688,-0.91,-9.135,33.8975,-20.272001,18.248001,23.512001,concentric,4,3.0,39953.0,342842.0,91444.0,-52.0,-129.0
2026-04-09 22:03:33.684876,166129,1143719665,1143721030,0.6832,-0.413824,0.134688,-7.51625,-9.00375,38.07125,-20.272001,18.248001,23.512001,concentric,4,3.0,39953.0,342842.0,91444.0,-52.0,-129.0
2026-04-09 22:03:33.687477,166130,1143728690,1143729847,0.765184,-0.255712,0.232288,-16.59,-7.16625,39.4625,-19.752,18.272001,23.984001,concentric,4,3.0,39953.0,342842.0,91444.0,-52.0,-129.0
2026-04-09 22:03:33.689842,166131,1143743334,1143744753,0.728096,-0.33184,0.203008,-22.04125,-5.66125,39.3225,-20.704,18.592001,22.776001,concentric,4,3.0,39953.0,342842.0,91444.0,-52.0,-129.0
2026-04-09 22:03:33.724890,166141,1143752353,1143753522,0.728096,-0.33184,0.203008,-26.460001,-5.425,34.23,-20.704,18.592001,22.776001,concentric,4,3.0,40155.0,343092.0,91792.0,-45.0,-142.0
2026-04-09 22:03:33.727464,166142,1143761480,1143762390,0.728096,-0.33184,0.203008,-28.07875,-5.04875,28.53375,-20.704,18.592001,22.776001,concentric,4,3.0,40155.0,343092.0,91792.0,-45.0,-142.0
2026-04-09 22:03:33.729920,166143,1143776051,1143777371,0.739808,-0.474336,0.173728,-25.01625,-6.11625,24.45625,-19.256,19.144001,20.664001,concentric,4,3.0,40155.0,343092.0,91792.0,-45.0,-142.0
2026-04-09 22:03:33.732501,166144,1143784994,1143786084,0.808128,-0.454816,0.089792,-21.7525,-7.41125,25.06875,-20.216002,18.776001,22.6,concentric,4,3.0,40155.0,343092.0,91792.0,-45.0,-142.0
2026-04-09 22:03:33.737431,166145,1143793923,1143794831,0.808128,-0.454816,0.089792,-21.035,-6.11625,27.74625,-20.216002,18.776001,22.6,concentric,4,3.0,40155.0,343092.0,91792.0,-45.0,-142.0
2026-04-09 22:03:33.770155,166146,1143808428,1143809809,0.802272,-0.407968,0.187392,-24.0625,-3.24625,28.192501,-19.496,19.408,21.84,concentric,4,3.0,40155.0,343092.0,91792.0,-45.0,-142.0
2026-04-09 22:03:33.773654,166147,1143817346,1143818509,0.802272,-0.407968,0.187392,-29.995,1.16375,22.19875,-19.496,19.408,21.84,concentric,4,3.0,40155.0,343092.0,91792.0,-45.0,-142.0
2026-04-09 22:03:33.776215,166148,1143826250,1143827176,0.792512,-0.489952,0.08784,-28.23625,3.4475,16.63375,-18.768002,19.032001,21.024,concentric,4,3.0,40155.0,343092.0,91792.0,-45.0,-142.0
2026-04-09 22:03:33.778679,166149,1143835145,1143835870,0.792512,-0.489952,0.08784,-17.675,2.975,11.9525,-18.768002,19.032001,21.024,concentric,4,3.0,40155.0,343092.0,91792.0,-45.0,-142.0
2026-04-09 22:03:33.808857,166150,1143850108,1143850787,0.808128,-0.402112,0.081984,1.925,0.7,7.2625,-19.184,19.456001,21.624,concentric,4,3.0,40155.0,343092.0,91792.0,-45.0,-142.0
2026-04-09 22:03:33.837382,166160,1143859380,1143861625,0.808128,-0.402112,0.081984,14.69125,-0.4375,4.47125,-19.184,19.456001,21.624,concentric,4,3.0,40143.0,343895.0,92482.0,-24.0,-141.0
2026-04-09 22:03:33.839931,166161,1143868298,1143870331,0.85888,-0.40992,0.140544,19.635,-0.55125,2.82625,-19.128,19.256,21.376001,concentric,4,3.0,40143.0,343895.0,92482.0,-24.0,-141.0
2026-04-09 22:03:33.842528,166162,1143882851,1143883245,0.85888,-0.40992,0.093696,14.525,1.505,0.25375,-19.128,19.256,21.376001,concentric,4,3.0,40143.0,343895.0,92482.0,-24.0,-141.0
2026-04-09 22:03:33.845010,166163,1143892121,1143894022,0.886208,-0.421632,0.099552,6.2475,5.11875,-1.44375,-20.672,19.856,25.000002,concentric,4,3.0,40143.0,343895.0,92482.0,-24.0,-141.0
2026-04-09 22:03:33.847442,166164,1143901165,1143902758,0.886208,-0.421632,0.099552,-1.70625,7.91,-3.00125,-20.672,19.856,25.000002,concentric,4,3.0,40143.0,343895.0,92482.0,-24.0,-141.0
2026-04-09 22:03:33.880192,166165,1143910127,1143911505,0.872544,-0.421632,0.103456,-1.7325,8.1725,-5.39,-20.232,20.464,23.76,concentric,4,3.0,40143.0,343895.0,92482.0,-24.0,-141.0
2026-04-09 22:03:33.883715,166166,1143924634,1143926456,0.880352,-0.472384,0.089792,3.61375,5.67,-8.02375,-20.104,19.536001,20.792002,concentric,4,3.0,40143.0,343895.0,92482.0,-24.0,-141.0
2026-04-09 22:03:33.886217,166167,1143933556,1143935159,0.880352,-0.472384,0.089792,11.20875,3.08,-11.12125,-20.104,19.536001,20.792002,concentric,4,3.0,40143.0,343895.0,92482.0,-24.0,-141.0
2026-04-09 22:03:33.888769,166168,1143942490,1143943859,0.880352,-0.472384,0.089792,17.2025,1.2425,-12.85375,-20.104,19.536001,20.792002,concentric,4,3.0,40143.0,343895.0,92482.0,-24.0,-141.0
2026-04-09 22:03:33.967517,166179,1143957096,1143958813,0.890112,-0.493856,0.119072,22.155,0.6825,-11.31375,-20.184,20.024,19.888,concentric,4,3.0,40579.0,344435.0,93437.0,9.0,-131.0
2026-04-09 22:03:33.976241,166180,1143966158,1143967560,0.880352,-0.42944,0.1464,22.40875,1.05,-9.0475,-20.28,19.296001,21.208,concentric,4,3.0,40579.0,344435.0,93437.0,9.0,-131.0
2026-04-09 22:03:33.978808,166181,1143975054,1143976263,0.880352,-0.42944,0.1464,16.625,2.38875,-7.525,-20.28,19.296001,21.208,concentric,4,3.0,40579.0,344435.0,93437.0,9.0,-131.0
2026-04-09 22:03:33.985003,166182,1143984069,1143984973,0.905728,-0.480192,0.115168,8.86375,3.675,-5.1275,-20.800001,19.856,21.320002,concentric,4,3.0,40579.0,344435.0,93437.0,9.0,-131.0
2026-04-09 22:03:33.987496,166183,1143998546,1143999855,0.905728,-0.480192,0.115168,7.6475,3.84125,-5.425,-20.800001,19.856,21.320002,concentric,4,3.0,40579.0,344435.0,93437.0,9.0,-131.0
2026-04-09 22:03:33.989976,166184,1144007435,1144008614,0.895968,-0.542656,0.1464,9.24875,4.66375,-3.75375,-20.552,20.008001,21.576,concentric,4,3.0,40579.0,344435.0,93437.0,9.0,-131.0
2026-04-09 22:03:33.992465,166185,1144016455,1144017372,0.895968,-0.542656,0.1464,10.92,5.10125,-3.61375,-20.552,20.008001,21.576,concentric,4,3.0,40579.0,344435.0,93437.0,9.0,-131.0
2026-04-09 22:03:33.994991,166186,1144031036,1144032353,0.903776,-0.45872,0.109312,15.21625,5.27625,-1.8375,-21.144001,20.616001,21.872002,concentric,4,3.0,40579.0,344435.0,93437.0,9.0,-131.0
2026-04-09 22:03:33.997458,166187,1144039946,1144041042,0.903776,-0.45872,0.109312,16.52875,5.9675,-2.68625,-21.144001,20.616001,21.872002,concentric,4,3.0,40579.0,344435.0,93437.0,9.0,-131.0
2026-04-09 22:03:33.999995,166188,1144048897,1144049742,0.870592,-0.499712,0.13664,9.03,7.46375,-6.405,-20.504002,20.232,21.736002,concentric,4,3.0,40579.0,344435.0,93437.0,9.0,-131.0
2026-04-09 22:03:34.027598,166198,1144063674,1144064731,0.870592,-0.499712,0.093696,-1.7325,8.39125,-7.35875,-20.504002,20.232,21.736002,concentric,4,3.0,40816.0,343557.0,93063.0,8.0,-138.0
2026-04-09 22:03:34.029916,166199,1144072577,1144073450,0.85888,-0.550464,0.093696,-11.27,8.47,-6.02875,-22.008001,19.736,20.856,concentric,4,3.0,40816.0,343557.0,93063.0,8.0,-138.0
2026-04-09 22:03:34.032519,166200,1144081512,1144082167,0.85888,-0.550464,0.093696,-18.366251,8.085,-4.2875,-22.008001,19.736,20.856,concentric,4,3.0,40816.0,343557.0,93063.0,8.0,-138.0
2026-04-09 22:03:34.036197,166201,1144090794,1144092963,0.895968,-0.513376,0.056608,-20.41375,7.04375,-3.35125,-21.952002,20.248001,21.032001,concentric,4,3.0,40816.0,343557.0,93063.0,8.0,-138.0
2026-04-09 22:03:34.066508,166202,1144105287,1144105840,0.921344,-0.560224,0.06832,-19.67,5.6875,-3.96375,-22.224,20.056002,19.568,concentric,4,3.0,40816.0,343557.0,93063.0,8.0,-138.0
2026-04-09 22:03:34.078845,166203,1144114465,1144116616,0.921344,-0.560224,0.06832,-10.14125,3.56125,-6.74625,-22.224,20.056002,19.568,concentric,4,3.0,40816.0,343557.0,93063.0,8.0,-138.0
2026-04-09 22:03:34.081200,166204,1144123385,1144125322,0.921344,-0.560224,0.06832,-2.91375,1.9075,-8.44375,-22.224,20.056002,19.568,concentric,4,3.0,40816.0,343557.0,93063.0,8.0,-138.0
2026-04-09 22:03:34.083766,166205,1144137863,1144138183,0.911584,-0.558272,0.070272,-4.4975,1.0325,-6.60625,-21.192001,20.232,21.272001,concentric,4,3.0,40816.0,343557.0,93063.0,8.0,-138.0
2026-04-09 22:03:34.114001,166206,1144147130,1144148996,0.895968,-0.544608,0.07808,-3.99,0.77,-6.23875,-22.296001,20.032001,21.096,concentric,4,3.0,40816.0,343557.0,93063.0,8.0,-138.0
2026-04-09 22:03:34.139953,166216,1144156440,1144157733,0.895968,-0.544608,0.07808,-0.53375,0.60375,-4.34,-22.296001,20.032001,21.096,concentric,4,3.0,40225.0,343587.0,92386.0,-23.0,-129.0
2026-04-09 22:03:34.142449,166217,1144165485,1144166563,0.89792,-0.534848,0.083936,3.6225,-0.81375,-2.80875,-21.328001,20.312,20.112001,concentric,4,3.0,40225.0,343587.0,92386.0,-23.0,-129.0
2026-04-09 22:03:34.145006,166218,1144180038,1144181483,0.89792,-0.534848,0.083936,3.7975,-1.51375,-2.2575,-21.328001,20.312,20.112001,concentric,4,3.0,40225.0,343587.0,92386.0,-23.0,-129.0
2026-04-09 22:03:34.147468,166219,1144189024,1144190245,0.870592,-0.558272,0.076128,4.7775,-2.835,-0.93625,-21.384,20.184,20.272001,concentric,4,3.0,40225.0,343587.0,92386.0,-23.0,-129.0
2026-04-09 22:03:34.149973,166220,1144198036,1144199020,0.870592,-0.558272,0.076128,8.417501,-3.71875,-0.09625,-21.384,20.184,20.272001,concentric,4,3.0,40225.0,343587.0,92386.0,-23.0,-129.0
2026-04-09 22:03:34.156287,166221,1144212578,1144214040,0.85888,-0.519232,0.115168,11.05125,-4.585,0.735,-21.28,20.368,20.344002,concentric,4,3.0,40225.0,343587.0,92386.0,-23.0,-129.0
2026-04-09 22:03:34.186687,166222,1144221541,1144222792,0.85888,-0.519232,0.115168,9.30125,-5.18875,2.58125,-21.28,20.368,20.344002,concentric,4,3.0,40225.0,343587.0,92386.0,-23.0,-129.0
2026-04-09 22:03:34.189986,166223,1144230534,1144231526,0.847168,-0.534848,0.13664,3.7275,-4.55,4.6375,-21.328001,20.544,21.432001,concentric,4,3.0,40225.0,343587.0,92386.0,-23.0,-129.0
2026-04-09 22:03:34.192511,166224,1144245032,1144246419,0.845216,-0.530944,0.042944,-3.78875,-4.12125,6.86875,-21.328001,19.912,20.04,concentric,4,3.0,40225.0,343587.0,92386.0,-23.0,-129.0
2026-04-09 22:03:34.258818,166235,1144254015,1144255257,0.845216,-0.530944,0.042944,-2.5725,-6.01125,7.805,-20.864,19.912,20.04,concentric,4,3.0,40476.0,342171.0,91731.0,-40.0,-131.0
2026-04-09 22:03:34.265538,166236,1144263950,1144266126,0.845216,-0.530944,0.042944,-0.83125,-8.28625,7.90125,-20.864,19.912,20.04,concentric,4,3.0,40476.0,342171.0,91731.0,-40.0,-131.0
2026-04-09 22:03:34.267469,166237,1144272942,1144274848,0.83936,-0.511424,0.06832,1.4,-10.66625,7.91,-22.160002,20.408,21.960001,concentric,4,3.0,40476.0,342171.0,91731.0,-40.0,-131.0
2026-04-09 22:03:34.270470,166238,1144287505,1144289745,0.841312,-0.521184,0.072224,-0.00875,-11.80375,8.68875,-20.960001,20.272001,19.36,concentric,4,3.0,40476.0,342171.0,91731.0,-40.0,-131.0
2026-04-09 22:03:34.272544,166239,1144296426,1144298430,0.841312,-0.521184,0.072224,-7.1225,-10.71875,8.715,-20.960001,20.272001,19.36,concentric,4,3.0,40476.0,342171.0,91731.0,-40.0,-131.0
2026-04-09 22:03:34.275045,166240,1144305411,1144307083,0.808128,-0.568032,0.085888,-14.83125,-9.66,8.53125,-20.368,20.616001,19.064001,concentric,4,3.0,40476.0,342171.0,91731.0,-40.0,-131.0
2026-04-09 22:03:34.277492,166241,1144314462,1144315797,0.808128,-0.568032,0.085888,-18.85625,-9.03,10.52625,-20.368,20.616001,19.064001,concentric,4,3.0,40476.0,342171.0,91731.0,-40.0,-131.0
2026-04-09 22:03:34.280006,166242,1144328954,1144330708,0.788608,-0.568032,0.062464,-17.03625,-9.135,13.09875,-20.344002,20.632002,20.0,concentric,4,3.0,40476.0,342171.0,91731.0,-40.0,-131.0
2026-04-09 22:03:34.282507,166243,1144337926,1144339472,0.788608,-0.568032,0.062464,-12.52125,-9.1525,14.27125,-20.344002,20.632002,20.0,concentric,4,3.0,40476.0,342171.0,91731.0,-40.0,-131.0
2026-04-09 22:03:34.312683,166244,1144346886,1144348205,0.782752,-0.552416,0.02928,-7.98875,-9.09125,14.86625,-19.448002,20.888,17.832,concentric,4,3.0,40476.0,342171.0,91731.0,-40.0,-131.0
2026-04-09 22:03:34.339327,166254,1144361702,1144363157,0.782752,-0.552416,0.02928,-5.8275,-8.91625,14.95375,-19.448002,20.888,17.832,concentric,4,3.0,40311.0,342713.0,91872.0,-41.0,-123.0
2026-04-09 22:03:34.341735,166255,1144370641,1144371898,0.7808,-0.51728,0.040992,-8.44375,-7.9625,13.92125,-19.624,20.0,19.256,concentric,4,3.0,40311.0,342713.0,91872.0,-41.0,-123.0
2026-04-09 22:03:34.343993,166256,1144379580,1144380642,0.7808,-0.51728,0.040992,-14.9975,-7.16625,12.83625,-19.624,20.0,19.256,concentric,4,3.0,40311.0,342713.0,91872.0,-41.0,-123.0
2026-04-09 22:03:34.346165,166257,1144394081,1144395549,0.77104,-0.583648,0.042944,-17.465,-6.5975,11.9875,-20.160002,20.888,19.656,concentric,4,3.0,40311.0,342713.0,91872.0,-41.0,-123.0
2026-04-09 22:03:34.348704,166258,1144403107,1144404339,0.77104,-0.583648,0.042944,-13.06375,-6.51,11.9875,-20.160002,20.888,19.656,concentric,4,3.0,40311.0,342713.0,91872.0,-41.0,-123.0
2026-04-09 22:03:34.355013,166259,1144412104,1144413123,0.782752,-0.571936,0.03904,-7.4725,-7.09625,12.25875,-20.080002,20.864,20.240002,concentric,4,3.0,40311.0,342713.0,91872.0,-41.0,-123.0
