pc_time,serial_num,sensor_ts,host_ts,ax,ay,az,gx,gy,gz,mx,my,mz,phase,rpe,weight_kg,ppg_a,ppg_b,ppg_c,ppg_d,ppg_e
2026-04-09 22:03:26.520013,164794,1136549932,1136551476,0.895968,-0.571936,0.021472,-18.4275,1.30375,-4.5325,-22.096,19.784,19.312,eccentric,4,3.0,39951.0,342423.0,90995.0,-58.0,-132.0
2026-04-09 22:03:26.523483,164795,1136564485,1136566456,0.901824,-0.554368,0.003904,-15.627501,0.97125,-2.86125,-20.744001,19.504002,18.584002,eccentric,4,3.0,39951.0,342423.0,90995.0,-58.0,-132.0
2026-04-09 22:03:26.525985,164796,1136573453,1136575157,0.901824,-0.554368,0.003904,-14.665,1.44375,-1.44375,-20.744001,19.504002,18.584002,eccentric,4,3.0,39951.0,342423.0,90995.0,-58.0,-132.0
2026-04-09 22:03:26.528524,164797,1136582397,1136583861,0.88816,-0.523136,0.005856,-15.88125,1.77625,0.14,-20.720001,19.640001,18.144001,eccentric,4,3.0,39951.0,342423.0,90995.0,-58.0,-132.0
2026-04-09 22:03:26.534832,164798,1136591344,1136592575,0.88816,-0.523136,0.005856,-19.3725,2.625,1.18125,-20.720001,19.640001,18.144001,eccentric,4,3.0,39951.0,342423.0,90995.0,-58.0,-132.0
2026-04-09 22:03:26.564920,164799,1136605825,1136607524,0.866688,-0.562176,0.001952,-16.415,1.8375,2.00375,-20.92,19.952002,18.144001,eccentric,4,3.0,39951.0,342423.0,90995.0,-58.0,-132.0
2026-04-09 22:03:26.591257,164809,1136615005,1136616326,0.833504,-0.552416,0.001952,-13.475,1.44375,3.24625,-20.6,19.736,17.320002,eccentric,4,3.0,39738.0,341146.0,89864.0,-92.0,-130.0
2026-04-09 22:03:26.593493,164810,1136623974,1136625099,0.833504,-0.552416,0.001952,-13.8075,1.53125,4.2175,-20.6,19.736,17.320002,eccentric,4,3.0,39738.0,341146.0,89864.0,-92.0,-130.0
2026-04-09 22:03:26.595961,164811,1136638538,1136640035,0.798368,-0.534848,0.015616,-15.81125,1.61,4.40125,-20.04,20.176,18.488,eccentric,4,3.0,39738.0,341146.0,89864.0,-92.0,-130.0
2026-04-09 22:03:26.598516,164812,1136647519,1136648744,0.798368,-0.534848,0.015616,-14.980001,0.98875,5.0225,-20.04,20.176,18.488,eccentric,4,3.0,39738.0,341146.0,89864.0,-92.0,-130.0
2026-04-09 22:03:26.601048,164813,1136656446,1136657442,0.792512,-0.513376,-0.007808,-11.7775,0.62125,6.11625,-20.536001,20.072,18.824001,eccentric,4,3.0,39738.0,341146.0,89864.0,-92.0,-130.0
2026-04-09 22:03:26.631223,164814,1136670996,1136672414,0.792512,-0.513376,-0.007808,-8.98625,0.53375,6.01125,-20.536001,20.072,18.824001,eccentric,4,3.0,39738.0,341146.0,89864.0,-92.0,-130.0
2026-04-09 22:03:26.634732,164815,1136679912,1136681115,0.782752,-0.5368,-0.011712,-8.25125,-0.0875,5.95,-20.416,19.976002,17.160002,eccentric,4,3.0,39738.0,341146.0,89864.0,-92.0,-130.0
2026-04-09 22:03:26.637193,164816,1136688918,1136689799,0.782752,-0.5368,-0.011712,-7.83125,-0.56,5.775,-20.416,19.976002,17.160002,eccentric,4,3.0,39738.0,341146.0,89864.0,-92.0,-130.0
2026-04-09 22:03:26.640947,164817,1136697844,1136698516,0.774944,-0.54656,-0.001952,-6.92125,-0.91,5.1975,-19.84,20.288,17.336,eccentric,4,3.0,39738.0,341146.0,89864.0,-92.0,-130.0
2026-04-09 22:03:26.694719,164827,1136713103,1136713455,0.774944,-0.54656,-0.001952,-7.14875,-1.2425,5.31125,-19.84,20.288,17.336,eccentric,4,3.0,39664.0,339953.0,88917.0,-93.0,-136.0
2026-04-09 22:03:26.697216,164828,1136722373,1136724282,0.7808,-0.513376,0.027328,-6.5275,-2.1525,4.85625,-19.68,19.872002,14.312,eccentric,4,3.0,39664.0,339953.0,88917.0,-93.0,-136.0
2026-04-09 22:03:26.699706,164829,1136731323,1136733002,0.7808,-0.513376,0.027328,-5.4425,-2.94875,4.75125,-19.68,19.872002,14.312,eccentric,4,3.0,39664.0,339953.0,88917.0,-93.0,-136.0
2026-04-09 22:03:26.702243,164830,1136740263,1136741728,0.806176,-0.540704,-0.001952,-4.76,-3.6925,4.7075,-19.408,19.28,17.328001,eccentric,4,3.0,39664.0,339953.0,88917.0,-93.0,-136.0
2026-04-09 22:03:26.704756,164831,1136754827,1136756631,0.841312,-0.61488,-0.007808,-3.99875,-4.54125,4.34875,-19.408,19.28,16.984001,eccentric,4,3.0,39664.0,339953.0,88917.0,-93.0,-136.0
2026-04-09 22:03:26.707282,164832,1136763897,1136765373,0.841312,-0.61488,-0.007808,-3.99875,-5.32,4.50625,-19.624,19.6,16.984001,eccentric,4,3.0,39664.0,339953.0,88917.0,-93.0,-136.0
2026-04-09 22:03:26.746908,164833,1136772835,1136774082,0.841312,-0.61488,-0.007808,-4.08625,-6.51875,4.445,-19.624,19.6,16.984001,eccentric,4,3.0,39664.0,339953.0,88917.0,-93.0,-136.0
2026-04-09 22:03:26.751461,164834,1136787286,1136789019,0.872544,-0.577792,0.001952,-1.56625,-7.455,4.92625,-19.768002,19.744001,16.624,eccentric,4,3.0,39664.0,339953.0,88917.0,-93.0,-136.0
2026-04-09 22:03:26.752214,164835,1136796214,1136797723,0.870592,-0.59536,0.00976,-2.0825,-7.8925,5.6175,-18.952002,20.064001,17.376001,eccentric,4,3.0,39664.0,339953.0,88917.0,-93.0,-136.0
2026-04-09 22:03:26.754807,164836,1136805120,1136806445,0.870592,-0.59536,0.00976,-4.7075,-7.95375,7.35,-18.952002,20.064001,17.376001,eccentric,4,3.0,39664.0,339953.0,88917.0,-93.0,-136.0
2026-04-09 22:03:26.785971,164847,1136819702,1136821470,0.911584,-0.659776,0.001952,-6.88625,-7.39375,9.58125,-18.568,20.0,17.0,eccentric,4,3.0,39625.0,340411.0,89164.0,-88.0,-131.0
2026-04-09 22:03:26.788656,164848,1136828684,1136830276,0.911584,-0.659776,0.001952,-10.3425,-4.9175,10.50875,-18.568,20.0,17.0,eccentric,4,3.0,39625.0,340411.0,89164.0,-88.0,-131.0
2026-04-09 22:03:26.791081,164849,1136837643,1136839001,0.935008,-0.642208,-0.01952,-12.3375,-1.82875,9.98375,-18.424002,19.68,16.824001,eccentric,4,3.0,39625.0,340411.0,89164.0,-88.0,-131.0
2026-04-09 22:03:26.797289,164850,1136852162,1136853885,0.935008,-0.642208,-0.01952,-6.79,-0.35875,10.10625,-18.424002,19.68,16.824001,eccentric,4,3.0,39625.0,340411.0,89164.0,-88.0,-131.0
2026-04-09 22:03:26.803505,164851,1136861104,1136862631,0.921344,-0.691008,-0.005856,-3.21125,0.34125,9.6075,-19.144001,20.248001,18.032001,eccentric,4,3.0,39625.0,340411.0,89164.0,-88.0,-131.0
2026-04-09 22:03:26.833601,164852,1136870061,1136871344,0.921344,-0.691008,-0.005856,-2.17,1.26875,9.730001,-19.144001,20.248001,18.032001,eccentric,4,3.0,39625.0,340411.0,89164.0,-88.0,-131.0
2026-04-09 22:03:26.837209,164853,1136879035,1136880066,0.880352,-0.655872,0.027328,2.24,1.82875,10.5,-18.44,20.096,17.168001,eccentric,4,3.0,39625.0,340411.0,89164.0,-88.0,-131.0
2026-04-09 22:03:26.839733,164854,1136893613,1136894963,0.880352,-0.655872,0.027328,0.39375,2.625,9.4325,-18.44,20.096,17.168001,eccentric,4,3.0,39625.0,340411.0,89164.0,-88.0,-131.0
2026-04-09 22:03:26.844763,164855,1136902593,1136903706,0.8784,-0.609024,-0.001952,-1.6625,3.6225,9.16125,-17.712,19.936,15.712001,eccentric,4,3.0,39625.0,340411.0,89164.0,-88.0,-131.0
2026-04-09 22:03:26.874990,164856,1136911604,1136912409,0.8784,-0.609024,-0.001952,-0.8925,4.62875,7.76125,-17.712,19.936,15.712001,eccentric,4,3.0,39625.0,340411.0,89164.0,-88.0,-131.0
2026-04-09 22:03:26.901039,164866,1136926111,1136927338,0.831552,-0.61488,-0.005856,-0.95375,5.8975,5.215,-17.912,19.28,17.464,eccentric,4,3.0,39514.0,341687.0,90063.0,-64.0,-134.0
2026-04-09 22:03:26.904471,164867,1136934982,1136936071,0.831552,-0.61488,-0.005856,0.16625,4.36625,2.415,-17.912,19.28,17.464,eccentric,4,3.0,39514.0,341687.0,90063.0,-64.0,-134.0
2026-04-09 22:03:26.906153,164868,1136943920,1136944819,0.804224,-0.603168,-0.007808,1.225,3.6575,0.2275,-17.752,19.92,17.488,eccentric,4,3.0,39514.0,341687.0,90063.0,-64.0,-134.0
2026-04-09 22:03:26.912080,164869,1136958562,1136959775,0.767136,-0.568032,0.056608,1.1725,3.54375,-3.03625,-18.184,19.792002,18.76,eccentric,4,3.0,39514.0,341687.0,90063.0,-64.0,-134.0
2026-04-09 22:03:26.913409,164870,1136967495,1136968520,0.767136,-0.568032,0.056608,2.345,3.80625,-4.90875,-18.184,19.792002,18.76,eccentric,4,3.0,39514.0,341687.0,90063.0,-64.0,-134.0
2026-04-09 22:03:26.919740,164871,1136976433,1136977224,0.784704,-0.534848,0.011712,5.41625,3.35125,-6.72,-18.208,19.264002,19.288,eccentric,4,3.0,39514.0,341687.0,90063.0,-64.0,-134.0
2026-04-09 22:03:26.949985,164872,1136985356,1136985916,0.784704,-0.534848,0.011712,5.48625,3.5875,-10.19375,-18.208,19.264002,19.288,eccentric,4,3.0,39514.0,341687.0,90063.0,-64.0,-134.0
2026-04-09 22:03:26.953602,164873,1137000038,1137000806,0.77104,-0.509472,-0.001952,3.00125,4.2875,-14.6125,-17.664001,19.064001,18.112001,eccentric,4,3.0,39514.0,341687.0,90063.0,-64.0,-134.0
2026-04-09 22:03:26.956036,164874,1137009390,1137011574,0.77104,-0.509472,-0.001952,1.33875,5.1625,-17.115,-17.664001,19.064001,18.112001,eccentric,4,3.0,39514.0,341687.0,90063.0,-64.0,-134.0
2026-04-09 22:03:26.980987,164884,1137018373,1137020447,0.77104,-0.54656,0.064416,-2.45,5.15375,-20.4575,-17.168001,19.512001,17.872002,eccentric,4,3.0,39574.0,339694.0,88789.0,-94.0,-145.0
2026-04-09 22:03:26.984700,164885,1137032908,1137033480,0.77104,-0.54656,0.064416,-0.56,4.89125,-20.29125,-17.168001,19.512001,17.872002,eccentric,4,3.0,39574.0,339694.0,88789.0,-94.0,-145.0
2026-04-09 22:03:26.987483,164886,1137042115,1137044257,0.74176,-0.50752,0.066368,-0.04375,5.66125,-20.195,-17.944,19.008001,18.432001,eccentric,4,3.0,39574.0,339694.0,88789.0,-94.0,-145.0
2026-04-09 22:03:27.041288,164887,1137051074,1137052991,0.74176,-0.50752,0.066368,-1.225,7.42,-21.56,-17.944,19.008001,18.432001,eccentric,4,3.0,39574.0,339694.0,88789.0,-94.0,-145.0
2026-04-09 22:03:27.044785,164888,1137060113,1137061736,0.759328,-0.523136,-0.003904,0.5075,8.02375,-23.42375,-17.672,18.52,18.312,eccentric,4,3.0,39574.0,339694.0,88789.0,-94.0,-145.0
2026-04-09 22:03:27.047331,164889,1137074569,1137076643,0.759328,-0.523136,-0.003904,0.46375,8.42625,-27.825,-17.672,18.52,18.312,eccentric,4,3.0,39574.0,339694.0,88789.0,-94.0,-145.0
2026-04-09 22:03:27.053535,164890,1137083470,1137085333,0.76128,-0.50752,0.046848,5.53,7.84,-29.81125,-17.544,18.752,19.248001,eccentric,4,3.0,39574.0,339694.0,88789.0,-94.0,-145.0
2026-04-09 22:03:27.055942,164891,1137092496,1137094053,0.76128,-0.50752,0.046848,9.24,7.28875,-30.1175,-17.544,18.752,19.248001,eccentric,4,3.0,39574.0,339694.0,88789.0,-94.0,-145.0
2026-04-09 22:03:27.058537,164892,1137106946,1137108946,0.759328,-0.474336,0.060512,5.775,8.435,-31.57875,-17.568,18.448,18.624,eccentric,4,3.0,39574.0,339694.0,88789.0,-94.0,-145.0
2026-04-09 22:03:27.089747,164903,1137116300,1137117721,0.759328,-0.474336,0.0488,0.84,9.9575,-32.03375,-17.568,18.448,20.28,eccentric,4,3.0,39587.0,340637.0,89387.0,-68.0,-144.0
2026-04-09 22:03:27.092231,164904,1137125419,1137126512,0.716384,-0.474336,0.0488,-3.08,10.56125,-35.35,-18.488,18.216002,20.28,eccentric,4,3.0,39587.0,340637.0,89387.0,-68.0,-144.0
2026-04-09 22:03:27.094755,164905,1137139899,1137141436,0.776896,-0.501664,0.011712,-1.19875,10.57,-37.5375,-19.392,18.376001,19.512001,eccentric,4,3.0,39587.0,340637.0,89387.0,-68.0,-144.0
2026-04-09 22:03:27.099710,164906,1137148876,1137150172,0.776896,-0.501664,0.011712,0.58625,9.77375,-40.55625,-19.392,18.376001,19.512001,eccentric,4,3.0,39587.0,340637.0,89387.0,-68.0,-144.0
2026-04-09 22:03:27.102193,164907,1137157808,1137158895,0.755424,-0.491904,0.091744,-1.67125,11.2525,-42.5775,-19.096,17.968,19.424002,eccentric,4,3.0,39587.0,340637.0,89387.0,-68.0,-144.0
2026-04-09 22:03:27.132464,164908,1137166737,1137167597,0.755424,-0.491904,0.091744,0.735,11.83,-41.405,-19.096,17.968,19.424002,eccentric,4,3.0,39587.0,340637.0,89387.0,-68.0,-144.0
2026-04-09 22:03:27.136037,164909,1137181339,1137182495,0.708576,-0.443104,0.0976,4.445,13.15125,-42.16625,-18.192001,17.576,18.952002,eccentric,4,3.0,39587.0,340637.0,89387.0,-68.0,-144.0
2026-04-09 22:03:27.138423,164910,1137190221,1137191214,0.708576,-0.443104,0.0976,6.53625,15.408751,-42.83125,-18.192001,17.576,18.952002,eccentric,4,3.0,39587.0,340637.0,89387.0,-68.0,-144.0
2026-04-09 22:03:27.140997,164911,1137199137,1137199923,0.772992,-0.417728,0.005856,7.0875,15.8375,-42.49,-18.728,17.656,19.2,eccentric,4,3.0,39587.0,340637.0,89387.0,-68.0,-144.0
2026-04-09 22:03:27.203497,164921,1137214187,1137215105,0.772992,-0.417728,0.005856,9.73875,16.1525,-42.5075,-18.728,17.656,19.2,eccentric,4,3.0,39693.0,342496.0,90787.0,-32.0,-140.0
2026-04-09 22:03:27.206020,164922,1137223999,1137225894,0.71248,-0.452864,0.080032,12.5125,17.6575,-42.56,-19.392,17.392,19.464,eccentric,4,3.0,39693.0,342496.0,90787.0,-32.0,-140.0
2026-04-09 22:03:27.208524,164923,1137232915,1137234592,0.71248,-0.452864,0.080032,12.565,19.6875,-42.455,-19.392,17.392,19.464,eccentric,4,3.0,39693.0,342496.0,90787.0,-32.0,-140.0
2026-04-09 22:03:27.211037,164924,1137241924,1137243355,0.679296,-0.36112,0.124928,10.33375,22.23375,-42.3675,-20.512001,17.288,20.488,eccentric,4,3.0,39693.0,342496.0,90787.0,-32.0,-140.0
2026-04-09 22:03:27.213542,164925,1137256466,1137258240,0.679296,-0.36112,0.054656,6.72,24.26375,-41.02875,-20.512001,17.288,20.488,eccentric,4,3.0,39693.0,342496.0,90787.0,-32.0,-140.0
2026-04-09 22:03:27.216042,164926,1137265424,1137266996,0.694912,-0.40992,0.054656,-0.3325,26.13625,-42.41125,-19.888,16.848001,20.824001,eccentric,4,3.0,39693.0,342496.0,90787.0,-32.0,-140.0
2026-04-09 22:03:27.219347,164927,1137274427,1137275722,0.694912,-0.40992,0.054656,1.8025,27.93,-41.2475,-19.888,16.848001,20.824001,eccentric,4,3.0,39693.0,342496.0,90787.0,-32.0,-140.0
2026-04-09 22:03:27.249645,164928,1137288942,1137290674,0.735904,-0.33184,0.093696,7.4025,30.52,-38.40375,-21.128,16.76,21.240002,eccentric,4,3.0,39693.0,342496.0,90787.0,-32.0,-140.0
2026-04-09 22:03:27.251911,164929,1137297883,1137299361,0.640256,-0.343552,0.152256,9.84375,34.36125,-37.065,-20.664001,16.464,20.336,eccentric,4,3.0,39693.0,342496.0,90787.0,-32.0,-140.0
2026-04-09 22:03:27.256584,164930,1137306798,1137308032,0.640256,-0.343552,0.152256,3.08,38.3775,-36.61,-20.664001,16.464,20.336,eccentric,4,3.0,39693.0,342496.0,90787.0,-32.0,-140.0
2026-04-09 22:03:27.282460,164940,1137316286,1137316839,0.640256,-0.343552,0.152256,-6.11625,38.8675,-36.4525,-20.664001,16.464,20.336,eccentric,4,3.0,39589.0,339551.0,88650.0,-90.0,-143.0
2026-04-09 22:03:27.286479,164941,1137331400,1137331893,0.687104,-0.402112,0.023424,-6.55375,36.91625,-36.89875,-20.76,15.952001,21.176,eccentric,4,3.0,39589.0,339551.0,88650.0,-90.0,-143.0
2026-04-09 22:03:27.288943,164942,1137340804,1137342690,0.679296,-0.407968,0.072224,1.39125,34.8075,-35.1225,-21.056002,16.032001,21.216002,eccentric,4,3.0,39589.0,339551.0,88650.0,-90.0,-143.0
2026-04-09 22:03:27.293564,164943,1137349730,1137351409,0.679296,-0.407968,0.072224,5.31125,33.32,-35.595,-21.056002,16.032001,21.216002,eccentric,4,3.0,39589.0,339551.0,88650.0,-90.0,-143.0
2026-04-09 22:03:27.343491,164944,1137358655,1137360162,0.75152,-0.298656,0.113216,7.88375,31.19375,-37.24,-22.000002,15.504001,23.12,eccentric,4,3.0,39589.0,339551.0,88650.0,-90.0,-143.0
2026-04-09 22:03:27.346096,164945,1137373197,1137375100,0.75152,-0.298656,0.113216,13.125,29.723751,-38.9725,-22.000002,15.504001,23.12,eccentric,4,3.0,39589.0,339551.0,88650.0,-90.0,-143.0
2026-04-09 22:03:27.387094,164946,1137382156,1137383908,0.704672,-0.25376,0.1464,13.4925,28.84,-42.7875,-21.616001,15.792001,21.632002,eccentric,4,3.0,39589.0,339551.0,88650.0,-90.0,-143.0
2026-04-09 22:03:27.388203,164947,1137391100,1137392606,0.704672,-0.25376,0.1464,7.735,27.991251,-46.138752,-21.616001,15.792001,21.632002,eccentric,4,3.0,39589.0,339551.0,88650.0,-90.0,-143.0
2026-04-09 22:03:27.392823,164948,1137405707,1137407501,0.716384,-0.413824,0.070272,0.21,26.845,-48.195,-21.920002,14.880001,21.784,eccentric,4,3.0,39589.0,339551.0,88650.0,-90.0,-143.0
2026-04-09 22:03:27.418566,164959,1137414662,1137416273,0.716384,-0.413824,0.070272,-1.12,24.85875,-46.9525,-21.920002,14.880001,21.784,eccentric,4,3.0,39822.0,331852.0,83605.0,-144.0,-130.0
2026-04-09 22:03:27.422803,164960,1137423667,1137425002,0.737856,-0.363072,0.134688,0.41125,24.6225,-45.12375,-22.408,15.024001,21.744001,eccentric,4,3.0,39822.0,331852.0,83605.0,-144.0,-130.0
2026-04-09 22:03:27.424495,164961,1137432689,1137433742,0.737856,-0.363072,0.134688,4.19125,24.325,-43.60125,-22.408,15.024001,21.744001,eccentric,4,3.0,39822.0,331852.0,83605.0,-144.0,-130.0
2026-04-09 22:03:27.426139,164962,1137447211,1137448738,0.735904,-0.206912,0.167872,12.573751,24.5,-42.35,-22.304,14.416,21.856,eccentric,4,3.0,39822.0,331852.0,83605.0,-144.0,-130.0
2026-04-09 22:03:27.430291,164963,1137456166,1137457461,0.735904,-0.206912,0.167872,11.4975,25.66375,-47.15375,-22.304,14.416,21.856,eccentric,4,3.0,39822.0,331852.0,83605.0,-144.0,-130.0
2026-04-09 22:03:27.432003,164964,1137465174,1137466213,0.710528,-0.31232,0.181536,11.4275,26.7575,-47.11875,-23.688002,14.368001,22.664001,eccentric,4,3.0,39822.0,331852.0,83605.0,-144.0,-130.0
2026-04-09 22:03:27.433565,164965,1137479793,1137481138,0.689056,-0.421632,0.183488,6.22125,27.7025,-45.263752,-23.792002,13.816001,23.240002,eccentric,4,3.0,39822.0,331852.0,83605.0,-144.0,-130.0
2026-04-09 22:03:27.437658,164966,1137488816,1137489829,0.689056,-0.421632,0.183488,2.835,29.19875,-38.00125,-23.792002,13.816001,23.240002,eccentric,4,3.0,39822.0,331852.0,83605.0,-144.0,-130.0
2026-04-09 22:03:27.441408,164967,1137497801,1137498590,0.689056,-0.189344,0.134688,-2.93125,31.50875,-32.59375,-23.792002,13.816001,23.240002,eccentric,4,3.0,39822.0,331852.0,83605.0,-144.0,-130.0
2026-04-09 22:03:27.472535,164968,1137512303,1137513491,0.677344,-0.189344,0.134688,-0.90125,31.22,-28.98,-23.736002,13.848001,23.832,eccentric,4,3.0,39822.0,331852.0,83605.0,-144.0,-130.0
2026-04-09 22:03:27.496009,164978,1137521430,1137522288,0.685152,-0.148352,0.138592,4.24375,29.33875,-32.36625,-23.792002,14.168,23.504002,eccentric,4,3.0,39698.0,335490.0,85956.0,-120.0,-136.0
2026-04-09 22:03:27.498560,164979,1137530391,1137531009,0.685152,-0.148352,0.138592,10.745,24.6575,-36.46125,-23.792002,14.168,23.504002,eccentric,4,3.0,39698.0,335490.0,85956.0,-120.0,-136.0
2026-04-09 22:03:27.501012,164980,1137539737,1137541861,0.679296,-0.2928,0.189344,16.16125,21.945,-40.27625,-24.464,13.576,24.672,eccentric,4,3.0,39698.0,335490.0,85956.0,-120.0,-136.0
2026-04-09 22:03:27.503528,164981,1137554366,1137554781,0.679296,-0.2928,0.189344,11.6025,20.991251,-39.17375,-24.464,13.576,24.672,eccentric,4,3.0,39698.0,335490.0,85956.0,-120.0,-136.0
2026-04-09 22:03:27.508522,164982,1137563681,1137565556,0.667584,-0.25376,0.158112,2.1875,21.49,-33.565,-25.008001,13.632001,23.528002,eccentric,4,3.0,39698.0,335490.0,85956.0,-120.0,-136.0
2026-04-09 22:03:27.539401,164983,1137572658,1137574261,0.667584,-0.25376,0.158112,-4.165,19.678751,-30.275,-25.008001,13.632001,23.528002,eccentric,4,3.0,39698.0,335490.0,85956.0,-120.0,-136.0
2026-04-09 22:03:27.542300,164984,1137587155,1137589229,0.704672,-0.201056,0.003904,-0.21875,15.9425,-30.03875,-24.448002,13.368001,23.344002,eccentric,4,3.0,39698.0,335490.0,85956.0,-120.0,-136.0
2026-04-09 22:03:27.546479,164985,1137596073,1137597921,0.704672,-0.201056,0.003904,11.20875,9.24875,-32.31375,-24.448002,13.368001,23.344002,eccentric,4,3.0,39698.0,335490.0,85956.0,-120.0,-136.0
2026-04-09 22:03:27.548906,164986,1137605020,1137606627,0.716384,-0.236192,0.236192,21.7175,6.27375,-33.53,-24.28,12.920001,23.28,eccentric,4,3.0,39698.0,335490.0,85956.0,-120.0,-136.0
2026-04-09 22:03:27.578700,164987,1137613989,1137615362,0.716384,-0.236192,0.236192,18.52375,8.39125,-31.2375,-24.28,12.920001,23.28,eccentric,4,3.0,39698.0,335490.0,85956.0,-120.0,-136.0
2026-04-09 22:03:27.608479,164997,1137628610,1137630293,0.724192,-0.27328,0.181536,8.14625,10.745,-30.07375,-24.784,12.848001,23.744001,eccentric,4,3.0,39535.0,337208.0,86961.0,-112.0,-141.0
2026-04-09 22:03:27.647417,164998,1137637589,1137639008,0.724192,-0.27328,0.181536,3.43875,10.1325,-29.3825,-24.784,12.848001,23.744001,eccentric,4,3.0,39535.0,337208.0,86961.0,-112.0,-141.0
2026-04-09 22:03:27.651009,164999,1137646507,1137647738,0.774944,-0.201056,0.101504,8.96,7.95375,-28.07,-24.616001,12.568001,24.728,eccentric,4,3.0,39535.0,337208.0,86961.0,-112.0,-141.0
2026-04-09 22:03:27.653497,165000,1137661049,1137662667,0.776896,-0.324032,0.162016,14.65625,6.16,-26.74875,-24.192001,13.216001,23.688002,eccentric,4,3.0,39535.0,337208.0,86961.0,-112.0,-141.0
2026-04-09 22:03:27.656036,165001,1137670031,1137671405,0.776896,-0.324032,0.162016,13.440001,5.775,-25.96125,-24.192001,13.216001,23.688002,eccentric,4,3.0,39535.0,337208.0,86961.0,-112.0,-141.0
2026-04-09 22:03:27.658498,165002,1137678949,1137680167,0.769088,-0.22448,0.15616,8.77625,7.14,-24.57875,-24.920002,12.360001,24.76,eccentric,4,3.0,39535.0,337208.0,86961.0,-112.0,-141.0
2026-04-09 22:03:27.661040,165003,1137693455,1137695062,0.769088,-0.22448,0.15616,9.7825,8.65375,-19.88875,-24.920002,12.360001,24.76,eccentric,4,3.0,39535.0,337208.0,86961.0,-112.0,-141.0
2026-04-09 22:03:27.663558,165004,1137702421,1137703769,0.77104,-0.201056,0.191296,5.59125,11.042501,-18.64625,-25.016,12.392,23.984001,eccentric,4,3.0,39535.0,337208.0,86961.0,-112.0,-141.0
2026-04-09 22:03:27.666022,165005,1137711336,1137712486,0.77104,-0.201056,0.191296,-0.23625,13.755,-17.71875,-25.016,12.392,23.984001,eccentric,4,3.0,39535.0,337208.0,86961.0,-112.0,-141.0
2026-04-09 22:03:27.693399,165016,1137720887,1137721262,0.76128,-0.281088,0.162016,-2.59,14.6475,-17.9375,-25.176,12.208,24.064001,eccentric,4,3.0,39499.0,335958.0,86091.0,-122.0,-142.0
2026-04-09 22:03:27.695982,165017,1137735786,1137736316,0.76128,-0.281088,0.162016,0.525,13.93,-17.7975,-25.176,12.208,24.064001,eccentric,4,3.0,39499.0,335958.0,86091.0,-122.0,-142.0
2026-04-09 22:03:27.698546,165018,1137745251,1137747106,0.763232,-0.279136,0.15616,2.65125,12.39875,-15.89875,-25.544,12.272,24.320002,eccentric,4,3.0,39499.0,335958.0,86091.0,-122.0,-142.0
2026-04-09 22:03:27.701002,165019,1137754194,1137755869,0.763232,-0.279136,0.15616,2.065,10.92875,-12.3025,-25.544,12.272,24.320002,eccentric,4,3.0,39499.0,335958.0,86091.0,-122.0,-142.0
2026-04-09 22:03:27.707132,165020,1137763143,1137764594,0.7808,-0.183488,0.15616,1.30375,9.66,-9.3625,-25.568,12.400001,24.592001,eccentric,4,3.0,39499.0,335958.0,86091.0,-122.0,-142.0
2026-04-09 22:03:27.736166,165021,1137777619,1137779501,0.7808,-0.183488,0.15616,1.12,8.51375,-8.198751,-25.568,12.400001,24.592001,eccentric,4,3.0,39499.0,335958.0,86091.0,-122.0,-142.0
2026-04-09 22:03:27.739813,165022,1137786539,1137788191,0.763232,-0.179584,0.171776,1.95125,7.3675,-10.115,-24.968,12.320001,22.544,eccentric,4,3.0,39499.0,335958.0,86091.0,-122.0,-142.0
2026-04-09 22:03:27.742259,165023,1137795447,1137796889,0.763232,-0.179584,0.171776,5.74875,6.055,-12.95875,-24.968,12.320001,22.544,eccentric,4,3.0,39499.0,335958.0,86091.0,-122.0,-142.0
2026-04-09 22:03:27.772411,165024,1137809950,1137811813,0.77104,-0.238144,0.173728,10.99875,3.745,-14.84,-24.912,12.176001,23.936,eccentric,4,3.0,39499.0,335958.0,86091.0,-122.0,-142.0
2026-04-09 22:03:27.798486,165034,1137819204,1137820575,0.77104,-0.247904,0.181536,13.755,2.9225,-13.7725,-24.912,12.176001,23.936,eccentric,4,3.0,39585.0,334078.0,84867.0,-122.0,-145.0
2026-04-09 22:03:27.800952,165035,1137828230,1137829319,0.79056,-0.247904,0.181536,10.4125,3.43875,-9.1875,-25.096,12.480001,24.704,eccentric,4,3.0,39585.0,334078.0,84867.0,-122.0,-145.0
2026-04-09 22:03:27.803387,165036,1137842932,1137844289,0.772992,-0.177632,0.216672,5.25,5.52125,-3.7625,-25.12,12.488001,25.12,eccentric,4,3.0,39585.0,334078.0,84867.0,-122.0,-145.0
2026-04-09 22:03:27.805959,165037,1137851894,1137853023,0.772992,-0.177632,0.216672,-1.04125,7.735,-1.435,-25.12,12.488001,25.12,eccentric,4,3.0,39585.0,334078.0,84867.0,-122.0,-145.0
2026-04-09 22:03:27.808434,165038,1137860835,1137861718,0.757376,-0.203008,0.144448,-2.1175,8.715,-2.03,-25.136002,11.936001,25.408,eccentric,4,3.0,39585.0,334078.0,84867.0,-122.0,-145.0
2026-04-09 22:03:27.813535,165039,1137869790,1137870485,0.757376,-0.203008,0.144448,2.45875,6.71125,-3.9725,-25.136002,11.936001,25.408,eccentric,4,3.0,39585.0,334078.0,84867.0,-122.0,-145.0
2026-04-09 22:03:27.843705,165040,1137884642,1137885447,0.813984,-0.20496,0.148352,10.47375,1.68875,-5.60875,-25.52,12.072001,25.712002,eccentric,4,3.0,39585.0,334078.0,84867.0,-122.0,-145.0
2026-04-09 22:03:27.847301,165041,1137893563,1137894141,0.813984,-0.20496,0.148352,17.98125,-2.05625,-4.15625,-25.52,12.072001,25.712002,eccentric,4,3.0,39585.0,334078.0,84867.0,-122.0,-145.0
2026-04-09 22:03:27.849781,165042,1137902753,1137904896,0.788608,-0.18544,0.261568,14.4025,-1.21625,-2.02125,-25.048,12.080001,24.904001,eccentric,4,3.0,39585.0,334078.0,84867.0,-122.0,-145.0
2026-04-09 22:03:27.880194,165043,1137917263,1137917710,0.788608,-0.18544,0.261568,3.89375,2.7825,-1.3825,-25.048,12.080001,24.904001,eccentric,4,3.0,39585.0,334078.0,84867.0,-122.0,-145.0
2026-04-09 22:03:27.910470,165053,1137926559,1137928517,0.77104,-0.218624,0.17568,-5.20625,5.55625,-1.155,-26.008001,12.192,24.464,concentric,4,3.0,39655.0,333253.0,84332.0,-129.0,-129.0
2026-04-09 22:03:27.944341,165054,1137935492,1137937236,0.77104,-0.218624,0.17568,-4.90875,5.10125,-1.4525,-26.008001,12.192,24.464,concentric,4,3.0,39655.0,333253.0,84332.0,-129.0,-129.0
2026-04-09 22:03:27.949937,165055,1137944409,1137945929,0.788608,-0.21472,0.109312,2.91375,2.3975,-2.35375,-25.088001,12.304001,24.472002,concentric,4,3.0,39655.0,333253.0,84332.0,-129.0,-129.0
2026-04-09 22:03:27.950036,165056,1137958920,1137960864,0.788608,-0.21472,0.109312,10.78875,-0.34125,-1.77625,-25.088001,12.304001,24.472002,concentric,4,3.0,39655.0,333253.0,84332.0,-129.0,-129.0
2026-04-09 22:03:27.952266,165057,1137967825,1137969574,0.767136,-0.245952,0.226432,12.005,-0.5775,0.14,-25.664001,13.104001,25.496,concentric,4,3.0,39655.0,333253.0,84332.0,-129.0,-129.0
2026-04-09 22:03:27.954774,165058,1137976840,1137978287,0.767136,-0.245952,0.226432,5.3725,0.84875,2.345,-25.664001,13.104001,25.496,concentric,4,3.0,39655.0,333253.0,84332.0,-129.0,-129.0
2026-04-09 22:03:27.957322,165059,1137991312,1137993195,0.776896,-0.242048,0.183488,-1.33,2.93125,5.66125,-25.080002,12.512001,24.752,concentric,4,3.0,39655.0,333253.0,84332.0,-129.0,-129.0
2026-04-09 22:03:27.959730,165060,1138000228,1138001883,0.778848,-0.197152,0.142496,-3.38625,3.185,7.37625,-25.168001,12.496,23.992,concentric,4,3.0,39655.0,333253.0,84332.0,-129.0,-129.0
2026-04-09 22:03:27.962228,165061,1138009153,1138010604,0.778848,-0.197152,0.142496,-0.81375,2.45,7.28875,-25.168001,12.496,23.992,concentric,4,3.0,39655.0,333253.0,84332.0,-129.0,-129.0
2026-04-09 22:03:27.989666,165072,1138023757,1138025881,0.788608,-0.265472,0.181536,1.995,0.21875,5.8625,-24.864,12.080001,24.992,concentric,4,3.0,39661.0,332344.0,83689.0,-136.0,-114.0
2026-04-09 22:03:27.992273,165073,1138032719,1138034626,0.788608,-0.265472,0.181536,5.67875,-0.91875,5.18875,-24.864,12.080001,24.992,concentric,4,3.0,39661.0,332344.0,83689.0,-136.0,-114.0
2026-04-09 22:03:27.994748,165074,1138041743,1138043383,0.755424,-0.267424,0.210816,5.565,-0.67375,6.27375,-24.856,12.712001,24.52,concentric,4,3.0,39661.0,332344.0,83689.0,-136.0,-114.0
2026-04-09 22:03:27.997236,165075,1138050785,1138052120,0.755424,-0.267424,0.210816,2.80875,0.58625,9.3275,-24.856,12.712001,24.52,concentric,4,3.0,39661.0,332344.0,83689.0,-136.0,-114.0
2026-04-09 22:03:28.027776,165076,1138065335,1138067086,0.726144,-0.257664,0.148352,-0.385,1.68875,12.7575,-24.52,12.752001,24.376001,concentric,4,3.0,39661.0,332344.0,83689.0,-136.0,-114.0
2026-04-09 22:03:28.031047,165077,1138074291,1138075790,0.726144,-0.257664,0.148352,-3.63125,0.7,16.065,-24.52,12.752001,24.376001,concentric,4,3.0,39661.0,332344.0,83689.0,-136.0,-114.0
2026-04-09 22:03:28.033541,165078,1138083242,1138084507,0.706624,-0.249856,0.17568,-5.0925,-0.76125,18.19125,-24.304,13.200001,24.376001,concentric,4,3.0,39661.0,332344.0,83689.0,-136.0,-114.0
2026-04-09 22:03:28.063765,165079,1138097738,1138099442,0.706624,-0.249856,0.17568,-4.68125,-1.785,19.2325,-24.304,13.200001,24.376001,concentric,4,3.0,39661.0,332344.0,83689.0,-136.0,-114.0
2026-04-09 22:03:28.067288,165080,1138106709,1138108129,0.700768,-0.257664,0.187392,-3.7625,-3.00125,19.6875,-24.088001,13.696001,24.184002,concentric,4,3.0,39661.0,332344.0,83689.0,-136.0,-114.0
2026-04-09 22:03:28.069818,165081,1138115634,1138116895,0.700768,-0.257664,0.187392,-5.06625,-2.80875,21.0525,-24.088001,13.696001,24.184002,concentric,4,3.0,39661.0,332344.0,83689.0,-136.0,-114.0
2026-04-09 22:03:28.094700,165091,1138130169,1138131843,0.64416,-0.290848,0.171776,-8.86375,-2.44125,23.73,-24.016,13.208,24.368002,concentric,4,3.0,39596.0,334117.0,84748.0,-127.0,-138.0
2026-04-09 22:03:28.097270,165092,1138139135,1138140581,0.64416,-0.290848,0.171776,-11.64625,-3.24625,27.60625,-24.016,13.208,24.368002,concentric,4,3.0,39596.0,334117.0,84748.0,-127.0,-138.0
2026-04-09 22:03:28.100017,165093,1138148080,1138149301,0.618784,-0.284992,0.142496,-12.25875,-5.74,31.15,-24.000002,13.376,23.728,concentric,4,3.0,39596.0,334117.0,84748.0,-127.0,-138.0
2026-04-09 22:03:28.102250,165094,1138157050,1138158199,0.618784,-0.284992,0.142496,-13.685,-9.292501,34.08125,-24.000002,13.376,23.728,concentric,4,3.0,39596.0,334117.0,84748.0,-127.0,-138.0
2026-04-09 22:03:28.132597,165095,1138171579,1138173156,0.626592,-0.318176,0.122976,-13.51875,-12.90625,36.645,-23.584002,13.64,24.016,concentric,4,3.0,39596.0,334117.0,84748.0,-127.0,-138.0
2026-04-09 22:03:28.136122,165096,1138180532,1138181882,0.636352,-0.222528,0.177632,-12.41625,-15.33,37.38,-23.584002,13.64,22.368002,concentric,4,3.0,39596.0,334117.0,84748.0,-127.0,-138.0
2026-04-09 22:03:28.142369,165097,1138189476,1138190572,0.636352,-0.222528,0.177632,-8.8725,-16.485,38.115,-23.392,14.248001,22.368002,concentric,4,3.0,39596.0,334117.0,84748.0,-127.0,-138.0
2026-04-09 22:03:28.147280,165098,1138204074,1138205475,0.650016,-0.298656,0.181536,-11.22625,-16.2925,37.00375,-23.840002,14.088,24.368002,concentric,4,3.0,39596.0,334117.0,84748.0,-127.0,-138.0
2026-04-09 22:03:28.177516,165099,1138212990,1138214172,0.650016,-0.298656,0.181536,-15.70625,-15.4525,36.05875,-23.840002,14.088,24.368002,concentric,4,3.0,39596.0,334117.0,84748.0,-127.0,-138.0
2026-04-09 22:03:28.206063,165109,1138222384,1138223056,0.622688,-0.396256,0.115168,-17.8675,-14.95375,38.64,-22.064001,14.976001,23.192001,concentric,4,3.0,39515.0,335308.0,85571.0,-122.0,-151.0
2026-04-09 22:03:28.208532,165110,1138231778,1138233882,0.622688,-0.396256,0.115168,-18.34875,-16.79125,43.1375,-22.064001,14.976001,23.192001,concentric,4,3.0,39515.0,335308.0,85571.0,-122.0,-151.0
2026-04-09 22:03:28.243682,165111,1138246364,1138246872,0.72224,-0.335744,0.122976,-14.60375,-19.5825,48.5275,-21.992,15.224001,22.232,concentric,4,3.0,39515.0,335308.0,85571.0,-122.0,-151.0
2026-04-09 22:03:28.246055,165112,1138255884,1138257658,0.72224,-0.335744,0.122976,-15.645,-19.0925,49.51625,-21.992,15.224001,22.232,concentric,4,3.0,39515.0,335308.0,85571.0,-122.0,-151.0
2026-04-09 22:03:28.248548,165113,1138264852,1138266431,0.661728,-0.25376,0.183488,-19.145,-17.605,48.0725,-22.752,15.624001,22.112001,concentric,4,3.0,39515.0,335308.0,85571.0,-122.0,-151.0
2026-04-09 22:03:28.251028,165114,1138279432,1138281365,0.661728,-0.25376,0.183488,-20.18625,-17.63125,45.1325,-22.752,15.624001,22.112001,concentric,4,3.0,39515.0,335308.0,85571.0,-122.0,-151.0
2026-04-09 22:03:28.253530,165115,1138288345,1138290107,0.650016,-0.335744,0.128832,-19.1975,-18.13,40.78375,-20.592001,16.08,22.160002,concentric,4,3.0,39515.0,335308.0,85571.0,-122.0,-151.0
2026-04-09 22:03:28.256109,165116,1138297350,1138298803,0.650016,-0.335744,0.128832,-14.7875,-20.0375,38.38625,-20.592001,16.08,22.160002,concentric,4,3.0,39515.0,335308.0,85571.0,-122.0,-151.0
2026-04-09 22:03:28.258574,165117,1138306351,1138307484,0.681248,-0.413824,0.050752,-10.255,-21.41125,39.2525,-20.664001,16.128,21.408,concentric,4,3.0,39515.0,335308.0,85571.0,-122.0,-151.0
2026-04-09 22:03:28.287435,165128,1138320964,1138322490,0.681248,-0.472384,0.124928,-12.87125,-22.16375,40.03125,-20.664001,16.128,20.472,concentric,4,3.0,39621.0,333005.0,84130.0,-136.0,-136.0
2026-04-09 22:03:28.289783,165129,1138330134,1138331315,0.75152,-0.472384,0.124928,-26.39875,-19.99375,35.35,-20.576,15.904,20.472,concentric,4,3.0,39621.0,333005.0,84130.0,-136.0,-136.0
2026-04-09 22:03:28.292258,165130,1138339090,1138340119,0.75152,-0.472384,0.124928,-24.045,-17.928751,33.50375,-20.576,15.904,20.472,concentric,4,3.0,39621.0,333005.0,84130.0,-136.0,-136.0
2026-04-09 22:03:28.297333,165131,1138353606,1138355037,0.75152,-0.298656,0.17568,-13.7725,-17.94625,26.64375,-21.256,16.344,23.584002,concentric,4,3.0,39621.0,333005.0,84130.0,-136.0,-136.0
2026-04-09 22:03:28.327531,165132,1138362551,1138363736,0.732,-0.456768,0.101504,-13.65,-17.64,14.761251,-21.152,16.480001,21.664001,concentric,4,3.0,39621.0,333005.0,84130.0,-136.0,-136.0
2026-04-09 22:03:28.331090,165133,1138371486,1138372413,0.732,-0.456768,0.101504,-13.04625,-17.2375,8.68,-21.152,16.480001,21.664001,concentric,4,3.0,39621.0,333005.0,84130.0,-136.0,-136.0
2026-04-09 22:03:28.333570,165134,1138385993,1138387422,0.698816,-0.460672,0.144448,-7.84875,-17.54375,6.30875,-20.032001,16.544,20.160002,concentric,4,3.0,39621.0,333005.0,84130.0,-136.0,-136.0
2026-04-09 22:03:28.337293,165135,1138394906,1138396124,0.698816,-0.460672,0.144448,-0.525,-17.535,9.23125,-20.032001,16.544,20.160002,concentric,4,3.0,39621.0,333005.0,84130.0,-136.0,-136.0
2026-04-09 22:03:28.367535,165136,1138403910,1138404824,0.700768,-0.384544,0.111264,-0.0175,-16.05625,14.06125,-21.128,16.808,21.168001,concentric,4,3.0,39621.0,333005.0,84130.0,-136.0,-136.0
2026-04-09 22:03:28.371020,165137,1138412840,1138413560,0.700768,-0.384544,0.111264,-7.105,-14.65625,15.05,-21.128,16.808,21.168001,concentric,4,3.0,39621.0,333005.0,84130.0,-136.0,-136.0
2026-04-09 22:03:28.398491,165147,1138427886,1138428540,0.667584,-0.376736,0.091744,-14.105001,-13.60625,10.57,-19.648,17.024,19.800001,concentric,4,3.0,39688.0,335472.0,85903.0,-117.0,-128.0
2026-04-09 22:03:28.401018,165148,1138437355,1138439379,0.667584,-0.376736,0.091744,-8.365,-14.4725,7.455,-19.648,17.024,19.800001,concentric,4,3.0,39688.0,335472.0,85903.0,-117.0,-128.0
2026-04-09 22:03:28.403500,165149,1138446426,1138448128,0.657824,-0.316224,0.132736,5.9325,-16.84375,6.0025,-19.704,16.736,19.688002,concentric,4,3.0,39688.0,335472.0,85903.0,-117.0,-128.0
2026-04-09 22:03:28.406051,165150,1138455348,1138456888,0.657824,-0.316224,0.132736,12.46875,-17.8675,3.21125,-19.704,16.736,19.688002,concentric,4,3.0,39688.0,335472.0,85903.0,-117.0,-128.0
2026-04-09 22:03:28.436273,165151,1138469905,1138471833,0.640256,-0.366976,0.167872,10.64875,-17.64,4.33125,-19.832,17.264,19.552,concentric,4,3.0,39688.0,335472.0,85903.0,-117.0,-128.0
2026-04-09 22:03:28.439783,165152,1138478874,1138480545,0.640256,-0.366976,0.167872,7.0,-16.1175,6.39625,-19.832,17.264,19.552,concentric,4,3.0,39688.0,335472.0,85903.0,-117.0,-128.0
2026-04-09 22:03:28.442255,165153,1138487781,1138489225,0.718336,-0.460672,0.062464,-0.42,-14.18375,8.505,-19.720001,17.36,19.272001,concentric,4,3.0,39688.0,335472.0,85903.0,-117.0,-128.0
2026-04-09 22:03:28.444783,165154,1138502286,1138504143,0.675392,-0.363072,0.113216,-14.1925,-12.11,6.76375,-20.92,17.392,20.608002,concentric,4,3.0,39688.0,335472.0,85903.0,-117.0,-128.0
2026-04-09 22:03:28.475003,165155,1138511335,1138512867,0.675392,-0.363072,0.113216,-15.95125,-11.05125,4.01625,-20.92,17.392,20.608002,concentric,4,3.0,39688.0,335472.0,85903.0,-117.0,-128.0
2026-04-09 22:03:28.478636,165156,1138520265,1138521594,0.675392,-0.363072,0.113216,-0.07875,-13.16,0.74375,-20.92,17.392,20.608002,concentric,4,3.0,39688.0,335472.0,85903.0,-117.0,-128.0
2026-04-09 22:03:28.503783,165166,1138534886,1138536543,0.72224,-0.335744,0.132736,12.8625,-16.30125,-4.20875,-19.448002,17.656,18.488,concentric,4,3.0,39836.0,337622.0,87554.0,-98.0,-145.0
2026-04-09 22:03:28.506523,165167,1138543861,1138545273,0.74176,-0.45872,0.132736,16.52,-17.43,-7.95375,-20.784,17.848001,19.584002,concentric,4,3.0,39836.0,337622.0,87554.0,-98.0,-145.0
2026-04-09 22:03:28.508794,165168,1138552862,1138554027,0.74176,-0.45872,0.132736,14.93625,-16.23125,-7.95375,-20.784,17.848001,19.584002,concentric,4,3.0,39836.0,337622.0,87554.0,-98.0,-145.0
2026-04-09 22:03:28.542534,165169,1138567451,1138568964,0.763232,-0.523136,0.0976,11.24375,-12.775,-4.935,-20.672,17.76,19.584002,concentric,4,3.0,39836.0,337622.0,87554.0,-98.0,-145.0
2026-04-09 22:03:28.546090,165170,1138576379,1138577672,0.763232,-0.523136,0.0976,1.70625,-9.12625,-3.15875,-20.672,17.76,19.584002,concentric,4,3.0,39836.0,337622.0,87554.0,-98.0,-145.0
2026-04-09 22:03:28.548623,165171,1138585289,1138586378,0.796416,-0.427488,0.0488,-2.26625,-6.615,-2.9575,-20.44,17.312,18.568,concentric,4,3.0,39836.0,337622.0,87554.0,-98.0,-145.0
2026-04-09 22:03:28.551053,165172,1138594194,1138595051,0.796416,-0.427488,0.0488,1.09375,-4.9,-6.36125,-20.44,17.312,18.568,concentric,4,3.0,39836.0,337622.0,87554.0,-98.0,-145.0
2026-04-09 22:03:28.553519,165173,1138608714,1138609956,0.7808,-0.40992,0.08784,3.71875,-3.07125,-13.32625,-20.36,17.336,18.44,concentric,4,3.0,39836.0,337622.0,87554.0,-98.0,-145.0
2026-04-09 22:03:28.583753,165174,1138617657,1138618774,0.7808,-0.40992,0.08784,8.3475,-1.8025,-17.00125,-20.36,17.336,18.44,concentric,4,3.0,39836.0,337622.0,87554.0,-98.0,-145.0
2026-04-09 22:03:28.612290,165185,1138626726,1138627543,0.798368,-0.464576,0.11712,9.68625,-0.2975,-19.81875,-21.224,17.512001,18.472,concentric,4,3.0,40514.0,341387.0,91011.0,-57.0,-150.0
2026-04-09 22:03:28.614773,165186,1138641189,1138642464,0.798368,-0.464576,0.11712,8.91625,2.87875,-22.21625,-21.224,17.512001,18.472,concentric,4,3.0,40514.0,341387.0,91011.0,-57.0,-150.0
2026-04-09 22:03:28.617275,165187,1138650091,1138651189,0.81984,-0.501664,0.111264,8.32125,6.685,-22.2775,-21.128,17.264,19.136002,concentric,4,3.0,40514.0,341387.0,91011.0,-57.0,-150.0
2026-04-09 22:03:28.619805,165188,1138659114,1138659930,0.81984,-0.501664,0.111264,12.55625,8.82875,-22.505,-21.128,17.264,19.136002,concentric,4,3.0,40514.0,341387.0,91011.0,-57.0,-150.0
2026-04-09 22:03:28.622336,165189,1138673693,1138674875,0.86864,-0.46848,0.046848,19.59125,10.21125,-22.46125,-21.688002,17.872002,18.336,concentric,4,3.0,40514.0,341387.0,91011.0,-57.0,-150.0
2026-04-09 22:03:28.624799,165190,1138682616,1138683684,0.872544,-0.402112,0.091744,24.272501,12.06625,-23.0475,-21.688002,19.92,17.976002,concentric,4,3.0,40514.0,341387.0,91011.0,-57.0,-150.0
2026-04-09 22:03:28.649881,165191,1138691587,1138692394,0.872544,-0.402112,0.091744,23.07375,13.440001,-25.76,-21.256,18.448,17.976002,concentric,4,3.0,40514.0,341387.0,91011.0,-57.0,-150.0
2026-04-09 22:03:28.652304,165192,1138700482,1138701097,0.872544,-0.402112,0.091744,20.01125,13.72,-27.95625,-21.256,18.448,17.976002,concentric,4,3.0,40514.0,341387.0,91011.0,-57.0,-150.0
2026-04-09 22:03:28.659818,165193,1138715233,1138715988,0.905728,-0.406016,0.081984,20.0025,12.95,-31.053751,-22.568,17.552,18.528002,concentric,4,3.0,40514.0,341387.0,91011.0,-57.0,-150.0
2026-04-09 22:03:28.717826,165203,1138725104,1138726887,0.866688,-0.425536,0.083936,24.28125,11.8125,-33.38125,-23.952002,18.008001,19.240002,concentric,4,3.0,40277.0,342107.0,91200.0,-52.0,-135.0
2026-04-09 22:03:28.719549,165204,1138734111,1138735718,0.866688,-0.425536,0.083936,27.57125,11.4625,-34.95625,-23.952002,18.008001,19.240002,concentric,4,3.0,40277.0,342107.0,91200.0,-52.0,-135.0
2026-04-09 22:03:28.721117,165205,1138743179,1138744457,0.90768,-0.365024,0.037088,31.40375,11.34875,-36.19875,-23.408,17.656,19.112001,concentric,4,3.0,40277.0,342107.0,91200.0,-52.0,-135.0
2026-04-09 22:03:28.724575,165206,1138757664,1138759380,0.90768,-0.365024,0.037088,40.74875,11.24375,-36.2075,-23.408,17.656,19.112001,concentric,4,3.0,40277.0,342107.0,91200.0,-52.0,-135.0
2026-04-09 22:03:28.726159,165207,1138766612,1138768158,0.905728,-0.329888,0.064416,42.13125,12.52125,-36.6275,-23.848001,17.576,19.352001,concentric,4,3.0,40277.0,342107.0,91200.0,-52.0,-135.0
2026-04-09 22:03:28.729389,165208,1138775605,1138776907,0.905728,-0.329888,0.064416,39.5325,12.88,-34.965,-23.848001,17.576,19.352001,concentric,4,3.0,40277.0,342107.0,91200.0,-52.0,-135.0
2026-04-09 22:03:28.736441,165209,1138790076,1138791848,0.915488,-0.378688,0.101504,36.26,13.4575,-31.63125,-25.792002,17.384,20.608002,concentric,4,3.0,40277.0,342107.0,91200.0,-52.0,-135.0
2026-04-09 22:03:28.764968,165210,1138798997,1138800552,0.915488,-0.378688,0.101504,33.92375,14.315001,-31.272501,-25.792002,17.384,20.608002,concentric,4,3.0,40277.0,342107.0,91200.0,-52.0,-135.0
2026-04-09 22:03:28.769541,165211,1138807926,1138809256,0.944768,-0.300608,0.122976,31.885,14.21,-27.93,-24.848001,17.912,20.464,concentric,4,3.0,40277.0,342107.0,91200.0,-52.0,-135.0
2026-04-09 22:03:28.795332,165221,1138822385,1138824122,0.944768,-0.300608,0.122976,30.625,14.2975,-26.2675,-24.848001,17.912,20.464,concentric,4,3.0,40119.0,345325.0,93396.0,23.0,-137.0
2026-04-09 22:03:28.797037,165222,1138831369,1138832850,0.929152,-0.290848,0.142496,29.505001,14.6825,-26.915,-25.056002,17.216002,21.976002,concentric,4,3.0,40119.0,345325.0,93396.0,23.0,-137.0
2026-04-09 22:03:28.798727,165223,1138840453,1138841592,0.929152,-0.290848,0.142496,25.41875,15.25125,-27.76375,-25.056002,17.216002,21.976002,concentric,4,3.0,40119.0,345325.0,93396.0,23.0,-137.0
2026-04-09 22:03:28.802683,165224,1138854924,1138856517,0.954528,-0.31232,0.072224,19.985,14.23625,-27.973751,-25.864,17.712,19.976002,concentric,4,3.0,40119.0,345325.0,93396.0,23.0,-137.0
2026-04-09 22:03:28.842207,165225,1138863857,1138865213,0.944768,-0.37088,0.130784,17.36875,13.29125,-25.61125,-25.6,17.616001,19.592001,concentric,4,3.0,40119.0,345325.0,93396.0,23.0,-137.0
2026-04-09 22:03:28.846634,165226,1138872805,1138873935,0.944768,-0.37088,0.130784,18.82125,13.32625,-21.23625,-25.6,17.616001,19.592001,concentric,4,3.0,40119.0,345325.0,93396.0,23.0,-137.0
2026-04-09 22:03:28.848222,165227,1138881855,1138882639,0.944768,-0.37088,0.130784,18.82125,13.74625,-17.43,-25.6,17.616001,19.592001,concentric,4,3.0,40119.0,345325.0,93396.0,23.0,-137.0
2026-04-09 22:03:28.849836,165228,1138896343,1138897528,0.95648,-0.269376,0.183488,18.97875,13.7725,-15.2075,-25.816002,17.384,20.672,concentric,4,3.0,40119.0,345325.0,93396.0,23.0,-137.0
2026-04-09 22:03:28.853944,165229,1138905240,1138906227,1.003328,-0.333792,0.060512,14.8575,14.58625,-14.79625,-26.176,17.648,20.688002,concentric,4,3.0,40119.0,345325.0,93396.0,23.0,-137.0
2026-04-09 22:03:28.857700,165230,1138914211,1138915017,1.003328,-0.333792,0.060512,6.85125,12.9675,-16.56375,-26.176,17.648,20.688002,concentric,4,3.0,40119.0,345325.0,93396.0,23.0,-137.0
2026-04-09 22:03:28.912339,165241,1138928849,1138929980,1.026752,-0.382592,0.134688,5.55625,9.58125,-15.04125,-26.232,17.320002,21.712002,concentric,4,3.0,40052.0,344583.0,92823.0,8.0,-137.0
2026-04-09 22:03:28.916565,165242,1138937735,1138938696,1.026752,-0.382592,0.134688,4.9,6.62375,-11.480001,-26.232,17.320002,21.712002,concentric,4,3.0,40052.0,344583.0,92823.0,8.0,-137.0
2026-04-09 22:03:28.918279,165243,1138946645,1138947344,1.048224,-0.386496,0.121024,3.01,4.935,-8.925,-25.720001,17.664001,20.336,concentric,4,3.0,40052.0,344583.0,92823.0,8.0,-137.0
2026-04-09 22:03:28.919903,165244,1138961609,1138962302,1.048224,-0.386496,0.121024,2.16125,4.20875,-5.66125,-25.720001,17.664001,20.336,concentric,4,3.0,40052.0,344583.0,92823.0,8.0,-137.0
2026-04-09 22:03:28.924077,165245,1138970940,1138973116,0.999424,-0.36112,0.150304,0.84875,3.9025,-3.0975,-27.176,17.640001,22.448002,concentric,4,3.0,40052.0,344583.0,92823.0,8.0,-137.0
2026-04-09 22:03:28.926526,165246,1138979954,1138981827,0.999424,-0.36112,0.150304,-1.12,3.57875,-1.89,-27.176,17.640001,22.448002,concentric,4,3.0,40052.0,344583.0,92823.0,8.0,-137.0
2026-04-09 22:03:28.954960,165247,1138988920,1138990581,0.999424,-0.386496,0.111264,-1.93375,2.555,-0.7875,-27.112001,17.776001,21.208,concentric,4,3.0,40052.0,344583.0,92823.0,8.0,-137.0
2026-04-09 22:03:28.959423,165248,1139003462,1139005475,0.999424,-0.386496,0.144448,1.365,0.95375,1.9425,-27.112001,17.776001,21.208,concentric,4,3.0,40052.0,344583.0,92823.0,8.0,-137.0
2026-04-09 22:03:28.960962,165249,1139012433,1139014180,0.958432,-0.454816,0.144448,2.14375,1.0325,4.6375,-25.856,17.512001,20.992,concentric,4,3.0,40052.0,344583.0,92823.0,8.0,-137.0
2026-04-09 22:03:28.967810,165250,1139021386,1139022879,0.958432,-0.454816,0.144448,0.35,1.19875,8.56625,-25.856,17.512001,20.992,concentric,4,3.0,40052.0,344583.0,92823.0,8.0,-137.0
2026-04-09 22:03:28.995832,165260,1139035996,1139037887,0.948672,-0.392352,0.11712,0.56875,1.56625,11.375,-25.592001,17.656,20.208,concentric,4,3.0,39929.0,343271.0,91767.0,-18.0,-132.0
2026-04-09 22:03:28.997345,165261,1139044932,1139046600,0.93696,-0.36112,0.122976,-0.79625,1.47,12.36375,-26.032001,17.632,20.568,concentric,4,3.0,39929.0,343271.0,91767.0,-18.0,-132.0
2026-04-09 22:03:29.001364,165262,1139053862,1139055306,0.93696,-0.36112,0.122976,-4.48875,0.67375,13.0725,-26.032001,17.632,20.568,concentric,4,3.0,39929.0,343271.0,91767.0,-18.0,-132.0
2026-04-09 22:03:29.008040,165263,1139062814,1139064041,0.93696,-0.36112,0.122976,-9.30125,-0.2625,13.405,-26.032001,17.632,20.568,concentric,4,3.0,39929.0,343271.0,91767.0,-18.0,-132.0
2026-04-09 22:03:29.039726,165264,1139077423,1139078958,0.919392,-0.484096,0.132736,-11.375,-2.14375,14.14,-25.560001,17.76,20.888,concentric,4,3.0,39929.0,343271.0,91767.0,-18.0,-132.0
2026-04-09 22:03:29.044316,165265,1139086325,1139087665,0.903776,-0.462624,0.124928,-9.28375,-3.91125,16.28375,-25.320002,17.632,19.912,concentric,4,3.0,39929.0,343271.0,91767.0,-18.0,-132.0
2026-04-09 22:03:29.045705,165266,1139095277,1139096357,0.903776,-0.462624,0.124928,-6.76375,-4.90875,17.9725,-25.320002,17.632,19.912,concentric,4,3.0,39929.0,343271.0,91767.0,-18.0,-132.0
2026-04-09 22:03:29.075969,165267,1139109828,1139111246,0.880352,-0.402112,0.132736,-5.95875,-6.18625,17.64,-25.944002,18.304,20.456001,concentric,4,3.0,39929.0,343271.0,91767.0,-18.0,-132.0
2026-04-09 22:03:29.078213,165268,1139118755,1139119987,0.880352,-0.402112,0.132736,-7.07,-6.86875,16.80875,-25.944002,18.304,20.456001,concentric,4,3.0,39929.0,343271.0,91767.0,-18.0,-132.0
2026-04-09 22:03:29.103562,165278,1139127762,1139128822,0.860832,-0.441152,0.113216,-7.875,-8.00625,15.8025,-25.176,18.504002,19.392,concentric,4,3.0,39821.0,342704.0,91210.0,-47.0,-144.0
2026-04-09 22:03:29.107850,165279,1139142418,1139143757,0.860832,-0.441152,0.113216,-7.0175,-9.87875,15.23375,-25.176,18.504002,19.392,concentric,4,3.0,39821.0,342704.0,91210.0,-47.0,-144.0
2026-04-09 22:03:29.110599,165280,1139151356,1139152495,0.864736,-0.445056,0.095648,-6.15125,-11.24375,15.1375,-25.376001,18.392,20.296001,concentric,4,3.0,39821.0,342704.0,91210.0,-47.0,-144.0
