pc_time,serial_num,sensor_ts,host_ts,ax,ay,az,gx,gy,gz,mx,my,mz,phase,rpe,weight_kg,ppg_a,ppg_b,ppg_c,ppg_d,ppg_e
2026-04-08 21:39:25.291317,123861,1609503537543021,1137509132,-1.184864,0.197152,0.363072,13.685,0.4025,-13.4575,25.816002,-23.592001,7.312,eccentric,5,3.0,22339.0,154881.0,246430.0,293723.0,270272.0
2026-04-08 21:39:25.322233,123862,1609503537557500,1137524042,-1.184864,0.113216,0.21472,13.440001,0.3675,-11.90875,26.104002,-23.616001,8.024,eccentric,5,3.0,22339.0,154881.0,246430.0,293723.0,270272.0
2026-04-08 21:39:25.325660,123863,1609503537566421,1137532701,-1.184864,0.113216,0.21472,14.035,0.4025,-11.59375,26.104002,-23.616001,8.024,eccentric,5,3.0,22339.0,154881.0,246430.0,293723.0,270272.0
2026-04-08 21:39:25.328140,123864,1609503537580920,1137547554,-1.163392,0.140544,0.25376,14.06125,0.91875,-10.3075,26.52,-23.592001,6.76,eccentric,5,3.0,22339.0,154881.0,246430.0,293723.0,270272.0
2026-04-08 21:39:25.358401,123865,1609503537589878,1137556246,-1.163392,0.140544,0.25376,13.877501,0.6125,-7.9975,26.52,-23.592001,6.76,eccentric,5,3.0,22339.0,154881.0,246430.0,293723.0,270272.0
2026-04-08 21:39:25.361887,123866,1609503537604336,1137571139,-1.091168,0.144448,0.368928,12.25875,0.62125,-6.51875,25.880001,-23.256,7.064,eccentric,5,3.0,22339.0,154881.0,246430.0,293723.0,270272.0
2026-04-08 21:39:25.389377,123877,1609503537613333,1137579848,-0.96624,0.056608,0.31232,10.52625,-0.9275,-5.46875,25.920002,-23.480001,7.424,eccentric,5,3.0,22525.0,155462.0,247121.0,294149.0,270548.0
2026-04-08 21:39:25.392747,123878,1609503537622249,1137588587,-0.96624,0.056608,0.31232,9.0825,-2.4675,-4.795,25.920002,-23.480001,7.424,eccentric,5,3.0,22525.0,155462.0,247121.0,294149.0,270548.0
2026-04-08 21:39:25.394549,123879,1609503537636740,1137603485,-1.022848,0.060512,0.171776,9.00375,-3.43875,-4.095,25.808,-23.384,7.496,eccentric,5,3.0,22525.0,155462.0,247121.0,294149.0,270548.0
2026-04-08 21:39:25.396867,123880,1609503537645656,1137612172,-1.022848,0.060512,0.171776,10.64,-3.7275,-2.31875,25.808,-23.384,7.496,eccentric,5,3.0,22525.0,155462.0,247121.0,294149.0,270548.0
2026-04-08 21:39:25.427154,123881,1609503537660172,1137627050,-1.048224,0.056608,0.1952,12.5125,-4.55,0.56,25.832,-23.424002,8.112,eccentric,5,3.0,22525.0,155462.0,247121.0,294149.0,270548.0
2026-04-08 21:39:25.430672,123882,1609503537669125,1137635710,-1.048224,0.056608,0.1952,13.265,-4.89125,2.28375,25.832,-23.424002,8.112,eccentric,5,3.0,22525.0,155462.0,247121.0,294149.0,270548.0
2026-04-08 21:39:25.433508,123883,1609503537683590,1137650481,-1.077504,0.0976,0.45872,11.480001,-4.935,3.31625,26.128002,-23.512001,6.408001,eccentric,5,3.0,22525.0,155462.0,247121.0,294149.0,270548.0
2026-04-08 21:39:25.439430,123884,1609503537692504,1137659179,-1.196576,0.20496,0.333792,10.8675,-4.27,4.8475,26.128002,-23.544,7.416,eccentric,5,3.0,22525.0,155462.0,247121.0,294149.0,270548.0
2026-04-08 21:39:25.448173,123885,1609503537701427,1137667859,-1.196576,0.20496,0.333792,14.02625,-1.02375,3.57875,25.704,-23.544,7.416,eccentric,5,3.0,22525.0,155462.0,247121.0,294149.0,270548.0
2026-04-08 21:39:25.479003,123896,1609503537715937,1137682890,-1.206336,0.154208,0.337696,16.94,2.38,2.02125,25.968,-23.536001,6.12,eccentric,5,3.0,22482.0,155368.0,247003.0,294070.0,270510.0
2026-04-08 21:39:25.487405,123897,1609503537724905,1137691569,-1.206336,0.154208,0.337696,17.675,4.515,6.125,25.968,-23.536001,6.12,eccentric,5,3.0,22482.0,155368.0,247003.0,294070.0,270510.0
2026-04-08 21:39:25.489875,123898,1609503537739474,1137706505,-1.253184,0.220576,0.327936,16.695,4.445,12.36375,25.224,-24.160002,6.4,eccentric,5,3.0,22482.0,155368.0,247003.0,294070.0,270510.0
2026-04-08 21:39:25.520603,123899,1609503537748426,1137715199,-1.253184,0.220576,0.327936,19.5825,4.29625,14.98875,25.224,-24.160002,6.4,eccentric,5,3.0,22482.0,155368.0,247003.0,294070.0,270510.0
2026-04-08 21:39:25.525061,123900,1609503537762913,1137730078,-1.360544,0.238144,0.42944,26.1625,3.28125,18.366251,25.456001,-24.408,6.544,eccentric,5,3.0,22482.0,155368.0,247003.0,294070.0,270510.0
2026-04-08 21:39:25.526664,123901,1609503537771821,1137738751,-1.360544,0.238144,0.42944,34.685,4.1125,22.28625,25.456001,-24.408,6.544,eccentric,5,3.0,22482.0,155368.0,247003.0,294070.0,270510.0
2026-04-08 21:39:25.528520,123902,1609503537780741,1137747407,-1.436672,0.388448,0.460672,37.5375,7.74375,20.7025,25.144001,-24.248001,3.448,eccentric,5,3.0,22482.0,155368.0,247003.0,294070.0,270510.0
2026-04-08 21:39:25.559391,123903,1609503537795213,1137762282,-1.333216,0.40992,0.52704,31.6225,9.0475,19.95875,24.136002,-24.384,4.608,eccentric,5,3.0,22482.0,155368.0,247003.0,294070.0,270510.0
2026-04-08 21:39:25.561555,123904,1609503537804108,1137770940,-1.333216,0.40992,0.52704,19.215,8.60125,21.315,24.136002,-24.384,4.608,eccentric,5,3.0,22482.0,155368.0,247003.0,294070.0,270510.0
2026-04-08 21:39:25.589468,123915,1609503537818766,1137785821,-1.167296,0.2928,0.571936,3.115,6.5275,19.78375,23.944,-24.840002,5.296001,eccentric,5,3.0,22102.0,153985.0,245477.0,293155.0,270011.0
2026-04-08 21:39:25.593673,123916,1609503537827730,1137794501,-1.167296,0.2928,0.571936,-9.03,2.7825,19.565,23.944,-24.840002,5.296001,eccentric,5,3.0,22102.0,153985.0,245477.0,293155.0,270011.0
2026-04-08 21:39:25.595338,123917,1609503537842240,1137809386,-1.18096,0.259616,0.464576,-11.305,0.35875,18.7425,23.704,-24.464,5.408001,eccentric,5,3.0,22102.0,153985.0,245477.0,293155.0,270011.0
2026-04-08 21:39:25.598967,123918,1609503537851160,1137818075,-1.18096,0.259616,0.464576,-11.5325,-1.435,16.37125,23.704,-24.464,5.408001,eccentric,5,3.0,22102.0,153985.0,245477.0,293155.0,270011.0
2026-04-08 21:39:25.629288,123919,1609503537860154,1137826746,-1.216096,0.208864,0.181536,-13.055,-2.35375,15.05875,23.488,-24.952002,5.904,eccentric,5,3.0,22102.0,153985.0,245477.0,293155.0,270011.0
2026-04-08 21:39:25.632952,123920,1609503537874614,1137841608,-1.1224,0.206912,0.474336,-13.23875,-3.91125,15.32125,23.064001,-24.920002,6.512,eccentric,5,3.0,22102.0,153985.0,245477.0,293155.0,270011.0
2026-04-08 21:39:25.636467,123921,1609503537883554,1137850273,-1.1224,0.206912,0.474336,-10.255,-5.01375,13.76375,23.064001,-24.920002,6.512,eccentric,5,3.0,22102.0,153985.0,245477.0,293155.0,270011.0
2026-04-08 21:39:25.664671,123922,1609503537898064,1137865220,-1.077504,0.177632,0.402112,-7.7,-6.3525,10.29875,23.232,-24.504002,6.408001,eccentric,5,3.0,22102.0,153985.0,245477.0,293155.0,270011.0
2026-04-08 21:39:25.695623,123933,1609503537906988,1137874295,-1.077504,0.177632,0.402112,-6.27375,-7.035,6.09,23.232,-24.504002,6.408001,eccentric,5,3.0,22204.0,154293.0,245836.0,293315.0,270076.0
2026-04-08 21:39:25.698145,123934,1609503537921510,1137887085,-1.095072,0.181536,0.347456,-4.80375,-7.665,2.94875,22.816002,-24.584002,6.312,eccentric,5,3.0,22204.0,154293.0,245836.0,293315.0,270076.0
2026-04-08 21:39:25.700610,123935,1609503537930890,1137897868,-1.095072,0.181536,0.347456,-4.34,-8.95125,1.58375,22.816002,-24.584002,6.312,eccentric,5,3.0,22204.0,154293.0,245836.0,293315.0,270076.0
2026-04-08 21:39:25.703155,123936,1609503537939981,1137906546,-1.011136,0.11712,0.325984,-8.5225,-9.38875,-0.76125,22.152,-24.68,7.352,eccentric,5,3.0,22204.0,154293.0,245836.0,293315.0,270076.0
2026-04-08 21:39:25.705717,123937,1609503537954503,1137921413,-0.977952,0.121024,0.470432,-11.0775,-8.4875,-2.51125,22.248001,-24.016,8.368,eccentric,5,3.0,22204.0,154293.0,245836.0,293315.0,270076.0
2026-04-08 21:39:25.712152,123938,1609503537963482,1137930158,-0.977952,0.121024,0.470432,-15.51375,-6.0025,-3.815,22.248001,-24.016,8.368,eccentric,5,3.0,22204.0,154293.0,245836.0,293315.0,270076.0
2026-04-08 21:39:25.740962,123939,1609503537977918,1137943078,-0.993568,0.132736,0.415776,-15.645,-3.8675,-4.78625,21.768002,-23.808,6.672,eccentric,5,3.0,22204.0,154293.0,245836.0,293315.0,270076.0
2026-04-08 21:39:25.744412,123940,1609503537987086,1137953795,-0.993568,0.132736,0.415776,-8.46125,-0.25375,-7.35875,21.768002,-23.808,6.672,eccentric,5,3.0,22204.0,154293.0,245836.0,293315.0,270076.0
2026-04-08 21:39:25.746989,123941,1609503537996045,1137962476,-0.962336,0.111264,0.251808,-2.30125,4.095,-9.0825,22.088001,-24.504002,5.424,eccentric,5,3.0,22204.0,154293.0,245836.0,293315.0,270076.0
2026-04-08 21:39:25.780556,123952,1609503538010796,1137977412,-0.962336,0.111264,0.251808,5.97625,9.730001,-7.98875,22.088001,-24.504002,5.424,eccentric,5,3.0,22065.0,153665.0,245074.0,292851.0,269795.0
2026-04-08 21:39:25.783171,123953,1609503538019906,1137986134,-1.177056,0.0488,0.222528,6.58,13.93,-4.9175,22.000002,-24.064001,6.928001,eccentric,5,3.0,22065.0,153665.0,245074.0,292851.0,269795.0
2026-04-08 21:39:25.786998,123954,1609503538034525,1138001108,-1.177056,0.162016,0.396256,-7.48125,11.62875,-0.4375,22.000002,-24.064001,6.928001,eccentric,5,3.0,22065.0,153665.0,245074.0,292851.0,269795.0
2026-04-08 21:39:25.789355,123955,1609503538043457,1138009802,-1.040416,0.162016,0.396256,-20.09,11.698751,0.37625,21.728,-23.744001,7.616,eccentric,5,3.0,22065.0,153665.0,245074.0,292851.0,269795.0
2026-04-08 21:39:25.819744,123956,1609503538052382,1138018475,-1.040416,0.162016,0.396256,-13.886251,14.3325,-7.09625,21.728,-23.744001,7.616,eccentric,5,3.0,22065.0,153665.0,245074.0,292851.0,269795.0
2026-04-08 21:39:25.823135,123957,1609503538066849,1138033382,-0.974048,0.11712,0.349408,-2.66,19.76625,-17.52625,21.856,-24.024002,8.320001,eccentric,5,3.0,22065.0,153665.0,245074.0,292851.0,269795.0
2026-04-08 21:39:25.825624,123958,1609503538075699,1138042032,-1.157536,0.177632,0.290848,3.3075,22.89875,-19.8275,21.768002,-23.608002,8.592,eccentric,5,3.0,22065.0,153665.0,245074.0,292851.0,269795.0
2026-04-08 21:39:25.857183,123959,1609503538090203,1138056959,-1.157536,0.177632,0.290848,3.26375,19.6175,-9.89625,21.768002,-23.608002,8.592,eccentric,5,3.0,22065.0,153665.0,245074.0,292851.0,269795.0
2026-04-08 21:39:25.860666,123960,1609503538099205,1138065649,-0.997472,0.16592,0.210816,-1.47,15.417501,-1.295,22.000002,-23.504002,6.552001,eccentric,5,3.0,22065.0,153665.0,245074.0,292851.0,269795.0
2026-04-08 21:39:25.888247,123971,1609503538113886,1138080574,-0.997472,0.16592,0.210816,-13.4925,15.1025,-2.4325,22.000002,-23.504002,6.552001,eccentric,5,3.0,21823.0,152706.0,244096.0,292225.0,269426.0
2026-04-08 21:39:25.892445,123972,1609503538122830,1138089321,-0.948672,0.074176,0.206912,-27.04625,18.55875,-7.9975,21.52,-22.920002,6.776001,eccentric,5,3.0,21823.0,152706.0,244096.0,292225.0,269426.0
2026-04-08 21:39:25.894184,123973,1609503538131807,1138098062,-0.948672,0.074176,0.206912,-37.00375,20.44875,-10.1325,21.52,-22.920002,6.776001,eccentric,5,3.0,21823.0,152706.0,244096.0,292225.0,269426.0
2026-04-08 21:39:25.895732,123974,1609503538146327,1138113030,-1.040416,0.085888,0.267424,-37.93125,19.99375,-7.02625,21.752,-22.888,7.928001,eccentric,5,3.0,21823.0,152706.0,244096.0,292225.0,269426.0
2026-04-08 21:39:25.926791,123975,1609503538155242,1138121755,-1.040416,-0.007808,0.232288,-30.178751,15.91625,-5.39,21.752,-22.888,7.928001,eccentric,5,3.0,21823.0,152706.0,244096.0,292225.0,269426.0
2026-04-08 21:39:25.929101,123976,1609503538169684,1138136603,-0.979904,-0.007808,0.232288,-25.27875,11.06,-11.1125,21.536001,-22.752,7.816001,eccentric,5,3.0,21823.0,152706.0,244096.0,292225.0,269426.0
2026-04-08 21:39:25.933689,123977,1609503538178610,1138145341,-0.909632,-0.02928,0.343552,-27.6325,8.79375,-18.29625,21.728,-22.448002,7.24,eccentric,5,3.0,21823.0,152706.0,244096.0,292225.0,269426.0
2026-04-08 21:39:25.962104,123978,1609503538193109,1138160262,-0.909632,-0.02928,0.343552,-31.885,11.22625,-22.3125,21.728,-22.448002,7.24,eccentric,5,3.0,21823.0,152706.0,244096.0,292225.0,269426.0
2026-04-08 21:39:25.965714,123979,1609503538202019,1138168916,-0.864736,0.070272,0.427488,-27.7375,13.3,-23.86125,22.112001,-22.112001,7.096,eccentric,5,3.0,21823.0,152706.0,244096.0,292225.0,269426.0
2026-04-08 21:39:25.993101,123990,1609503538211001,1138178050,-0.864736,0.070272,0.427488,-13.58,14.096251,-26.13625,22.112001,-22.112001,7.096,eccentric,5,3.0,21834.0,152718.0,244168.0,292328.0,269467.0
2026-04-08 21:39:25.995649,123991,1609503538225536,1138190857,-1.00528,0.070272,0.384544,-2.4675,11.8475,-25.76,22.12,-21.872002,7.064,eccentric,5,3.0,21834.0,152718.0,244168.0,292328.0,269467.0
2026-04-08 21:39:26.001830,123992,1609503538234912,1138201679,-1.00528,0.070272,0.384544,-7.735,7.07875,-22.5925,22.12,-21.872002,7.064,eccentric,5,3.0,21834.0,152718.0,244168.0,292328.0,269467.0
2026-04-08 21:39:26.004372,123993,1609503538249446,1138216610,-0.993568,-0.003904,0.115168,-21.735,8.44375,-23.345,21.76,-21.496,6.672,eccentric,5,3.0,21834.0,152718.0,244168.0,292328.0,269467.0
2026-04-08 21:39:26.006870,123994,1609503538258427,1138225283,-0.944768,-0.035136,0.495808,-28.848751,13.25625,-29.5925,22.096,-20.888,8.952001,eccentric,5,3.0,21834.0,152718.0,244168.0,292328.0,269467.0
2026-04-08 21:39:26.037017,123995,1609503538267414,1138233967,-0.944768,-0.035136,0.495808,-31.22,15.96875,-32.095,22.096,-20.888,8.952001,eccentric,5,3.0,21834.0,152718.0,244168.0,292328.0,269467.0
2026-04-08 21:39:26.040605,123996,1609503538281884,1138248841,-0.938912,0.007808,0.269376,-28.1575,16.2225,-30.9925,22.616001,-21.072,7.408001,eccentric,5,3.0,21834.0,152718.0,244168.0,292328.0,269467.0
2026-04-08 21:39:26.043106,123997,1609503538290799,1138257505,-0.938912,0.007808,0.269376,-21.4375,16.07375,-32.47125,22.616001,-21.072,7.408001,eccentric,5,3.0,21834.0,152718.0,244168.0,292328.0,269467.0
2026-04-08 21:39:26.075938,123998,1609503538305293,1138272385,-0.954528,-0.060512,0.210816,-18.13875,16.52,-35.2275,22.376001,-20.240002,7.352,eccentric,5,3.0,21834.0,152718.0,244168.0,292328.0,269467.0
2026-04-08 21:39:26.104439,124009,1609503538314575,1138281055,-0.954528,-0.060512,0.210816,-18.9,18.05125,-37.19625,22.376001,-20.240002,7.352,eccentric,5,3.0,21883.0,152939.0,244477.0,292496.0,269533.0
2026-04-08 21:39:26.107652,124010,1609503538329054,1138296019,-0.970144,-0.0976,0.435296,-23.51125,22.575,-37.59875,22.984001,-19.928001,7.76,eccentric,5,3.0,21883.0,152939.0,244477.0,292496.0,269533.0
2026-04-08 21:39:26.109424,124011,1609503538337965,1138304735,-0.960384,0.027328,0.394304,-27.04625,23.485,-35.95375,23.000002,-19.256,7.968,eccentric,5,3.0,21883.0,152939.0,244477.0,292496.0,269533.0
2026-04-08 21:39:26.113982,124012,1609503538346882,1138313462,-0.960384,0.027328,0.394304,-22.02375,23.10875,-36.085,23.000002,-19.256,7.968,eccentric,5,3.0,21883.0,152939.0,244477.0,292496.0,269533.0
2026-04-08 21:39:26.115816,124013,1609503538361385,1138328349,-0.979904,0.007808,0.160064,-10.29,22.70625,-40.39875,23.552002,-19.168001,7.888001,eccentric,5,3.0,21883.0,152939.0,244477.0,292496.0,269533.0
2026-04-08 21:39:26.118643,124014,1609503538370403,1138337017,-0.979904,0.007808,0.160064,-7.035,20.685,-41.1775,23.552002,-19.168001,7.888001,eccentric,5,3.0,21883.0,152939.0,244477.0,292496.0,269533.0
2026-04-08 21:39:26.149542,124015,1609503538384894,1138351927,-1.030656,-0.03904,0.1952,-9.0475,19.85375,-40.6,23.904001,-18.560001,7.152,eccentric,5,3.0,21883.0,152939.0,244477.0,292496.0,269533.0
2026-04-08 21:39:26.151959,124016,1609503538393836,1138360625,-1.030656,-0.03904,0.1952,-17.77125,19.5125,-39.5675,23.904001,-18.560001,7.152,eccentric,5,3.0,21883.0,152939.0,244477.0,292496.0,269533.0
2026-04-08 21:39:26.154419,124017,1609503538408288,1138373436,-0.948672,-0.163968,0.33184,-31.43,18.4275,-39.54125,24.408,-18.096,7.136,eccentric,5,3.0,21883.0,152939.0,244477.0,292496.0,269533.0
2026-04-08 21:39:26.181923,124028,1609503538417760,1138384276,-0.962336,-0.070272,0.236192,-35.857502,15.627501,-42.69125,24.184002,-17.400002,9.296001,eccentric,5,3.0,21783.0,152525.0,243999.0,292131.0,269267.0
2026-04-08 21:39:26.184420,124029,1609503538426744,1138393039,-0.962336,-0.070272,0.236192,-24.9375,14.14,-47.5125,24.184002,-17.400002,9.296001,eccentric,5,3.0,21783.0,152525.0,243999.0,292131.0,269267.0
2026-04-08 21:39:26.188239,124030,1609503538441225,1138407936,-0.968192,0.005856,0.089792,-3.9025,15.190001,-51.54625,24.312,-17.28,8.84,eccentric,5,3.0,21783.0,152525.0,243999.0,292131.0,269267.0
2026-04-08 21:39:26.218372,124031,1609503538450218,1138416642,-0.968192,0.005856,0.089792,12.81,15.46125,-49.875,24.312,-17.28,8.84,eccentric,5,3.0,21783.0,152525.0,243999.0,292131.0,269267.0
2026-04-08 21:39:26.221977,124032,1609503538464705,1138431517,-0.808128,-0.080032,0.284992,13.27375,14.0,-46.17375,25.064001,-17.016,6.912,eccentric,5,3.0,21783.0,152525.0,243999.0,292131.0,269267.0
2026-04-08 21:39:26.224467,124033,1609503538473613,1138440196,-0.808128,-0.080032,0.284992,0.55125,13.55375,-42.28,25.064001,-17.016,6.912,eccentric,5,3.0,21783.0,152525.0,243999.0,292131.0,269267.0
2026-04-08 21:39:26.233198,124034,1609503538482531,1138448875,-0.862784,-0.070272,0.122976,-12.71375,14.42875,-40.1975,25.128,-16.560001,6.968,eccentric,5,3.0,21783.0,152525.0,243999.0,292131.0,269267.0
2026-04-08 21:39:26.263559,124035,1609503538497018,1138463807,-0.862784,-0.070272,0.122976,-19.5825,13.7025,-36.015,25.128,-16.560001,6.968,eccentric,5,3.0,21783.0,152525.0,243999.0,292131.0,269267.0
2026-04-08 21:39:26.267056,124036,1609503538505945,1138472485,-0.95648,0.023424,0.249856,-16.8175,11.75125,-30.94875,25.456001,-16.416,6.128,eccentric,5,3.0,21783.0,152525.0,243999.0,292131.0,269267.0
2026-04-08 21:39:26.301890,124047,1609503538520859,1138487877,-0.86864,-0.142496,0.3416,-10.2025,8.225,-28.00875,25.568,-16.04,6.520001,eccentric,5,3.0,21794.0,152403.0,243824.0,292100.0,269281.0
2026-04-08 21:39:26.304397,124048,1609503538530006,1138496582,-0.86864,-0.142496,0.3416,-4.75125,4.38375,-27.9125,25.568,-16.04,6.520001,eccentric,5,3.0,21794.0,152403.0,243824.0,292100.0,269281.0
2026-04-08 21:39:26.306917,124049,1609503538538881,1138505278,-0.825696,-0.148352,0.25376,1.35625,6.265,-27.965,25.400002,-15.912001,7.392,eccentric,5,3.0,21794.0,152403.0,243824.0,292100.0,269281.0
2026-04-08 21:39:26.309469,124050,1609503538553471,1138520200,-0.825696,-0.148352,0.25376,7.3675,12.005,-28.30625,25.400002,-15.912001,7.392,eccentric,5,3.0,21794.0,152403.0,243824.0,292100.0,269281.0
2026-04-08 21:39:26.315696,124051,1609503538562427,1138528900,-0.880352,0.056608,0.244,6.02875,15.408751,-25.52375,25.36,-15.624001,6.784,eccentric,5,3.0,21794.0,152403.0,243824.0,292100.0,269281.0
2026-04-08 21:39:26.356978,124052,1609503538576908,1138543797,-0.880352,0.056608,0.244,-3.395,15.1725,-20.46625,25.36,-15.624001,6.784,eccentric,5,3.0,21794.0,152403.0,243824.0,292100.0,269281.0
2026-04-08 21:39:26.359050,124053,1609503538585830,1138552452,-0.901824,-0.005856,0.199104,-11.12125,10.91125,-14.533751,25.824001,-15.120001,8.504001,eccentric,5,3.0,21794.0,152403.0,243824.0,292100.0,269281.0
2026-04-08 21:39:26.363754,124054,1609503538600349,1138567348,-0.979904,-0.189344,0.101504,-8.9775,6.92125,-12.94125,26.136002,-15.312,6.864,eccentric,5,3.0,21794.0,152403.0,243824.0,292100.0,269281.0
2026-04-08 21:39:26.365455,124055,1609503538609258,1138576012,-0.979904,-0.189344,0.101504,-2.14375,6.57125,-13.62375,26.136002,-15.312,6.864,eccentric,5,3.0,21794.0,152403.0,243824.0,292100.0,269281.0
2026-04-08 21:39:26.393679,124066,1609503538618271,1138584763,-0.979904,-0.060512,0.062464,0.86625,6.72,-14.48125,26.136002,-15.312,6.864,eccentric,5,3.0,21893.0,152769.0,244242.0,292380.0,269467.0
2026-04-08 21:39:26.395411,124067,1609503538632850,1138599711,-0.952576,-0.060512,0.062464,4.17375,7.60375,-12.425,25.880001,-15.112,7.464,eccentric,5,3.0,21893.0,152769.0,244242.0,292380.0,269467.0
2026-04-08 21:39:26.397819,124068,1609503538641843,1138608426,-0.919392,0.062464,0.37088,2.31875,6.48375,-9.05625,26.088001,-15.024001,6.416,eccentric,5,3.0,21893.0,152769.0,244242.0,292380.0,269467.0
2026-04-08 21:39:26.428207,124069,1609503538656344,1138623305,-0.919392,0.062464,0.37088,-2.31,3.10625,-6.08125,26.088001,-15.024001,6.416,eccentric,5,3.0,21893.0,152769.0,244242.0,292380.0,269467.0
2026-04-08 21:39:26.433605,124070,1609503538665288,1138631953,-1.009184,-0.01952,0.22448,-2.59,-1.435,-2.30125,26.032001,-14.920001,6.576,eccentric,5,3.0,21893.0,152769.0,244242.0,292380.0,269467.0
2026-04-08 21:39:26.435370,124071,1609503538679749,1138646835,-1.00528,-0.095648,0.103456,4.0075,-2.12625,-0.90125,26.016,-14.888001,7.136,eccentric,5,3.0,21893.0,152769.0,244242.0,292380.0,269467.0
2026-04-08 21:39:26.437201,124072,1609503538688645,1138655548,-1.00528,-0.095648,0.103456,14.44625,2.6425,-1.54,26.016,-14.888001,7.136,eccentric,5,3.0,21893.0,152769.0,244242.0,292380.0,269467.0
2026-04-08 21:39:26.466846,124073,1609503538697553,1138664219,-1.00528,-0.095648,0.103456,11.585,6.67625,-1.00625,26.016,-14.888001,7.136,eccentric,5,3.0,21893.0,152769.0,244242.0,292380.0,269467.0
2026-04-08 21:39:26.498730,124085,1609503538712042,1138679080,-0.950624,0.0,0.304512,-0.77875,7.7,1.05875,26.28,-15.016001,6.064,eccentric,5,3.0,21959.0,152920.0,244413.0,292556.0,269567.0
2026-04-08 21:39:26.500413,124086,1609503538721043,1138687829,-1.01504,0.02928,0.404064,-9.03875,5.38125,2.6775,26.056002,-14.832001,6.208,eccentric,5,3.0,21959.0,152920.0,244413.0,292556.0,269567.0
2026-04-08 21:39:26.501960,124087,1609503538735534,1138700697,-1.01504,0.02928,0.404064,-8.25125,0.65625,3.22,26.056002,-14.832001,6.208,eccentric,5,3.0,21959.0,152920.0,244413.0,292556.0,269567.0
2026-04-08 21:39:26.506165,124088,1609503538744696,1138711450,-0.997472,-0.091744,0.142496,0.67375,-1.04125,3.52625,25.744001,-15.072001,7.520001,eccentric,5,3.0,21959.0,152920.0,244413.0,292556.0,269567.0
2026-04-08 21:39:26.507795,124089,1609503538759194,1138724350,-0.997472,-0.064416,0.140544,8.37375,-0.6475,4.41875,25.744001,-15.072001,7.520001,eccentric,5,3.0,21959.0,152920.0,244413.0,292556.0,269567.0
2026-04-08 21:39:26.540113,124090,1609503538768341,1138735137,-1.020896,-0.064416,0.140544,7.69125,-1.0675,5.78375,25.808,-15.424001,9.056001,eccentric,5,3.0,21959.0,152920.0,244413.0,292556.0,269567.0
2026-04-08 21:39:26.541725,124091,1609503538777260,1138743809,-1.020896,-0.064416,0.140544,3.84125,-1.60125,6.25625,25.808,-15.424001,9.056001,eccentric,5,3.0,21959.0,152920.0,244413.0,292556.0,269567.0
2026-04-08 21:39:26.543221,124092,1609503538791728,1138758663,-1.030656,0.007808,0.189344,0.86625,-1.855,6.3,25.976002,-15.432001,6.376,eccentric,5,3.0,21959.0,152920.0,244413.0,292556.0,269567.0
2026-04-08 21:39:26.550204,124093,1609503538800692,1138767326,-0.98576,-0.060512,0.22448,-2.75625,-2.5725,8.1375,25.944002,-15.256001,4.512,eccentric,5,3.0,21959.0,152920.0,244413.0,292556.0,269567.0
2026-04-08 21:39:26.614152,124104,1609503538815232,1138782252,-0.98576,-0.060512,0.22448,-3.03625,-3.28125,10.42125,25.944002,-15.256001,4.512,eccentric,5,3.0,22089.0,153497.0,245079.0,292971.0,269779.0
2026-04-08 21:39:26.615723,124105,1609503538824190,1138790940,-1.018944,-0.081984,0.162016,2.12625,-3.49125,9.5725,25.728,-15.608001,6.272,eccentric,5,3.0,22089.0,153497.0,245079.0,292971.0,269779.0
2026-04-08 21:39:26.619959,124106,1609503538833166,1138799633,-1.018944,-0.081984,0.162016,6.44875,-3.01875,7.58625,25.728,-15.608001,6.272,eccentric,5,3.0,22089.0,153497.0,245079.0,292971.0,269779.0
2026-04-08 21:39:26.621642,124107,1609503538847700,1138814530,-1.038464,-0.074176,0.080032,9.0125,-0.09625,4.27,25.6,-15.624001,6.344,eccentric,5,3.0,22089.0,153497.0,245079.0,292971.0,269779.0
2026-04-08 21:39:26.624069,124108,1609503538856631,1138823285,-1.038464,-0.074176,0.080032,4.69875,1.14625,1.56625,25.6,-15.624001,6.344,eccentric,5,3.0,22089.0,153497.0,245079.0,292971.0,269779.0
2026-04-08 21:39:26.625655,124109,1609503538871143,1138838252,-0.983808,-0.01952,0.218624,-3.7975,1.3475,1.28625,25.896002,-15.584001,6.312,eccentric,5,3.0,22089.0,153497.0,245079.0,292971.0,269779.0
2026-04-08 21:39:26.629783,124110,1609503538880064,1138846945,-0.983808,-0.037088,0.244,-7.42875,-0.34125,1.60125,25.896002,-15.584001,4.264,eccentric,5,3.0,22089.0,153497.0,245079.0,292971.0,269779.0
2026-04-08 21:39:26.658317,124111,1609503538894548,1138859756,-1.020896,-0.037088,0.244,-6.8425,-2.835,1.39125,25.592001,-15.696001,5.176,eccentric,5,3.0,22089.0,153497.0,245079.0,292971.0,269779.0
2026-04-08 21:39:26.662873,124112,1609503538903722,1138870474,-0.983808,-0.052704,0.27328,-1.19875,-5.11875,2.065,25.880001,-15.800001,6.496,eccentric,5,3.0,22089.0,153497.0,245079.0,292971.0,269779.0
2026-04-08 21:39:26.664437,124113,1609503538912635,1138879161,-0.983808,-0.052704,0.27328,6.55375,-5.3375,3.00125,25.880001,-15.800001,6.496,eccentric,5,3.0,22089.0,153497.0,245079.0,292971.0,269779.0
2026-04-08 21:39:26.693785,124124,1609503538927208,1138894090,-0.952576,-0.013664,0.288896,9.765,-5.36375,4.27875,25.128,-15.656001,5.552,eccentric,5,3.0,22133.0,153682.0,245315.0,293124.0,269864.0
2026-04-08 21:39:26.695360,124125,1609503538936173,1138902773,-0.952576,-0.013664,0.288896,7.525,-4.7425,7.2625,25.128,-15.656001,5.552,eccentric,5,3.0,22133.0,153682.0,245315.0,293124.0,269864.0
2026-04-08 21:39:26.698151,124126,1609503538950665,1138917648,-0.991616,0.001952,0.130784,1.53125,-5.11,10.54375,24.920002,-16.28,6.408001,eccentric,5,3.0,22133.0,153682.0,245315.0,293124.0,269864.0
2026-04-08 21:39:26.728388,124127,1609503538959589,1138926310,-0.991616,0.001952,0.130784,-1.28625,-6.6325,13.1425,24.920002,-16.28,6.408001,eccentric,5,3.0,22133.0,153682.0,245315.0,293124.0,269864.0
2026-04-08 21:39:26.731940,124128,1609503538974079,1138941194,-0.950624,-0.08784,0.154208,1.04125,-7.525,14.385,25.632002,-16.152,7.344,eccentric,5,3.0,22133.0,153682.0,245315.0,293124.0,269864.0
2026-04-08 21:39:26.734367,124129,1609503538983014,1138949865,-0.940864,-0.062464,0.28304,6.34375,-8.855001,14.90125,25.192001,-16.448,6.76,eccentric,5,3.0,22133.0,153682.0,245315.0,293124.0,269864.0
2026-04-08 21:39:26.739415,124130,1609503538992010,1138958566,-0.940864,-0.062464,0.28304,11.85625,-10.64875,15.26875,25.192001,-16.448,6.76,eccentric,5,3.0,22133.0,153682.0,245315.0,293124.0,269864.0
2026-04-08 21:39:26.769569,124131,1609503539006518,1138973441,-0.860832,0.001952,0.210816,15.35625,-12.25875,16.7475,25.024002,-16.912,6.416,eccentric,5,3.0,22133.0,153682.0,245315.0,293124.0,269864.0
2026-04-08 21:39:26.800626,124142,1609503539015456,1138982676,-0.860832,0.001952,0.210816,14.88375,-12.1625,20.90375,25.024002,-16.912,6.416,concentric,5,3.0,22204.0,153947.0,245645.0,293338.0,270002.0
2026-04-08 21:39:26.803163,124143,1609503539029978,1138995506,-0.899872,0.066368,0.288896,11.41875,-11.1475,24.89375,25.192001,-17.288,6.376,concentric,5,3.0,22204.0,153947.0,245645.0,293338.0,270002.0
2026-04-08 21:39:26.805598,124144,1609503539039324,1139006340,-0.899872,0.066368,0.288896,5.76625,-11.10375,29.2425,25.192001,-17.288,6.376,concentric,5,3.0,22204.0,153947.0,245645.0,293338.0,270002.0
2026-04-08 21:39:26.808178,124145,1609503539048283,1139015005,-0.913536,-0.046848,0.119072,2.695,-11.76,32.4275,23.960001,-16.912,7.304,concentric,5,3.0,22204.0,153947.0,245645.0,293338.0,270002.0
2026-04-08 21:39:26.810596,124146,1609503539062759,1139029877,-0.950624,-0.040992,0.199104,3.84125,-11.68125,32.26125,24.392002,-17.768002,5.424,concentric,5,3.0,22204.0,153947.0,245645.0,293338.0,270002.0
2026-04-08 21:39:26.843098,124147,1609503539071720,1139038614,-0.950624,-0.040992,0.199104,6.7025,-9.87,30.380001,24.392002,-17.768002,5.424,concentric,5,3.0,22204.0,153947.0,245645.0,293338.0,270002.0
2026-04-08 21:39:26.845557,124148,1609503539086238,1139051427,-0.987712,-0.040992,0.169824,4.9875,-8.67125,29.741251,24.288002,-17.848001,6.520001,concentric,5,3.0,22204.0,153947.0,245645.0,293338.0,270002.0
2026-04-08 21:39:26.848495,124149,1609503539095396,1139062153,-0.987712,-0.040992,0.169824,1.3475,-9.6425,30.63375,24.288002,-17.848001,6.520001,concentric,5,3.0,22204.0,153947.0,245645.0,293338.0,270002.0
2026-04-08 21:39:26.878352,124150,1609503539109882,1139077020,-0.99552,0.085888,0.162016,0.76125,-10.325,31.3775,24.240002,-18.2,6.432,concentric,5,3.0,22204.0,153947.0,245645.0,293338.0,270002.0
2026-04-08 21:39:26.906798,124161,1609503539119369,1139085835,-0.99552,0.085888,0.162016,2.03,-6.83375,30.96625,24.240002,-18.2,6.432,concentric,5,3.0,22269.0,154274.0,246002.0,293543.0,270128.0
2026-04-08 21:39:26.909756,124162,1609503539128303,1139094485,-0.93696,-0.003904,0.089792,-0.2975,-3.15875,33.18875,24.112001,-18.560001,6.144,concentric,5,3.0,22269.0,154274.0,246002.0,293543.0,270128.0
2026-04-08 21:39:26.911962,124163,1609503539142844,1139109381,-0.976,0.033184,0.306464,-5.76625,-3.15,37.695,23.536001,-19.384,8.448,concentric,5,3.0,22269.0,154274.0,246002.0,293543.0,270128.0
2026-04-08 21:39:26.914332,124164,1609503539151828,1139118123,-0.976,0.033184,0.306464,-9.24875,-4.3225,40.87125,23.536001,-19.384,8.448,concentric,5,3.0,22269.0,154274.0,246002.0,293543.0,270128.0
2026-04-08 21:39:26.916865,124165,1609503539166340,1139133024,-0.974048,-0.013664,0.144448,-4.515,-3.5175,38.8675,23.104002,-19.296001,7.888001,concentric,5,3.0,22269.0,154274.0,246002.0,293543.0,270128.0
2026-04-08 21:39:26.921822,124166,1609503539175290,1139141713,-0.974048,-0.013664,0.144448,0.48125,-2.58125,36.65375,23.104002,-19.296001,7.888001,concentric,5,3.0,22269.0,154274.0,246002.0,293543.0,270128.0
2026-04-08 21:39:26.952047,124167,1609503539184224,1139150410,-0.96624,0.044896,0.13664,-1.9425,-3.4825,39.13,22.512001,-19.76,8.616,concentric,5,3.0,22269.0,154274.0,246002.0,293543.0,270128.0
2026-04-08 21:39:26.955632,124168,1609503539198708,1139165262,-0.96624,0.044896,0.13664,-3.31625,-4.34,42.69125,22.512001,-19.76,8.616,concentric,5,3.0,22269.0,154274.0,246002.0,293543.0,270128.0
2026-04-08 21:39:26.958112,124169,1609503539207622,1139173905,-0.923296,0.0,0.35136,-0.6125,-4.69875,43.14625,22.880001,-20.088001,6.664001,concentric,5,3.0,22269.0,154274.0,246002.0,293543.0,270128.0
2026-04-08 21:39:26.988264,124180,1609503539222160,1139188936,-0.923296,-0.015616,0.191296,-0.14875,-6.2475,42.035,22.880001,-20.088001,6.664001,concentric,5,3.0,22327.0,154516.0,246202.0,293613.0,270197.0
2026-04-08 21:39:26.991399,124181,1609503539231224,1139197607,-0.91744,-0.005856,0.191296,1.84625,-6.71125,40.5475,22.576,-20.536001,6.696,concentric,5,3.0,22327.0,154516.0,246202.0,293613.0,270197.0
2026-04-08 21:39:26.994326,124182,1609503539245774,1139212584,-0.954528,0.050752,0.103456,6.50125,-4.87375,39.34,22.176,-20.904001,6.656,concentric,5,3.0,22327.0,154516.0,246202.0,293613.0,270197.0
2026-04-08 21:39:27.024609,124183,1609503539254685,1139221310,-0.954528,0.050752,0.103456,7.0175,-4.0425,41.58875,22.176,-20.904001,6.656,concentric,5,3.0,22327.0,154516.0,246202.0,293613.0,270197.0
2026-04-08 21:39:27.028178,124184,1609503539263646,1139229975,-0.999424,0.162016,0.249856,4.01625,-7.805,46.54125,21.744001,-21.368002,6.16,concentric,5,3.0,22327.0,154516.0,246202.0,293613.0,270197.0
2026-04-08 21:39:27.030632,124185,1609503539278120,1139244853,-0.999424,0.162016,0.249856,5.03125,-12.99375,49.5075,21.744001,-21.368002,6.16,concentric,5,3.0,22327.0,154516.0,246202.0,293613.0,270197.0
2026-04-08 21:39:27.034390,124186,1609503539287077,1139253519,-0.89792,-0.021472,0.173728,11.43625,-15.33,46.01625,21.272001,-22.320002,6.440001,concentric,5,3.0,22327.0,154516.0,246202.0,293613.0,270197.0
2026-04-08 21:39:27.065723,124187,1609503539301541,1139268391,-0.89792,-0.021472,0.173728,10.36,-15.81125,39.83,21.272001,-22.320002,6.440001,concentric,5,3.0,22327.0,154516.0,246202.0,293613.0,270197.0
2026-04-08 21:39:27.068096,124188,1609503539310450,1139277054,-0.880352,0.027328,0.324032,3.91125,-12.005,38.15875,20.912,-22.504002,6.152,concentric,5,3.0,22327.0,154516.0,246202.0,293613.0,270197.0
2026-04-08 21:39:27.095611,124199,1609503539325363,1139292378,-0.886208,0.152256,0.345504,1.5925,-8.74125,38.605,21.384,-22.448002,6.744,concentric,5,3.0,22365.0,154598.0,246170.0,293620.0,270226.0
2026-04-08 21:39:27.098161,124200,1609503539334351,1139301088,-0.886208,0.152256,0.345504,2.66,-8.3825,39.2525,21.384,-22.448002,6.744,concentric,5,3.0,22365.0,154598.0,246170.0,293620.0,270226.0
2026-04-08 21:39:27.104399,124201,1609503539343303,1139309790,-0.952576,0.187392,0.28304,5.6525,-11.2,38.47375,21.384,-24.496,7.056,concentric,5,3.0,22365.0,154598.0,246170.0,293620.0,270226.0
2026-04-08 21:39:27.106895,124202,1609503539357800,1139324647,-0.952576,0.187392,0.28304,9.23125,-14.41125,37.42375,20.416,-22.896002,7.056,concentric,5,3.0,22365.0,154598.0,246170.0,293620.0,270226.0
2026-04-08 21:39:27.113181,124203,1609503539366740,1139333352,-0.962336,0.080032,0.2928,9.5025,-17.5175,36.0325,20.472,-23.592001,6.648,concentric,5,3.0,22365.0,154598.0,246170.0,293620.0,270226.0
2026-04-08 21:39:27.145881,124204,1609503539381213,1139348245,-0.962336,0.080032,0.2928,11.55875,-15.47875,32.8475,20.472,-23.592001,6.648,concentric,5,3.0,22365.0,154598.0,246170.0,293620.0,270226.0
2026-04-08 21:39:27.149397,124205,1609503539390094,1139356895,-0.991616,0.10736,0.413824,9.9575,-12.6175,28.8575,20.136002,-23.648,6.896,concentric,5,3.0,22365.0,154598.0,246170.0,293620.0,270226.0
2026-04-08 21:39:27.154511,124206,1609503539404541,1139369697,-0.970144,0.21472,0.206912,8.2425,-10.29875,25.0775,19.928001,-24.008001,6.472,concentric,5,3.0,22365.0,154598.0,246170.0,293620.0,270226.0
2026-04-08 21:39:27.182148,124207,1609503539413764,1139380474,-0.970144,0.21472,0.206912,8.636251,-8.12,21.28,19.928001,-24.008001,6.472,concentric,5,3.0,22365.0,154598.0,246170.0,293620.0,270226.0
2026-04-08 21:39:27.210625,124218,1609503539422722,1139389149,-0.970144,0.21472,0.206912,6.02,-7.76125,20.2475,19.928001,-24.008001,6.472,concentric,5,3.0,22421.0,154916.0,246565.0,293869.0,270385.0
2026-04-08 21:39:27.213292,124219,1609503539437242,1139404122,-1.059936,0.244,0.275232,-0.00875,-13.7025,24.00125,19.672,-24.44,5.968,concentric,5,3.0,22421.0,154916.0,246565.0,293869.0,270385.0
2026-04-08 21:39:27.215655,124220,1609503539446203,1139412845,-0.96624,0.216672,0.327936,-4.305,-23.93125,27.098751,19.472,-24.768002,7.688,concentric,5,3.0,22421.0,154916.0,246565.0,293869.0,270385.0
2026-04-08 21:39:27.218111,124221,1609503539460755,1139427746,-0.96624,0.216672,0.327936,2.31,-28.3675,21.44625,19.472,-24.768002,7.688,concentric,5,3.0,22421.0,154916.0,246565.0,293869.0,270385.0
2026-04-08 21:39:27.220659,124222,1609503539469673,1139436410,-1.007232,0.101504,0.244,7.67375,-26.50375,11.261251,19.160002,-24.920002,7.608,concentric,5,3.0,22421.0,154916.0,246565.0,293869.0,270385.0
2026-04-08 21:39:27.226931,124223,1609503539478558,1139445088,-1.007232,0.101504,0.244,-2.93125,-24.54375,8.6975,19.160002,-24.920002,7.608,concentric,5,3.0,22421.0,154916.0,246565.0,293869.0,270385.0
2026-04-08 21:39:27.257156,124224,1609503539493069,1139460141,-0.958432,0.230336,0.109312,-6.62375,-19.0575,7.735,19.640001,-24.904001,7.464,concentric,5,3.0,22421.0,154916.0,246565.0,293869.0,270385.0
2026-04-08 21:39:27.260635,124225,1609503539502006,1139468810,-0.958432,0.230336,0.109312,-6.1075,-13.011251,3.8325,19.640001,-24.904001,7.464,concentric,5,3.0,22421.0,154916.0,246565.0,293869.0,270385.0
2026-04-08 21:39:27.263149,124226,1609503539516452,1139481605,-0.890112,0.228384,0.300608,-13.1775,-11.90875,3.99,19.288,-24.832,7.224001,concentric,5,3.0,22421.0,154916.0,246565.0,293869.0,270385.0
2026-04-08 21:39:27.290692,124237,1609503539525600,1139492414,-0.8296,0.124928,0.296704,-24.29,-16.9225,6.81625,19.392,-25.312,7.24,concentric,5,3.0,22624.0,155717.0,247425.0,294376.0,270696.0
2026-04-08 21:39:27.293154,124238,1609503539540082,1139505290,-0.8296,0.124928,0.296704,-29.435,-22.8375,5.145,19.392,-25.312,7.24,concentric,5,3.0,22624.0,155717.0,247425.0,294376.0,270696.0
2026-04-08 21:39:27.298165,124239,1609503539549325,1139516044,-0.823744,0.0488,0.353312,-24.26375,-25.33125,-1.68,19.792002,-24.848001,7.8,concentric,5,3.0,22624.0,155717.0,247425.0,294376.0,270696.0
2026-04-08 21:39:27.304399,124240,1609503539558302,1139524742,-0.823744,0.0488,0.353312,-14.51625,-23.7475,-8.42625,19.792002,-24.848001,7.8,concentric,5,3.0,22624.0,155717.0,247425.0,294376.0,270696.0
2026-04-08 21:39:27.334592,124241,1609503539572753,1139539693,-0.95648,0.13664,0.281088,-9.44125,-21.32375,-10.8325,19.584002,-25.224,9.080001,concentric,5,3.0,22624.0,155717.0,247425.0,294376.0,270696.0
2026-04-08 21:39:27.338216,124242,1609503539581648,1139548370,-0.95648,0.13664,0.281088,-6.755,-17.75375,-12.99375,19.584002,-25.224,9.080001,concentric,5,3.0,22624.0,155717.0,247425.0,294376.0,270696.0
2026-04-08 21:39:27.344415,124243,1609503539596226,1139563223,-0.905728,0.187392,0.421632,-4.6375,-15.636251,-16.52,20.192001,-24.832,7.496,concentric,5,3.0,22624.0,155717.0,247425.0,294376.0,270696.0
2026-04-08 21:39:27.375744,124244,1609503539605138,1139571915,-0.979904,0.13664,0.435296,-5.53875,-15.6975,-18.29625,20.192001,-24.720001,8.832001,concentric,5,3.0,22624.0,155717.0,247425.0,294376.0,270696.0
2026-04-08 21:39:27.406921,124255,1609503539620151,1139586797,-0.979904,0.13664,0.435296,-8.26,-16.397501,-17.71875,19.864,-24.720001,8.832001,concentric,5,3.0,22507.0,155190.0,246678.0,293854.0,270386.0
2026-04-08 21:39:27.409428,124256,1609503539629103,1139595501,-1.05408,0.081984,0.368928,-13.825,-15.9425,-18.40125,20.712002,-25.128,7.896,concentric,5,3.0,22507.0,155190.0,246678.0,293854.0,270386.0
2026-04-08 21:39:27.411919,124257,1609503539638072,1139604162,-1.05408,0.081984,0.368928,-15.28625,-14.096251,-22.303751,20.712002,-25.128,7.896,concentric,5,3.0,22507.0,155190.0,246678.0,293854.0,270386.0
2026-04-08 21:39:27.414453,124258,1609503539652574,1139619094,-1.120448,0.167872,0.484096,-10.2025,-9.10875,-31.5875,21.44,-24.728,5.752,concentric,5,3.0,22507.0,155190.0,246678.0,293854.0,270386.0
2026-04-08 21:39:27.416939,124259,1609503539661476,1139627762,-1.120448,0.167872,0.484096,-8.54,-3.3075,-42.385,21.44,-24.728,5.752,concentric,5,3.0,22507.0,155190.0,246678.0,293854.0,270386.0
2026-04-08 21:39:27.423186,124260,1609503539676003,1139642690,-1.128256,0.18544,0.452864,-9.1525,-0.0175,-48.18625,21.576,-24.352001,8.72,concentric,5,3.0,22507.0,155190.0,246678.0,293854.0,270386.0
2026-04-08 21:39:27.454668,124261,1609503539685025,1139651412,-1.128256,0.18544,0.31232,-14.542501,-0.49875,-45.9025,21.576,-24.352001,8.72,concentric,5,3.0,22507.0,155190.0,246678.0,293854.0,270386.0
2026-04-08 21:39:27.456936,124262,1609503539693971,1139660101,-1.294176,0.201056,0.314272,-8.82,1.91625,-45.15,22.536001,-24.264002,7.248,concentric,5,3.0,22507.0,155190.0,246678.0,293854.0,270386.0
2026-04-08 21:39:27.459415,124263,1609503539708438,1139675036,-1.311744,0.206912,0.251808,-7.90125,3.0975,-42.93625,23.272001,-23.992,7.752,concentric,5,3.0,22507.0,155190.0,246678.0,293854.0,270386.0
2026-04-08 21:39:27.489468,124274,1609503539717393,1139684022,-1.311744,0.206912,0.251808,-15.5925,3.47375,-44.1,23.272001,-23.992,7.752,concentric,5,3.0,22267.0,154191.0,245536.0,293178.0,270026.0
2026-04-08 21:39:27.491930,124275,1609503539731984,1139698991,-1.225856,0.115168,0.374784,-24.22,3.68375,-50.995,24.008001,-23.632002,8.0,concentric,5,3.0,22267.0,154191.0,245536.0,293178.0,270026.0
2026-04-08 21:39:27.494720,124276,1609503539740902,1139707681,-1.225856,0.115168,0.374784,-32.29625,1.07625,-55.51875,24.008001,-23.632002,8.0,concentric,5,3.0,22267.0,154191.0,245536.0,293178.0,270026.0
2026-04-08 21:39:27.524684,124277,1609503539755407,1139722545,-1.157536,0.099552,0.480192,-38.701252,-4.80375,-57.785,24.344002,-23.256,8.296001,concentric,5,3.0,22267.0,154191.0,245536.0,293178.0,270026.0
2026-04-08 21:39:27.528241,124278,1609503539764408,1139731206,-1.157536,0.099552,0.480192,-42.95375,-9.9925,-59.885002,24.344002,-23.256,8.296001,concentric,5,3.0,22267.0,154191.0,245536.0,293178.0,270026.0
2026-04-08 21:39:27.530647,124279,1609503539773343,1139739944,-1.147776,0.0488,0.232288,-40.41625,-13.7725,-62.85125,25.032001,-22.304,9.904,concentric,5,3.0,22267.0,154191.0,245536.0,293178.0,270026.0
2026-04-08 21:39:27.535680,124280,1609503539787827,1139754837,-1.134112,0.046848,0.33184,-34.23875,-16.1875,-65.6075,25.112001,-21.512001,9.272,concentric,5,3.0,22267.0,154191.0,245536.0,293178.0,270026.0
2026-04-08 21:39:27.570784,124281,1609503539796816,1139763496,-1.134112,0.046848,0.33184,-30.2925,-18.41,-64.33875,25.112001,-21.512001,9.272,concentric,5,3.0,22267.0,154191.0,245536.0,293178.0,270026.0
2026-04-08 21:39:27.574328,124282,1609503539811302,1139778383,-1.050176,0.064416,0.462624,-26.32875,-20.01125,-62.65875,25.896002,-21.776001,9.120001,concentric,5,3.0,22267.0,154191.0,245536.0,293178.0,270026.0
2026-04-08 21:39:27.604399,124293,1609503539820480,1139787249,-1.050176,0.064416,0.462624,-24.42125,-19.25,-62.86875,25.896002,-21.776001,9.120001,concentric,5,3.0,22398.0,154547.0,245933.0,293539.0,270262.0
2026-04-08 21:39:27.606887,124294,1609503539829463,1139795942,-1.118496,0.050752,0.544608,-24.33375,-19.215,-61.81,26.832,-20.528002,9.752001,concentric,5,3.0,22398.0,154547.0,245933.0,293539.0,270262.0
2026-04-08 21:39:27.609406,124295,1609503539843947,1139810822,-1.118496,0.050752,0.544608,-24.3775,-18.89125,-60.27,26.832,-20.528002,9.752001,concentric,5,3.0,22398.0,154547.0,245933.0,293539.0,270262.0
2026-04-08 21:39:27.611916,124296,1609503539852883,1139819494,-1.14192,0.040992,0.466528,-25.585001,-19.46875,-59.40375,27.144001,-20.400002,10.872001,concentric,5,3.0,22398.0,154547.0,245933.0,293539.0,270262.0
2026-04-08 21:39:27.614377,124297,1609503539867425,1139834359,-1.227808,0.037088,0.335744,-26.1275,-22.295,-57.89,27.504002,-19.224,9.472,concentric,5,3.0,22398.0,154547.0,245933.0,293539.0,270262.0
2026-04-08 21:39:27.649630,124298,1609503539876494,1139843038,-1.227808,0.037088,0.335744,-23.3275,-24.50875,-56.72625,27.504002,-19.224,9.472,concentric,5,3.0,22398.0,154547.0,245933.0,293539.0,270262.0
2026-04-08 21:39:27.653209,124299,1609503539890964,1139857902,-1.25904,0.08784,0.363072,-19.95875,-26.0575,-57.28625,28.168001,-19.44,10.224001,concentric,5,3.0,22398.0,154547.0,245933.0,293539.0,270262.0
2026-04-08 21:39:27.655619,124300,1609503539899865,1139866567,-1.25904,0.08784,0.363072,-18.41,-27.195,-58.2925,28.168001,-19.44,10.224001,concentric,5,3.0,22398.0,154547.0,245933.0,293539.0,270262.0
2026-04-08 21:39:27.658497,124301,1609503539908787,1139875249,-1.15168,0.044896,0.54656,-14.83125,-26.90625,-57.295002,28.672,-18.376001,10.224001,concentric,5,3.0,22398.0,154547.0,245933.0,293539.0,270262.0
2026-04-08 21:39:27.690638,124312,1609503539923550,1139890227,-1.15168,0.044896,0.54656,-13.965,-25.94375,-53.50625,28.672,-18.376001,10.224001,concentric,5,3.0,22415.0,154581.0,246060.0,293703.0,270354.0
2026-04-08 21:39:27.693180,124313,1609503539932499,1139898922,-1.221952,0.122976,0.554368,-15.75,-25.0075,-48.326252,28.776001,-18.04,11.224001,concentric,5,3.0,22415.0,154581.0,246060.0,293703.0,270354.0
2026-04-08 21:39:27.699443,124314,1609503539947069,1139913837,-1.221952,0.040992,0.376736,-17.54375,-23.45875,-44.24,28.776001,-18.04,11.224001,concentric,5,3.0,22415.0,154581.0,246060.0,293703.0,270354.0
2026-04-08 21:39:27.703193,124315,1609503539956009,1139922571,-1.274656,0.040992,0.376736,-16.65125,-21.5425,-40.38125,29.072,-17.84,11.704,concentric,5,3.0,22415.0,154581.0,246060.0,293703.0,270354.0
2026-04-08 21:39:27.733365,124316,1609503539970505,1139937426,-1.18096,0.040992,0.540704,-18.27,-20.64125,-35.42875,29.080002,-17.632,11.256001,concentric,5,3.0,22415.0,154581.0,246060.0,293703.0,270354.0
2026-04-08 21:39:27.736970,124317,1609503539979430,1139946078,-1.18096,0.040992,0.540704,-17.54375,-18.75125,-29.365,29.080002,-17.632,11.256001,concentric,5,3.0,22415.0,154581.0,246060.0,293703.0,270354.0
2026-04-08 21:39:27.739453,124318,1609503539988390,1139954750,-1.196576,0.015616,0.378688,-11.45375,-16.21375,-23.38875,29.216002,-17.320002,9.904,concentric,5,3.0,22415.0,154581.0,246060.0,293703.0,270354.0
2026-04-08 21:39:27.769644,124319,1609503540002863,1139969618,-1.196576,0.015616,0.378688,-7.2975,-12.64375,-18.9875,29.216002,-17.320002,9.904,concentric,5,3.0,22415.0,154581.0,246060.0,293703.0,270354.0
2026-04-08 21:39:27.773242,124320,1609503540011836,1139978291,-1.13216,-0.011712,0.363072,-8.7675,-10.21125,-16.3275,29.272001,-17.376001,11.704,concentric,5,3.0,22415.0,154581.0,246060.0,293703.0,270354.0
2026-04-08 21:39:27.800708,124331,1609503540026442,1139993199,-1.13216,-0.011712,0.363072,-9.9575,-7.49,-14.81375,29.272001,-17.376001,11.704,concentric,5,3.0,22626.0,155277.0,246845.0,294266.0,270641.0
2026-04-08 21:39:27.803158,124332,1609503540035484,1140001929,-0.999424,-0.144448,0.501664,-11.15625,-4.36625,-13.4225,29.264002,-17.168001,12.552001,concentric,5,3.0,22626.0,155277.0,246845.0,294266.0,270641.0
2026-04-08 21:39:27.805633,124333,1609503540049981,1140016831,-0.938912,-0.206912,0.523136,-12.50375,-3.22875,-12.0925,29.088001,-16.928001,12.376,concentric,5,3.0,22626.0,155277.0,246845.0,294266.0,270641.0
2026-04-08 21:39:27.808122,124334,1609503540058909,1140025510,-0.938912,-0.206912,0.523136,-9.24875,-1.39125,-10.823751,29.088001,-16.928001,12.376,concentric,5,3.0,22626.0,155277.0,246845.0,294266.0,270641.0
