pc_time,serial_num,sensor_ts,host_ts,ax,ay,az,gx,gy,gz,mx,my,mz,phase,rpe,weight_kg,ppg_a,ppg_b,ppg_c,ppg_d,ppg_e
2026-04-08 21:39:43.008367,127186,1609503555205540,1155172227,-0.997472,0.181536,0.372832,8.74125,-0.7,-8.2775,21.824001,-25.128,8.464001,eccentric,5,3.0,23043.0,156198.0,247401.0,294291.0,270482.0
2026-04-08 21:39:43.011957,127187,1609503555214541,1155180944,-1.08336,0.245952,0.32208,10.98125,1.4875,-3.6225,21.768002,-25.056002,7.752,eccentric,5,3.0,23043.0,156198.0,247401.0,294291.0,270482.0
2026-04-08 21:39:43.014408,127188,1609503555229115,1155195829,-1.052128,0.218624,0.294752,8.2775,3.01875,-1.225,21.920002,-24.984001,7.544,eccentric,5,3.0,23043.0,156198.0,247401.0,294291.0,270482.0
2026-04-08 21:39:43.016868,127189,1609503555238058,1155204490,-1.052128,0.218624,0.294752,4.2175,3.5525,-0.84,21.920002,-24.984001,7.544,eccentric,5,3.0,23043.0,156198.0,247401.0,294291.0,270482.0
2026-04-08 21:39:43.019376,127190,1609503555252514,1155219332,-1.036512,0.203008,0.320128,1.5575,4.10375,0.0875,21.920002,-24.648,8.04,eccentric,5,3.0,23043.0,156198.0,247401.0,294291.0,270482.0
2026-04-08 21:39:43.021910,127191,1609503555261408,1155228029,-1.036512,0.203008,0.320128,3.12375,5.2325,1.225,21.920002,-24.648,8.04,eccentric,5,3.0,23043.0,156198.0,247401.0,294291.0,270482.0
2026-04-08 21:39:43.024400,127192,1609503555275975,1155243017,-1.022848,0.179584,0.294752,6.16875,5.92375,2.05625,22.000002,-25.088001,8.064,eccentric,5,3.0,23043.0,156198.0,247401.0,294291.0,270482.0
2026-04-08 21:39:43.054659,127193,1609503555284880,1155251678,-1.022848,0.179584,0.294752,9.0125,5.7575,3.24625,22.000002,-25.088001,8.064,eccentric,5,3.0,23043.0,156198.0,247401.0,294291.0,270482.0
2026-04-08 21:39:43.058189,127194,1609503555293854,1155260332,-1.097024,0.267424,0.339648,10.45625,6.02875,3.71875,22.088001,-25.272001,7.8,eccentric,5,3.0,23043.0,156198.0,247401.0,294291.0,270482.0
2026-04-08 21:39:43.085582,127205,1609503555308443,1155273659,-1.087264,0.288896,0.402112,10.56125,5.94125,3.535,22.064001,-25.432001,7.912,eccentric,5,3.0,23011.0,156050.0,247201.0,294123.0,270385.0
2026-04-08 21:39:43.088103,127206,1609503555317730,1155284373,-1.087264,0.288896,0.402112,8.32125,5.7925,3.0975,22.064001,-25.432001,7.912,eccentric,5,3.0,23011.0,156050.0,247201.0,294123.0,270385.0
2026-04-08 21:39:43.090579,127207,1609503555332231,1155299273,-1.050176,0.20496,0.2928,5.53,5.25875,2.5025,21.352001,-25.6,9.456,eccentric,5,3.0,23011.0,156050.0,247201.0,294123.0,270385.0
2026-04-08 21:39:43.093044,127208,1609503555341163,1155307949,-1.050176,0.20496,0.2928,2.9575,4.0075,2.66,21.352001,-25.6,9.456,eccentric,5,3.0,23011.0,156050.0,247201.0,294123.0,270385.0
2026-04-08 21:39:43.098172,127209,1609503555350114,1155316659,-0.999424,0.22448,0.447008,2.695,3.54375,2.80875,21.368002,-25.192001,9.488001,eccentric,5,3.0,23011.0,156050.0,247201.0,294123.0,270385.0
2026-04-08 21:39:43.133391,127210,1609503555364606,1155331596,-0.999424,0.22448,0.447008,5.99375,3.3775,1.3125,21.368002,-25.192001,9.488001,eccentric,5,3.0,23011.0,156050.0,247201.0,294123.0,270385.0
2026-04-08 21:39:43.136988,127211,1609503555373508,1155340256,-1.003328,0.244,0.38064,9.292501,3.2375,0.48125,21.824001,-25.672,7.536,eccentric,5,3.0,23011.0,156050.0,247201.0,294123.0,270385.0
2026-04-08 21:39:43.141865,127212,1609503555387976,1155355114,-1.003328,0.244,0.433344,9.905,3.0975,1.23375,21.824001,-25.672,7.536,eccentric,5,3.0,23011.0,156050.0,247201.0,294123.0,270385.0
2026-04-08 21:39:43.145634,127213,1609503555396926,1155363782,-1.048224,0.275232,0.433344,4.655,1.67125,2.2925,21.488,-25.552002,3.96,eccentric,5,3.0,23011.0,156050.0,247201.0,294123.0,270385.0
2026-04-08 21:39:43.173099,127224,1609503555411747,1155378731,-1.011136,0.228384,0.40992,-1.1025,-0.0525,1.68,21.168001,-25.648,8.8,eccentric,5,3.0,22925.0,155689.0,246750.0,293793.0,270205.0
2026-04-08 21:39:43.175590,127225,1609503555420678,1155387425,-1.011136,0.228384,0.40992,-4.7425,-0.49,-0.665,21.168001,-25.648,8.8,eccentric,5,3.0,22925.0,155689.0,246750.0,293793.0,270205.0
2026-04-08 21:39:43.178122,127226,1609503555429659,1155396096,-0.983808,0.210816,0.523136,-3.77125,0.1575,-2.80875,21.216002,-25.464,8.448,eccentric,5,3.0,22925.0,155689.0,246750.0,293793.0,270205.0
2026-04-08 21:39:43.234407,127227,1609503555444131,1155410983,-0.983808,0.210816,0.523136,-0.20125,0.875,-2.66,21.216002,-25.464,8.448,eccentric,5,3.0,22925.0,155689.0,246750.0,293793.0,270205.0
2026-04-08 21:39:43.237159,127228,1609503555453067,1155419681,-1.028704,0.267424,0.482144,2.37125,0.5775,-1.3475,21.264002,-25.488,7.624001,eccentric,5,3.0,22925.0,155689.0,246750.0,293793.0,270205.0
2026-04-08 21:39:43.239610,127229,1609503555467536,1155434564,-1.028704,0.267424,0.482144,4.3575,-0.91,-1.60125,21.264002,-25.488,7.624001,eccentric,5,3.0,22925.0,155689.0,246750.0,293793.0,270205.0
2026-04-08 21:39:43.241910,127230,1609503555476490,1155443236,-1.00528,0.228384,0.376736,3.87625,-2.61625,-4.45375,21.176,-25.496,7.064,eccentric,5,3.0,22925.0,155689.0,246750.0,293793.0,270205.0
2026-04-08 21:39:43.244454,127231,1609503555491000,1155458077,-1.097024,0.269376,0.363072,1.1725,-3.325,-6.2825,21.632002,-25.36,8.280001,eccentric,5,3.0,22925.0,155689.0,246750.0,293793.0,270205.0
2026-04-08 21:39:43.246999,127232,1609503555499937,1155466799,-1.097024,0.269376,0.363072,-0.09625,-2.6775,-5.2325,21.632002,-25.36,8.280001,eccentric,5,3.0,22925.0,155689.0,246750.0,293793.0,270205.0
2026-04-08 21:39:43.274451,127243,1609503555508948,1155475541,-1.097024,0.290848,0.560224,0.13125,-1.26,-4.31375,21.632002,-25.36,8.280001,eccentric,5,3.0,22766.0,155034.0,245990.0,293321.0,269947.0
2026-04-08 21:39:43.278717,127244,1609503555523461,1155490414,-1.079456,0.290848,0.560224,-0.41125,-0.16625,-2.93125,21.288,-24.928001,11.248,eccentric,5,3.0,22766.0,155034.0,245990.0,293321.0,269947.0
2026-04-08 21:39:43.280242,127245,1609503555532405,1155499097,-1.110688,0.259616,0.343552,-2.68625,-0.7525,-2.07375,20.560001,-25.480001,9.728001,eccentric,5,3.0,22766.0,155034.0,245990.0,293321.0,269947.0
2026-04-08 21:39:43.311764,127246,1609503555546968,1155513968,-1.110688,0.259616,0.343552,-3.85,-0.55125,-3.61375,20.560001,-25.480001,9.728001,eccentric,5,3.0,22766.0,155034.0,245990.0,293321.0,269947.0
2026-04-08 21:39:43.315299,127247,1609503555555849,1155522633,-1.05408,0.25376,0.484096,-6.2475,-0.385,-3.99,21.432001,-25.072,8.08,eccentric,5,3.0,22766.0,155034.0,245990.0,293321.0,269947.0
2026-04-08 21:39:43.318462,127248,1609503555570323,1155535469,-1.136064,0.27328,0.40992,-7.1225,-0.04375,-2.8525,20.800001,-25.352001,8.712001,eccentric,5,3.0,22766.0,155034.0,245990.0,293321.0,269947.0
2026-04-08 21:39:43.347144,127249,1609503555579489,1155546211,-1.136064,0.27328,0.40992,-8.72375,0.91,-1.1375,20.800001,-25.352001,8.712001,eccentric,5,3.0,22766.0,155034.0,245990.0,293321.0,269947.0
2026-04-08 21:39:43.351685,127250,1609503555588477,1155554905,-1.136064,0.27328,0.40992,-11.305,1.42625,0.035,20.800001,-25.352001,8.712001,eccentric,5,3.0,22766.0,155034.0,245990.0,293321.0,269947.0
2026-04-08 21:39:43.379159,127261,1609503555602961,1155569827,-1.11264,0.275232,0.443104,-12.1975,1.53125,1.04125,20.752,-25.072,7.248,eccentric,5,3.0,22593.0,154179.0,244925.0,292614.0,269522.0
2026-04-08 21:39:43.380672,127262,1609503555612317,1155578568,-1.069696,0.216672,0.406016,-10.96375,1.2775,0.5075,20.84,-24.968,8.832001,eccentric,5,3.0,22593.0,154179.0,244925.0,292614.0,269522.0
2026-04-08 21:39:43.383133,127263,1609503555626839,1155593474,-1.069696,0.216672,0.406016,-9.02125,0.595,-1.3125,20.84,-24.968,8.832001,eccentric,5,3.0,22593.0,154179.0,244925.0,292614.0,269522.0
2026-04-08 21:39:43.385571,127264,1609503555635793,1155602155,-1.11264,0.210816,0.36112,-8.00625,0.56,-2.485,20.560001,-24.656002,9.384001,eccentric,5,3.0,22593.0,154179.0,244925.0,292614.0,269522.0
2026-04-08 21:39:43.415919,127265,1609503555644701,1155610873,-1.11264,0.210816,0.36112,-8.33,0.69125,-1.60125,20.560001,-24.656002,9.384001,eccentric,5,3.0,22593.0,154179.0,244925.0,292614.0,269522.0
2026-04-08 21:39:43.419419,127266,1609503555659225,1155625787,-1.091168,0.238144,0.464576,-5.69625,2.0125,0.455,20.720001,-24.688002,8.192,eccentric,5,3.0,22593.0,154179.0,244925.0,292614.0,269522.0
2026-04-08 21:39:43.421868,127267,1609503555668134,1155634458,-1.091168,0.238144,0.464576,-5.0225,2.82625,1.79375,20.720001,-24.688002,8.192,eccentric,5,3.0,22593.0,154179.0,244925.0,292614.0,269522.0
2026-04-08 21:39:43.452135,127268,1609503555682662,1155649330,-1.077504,0.222528,0.421632,-5.6175,3.465,0.77875,20.696001,-24.728,8.112,eccentric,5,3.0,22593.0,154179.0,244925.0,292614.0,269522.0
2026-04-08 21:39:43.455680,127269,1609503555691609,1155658009,-1.013088,0.177632,0.515328,-7.74375,3.1325,-0.69125,20.544,-25.008001,10.320001,eccentric,5,3.0,22593.0,154179.0,244925.0,292614.0,269522.0
2026-04-08 21:39:43.483120,127280,1609503555706406,1155673037,-1.013088,0.177632,0.515328,-6.92125,3.54375,-0.5075,20.544,-25.008001,10.320001,eccentric,5,3.0,22535.0,153932.0,244636.0,292419.0,269357.0
2026-04-08 21:39:43.485660,127281,1609503555715399,1155681732,-1.065792,0.179584,0.431392,-1.9425,4.24375,0.04375,20.392,-25.12,8.416,eccentric,5,3.0,22535.0,153932.0,244636.0,292419.0,269357.0
2026-04-08 21:39:43.488185,127282,1609503555724368,1155690442,-1.065792,0.179584,0.431392,0.91875,4.9875,-0.04375,20.392,-25.12,8.416,eccentric,5,3.0,22535.0,153932.0,244636.0,292419.0,269357.0
2026-04-08 21:39:43.490687,127283,1609503555738953,1155705319,-1.059936,0.199104,0.398208,2.065,6.7375,-1.16375,19.456001,-24.536001,9.696,eccentric,5,3.0,22535.0,153932.0,244636.0,292419.0,269357.0
2026-04-08 21:39:43.494467,127284,1609503555747877,1155714034,-1.059936,0.199104,0.398208,2.19625,8.505,-1.07625,19.456001,-24.536001,9.696,eccentric,5,3.0,22535.0,153932.0,244636.0,292419.0,269357.0
2026-04-08 21:39:43.529661,127285,1609503555762350,1155728916,-1.077504,0.199104,0.40016,1.12,10.50875,-0.6825,19.712002,-24.632002,9.248,eccentric,5,3.0,22535.0,153932.0,244636.0,292419.0,269357.0
2026-04-08 21:39:43.533140,127286,1609503555771263,1155737571,-0.997472,0.121024,0.472384,-2.61625,10.6225,-1.37375,19.968,-24.776001,8.136001,eccentric,5,3.0,22535.0,153932.0,244636.0,292419.0,269357.0
2026-04-08 21:39:43.535615,127287,1609503555785746,1155752450,-0.997472,0.121024,0.472384,-3.78,9.44125,-2.52,19.968,-24.776001,8.136001,eccentric,5,3.0,22535.0,153932.0,244636.0,292419.0,269357.0
2026-04-08 21:39:43.541912,127288,1609503555794696,1155761172,-1.016992,0.150304,0.484096,-2.89625,8.21625,-4.57625,19.856,-24.656002,9.096001,eccentric,5,3.0,22535.0,153932.0,244636.0,292419.0,269357.0
2026-04-08 21:39:43.598166,127299,1609503555803650,1155769998,-1.016992,0.150304,0.484096,3.56125,8.82,-6.5275,19.856,-24.656002,9.096001,eccentric,5,3.0,22392.0,153413.0,244110.0,292078.0,269149.0
2026-04-08 21:39:43.602410,127300,1609503555818158,1155784935,-1.100928,0.163968,0.298656,9.345,9.89625,-8.54,19.872002,-24.424002,8.856,eccentric,5,3.0,22392.0,153413.0,244110.0,292078.0,269149.0
2026-04-08 21:39:43.604133,127301,1609503555827064,1155793580,-1.100928,0.163968,0.298656,8.0325,9.66,-8.33,19.872002,-24.424002,8.856,eccentric,5,3.0,22392.0,153413.0,244110.0,292078.0,269149.0
2026-04-08 21:39:43.605806,127302,1609503555841616,1155808457,-0.972096,0.183488,0.482144,1.295,6.0025,-7.81375,19.624,-24.584002,8.120001,eccentric,5,3.0,22392.0,153413.0,244110.0,292078.0,269149.0
2026-04-08 21:39:43.609892,127303,1609503555850587,1155817146,-0.972096,0.183488,0.482144,-3.73625,2.94,-9.73875,19.624,-24.584002,8.120001,eccentric,5,3.0,22392.0,153413.0,244110.0,292078.0,269149.0
2026-04-08 21:39:43.611490,127304,1609503555859524,1155825847,-0.981856,0.10736,0.493856,-5.04,0.4025,-11.20875,19.768002,-23.880001,6.016,eccentric,5,3.0,22392.0,153413.0,244110.0,292078.0,269149.0
2026-04-08 21:39:43.641806,127305,1609503555874037,1155840788,-1.065792,0.16592,0.433344,-4.445,-2.0125,-10.56125,19.608002,-24.048,8.072001,eccentric,5,3.0,22392.0,153413.0,244110.0,292078.0,269149.0
2026-04-08 21:39:43.644082,127306,1609503555882934,1155849473,-1.065792,0.16592,0.433344,-1.33,-3.64875,-11.655,19.608002,-24.048,8.072001,eccentric,5,3.0,22392.0,153413.0,244110.0,292078.0,269149.0
2026-04-08 21:39:43.648665,127307,1609503555897409,1155864338,-0.993568,0.138592,0.296704,3.98125,-3.54375,-16.65125,19.944,-24.04,8.016001,eccentric,5,3.0,22392.0,153413.0,244110.0,292078.0,269149.0
2026-04-08 21:39:43.676613,127318,1609503555906556,1155873035,-0.993568,0.138592,0.296704,7.28875,-2.2575,-20.825,19.944,-24.04,8.016001,eccentric,5,3.0,22319.0,153139.0,243841.0,291931.0,269069.0
2026-04-08 21:39:43.678307,127319,1609503555921470,1155888050,-0.872544,0.113216,0.486048,5.64375,-0.7,-22.5925,19.664001,-23.720001,8.256001,eccentric,5,3.0,22319.0,153139.0,243841.0,291931.0,269069.0
2026-04-08 21:39:43.680706,127320,1609503555930410,1155896737,-0.872544,0.113216,0.486048,1.4875,-0.6125,-22.365,19.664001,-23.720001,8.256001,eccentric,5,3.0,22319.0,153139.0,243841.0,291931.0,269069.0
2026-04-08 21:39:43.691371,127321,1609503555939338,1155905405,-0.981856,0.111264,0.406016,-1.82875,-1.645,-20.6325,19.832,-23.472002,8.08,eccentric,5,3.0,22319.0,153139.0,243841.0,291931.0,269069.0
2026-04-08 21:39:43.723059,127322,1609503555953893,1155920269,-0.909632,0.083936,0.42944,-2.31,-2.1875,-21.7525,19.936,-23.12,8.216001,eccentric,5,3.0,22319.0,153139.0,243841.0,291931.0,269069.0
2026-04-08 21:39:43.725288,127323,1609503555962906,1155928951,-0.909632,0.083936,0.42944,0.88375,-0.4375,-28.595,19.936,-23.12,8.216001,eccentric,5,3.0,22319.0,153139.0,243841.0,291931.0,269069.0
2026-04-08 21:39:43.729950,127324,1609503555977378,1155943813,-0.964288,0.128832,0.339648,6.37875,2.30125,-34.44,19.968,-22.816002,8.256001,eccentric,5,3.0,22319.0,153139.0,243841.0,291931.0,269069.0
2026-04-08 21:39:43.736051,127325,1609503555986308,1155952503,-0.964288,0.128832,0.339648,12.15375,5.41625,-35.27125,19.968,-22.816002,8.256001,eccentric,5,3.0,22319.0,153139.0,243841.0,291931.0,269069.0
2026-04-08 21:39:43.764621,127326,1609503556000782,1155967367,-0.970144,0.128832,0.255712,11.55,6.5975,-34.15125,20.240002,-22.424002,9.008,eccentric,5,3.0,22319.0,153139.0,243841.0,291931.0,269069.0
2026-04-08 21:39:43.793655,127337,1609503556009872,1155976115,-0.970144,0.128832,0.255712,4.68125,5.20625,-32.83,20.240002,-22.424002,9.008,eccentric,5,3.0,22292.0,153122.0,243876.0,291975.0,269068.0
2026-04-08 21:39:43.831355,127338,1609503556018809,1155984817,-0.95648,0.042944,0.216672,-3.96375,3.2725,-32.61125,20.144001,-22.68,7.872,eccentric,5,3.0,22292.0,153122.0,243876.0,291975.0,269068.0
2026-04-08 21:39:43.832921,127339,1609503556033404,1155999733,-0.903776,0.027328,0.33184,-12.31125,4.29625,-35.97125,20.560001,-22.208,8.912001,eccentric,5,3.0,22292.0,153122.0,243876.0,291975.0,269068.0
2026-04-08 21:39:43.834445,127340,1609503556042363,1156008405,-0.903776,0.027328,0.33184,-9.38,7.58625,-41.53625,20.560001,-22.208,8.912001,eccentric,5,3.0,22292.0,153122.0,243876.0,291975.0,269068.0
2026-04-08 21:39:43.838676,127341,1609503556056867,1156023276,-0.866688,0.111264,0.476288,-4.8475,9.275,-44.30125,20.640001,-21.392,9.04,eccentric,5,3.0,22292.0,153122.0,243876.0,291975.0,269068.0
2026-04-08 21:39:43.840412,127342,1609503556065769,1156031937,-0.866688,0.111264,0.476288,-0.21,10.28125,-43.6275,20.640001,-21.392,9.04,eccentric,5,3.0,22292.0,153122.0,243876.0,291975.0,269068.0
2026-04-08 21:39:43.841957,127343,1609503556074662,1156040598,-0.8784,0.074176,0.284992,2.275,10.6225,-41.895,21.464,-21.248001,8.096001,eccentric,5,3.0,22292.0,153122.0,243876.0,291975.0,269068.0
2026-04-08 21:39:43.846247,127344,1609503556089146,1156055469,-0.8784,0.074176,0.284992,-2.42375,9.948751,-41.3,21.464,-21.248001,8.096001,eccentric,5,3.0,22292.0,153122.0,243876.0,291975.0,269068.0
2026-04-08 21:39:43.848715,127345,1609503556098051,1156064132,-0.890112,-0.017568,0.296704,-6.9125,11.03375,-43.19,21.584002,-21.28,7.832,eccentric,5,3.0,22292.0,153122.0,243876.0,291975.0,269068.0
2026-04-08 21:39:43.880500,127356,1609503556112630,1156079075,-0.890112,-0.017568,0.296704,-12.18,12.29375,-43.81125,21.584002,-21.28,7.832,eccentric,5,3.0,22313.0,153121.0,243948.0,292049.0,269113.0
2026-04-08 21:39:43.883196,127357,1609503556121672,1156087790,-0.835456,0.025376,0.300608,-13.39625,13.9825,-43.35625,21.472,-20.224,10.392,eccentric,5,3.0,22313.0,153121.0,243948.0,292049.0,269113.0
2026-04-08 21:39:43.889740,127358,1609503556136164,1156102718,-0.909632,0.044896,0.372832,-9.24,16.2925,-45.07125,21.824001,-20.0,8.656,eccentric,5,3.0,22313.0,153121.0,243948.0,292049.0,269113.0
2026-04-08 21:39:43.893542,127359,1609503556145086,1156111400,-0.909632,0.044896,0.372832,-7.525,15.82875,-44.40625,21.824001,-20.0,8.656,eccentric,5,3.0,22313.0,153121.0,243948.0,292049.0,269113.0
2026-04-08 21:39:43.922097,127360,1609503556154024,1156120141,-0.899872,0.02928,0.23424,-5.74875,14.7175,-43.00625,22.04,-20.128,6.888001,eccentric,5,3.0,22313.0,153121.0,243948.0,292049.0,269113.0
2026-04-08 21:39:43.926587,127361,1609503556168484,1156135054,-0.899872,0.02928,0.23424,-3.2375,15.30375,-43.8375,22.04,-20.128,6.888001,eccentric,5,3.0,22313.0,153121.0,243948.0,292049.0,269113.0
2026-04-08 21:39:43.928172,127362,1609503556177392,1156143699,-0.909632,0.031232,0.320128,-5.4775,16.555,-42.595,22.672,-19.488,7.568,eccentric,5,3.0,22313.0,153121.0,243948.0,292049.0,269113.0
2026-04-08 21:39:43.967815,127363,1609503556191906,1156158560,-0.909632,0.031232,0.320128,-10.07125,17.255,-41.107502,22.672,-19.488,7.568,eccentric,5,3.0,22313.0,153121.0,243948.0,292049.0,269113.0
2026-04-08 21:39:43.970672,127364,1609503556200919,1156167256,-0.895968,-0.001952,0.460672,-15.39125,16.26625,-40.53875,22.504002,-18.792002,6.304,eccentric,5,3.0,22313.0,153121.0,243948.0,292049.0,269113.0
2026-04-08 21:39:43.998164,127375,1609503556215847,1156182549,-0.968192,-0.052704,0.267424,-16.42375,12.6875,-40.10125,23.176,-18.768002,7.84,eccentric,5,3.0,22314.0,153115.0,243908.0,292016.0,269063.0
2026-04-08 21:39:44.000693,127376,1609503556224748,1156191223,-0.968192,-0.052704,0.267424,-12.425,10.3425,-39.26125,23.176,-18.768002,7.84,eccentric,5,3.0,22314.0,153115.0,243908.0,292016.0,269063.0
2026-04-08 21:39:44.003115,127377,1609503556233689,1156199943,-0.968192,-0.005856,0.277184,-9.12625,9.59,-40.6175,23.176,-18.768002,7.84,eccentric,5,3.0,22314.0,153115.0,243908.0,292016.0,269063.0
2026-04-08 21:39:44.005631,127378,1609503556248234,1156214955,-1.007232,-0.007808,0.277184,-6.8425,12.0575,-42.55125,23.368002,-17.848001,7.384,eccentric,5,3.0,22314.0,153115.0,243908.0,292016.0,269063.0
2026-04-08 21:39:44.008167,127379,1609503556257142,1156223687,-0.997472,0.025376,0.324032,-9.10875,14.42,-43.88125,24.224,-17.976002,7.312,eccentric,5,3.0,22314.0,153115.0,243908.0,292016.0,269063.0
2026-04-08 21:39:44.038293,127380,1609503556271660,1156238600,-0.997472,0.025376,0.324032,-22.225,13.405,-41.57125,24.224,-17.976002,7.312,eccentric,5,3.0,22314.0,153115.0,243908.0,292016.0,269063.0
2026-04-08 21:39:44.041896,127381,1609503556280570,1156247266,-0.987712,-0.01952,0.242048,-31.08875,10.6575,-36.68875,23.928001,-17.064001,8.432,eccentric,5,3.0,22314.0,153115.0,243908.0,292016.0,269063.0
2026-04-08 21:39:44.044419,127382,1609503556295062,1156262127,-0.938912,-0.158112,0.27328,-27.4575,9.2575,-36.076252,24.288002,-16.872002,7.144001,eccentric,5,3.0,22314.0,153115.0,243908.0,292016.0,269063.0
2026-04-08 21:39:44.074669,127383,1609503556304021,1156270816,-0.938912,-0.158112,0.27328,-25.78625,7.7525,-37.23125,24.288002,-16.872002,7.144001,eccentric,5,3.0,22314.0,153115.0,243908.0,292016.0,269063.0
2026-04-08 21:39:44.135934,127394,1609503556312969,1156279531,-0.938912,-0.158112,0.27328,-23.835001,9.30125,-38.7625,24.288002,-16.872002,7.144001,eccentric,5,3.0,22377.0,153196.0,243983.0,292032.0,269044.0
2026-04-08 21:39:44.138188,127395,1609503556327467,1156294417,-0.90768,-0.083936,0.359168,-21.21875,10.675,-37.6775,24.696001,-16.848001,7.880001,eccentric,5,3.0,22377.0,153196.0,243983.0,292032.0,269044.0
2026-04-08 21:39:44.140663,127396,1609503556336365,1156303115,-0.913536,-0.044896,0.413824,-25.69875,10.52625,-35.3325,24.776001,-16.2,8.456,eccentric,5,3.0,22377.0,153196.0,243983.0,292032.0,269044.0
2026-04-08 21:39:44.143164,127397,1609503556350855,1156316027,-0.913536,-0.044896,0.413824,-29.2775,9.555,-33.29375,24.776001,-16.2,8.456,eccentric,5,3.0,22377.0,153196.0,243983.0,292032.0,269044.0
2026-04-08 21:39:44.145633,127398,1609503556360040,1156326771,-0.90768,-0.148352,0.472384,-31.9725,6.02875,-30.49375,24.896002,-15.608001,8.768001,eccentric,5,3.0,22377.0,153196.0,243983.0,292032.0,269044.0
2026-04-08 21:39:44.148176,127399,1609503556368947,1156335408,-0.90768,-0.148352,0.472384,-29.085001,4.20875,-30.65125,24.896002,-15.608001,8.768001,eccentric,5,3.0,22377.0,153196.0,243983.0,292032.0,269044.0
2026-04-08 21:39:44.150723,127400,1609503556383413,1156350314,-0.938912,-0.130784,0.22448,-18.06875,6.72,-33.20625,25.192001,-15.696001,7.976,eccentric,5,3.0,22377.0,153196.0,243983.0,292032.0,269044.0
2026-04-08 21:39:44.153175,127401,1609503556392417,1156359010,-0.938912,-0.130784,0.22448,-10.73625,8.785,-31.5875,25.192001,-15.696001,7.976,eccentric,5,3.0,22377.0,153196.0,243983.0,292032.0,269044.0
2026-04-08 21:39:44.180677,127412,1609503556406906,1156373907,-0.962336,-0.044896,0.27328,-15.05,7.48125,-29.015,25.248001,-15.160001,8.912001,eccentric,5,3.0,22451.0,153402.0,244250.0,292291.0,269224.0
2026-04-08 21:39:44.183139,127413,1609503556415933,1156382744,-0.90768,-0.111264,0.337696,-21.84,5.66125,-27.06375,25.04,-14.952001,10.288,eccentric,5,3.0,22451.0,153402.0,244250.0,292291.0,269224.0
2026-04-08 21:39:44.186716,127414,1609503556430378,1156395576,-0.90768,-0.111264,0.337696,-25.45375,6.11625,-24.6925,25.04,-14.952001,10.288,eccentric,5,3.0,22451.0,153402.0,244250.0,292291.0,269224.0
2026-04-08 21:39:44.188170,127415,1609503556439644,1156406364,-1.009184,-0.1464,0.337696,-26.53875,8.9075,-22.98625,24.912,-14.824,9.272,eccentric,5,3.0,22451.0,153402.0,244250.0,292291.0,269224.0
2026-04-08 21:39:44.218299,127416,1609503556448599,1156415035,-1.009184,-0.1464,0.337696,-26.5125,10.12375,-22.68,24.912,-14.824,9.272,eccentric,5,3.0,22451.0,153402.0,244250.0,292291.0,269224.0
2026-04-08 21:39:44.221995,127417,1609503556463062,1156429872,-0.964288,-0.121024,0.384544,-28.848751,7.035,-22.05,25.840002,-14.064001,8.240001,eccentric,5,3.0,22451.0,153402.0,244250.0,292291.0,269224.0
2026-04-08 21:39:44.224430,127418,1609503556472000,1156438621,-0.964288,-0.121024,0.384544,-23.9925,5.915,-20.23,25.840002,-14.064001,8.240001,eccentric,5,3.0,22451.0,153402.0,244250.0,292291.0,269224.0
2026-04-08 21:39:44.288387,127419,1609503556486499,1156453500,-0.815936,-0.109312,0.277184,-14.88375,7.00875,-17.2025,25.832,-14.176001,8.168,eccentric,5,3.0,22451.0,153402.0,244250.0,292291.0,269224.0
2026-04-08 21:39:44.291867,127420,1609503556495404,1156462150,-0.815936,-0.15616,0.388448,-12.15375,7.97125,-11.375,25.832,-14.176001,8.168,eccentric,5,3.0,22451.0,153402.0,244250.0,292291.0,269224.0
2026-04-08 21:39:44.319425,127431,1609503556510393,1156477112,-0.976,-0.144448,0.388448,-17.87625,5.83625,-5.97625,25.944002,-14.040001,8.752001,eccentric,5,3.0,22547.0,153817.0,244726.0,292637.0,269421.0
2026-04-08 21:39:44.321930,127432,1609503556519344,1156485832,-0.929152,-0.18544,0.16592,-21.20125,3.70125,-5.11875,25.976002,-14.016001,8.280001,eccentric,5,3.0,22547.0,153817.0,244726.0,292637.0,269421.0
2026-04-08 21:39:44.324423,127433,1609503556528291,1156494461,-0.929152,-0.18544,0.16592,-15.155,4.80375,-5.80125,25.976002,-14.016001,8.280001,eccentric,5,3.0,22547.0,153817.0,244726.0,292637.0,269421.0
2026-04-08 21:39:44.326896,127434,1609503556542804,1156509302,-0.970144,-0.080032,0.267424,-10.54375,6.0375,-2.12625,25.816002,-13.712001,5.504,eccentric,5,3.0,22547.0,153817.0,244726.0,292637.0,269421.0
2026-04-08 21:39:44.329403,127435,1609503556551712,1156517968,-0.970144,-0.080032,0.267424,-6.3175,4.4625,3.92875,25.816002,-13.712001,5.504,eccentric,5,3.0,22547.0,153817.0,244726.0,292637.0,269421.0
2026-04-08 21:39:44.331871,127436,1609503556566337,1156532918,-0.976,-0.128832,0.210816,-3.56125,0.67375,6.16,26.104002,-14.312,9.136001,eccentric,5,3.0,22547.0,153817.0,244726.0,292637.0,269421.0
2026-04-08 21:39:44.334347,127437,1609503556575307,1156541610,-0.976,-0.128832,0.210816,-0.72625,-0.28,5.85375,26.104002,-14.312,9.136001,eccentric,5,3.0,22547.0,153817.0,244726.0,292637.0,269421.0
2026-04-08 21:39:44.336866,127438,1609503556584239,1156550282,-0.976,-0.163968,0.240096,1.4525,2.58125,4.865,25.424002,-14.056001,8.864,eccentric,5,3.0,22547.0,153817.0,244726.0,292637.0,269421.0
2026-04-08 21:39:44.367082,127439,1609503556598770,1156565144,-1.007232,-0.109312,0.240096,-2.6425,5.1625,5.87125,25.496,-14.008,9.056001,eccentric,5,3.0,22547.0,153817.0,244726.0,292637.0,269421.0
2026-04-08 21:39:44.430808,127450,1609503556607713,1156574217,-1.007232,-0.109312,0.240096,-7.1575,4.83875,7.37625,25.496,-14.008,9.056001,eccentric,5,3.0,22557.0,153925.0,244895.0,292746.0,269492.0
2026-04-08 21:39:44.437195,127451,1609503556622193,1156589145,-1.026752,-0.089792,0.308416,-4.83875,2.555,7.55125,25.416,-13.944,8.128,eccentric,5,3.0,22557.0,153925.0,244895.0,292746.0,269492.0
2026-04-08 21:39:44.438232,127452,1609503556631137,1156597811,-1.026752,-0.089792,0.308416,0.81375,0.00875,8.67125,25.416,-13.944,8.128,eccentric,5,3.0,22557.0,153925.0,244895.0,292746.0,269492.0
2026-04-08 21:39:44.440582,127453,1609503556645714,1156612761,-0.983808,-0.132736,0.169824,6.02875,-1.00625,10.29,25.592001,-14.176001,8.320001,eccentric,5,3.0,22557.0,153925.0,244895.0,292746.0,269492.0
2026-04-08 21:39:44.443132,127454,1609503556654660,1156621438,-0.983808,-0.132736,0.169824,8.0325,-0.77,10.4475,25.592001,-14.176001,8.320001,eccentric,5,3.0,22557.0,153925.0,244895.0,292746.0,269492.0
2026-04-08 21:39:44.445613,127455,1609503556663638,1156630132,-0.983808,-0.095648,0.310368,3.045,-0.93625,11.48875,25.28,-14.68,7.592001,eccentric,5,3.0,22557.0,153925.0,244895.0,292746.0,269492.0
2026-04-08 21:39:44.448209,127456,1609503556678131,1156645008,-1.011136,-0.115168,0.201056,-0.6475,-1.51375,11.7425,25.344002,-14.608001,7.76,eccentric,5,3.0,22557.0,153925.0,244895.0,292746.0,269492.0
2026-04-08 21:39:44.450635,127457,1609503556687070,1156653677,-1.011136,-0.115168,0.201056,0.83125,-1.89,11.61125,25.344002,-14.608001,7.76,eccentric,5,3.0,22557.0,153925.0,244895.0,292746.0,269492.0
2026-04-08 21:39:44.453336,127458,1609503556701559,1156668548,-1.016992,-0.12688,0.275232,4.2875,-2.9575,13.0725,25.296001,-14.776001,7.696001,eccentric,5,3.0,22557.0,153925.0,244895.0,292746.0,269492.0
2026-04-08 21:39:44.483131,127469,1609503556710736,1156677345,-1.016992,-0.12688,0.275232,7.55125,-2.31875,12.792501,25.296001,-14.776001,7.696001,eccentric,5,3.0,22629.0,154161.0,245199.0,292949.0,269616.0
2026-04-08 21:39:44.485595,127470,1609503556725293,1156692267,-0.98576,-0.103456,0.288896,9.275,-1.25125,11.90875,25.52,-14.912001,8.408,eccentric,5,3.0,22629.0,154161.0,245199.0,292949.0,269616.0
2026-04-08 21:39:44.488125,127471,1609503556734248,1156700971,-0.98576,-0.103456,0.288896,8.12,-1.12875,12.62625,25.52,-14.912001,8.408,eccentric,5,3.0,22629.0,154161.0,245199.0,292949.0,269616.0
2026-04-08 21:39:44.493465,127472,1609503556743258,1156709644,-0.964288,-0.070272,0.284992,5.915,-1.49625,13.95625,25.240002,-15.368001,9.144,eccentric,5,3.0,22629.0,154161.0,245199.0,292949.0,269616.0
2026-04-08 21:39:44.522093,127473,1609503556757765,1156724596,-0.997472,-0.076128,0.296704,6.09,-3.6575,15.12875,24.936,-15.344001,9.76,eccentric,5,3.0,22629.0,154161.0,245199.0,292949.0,269616.0
2026-04-08 21:39:44.525658,127474,1609503556766663,1156733267,-0.997472,-0.076128,0.296704,7.72625,-5.66125,16.72125,24.936,-15.344001,9.76,eccentric,5,3.0,22629.0,154161.0,245199.0,292949.0,269616.0
2026-04-08 21:39:44.531017,127475,1609503556781114,1156748110,-0.964288,-0.109312,0.357216,10.05375,-6.685,17.35125,24.840002,-15.416,7.784,eccentric,5,3.0,22629.0,154161.0,245199.0,292949.0,269616.0
2026-04-08 21:39:44.560929,127476,1609503556790032,1156756781,-0.964288,-0.109312,0.357216,9.835,-6.88625,16.80875,24.840002,-15.416,7.784,concentric,5,3.0,22629.0,154161.0,245199.0,292949.0,269616.0
2026-04-08 21:39:44.564148,127477,1609503556804511,1156771624,-1.013088,-0.08784,0.148352,9.2575,-6.20375,17.63125,24.496,-15.664001,7.76,concentric,5,3.0,22629.0,154161.0,245199.0,292949.0,269616.0
2026-04-08 21:39:44.592375,127488,1609503556813738,1156780385,-1.013088,-0.08784,0.148352,9.3975,-5.7225,17.82375,24.496,-15.664001,7.76,concentric,5,3.0,22603.0,154160.0,245201.0,292991.0,269636.0
2026-04-08 21:39:44.594911,127489,1609503556822712,1156789051,-1.020896,-0.025376,0.30256,10.35125,-6.62375,18.9175,24.168001,-16.0,7.872,concentric,5,3.0,22603.0,154160.0,245201.0,292991.0,269636.0
2026-04-08 21:39:44.596677,127490,1609503556837238,1156803943,-1.020896,-0.025376,0.30256,13.27375,-7.16625,19.1275,24.168001,-16.0,7.872,concentric,5,3.0,22603.0,154160.0,245201.0,292991.0,269636.0
2026-04-08 21:39:44.598144,127491,1609503556846202,1156812636,-1.022848,-0.064416,0.25376,14.65625,-7.14875,19.18,23.928001,-16.296001,9.04,concentric,5,3.0,22603.0,154160.0,245201.0,292991.0,269636.0
2026-04-08 21:39:44.628262,127492,1609503556860806,1156827570,-0.987712,-0.023424,0.308416,13.86,-7.245,20.16875,23.504002,-16.144001,9.0,concentric,5,3.0,22603.0,154160.0,245201.0,292991.0,269636.0
2026-04-08 21:39:44.631477,127493,1609503556869699,1156836246,-0.987712,-0.023424,0.308416,13.93875,-7.1225,20.9825,23.504002,-16.144001,9.0,concentric,5,3.0,22603.0,154160.0,245201.0,292991.0,269636.0
2026-04-08 21:39:44.636088,127494,1609503556878633,1156844893,-0.925248,-0.017568,0.269376,13.30875,-8.365,22.4175,23.864,-16.768002,7.984,concentric,5,3.0,22603.0,154160.0,245201.0,292991.0,269636.0
2026-04-08 21:39:44.644776,127495,1609503556893129,1156859754,-0.925248,-0.017568,0.269376,12.11875,-9.625,23.7125,23.864,-16.768002,7.984,concentric,5,3.0,22603.0,154160.0,245201.0,292991.0,269636.0
2026-04-08 21:39:44.650999,127496,1609503556902067,1156868498,-0.890112,-0.064416,0.275232,11.4275,-10.29875,24.91125,23.856,-16.776001,7.856,concentric,5,3.0,22603.0,154160.0,245201.0,292991.0,269636.0
2026-04-08 21:39:44.682580,127507,1609503556916595,1156883462,-0.890112,-0.064416,0.275232,10.3075,-10.01,26.32,23.856,-16.776001,7.856,concentric,5,3.0,22632.0,154226.0,245261.0,292982.0,269633.0
2026-04-08 21:39:44.684908,127508,1609503556925623,1156892227,-0.9272,-0.066368,0.181536,10.955,-9.6775,26.4075,23.368002,-17.36,8.440001,concentric,5,3.0,22632.0,154226.0,245261.0,292982.0,269633.0
2026-04-08 21:39:44.690249,127509,1609503556940112,1156907083,-0.870592,0.003904,0.365024,11.64625,-9.52875,27.32625,22.784,-17.544,7.024,concentric,5,3.0,22632.0,154226.0,245261.0,292982.0,269633.0
2026-04-08 21:39:44.728694,127510,1609503556949046,1156915858,-0.870592,0.003904,0.365024,13.04625,-9.9225,29.4,22.784,-17.544,7.024,concentric,5,3.0,22632.0,154226.0,245261.0,292982.0,269633.0
2026-04-08 21:39:44.730388,127511,1609503556957950,1156924516,-0.870592,0.003904,0.365024,15.3125,-10.85,33.25875,22.784,-17.544,7.024,concentric,5,3.0,22632.0,154226.0,245261.0,292982.0,269633.0
2026-04-08 21:39:44.732080,127512,1609503556972412,1156939364,-0.825696,0.035136,0.333792,17.7625,-12.88875,38.1325,23.088001,-17.992,7.568,concentric,5,3.0,22632.0,154226.0,245261.0,292982.0,269633.0
2026-04-08 21:39:44.735979,127513,1609503556981348,1156948029,-0.894016,0.056608,0.279136,21.9625,-15.1025,42.53375,22.576,-18.44,8.104,concentric,5,3.0,22632.0,154226.0,245261.0,292982.0,269633.0
2026-04-08 21:39:44.767474,127514,1609503556995869,1156962883,-0.894016,0.056608,0.279136,25.19125,-16.31875,44.765,22.576,-18.44,8.104,concentric,5,3.0,22632.0,154226.0,245261.0,292982.0,269633.0
2026-04-08 21:39:44.769184,127515,1609503557004790,1156971539,-0.854976,0.007808,0.37088,22.84625,-16.58125,45.3075,22.288,-19.336,8.368,concentric,5,3.0,22632.0,154226.0,245261.0,292982.0,269633.0
2026-04-08 21:39:44.804099,127526,1609503557019726,1156986769,-0.753472,0.013664,0.28304,17.465,-16.07375,45.64875,21.832,-19.584002,7.552001,concentric,5,3.0,22685.0,154433.0,245548.0,293189.0,269733.0
2026-04-08 21:39:44.805665,127527,1609503557028664,1156995472,-0.753472,0.013664,0.28304,12.92375,-15.4525,48.86,21.832,-19.584002,7.552001,concentric,5,3.0,22685.0,154433.0,245548.0,293189.0,269733.0
2026-04-08 21:39:44.808073,127528,1609503557037644,1157004169,-0.753472,0.013664,0.28304,12.88,-15.4525,52.33375,21.832,-19.584002,7.552001,concentric,5,3.0,22685.0,154433.0,245548.0,293189.0,269733.0
2026-04-08 21:39:44.812457,127529,1609503557052128,1157019112,-0.755424,0.093696,0.3904,15.925,-17.29,57.1725,21.28,-20.144001,7.888001,concentric,5,3.0,22685.0,154433.0,245548.0,293189.0,269733.0
2026-04-08 21:39:44.814042,127530,1609503557061026,1157027774,-0.7808,0.083936,0.281088,18.62,-20.1425,63.07875,20.544,-20.488,7.6,concentric,5,3.0,22685.0,154433.0,245548.0,293189.0,269733.0
2026-04-08 21:39:44.843355,127531,1609503557075556,1157042648,-0.7808,0.083936,0.281088,23.89625,-20.0025,65.94875,20.544,-20.488,7.6,concentric,5,3.0,22685.0,154433.0,245548.0,293189.0,269733.0
2026-04-08 21:39:44.846934,127532,1609503557084507,1157051309,-0.7808,0.017568,0.244,26.6175,-19.41625,66.66625,19.944,-21.152,7.408001,concentric,5,3.0,22685.0,154433.0,245548.0,293189.0,269733.0
2026-04-08 21:39:44.849501,127533,1609503557099000,1157066140,-0.7808,0.017568,0.244,23.065,-17.2375,66.2375,19.944,-21.152,7.408001,concentric,5,3.0,22685.0,154433.0,245548.0,293189.0,269733.0
2026-04-08 21:39:44.855693,127534,1609503557107940,1157074849,-0.80032,0.093696,0.277184,18.585001,-15.7325,67.13875,19.352001,-21.920002,8.440001,concentric,5,3.0,22685.0,154433.0,245548.0,293189.0,269733.0
2026-04-08 21:39:44.883161,127545,1609503557117014,1157083577,-0.80032,0.093696,0.277184,16.28375,-14.8575,70.7875,19.352001,-21.920002,8.440001,concentric,5,3.0,22794.0,154977.0,246174.0,293562.0,269982.0
2026-04-08 21:39:44.885673,127546,1609503557131541,1157098488,-0.841312,0.18544,0.327936,18.10375,-15.715,73.77125,18.792002,-22.264002,8.368,concentric,5,3.0,22794.0,154977.0,246174.0,293562.0,269982.0
2026-04-08 21:39:44.888152,127547,1609503557140478,1157107207,-0.909632,0.134688,0.304512,23.205,-15.60125,73.6575,18.160002,-23.208,10.376,concentric,5,3.0,22794.0,154977.0,246174.0,293562.0,269982.0
2026-04-08 21:39:44.918311,127548,1609503557154971,1157122111,-0.909632,0.134688,0.304512,24.07125,-12.83625,70.48125,18.160002,-23.208,10.376,concentric,5,3.0,22794.0,154977.0,246174.0,293562.0,269982.0
2026-04-08 21:39:44.921991,127549,1609503557163942,1157130787,-0.847168,0.138592,0.316224,19.67,-10.36875,69.11625,17.960001,-23.704,7.192,concentric,5,3.0,22794.0,154977.0,246174.0,293562.0,269982.0
2026-04-08 21:39:44.924400,127550,1609503557172845,1157139433,-0.847168,0.138592,0.316224,17.0275,-7.39375,69.1075,17.960001,-23.704,7.192,concentric,5,3.0,22794.0,154977.0,246174.0,293562.0,269982.0
2026-04-08 21:39:44.954636,127551,1609503557187348,1157154339,-0.935008,0.249856,0.290848,17.43,-5.92375,67.935,17.304,-24.456001,6.864,concentric,5,3.0,22794.0,154977.0,246174.0,293562.0,269982.0
2026-04-08 21:39:44.958237,127552,1609503557196293,1157163011,-0.935008,0.249856,0.290848,20.39625,-3.77125,64.0325,17.304,-24.456001,6.864,concentric,5,3.0,22794.0,154977.0,246174.0,293562.0,269982.0
2026-04-08 21:39:44.987007,127563,1609503557210755,1157177820,-0.929152,0.247904,0.480192,20.4925,-4.585,62.25625,16.768002,-24.880001,6.704001,concentric,5,3.0,22859.0,155391.0,246625.0,293886.0,270179.0
2026-04-08 21:39:44.988135,127564,1609503557219745,1157186525,-0.929152,0.247904,0.480192,16.275,-4.9175,61.48625,16.768002,-24.880001,6.704001,concentric,5,3.0,22859.0,155391.0,246625.0,293886.0,270179.0
2026-04-08 21:39:44.992018,127565,1609503557234268,1157199423,-0.882304,0.240096,0.277184,12.03125,-3.61375,58.52,16.008001,-25.152,7.864,concentric,5,3.0,22859.0,155391.0,246625.0,293886.0,270179.0
2026-04-08 21:39:44.995310,127566,1609503557243598,1157210198,-0.940864,0.28304,0.228384,7.58625,-1.225,54.4075,15.816001,-25.608002,7.224001,concentric,5,3.0,22859.0,155391.0,246625.0,293886.0,270179.0
2026-04-08 21:39:45.028399,127567,1609503557252540,1157218889,-0.940864,0.28304,0.228384,3.99,3.2725,47.5475,15.816001,-25.608002,7.224001,concentric,5,3.0,22859.0,155391.0,246625.0,293886.0,270179.0
2026-04-08 21:39:45.031998,127568,1609503557267016,1157233749,-0.964288,0.310368,0.296704,-2.065,5.5125,41.3175,15.896001,-26.104002,6.184001,concentric,5,3.0,22859.0,155391.0,246625.0,293886.0,270179.0
2026-04-08 21:39:45.034384,127569,1609503557275938,1157242423,-0.964288,0.310368,0.296704,-8.715,5.94125,38.85875,15.896001,-26.104002,6.184001,concentric,5,3.0,22859.0,155391.0,246625.0,293886.0,270179.0
2026-04-08 21:39:45.039471,127570,1609503557290418,1157257277,-0.876448,0.310368,0.35136,-8.04125,3.07125,39.935,15.488001,-26.376001,7.000001,concentric,5,3.0,22859.0,155391.0,246625.0,293886.0,270179.0
2026-04-08 21:39:45.072599,127571,1609503557299352,1157265971,-0.876448,0.310368,0.35136,-4.20875,-0.60375,39.375,15.488001,-26.376001,7.000001,concentric,5,3.0,22859.0,155391.0,246625.0,293886.0,270179.0
2026-04-08 21:39:45.101197,127582,1609503557313886,1157280971,-0.784704,0.255712,0.269376,-0.62125,-3.22875,36.32125,15.160001,-26.112001,7.496,concentric,5,3.0,23215.0,157039.0,248419.0,294900.0,270755.0
2026-04-08 21:39:45.102931,127583,1609503557322885,1157289691,-0.75152,0.238144,0.275232,0.18375,-4.5325,32.08625,15.136001,-26.816002,6.232,concentric,5,3.0,23215.0,157039.0,248419.0,294900.0,270755.0
2026-04-08 21:39:45.104423,127584,1609503557331835,1157298349,-0.75152,0.238144,0.275232,1.33875,-2.555,28.2275,15.136001,-26.816002,6.232,concentric,5,3.0,23215.0,157039.0,248419.0,294900.0,270755.0
2026-04-08 21:39:45.108672,127585,1609503557346348,1157313304,-0.866688,0.318176,0.40992,-0.1925,-1.68,27.79,14.816001,-27.216002,7.296001,concentric,5,3.0,23215.0,157039.0,248419.0,294900.0,270755.0
2026-04-08 21:39:45.111135,127586,1609503557355309,1157322009,-0.866688,0.318176,0.40992,-6.39625,-3.84125,27.8425,14.816001,-27.216002,7.296001,concentric,5,3.0,23215.0,157039.0,248419.0,294900.0,270755.0
2026-04-08 21:39:45.142593,127587,1609503557369796,1157336908,-0.854976,0.28304,0.417728,-6.22125,-4.1825,21.27125,14.952001,-27.016,7.712,concentric,5,3.0,23215.0,157039.0,248419.0,294900.0,270755.0
2026-04-08 21:39:45.144185,127588,1609503557378692,1157345547,-0.854976,0.28304,0.417728,-3.75375,-1.23375,13.667501,14.952001,-27.016,7.712,concentric,5,3.0,23215.0,157039.0,248419.0,294900.0,270755.0
2026-04-08 21:39:45.146928,127589,1609503557393134,1157358377,-0.853024,0.2928,0.325984,-3.6925,2.5025,9.555,15.216001,-27.616001,6.384,concentric,5,3.0,23215.0,157039.0,248419.0,294900.0,270755.0
2026-04-08 21:39:45.152693,127590,1609503557402449,1157369143,-0.931104,0.304512,0.310368,-1.9425,7.91,6.5975,15.632001,-27.720001,6.088,concentric,5,3.0,23215.0,157039.0,248419.0,294900.0,270755.0
2026-04-08 21:39:45.180912,127591,1609503557411342,1157377820,-0.931104,0.304512,0.310368,-3.1325,9.63375,5.39875,15.632001,-27.720001,6.088,concentric,5,3.0,23215.0,157039.0,248419.0,294900.0,270755.0
2026-04-08 21:39:45.211953,127602,1609503557425897,1157392706,-0.999424,0.2928,0.454816,-2.905,9.205,2.58125,15.488001,-27.928001,5.992,concentric,5,3.0,23213.0,157016.0,248328.0,294803.0,270728.0
2026-04-08 21:39:45.214425,127603,1609503557434848,1157401376,-0.999424,0.2928,0.454816,1.77625,9.09125,-3.03625,15.488001,-27.928001,5.992,concentric,5,3.0,23213.0,157016.0,248328.0,294803.0,270728.0
2026-04-08 21:39:45.217873,127604,1609503557449409,1157416330,-0.997472,0.306464,0.30256,1.53125,7.20125,-8.785,15.712001,-28.264002,7.624001,concentric,5,3.0,23213.0,157016.0,248328.0,294803.0,270728.0
2026-04-08 21:39:45.219425,127605,1609503557458329,1157425021,-0.997472,0.306464,0.30256,5.36375,7.91,-21.32375,15.712001,-28.264002,7.624001,concentric,5,3.0,23213.0,157016.0,248328.0,294803.0,270728.0
2026-04-08 21:39:45.223781,127606,1609503557467344,1157433722,-1.05408,0.279136,0.396256,3.745,10.28125,-30.275,16.192001,-28.192001,6.872,concentric,5,3.0,23213.0,157016.0,248328.0,294803.0,270728.0
2026-04-08 21:39:45.252182,127607,1609503557481822,1157448590,-1.05408,0.279136,0.349408,-1.085,10.73625,-27.83375,16.192001,-28.192001,6.872,concentric,5,3.0,23213.0,157016.0,248328.0,294803.0,270728.0
2026-04-08 21:39:45.256605,127608,1609503557490731,1157457265,-1.173152,0.413824,0.349408,-3.87625,11.4975,-25.66375,16.528,-28.056002,5.376,concentric,5,3.0,23213.0,157016.0,248328.0,294803.0,270728.0
2026-04-08 21:39:45.258121,127609,1609503557505233,1157472138,-1.257088,0.366976,0.347456,1.12875,13.48375,-26.8275,17.328001,-28.2,5.432,concentric,5,3.0,23213.0,157016.0,248328.0,294803.0,270728.0
2026-04-08 21:39:45.286677,127620,1609503557514169,1157481352,-1.257088,0.366976,0.347456,4.83,14.51625,-31.5525,17.328001,-28.2,5.432,concentric,5,3.0,22941.0,155709.0,246709.0,293817.0,270209.0
2026-04-08 21:39:45.288222,127621,1609503557528746,1157494197,-1.23952,0.425536,0.499712,0.72625,14.34125,-37.59,17.928001,-28.176,6.376,concentric,5,3.0,22941.0,155709.0,246709.0,293817.0,270209.0
2026-04-08 21:39:45.292264,127622,1609503557537966,1157504996,-1.23952,0.425536,0.499712,0.1225,14.21,-44.38,17.928001,-28.176,6.376,concentric,5,3.0,22941.0,155709.0,246709.0,293817.0,270209.0
2026-04-08 21:39:45.296300,127623,1609503557546914,1157513684,-1.225856,0.437248,0.288896,2.94,14.35875,-49.98875,18.776001,-27.952002,6.176,concentric,5,3.0,22941.0,155709.0,246709.0,293817.0,270209.0
2026-04-08 21:39:45.332522,127624,1609503557561413,1157526554,-1.225856,0.437248,0.288896,2.9925,14.79625,-51.91375,18.776001,-27.952002,6.176,concentric,5,3.0,22941.0,155709.0,246709.0,293817.0,270209.0
2026-04-08 21:39:45.345029,127625,1609503557570525,1157537269,-1.311744,0.515328,0.337696,-3.56125,13.9825,-48.982502,19.576,-27.888,4.024,concentric,5,3.0,22941.0,155709.0,246709.0,293817.0,270209.0
2026-04-08 21:39:45.346728,127626,1609503557584995,1157550167,-1.266848,0.450912,0.374784,-14.58625,7.7525,-43.58375,20.016,-27.656002,5.456,concentric,5,3.0,22941.0,155709.0,246709.0,293817.0,270209.0
2026-04-08 21:39:45.348219,127627,1609503557594210,1157560989,-1.266848,0.450912,0.374784,-22.6625,1.40875,-45.3075,20.016,-27.656002,5.456,concentric,5,3.0,22941.0,155709.0,246709.0,293817.0,270209.0
2026-04-08 21:39:45.356023,127628,1609503557603114,1157569696,-1.223904,0.406016,0.431392,-26.92375,-3.29875,-51.8,20.016,-27.656002,6.808,concentric,5,3.0,22941.0,155709.0,246709.0,293817.0,270209.0
2026-04-08 21:39:45.387531,127639,1609503557618203,1157584611,-1.223904,0.406016,0.431392,-24.35125,-5.85375,-53.89125,20.2,-27.064001,6.808,concentric,5,3.0,22653.0,154408.0,245092.0,292776.0,269651.0
2026-04-08 21:39:45.392539,127640,1609503557627166,1157593348,-1.22,0.398208,0.41968,-19.94125,-6.265,-51.065,21.032001,-26.936,6.440001,concentric,5,3.0,22653.0,154408.0,245092.0,292776.0,269651.0
2026-04-08 21:39:45.395898,127641,1609503557641679,1157608273,-1.22,0.398208,0.41968,-18.69,-8.12875,-48.09,21.032001,-26.936,6.440001,concentric,5,3.0,22653.0,154408.0,245092.0,292776.0,269651.0
2026-04-08 21:39:45.399705,127642,1609503557650616,1157617007,-1.165344,0.372832,0.41968,-23.24875,-10.22875,-48.57125,21.648,-26.536001,8.112,concentric,5,3.0,22653.0,154408.0,245092.0,292776.0,269651.0
2026-04-08 21:39:45.428407,127643,1609503557659551,1157625706,-1.165344,0.372832,0.41968,-27.83375,-10.85,-49.21875,21.648,-26.536001,8.112,concentric,5,3.0,22653.0,154408.0,245092.0,292776.0,269651.0
2026-04-08 21:39:45.432904,127644,1609503557674041,1157640637,-1.143872,0.36112,0.335744,-21.105,-9.66875,-48.06375,22.288,-26.632002,7.024,concentric,5,3.0,22653.0,154408.0,245092.0,292776.0,269651.0
2026-04-08 21:39:45.434426,127645,1609503557682947,1157649312,-1.143872,0.36112,0.335744,-11.69,-5.3375,-45.115,22.288,-26.632002,7.024,concentric,5,3.0,22653.0,154408.0,245092.0,292776.0,269651.0
2026-04-08 21:39:45.466858,127646,1609503557697381,1157664191,-1.196576,0.3416,0.286944,-8.40875,-1.65375,-40.0575,22.76,-26.000002,5.064,concentric,5,3.0,22653.0,154408.0,245092.0,292776.0,269651.0
2026-04-08 21:39:45.467812,127647,1609503557706321,1157672865,-1.159488,0.339648,0.345504,-7.90125,0.37625,-35.98875,23.224,-25.976002,6.088,concentric,5,3.0,22653.0,154408.0,245092.0,292776.0,269651.0
2026-04-08 21:39:45.495689,127658,1609503557720930,1157687793,-1.159488,0.339648,0.345504,-5.5475,3.05375,-33.46,23.224,-25.976002,6.088,concentric,5,3.0,22489.0,153597.0,244093.0,292090.0,269254.0
2026-04-08 21:39:45.499171,127659,1609503557729917,1157696441,-1.14192,0.286944,0.281088,-3.08875,5.81,-31.0625,23.392,-25.624,6.2,concentric,5,3.0,22489.0,153597.0,244093.0,292090.0,269254.0
2026-04-08 21:39:45.500697,127660,1609503557738861,1157705121,-1.14192,0.286944,0.281088,-1.1725,8.68,-27.23,23.392,-25.624,6.2,concentric,5,3.0,22489.0,153597.0,244093.0,292090.0,269254.0
2026-04-08 21:39:45.503131,127661,1609503557753323,1157720114,-1.149728,0.324032,0.349408,1.26875,10.815,-21.46375,23.728,-25.728,5.952,concentric,5,3.0,22489.0,153597.0,244093.0,292090.0,269254.0
2026-04-08 21:39:45.509418,127662,1609503557762222,1157728790,-1.149728,0.324032,0.349408,3.6225,11.235,-17.56125,23.728,-25.728,5.952,concentric,5,3.0,22489.0,153597.0,244093.0,292090.0,269254.0
2026-04-08 21:39:45.556868,127663,1609503557776707,1157743635,-1.145824,0.298656,0.294752,3.85875,11.62,-16.24875,24.136002,-25.560001,5.736,concentric,5,3.0,22489.0,153597.0,244093.0,292090.0,269254.0
2026-04-08 21:39:45.559331,127664,1609503557785619,1157752316,-1.188768,0.300608,0.265472,3.885,11.6375,-14.41125,24.328001,-25.408,4.008,concentric,5,3.0,22489.0,153597.0,244093.0,292090.0,269254.0
2026-04-08 21:39:45.561858,127665,1609503557800086,1157767176,-1.188768,0.300608,0.265472,4.025,11.75125,-11.6375,24.328001,-25.408,4.008,concentric,5,3.0,22489.0,153597.0,244093.0,292090.0,269254.0
2026-04-08 21:39:45.564368,127666,1609503557808980,1157775831,-1.159488,0.288896,0.296704,1.56625,11.06,-9.38,24.056002,-25.752,5.888001,concentric,5,3.0,22489.0,153597.0,244093.0,292090.0,269254.0
2026-04-08 21:39:45.594468,127677,1609503557823649,1157789114,-1.159488,0.288896,0.296704,-2.54625,9.415,-7.805,24.056002,-25.752,5.888001,concentric,5,3.0,22459.0,153503.0,243915.0,291907.0,269154.0
2026-04-08 21:39:45.632186,127678,1609503557832914,1157799960,-1.091168,0.212768,0.236192,-6.44,6.4225,-7.11375,23.76,-25.52,6.288,concentric,5,3.0,22459.0,153503.0,243915.0,291907.0,269154.0
2026-04-08 21:39:45.637346,127679,1609503557841830,1157808665,-1.091168,0.212768,0.236192,-9.17875,3.325,-6.8075,23.76,-25.52,6.288,concentric,5,3.0,22459.0,153503.0,243915.0,291907.0,269154.0
