pc_time,serial_num,sensor_ts,host_ts,ax,ay,az,gx,gy,gz,mx,my,mz,phase,rpe,weight_kg,ppg_a,ppg_b,ppg_c,ppg_d,ppg_e
2026-04-07 17:42:29.133087,149101,819514097,819515467,0.808128,-0.454816,-0.216672,0.9975,-1.79375,2.38875,-14.552001,-5.992,15.696001,eccentric,2,3.0,32165.0,403431.0,369547.0,403431.0,373058.0
2026-04-07 17:42:29.137391,149102,819523038,819524169,0.808128,-0.454816,-0.216672,1.25125,-1.75875,2.75625,-14.552001,-5.992,15.696001,eccentric,2,3.0,32165.0,403431.0,369547.0,403431.0,373058.0
2026-04-07 17:42:29.137453,149103,819537593,819539136,0.815936,-0.45872,-0.206912,0.945,-1.8025,2.26625,-13.912001,-5.92,13.280001,eccentric,2,3.0,32165.0,403431.0,369547.0,403431.0,373058.0
2026-04-07 17:42:29.140626,149104,819546545,819547819,0.815936,-0.45872,-0.206912,1.35625,-1.7675,2.38,-13.912001,-5.92,13.280001,eccentric,2,3.0,32165.0,403431.0,369547.0,403431.0,373058.0
2026-04-07 17:42:29.169020,149105,819555556,819556564,0.813984,-0.445056,-0.228384,1.00625,-2.1,1.05875,-13.632001,-5.528,13.000001,eccentric,2,3.0,32165.0,403431.0,369547.0,403431.0,373058.0
2026-04-07 17:42:29.173546,149106,819570067,819571469,0.813984,-0.445056,-0.228384,-0.32375,-1.35625,-0.46375,-13.632001,-5.528,13.000001,eccentric,2,3.0,32165.0,403431.0,369547.0,403431.0,373058.0
2026-04-07 17:42:29.174984,149107,819578991,819580182,0.817888,-0.47824,-0.230336,-2.72125,-1.1025,-1.225,-13.632001,-5.768,12.920001,eccentric,2,3.0,32165.0,403431.0,369547.0,403431.0,373058.0
2026-04-07 17:42:29.184285,149108,819587895,819588875,0.817888,-0.47824,-0.230336,-4.0425,-0.8925,-1.26875,-13.632001,-5.768,12.920001,eccentric,2,3.0,32165.0,403431.0,369547.0,403431.0,373058.0
2026-04-07 17:42:29.212749,149109,819602415,819603808,0.821792,-0.47824,-0.230336,-2.79125,-0.34125,-1.44375,-13.696001,-6.112001,13.312,eccentric,2,3.0,32165.0,403431.0,369547.0,403431.0,373058.0
2026-04-07 17:42:29.217263,149110,819611328,819612517,0.821792,-0.47824,-0.230336,-1.53125,0.3325,-1.47875,-13.696001,-6.112001,13.312,eccentric,2,3.0,32165.0,403431.0,369547.0,403431.0,373058.0
2026-04-07 17:42:29.242247,149120,819620381,819621252,0.8296,-0.464576,-0.25376,-0.65625,0.32375,-0.9625,-14.056001,-6.272,13.392,eccentric,2,3.0,32153.0,403431.0,369381.0,403431.0,372919.0
2026-04-07 17:42:29.243831,149121,819629315,819629971,0.8296,-0.464576,-0.25376,-0.7175,0.735,-1.11125,-14.056001,-6.272,13.392,eccentric,2,3.0,32153.0,403431.0,369381.0,403431.0,372919.0
2026-04-07 17:42:29.248082,149122,819644274,819645010,0.833504,-0.462624,-0.251808,-1.72375,0.93625,-2.02125,-13.688001,-6.232,13.288001,eccentric,2,3.0,32153.0,403431.0,369381.0,403431.0,372919.0
2026-04-07 17:42:29.249656,149123,819653657,819655795,0.835456,-0.482144,-0.251808,-2.5025,0.4025,-2.8875,-13.688001,-6.24,13.480001,eccentric,2,3.0,32153.0,403431.0,369381.0,403431.0,372919.0
2026-04-07 17:42:29.257038,149124,819662597,819664503,0.835456,-0.482144,-0.251808,-1.75875,0.83125,-3.0275,-13.224001,-6.24,13.480001,eccentric,2,3.0,32153.0,403431.0,369381.0,403431.0,372919.0
2026-04-07 17:42:29.301880,149125,819677164,819679396,0.817888,-0.493856,-0.226432,-0.1925,1.49625,-2.86125,-13.224001,-5.992,14.920001,eccentric,2,3.0,32153.0,403431.0,369381.0,403431.0,372919.0
2026-04-07 17:42:29.303513,149126,819686075,819688145,0.817888,-0.493856,-0.226432,2.485,2.2925,-1.575,-13.224001,-5.992,14.920001,eccentric,2,3.0,32153.0,403431.0,369381.0,403431.0,372919.0
2026-04-07 17:42:29.305014,149127,819695005,819696835,0.81008,-0.450912,-0.228384,5.50375,3.255,0.14875,-12.912001,-5.616,14.232,eccentric,2,3.0,32153.0,403431.0,369381.0,403431.0,372919.0
2026-04-07 17:42:29.310487,149128,819703952,819705523,0.81008,-0.450912,-0.228384,6.76375,3.605,0.8575,-12.912001,-5.616,14.232,eccentric,2,3.0,32153.0,403431.0,369381.0,403431.0,372919.0
2026-04-07 17:42:29.342248,149138,819719131,819720725,0.792512,-0.425536,-0.22448,4.8475,3.2375,1.04125,-12.768001,-5.656,13.128,eccentric,2,3.0,32077.0,403431.0,368877.0,403431.0,372356.0
2026-04-07 17:42:29.344012,149139,819728173,819729532,0.792512,-0.425536,-0.22448,2.84375,4.01625,0.4375,-12.768001,-5.656,13.128,eccentric,2,3.0,32077.0,403431.0,368877.0,403431.0,372356.0
2026-04-07 17:42:29.348085,149140,819737143,819738245,0.79056,-0.452864,-0.23424,0.18375,4.29625,-0.91875,-12.944,-6.56,13.864,eccentric,2,3.0,32077.0,403431.0,368877.0,403431.0,372356.0
2026-04-07 17:42:29.350175,149141,819751714,819753171,0.79056,-0.452864,-0.23424,-2.28375,4.34875,-1.225,-12.944,-6.56,13.864,eccentric,2,3.0,32077.0,403431.0,368877.0,403431.0,372356.0
2026-04-07 17:42:29.353401,149142,819760669,819761878,0.794464,-0.423584,-0.22448,-4.50625,3.78875,-1.98625,-12.936001,-6.480001,15.136001,eccentric,2,3.0,32077.0,403431.0,368877.0,403431.0,372356.0
2026-04-07 17:42:29.386442,149143,819769629,819770579,0.794464,-0.423584,-0.22448,-5.985,4.01625,-3.3775,-12.936001,-6.480001,15.136001,eccentric,2,3.0,32077.0,403431.0,368877.0,403431.0,372356.0
2026-04-07 17:42:29.389952,149144,819778565,819779328,0.786656,-0.454816,-0.249856,-6.3,4.0075,-3.96375,-12.688001,-6.12,13.960001,eccentric,2,3.0,32077.0,403431.0,368877.0,403431.0,372356.0
2026-04-07 17:42:29.391600,149145,819793533,819794234,0.786656,-0.454816,-0.236192,-6.6325,4.2525,-4.10375,-12.688001,-6.12,13.960001,eccentric,2,3.0,32077.0,403431.0,368877.0,403431.0,372356.0
2026-04-07 17:42:29.398067,149146,819802867,819804990,0.784704,-0.445056,-0.236192,-7.315,4.27,-4.80375,-12.928,-6.368001,13.304001,eccentric,2,3.0,32077.0,403431.0,368877.0,403431.0,372356.0
2026-04-07 17:42:29.426571,149147,819811822,819813692,0.784704,-0.445056,-0.236192,-5.3375,3.9025,-5.52125,-12.928,-6.368001,13.304001,eccentric,2,3.0,32077.0,403431.0,368877.0,403431.0,372356.0
2026-04-07 17:42:29.455077,149158,819826350,819828619,0.784704,-0.437248,-0.247904,-4.34875,4.9525,-5.74,-12.656,-6.504,15.888001,eccentric,2,3.0,31582.0,403431.0,366149.0,403431.0,369511.0
2026-04-07 17:42:29.459413,149159,819835321,819837329,0.772992,-0.44896,-0.244,-4.34875,6.01125,-6.09,-12.216001,-6.128,15.712001,eccentric,2,3.0,31582.0,403431.0,366149.0,403431.0,369511.0
2026-04-07 17:42:29.461038,149160,819844263,819846057,0.772992,-0.44896,-0.244,-3.8325,6.93875,-6.545,-12.216001,-6.128,15.712001,eccentric,2,3.0,31582.0,403431.0,366149.0,403431.0,369511.0
2026-04-07 17:42:29.462584,149161,819853231,819854770,0.772992,-0.44896,-0.244,-3.325,7.81375,-7.28,-12.216001,-6.128,15.712001,eccentric,2,3.0,31582.0,403431.0,366149.0,403431.0,369511.0
2026-04-07 17:42:29.466788,149162,819867769,819869702,0.772992,-0.44896,-0.247904,-1.7325,9.37125,-7.7,-12.232,-6.208,15.696001,eccentric,2,3.0,31582.0,403431.0,366149.0,403431.0,369511.0
2026-04-07 17:42:29.471895,149163,819876817,819878459,0.76128,-0.40992,-0.23424,-1.5925,10.3075,-8.37375,-12.280001,-6.24,14.008,eccentric,2,3.0,31582.0,403431.0,366149.0,403431.0,369511.0
2026-04-07 17:42:29.500247,149164,819885809,819887223,0.76128,-0.40992,-0.23424,-2.31875,10.56125,-9.31,-12.280001,-6.24,14.008,eccentric,2,3.0,31582.0,403431.0,366149.0,403431.0,369511.0
2026-04-07 17:42:29.504743,149165,819900322,819902113,0.765184,-0.435296,-0.23424,-3.64875,10.03625,-10.33375,-11.952001,-6.608,14.184001,eccentric,2,3.0,31582.0,403431.0,366149.0,403431.0,369511.0
2026-04-07 17:42:29.506362,149166,819909292,819910834,0.765184,-0.435296,-0.23424,-5.7925,10.78,-11.64625,-11.952001,-6.608,14.184001,eccentric,2,3.0,31582.0,403431.0,366149.0,403431.0,369511.0
2026-04-07 17:42:29.531466,149176,819918353,819919716,0.745664,-0.417728,-0.226432,-6.51,10.42125,-13.25625,-12.400001,-6.568,13.912001,eccentric,2,3.0,31479.0,403431.0,365406.0,403431.0,368801.0
2026-04-07 17:42:29.535534,149177,819927435,819928516,0.745664,-0.417728,-0.226432,-6.3175,10.7275,-14.86625,-12.400001,-6.568,13.912001,eccentric,2,3.0,31479.0,403431.0,365406.0,403431.0,368801.0
2026-04-07 17:42:29.537106,149178,819941978,819943497,0.763232,-0.421632,-0.23424,-6.4575,11.03375,-16.4675,-12.352,-7.024,15.328001,eccentric,2,3.0,31479.0,403431.0,365406.0,403431.0,368801.0
2026-04-07 17:42:29.545489,149179,819950922,819952252,0.763232,-0.421632,-0.23424,-7.455,11.515,-17.63125,-12.352,-7.024,15.328001,eccentric,2,3.0,31479.0,403431.0,365406.0,403431.0,368801.0
2026-04-07 17:42:29.597828,149180,819959821,819960987,0.747616,-0.42944,-0.21472,-7.1925,12.075,-18.08625,-11.944,-7.36,14.896001,eccentric,2,3.0,31479.0,403431.0,365406.0,403431.0,368801.0
2026-04-07 17:42:29.602241,149181,819974292,819975918,0.747616,-0.42944,-0.247904,-5.87125,12.27625,-18.5325,-11.944,-7.36,14.896001,eccentric,2,3.0,31479.0,403431.0,365406.0,403431.0,368801.0
2026-04-07 17:42:29.603819,149182,819983192,819984606,0.749568,-0.406016,-0.247904,-5.53875,12.4425,-19.59125,-11.688001,-7.384,14.968,eccentric,2,3.0,31479.0,403431.0,365406.0,403431.0,368801.0
2026-04-07 17:42:29.606217,149183,819992104,819993285,0.749568,-0.406016,-0.247904,-4.33125,12.74,-21.32375,-11.688001,-7.384,14.968,eccentric,2,3.0,31479.0,403431.0,365406.0,403431.0,368801.0
2026-04-07 17:42:29.608818,149184,820006596,820008250,0.763232,-0.402112,-0.212768,-6.46625,13.74625,-22.855,-10.952001,-7.112001,14.488001,eccentric,2,3.0,31479.0,403431.0,365406.0,403431.0,368801.0
2026-04-07 17:42:29.611371,149185,820015493,820016916,0.757376,-0.423584,-0.218624,-6.3175,14.980001,-22.9075,-12.048,-7.784,14.352,eccentric,2,3.0,31479.0,403431.0,365406.0,403431.0,368801.0
2026-04-07 17:42:29.638133,149195,820024555,820025746,0.757376,-0.423584,-0.218624,-7.0525,15.96875,-23.625,-12.048,-7.784,14.352,eccentric,2,3.0,30950.0,401669.0,361883.0,403431.0,365451.0
2026-04-07 17:42:29.640841,149196,820039072,820040690,0.765184,-0.3904,-0.220576,-5.985,16.89625,-23.6425,-12.168,-8.384001,14.888001,eccentric,2,3.0,30950.0,401669.0,361883.0,403431.0,365451.0
2026-04-07 17:42:29.646746,149197,820048077,820049427,0.765184,-0.3904,-0.220576,-4.48875,17.47375,-24.15,-12.168,-8.384001,14.888001,eccentric,2,3.0,30950.0,401669.0,361883.0,403431.0,365451.0
2026-04-07 17:42:29.650467,149198,820057094,820058165,0.753472,-0.384544,-0.199104,-3.78875,18.5325,-26.2675,-11.552001,-8.224,15.792001,eccentric,2,3.0,30950.0,401669.0,361883.0,403431.0,365451.0
2026-04-07 17:42:29.678998,149199,820066024,820066870,0.753472,-0.384544,-0.199104,-2.93125,19.76625,-27.3,-11.552001,-8.224,15.792001,eccentric,2,3.0,30950.0,401669.0,361883.0,403431.0,365451.0
2026-04-07 17:42:29.683563,149200,820080469,820081755,0.778848,-0.396256,-0.212768,-5.97625,20.16,-28.455,-11.576,-8.696,15.384001,eccentric,2,3.0,30950.0,401669.0,361883.0,403431.0,365451.0
2026-04-07 17:42:29.685106,149201,820089372,820090468,0.778848,-0.396256,-0.212768,-7.0525,21.13125,-28.8225,-11.576,-8.696,15.384001,eccentric,2,3.0,30950.0,401669.0,361883.0,403431.0,365451.0
2026-04-07 17:42:29.691651,149202,820098352,820099161,0.759328,-0.386496,-0.191296,-7.9625,22.785,-28.210001,-12.456,-8.712001,17.92,eccentric,2,3.0,30950.0,401669.0,361883.0,403431.0,365451.0
2026-04-07 17:42:29.720270,149203,820112835,820114055,0.759328,-0.386496,-0.191296,-6.9475,23.91375,-27.991251,-12.456,-8.712001,17.92,eccentric,2,3.0,30950.0,401669.0,361883.0,403431.0,365451.0
2026-04-07 17:42:29.751392,149214,820121908,820122917,0.769088,-0.36112,-0.203008,-6.93,24.3075,-29.44375,-11.448001,-9.56,15.848001,eccentric,2,3.0,30208.0,397047.0,357208.0,403431.0,361336.0
2026-04-07 17:42:29.755866,149215,820130839,820131614,0.769088,-0.36112,-0.203008,-8.02375,24.6575,-31.96375,-11.448001,-9.56,15.848001,eccentric,2,3.0,30208.0,397047.0,357208.0,403431.0,361336.0
2026-04-07 17:42:29.759740,149216,820145320,820146546,0.763232,-0.35136,-0.222528,-6.8425,24.77125,-31.2375,-11.008,-9.080001,15.672001,eccentric,2,3.0,30208.0,397047.0,357208.0,403431.0,361336.0
2026-04-07 17:42:29.761277,149217,820154204,820155239,0.763232,-0.35136,-0.222528,-4.96125,26.32,-32.33125,-11.008,-9.080001,15.672001,eccentric,2,3.0,30208.0,397047.0,357208.0,403431.0,361336.0
2026-04-07 17:42:29.765419,149218,820163135,820163926,0.77104,-0.310368,-0.189344,-5.94125,26.5125,-33.215,-11.448001,-9.92,15.920001,eccentric,2,3.0,30208.0,397047.0,357208.0,403431.0,361336.0
2026-04-07 17:42:29.770417,149219,820177630,820178879,0.7808,-0.329888,-0.17568,-6.3,26.87125,-32.27,-11.864,-10.232,16.104,eccentric,2,3.0,30208.0,397047.0,357208.0,403431.0,361336.0
2026-04-07 17:42:29.799006,149220,820186549,820187616,0.7808,-0.329888,-0.17568,-5.88875,26.66125,-33.67875,-11.864,-10.232,16.104,eccentric,2,3.0,30208.0,397047.0,357208.0,403431.0,361336.0
2026-04-07 17:42:29.802565,149221,820195434,820196300,0.7808,-0.347456,-0.183488,-5.915,25.8825,-33.64375,-11.864,-10.232,16.104,eccentric,2,3.0,30208.0,397047.0,357208.0,403431.0,361336.0
2026-04-07 17:42:29.806680,149222,820204431,820205023,0.763232,-0.347456,-0.183488,-5.43375,26.705,-35.81375,-11.816001,-10.456,17.176,eccentric,2,3.0,30208.0,397047.0,357208.0,403431.0,361336.0
2026-04-07 17:42:29.836806,149232,820219772,820222075,0.79056,-0.296704,-0.167872,-5.18875,26.775,-36.4175,-12.296001,-11.048,17.776001,eccentric,2,3.0,29471.0,391059.0,352269.0,403431.0,357267.0
2026-04-07 17:42:29.838532,149233,820228838,820230809,0.79056,-0.296704,-0.167872,-4.1825,28.35875,-36.1025,-12.296001,-11.048,17.776001,eccentric,2,3.0,29471.0,391059.0,352269.0,403431.0,357267.0
2026-04-07 17:42:29.840081,149234,820237795,820239573,0.79056,-0.30256,-0.163968,-4.47125,28.88375,-37.835,-11.696,-11.368001,18.264,eccentric,2,3.0,29471.0,391059.0,352269.0,403431.0,357267.0
2026-04-07 17:42:29.846670,149235,820252330,820254495,0.79056,-0.30256,-0.163968,-7.2625,28.98875,-39.34875,-11.696,-11.368001,18.264,eccentric,2,3.0,29471.0,391059.0,352269.0,403431.0,357267.0
2026-04-07 17:42:29.898762,149236,820261280,820263207,0.796416,-0.327936,-0.1952,-8.785,29.4875,-40.24125,-11.992001,-11.920001,18.536001,eccentric,2,3.0,29471.0,391059.0,352269.0,403431.0,357267.0
2026-04-07 17:42:29.902301,149237,820270196,820271901,0.796416,-0.327936,-0.1952,-9.0125,29.286251,-41.5975,-11.992001,-11.920001,18.536001,eccentric,2,3.0,29471.0,391059.0,352269.0,403431.0,357267.0
2026-04-07 17:42:29.903841,149238,820279138,820280604,0.802272,-0.288896,-0.191296,-6.3175,28.98875,-42.595,-11.312,-11.768001,17.344002,eccentric,2,3.0,29471.0,391059.0,352269.0,403431.0,357267.0
2026-04-07 17:42:29.907305,149239,820293611,820295475,0.802272,-0.288896,-0.191296,-3.3075,29.155,-43.82875,-11.312,-11.768001,17.344002,eccentric,2,3.0,29471.0,391059.0,352269.0,403431.0,357267.0
2026-04-07 17:42:29.910017,149240,820302555,820304175,0.80032,-0.242048,-0.119072,-4.57625,29.8725,-45.2025,-11.68,-12.096001,17.456001,eccentric,2,3.0,29471.0,391059.0,352269.0,403431.0,357267.0
2026-04-07 17:42:29.912038,149241,820311469,820312906,0.80032,-0.242048,-0.119072,-6.195,31.22,-45.263752,-11.68,-12.096001,17.456001,eccentric,2,3.0,29471.0,391059.0,352269.0,403431.0,357267.0
2026-04-07 17:42:29.942946,149251,820326018,820328117,0.767136,-0.26352,-0.144448,-9.0825,32.54125,-44.26625,-12.128,-12.6,19.056002,eccentric,2,3.0,28815.0,385720.0,347763.0,403431.0,353756.0
2026-04-07 17:42:29.945962,149252,820335045,820336845,0.767136,-0.26352,-0.144448,-14.525,32.47125,-43.1375,-12.128,-12.6,19.056002,eccentric,2,3.0,28815.0,385720.0,347763.0,403431.0,353756.0
2026-04-07 17:42:29.947765,149253,820344378,820345577,0.745664,-0.245952,-0.099552,-17.1675,32.585,-42.455,-11.984,-13.456,18.288,eccentric,2,3.0,28815.0,385720.0,347763.0,403431.0,353756.0
2026-04-07 17:42:29.951801,149254,820358925,820360540,0.763232,-0.257664,-0.152256,-14.98875,31.036251,-41.125,-11.816001,-13.376,18.664001,eccentric,2,3.0,28815.0,385720.0,347763.0,403431.0,353756.0
2026-04-07 17:42:29.980313,149255,820368241,820369297,0.763232,-0.257664,-0.152256,-15.1025,29.07625,-42.1925,-11.816001,-13.376,18.664001,eccentric,2,3.0,28815.0,385720.0,347763.0,403431.0,353756.0
2026-04-07 17:42:29.984752,149256,820377190,820378013,0.739808,-0.193248,-0.105408,-15.96875,27.25625,-44.415,-11.176001,-13.840001,18.072,eccentric,2,3.0,28815.0,385720.0,347763.0,403431.0,353756.0
2026-04-07 17:42:29.986300,149257,820386131,820386740,0.739808,-0.193248,-0.105408,-12.22375,26.53875,-45.63125,-11.176001,-13.840001,18.072,eccentric,2,3.0,28815.0,385720.0,347763.0,403431.0,353756.0
2026-04-07 17:42:29.994218,149258,820400920,820401666,0.798368,-0.197152,-0.119072,-9.511251,25.147501,-44.33625,-11.912001,-14.656001,19.92,eccentric,2,3.0,28815.0,385720.0,347763.0,403431.0,353756.0
2026-04-07 17:42:30.022729,149259,820410431,820412444,0.798368,-0.197152,-0.119072,-13.11625,23.07375,-44.37125,-11.912001,-14.656001,19.92,eccentric,2,3.0,28815.0,385720.0,347763.0,403431.0,353756.0
2026-04-07 17:42:30.052277,149270,820419360,820421133,0.767136,-0.1952,-0.099552,-13.6325,23.345,-43.855,-11.536,-14.376,19.152,eccentric,2,3.0,28283.0,381264.0,344243.0,403431.0,351300.0
2026-04-07 17:42:30.053846,149271,820428891,820429929,0.767136,-0.1952,-0.099552,-13.475,22.63625,-43.1375,-11.536,-14.376,19.152,eccentric,2,3.0,28283.0,381264.0,344243.0,403431.0,351300.0
2026-04-07 17:42:30.058168,149272,820443436,820444879,0.7808,-0.20496,-0.12688,-16.0475,20.57125,-43.68,-10.776001,-14.608001,19.032001,eccentric,2,3.0,28283.0,381264.0,344243.0,403431.0,351300.0
2026-04-07 17:42:30.059832,149273,820452386,820453668,0.7808,-0.20496,-0.12688,-13.965,19.04,-43.49625,-10.776001,-14.608001,19.032001,eccentric,2,3.0,28283.0,381264.0,344243.0,403431.0,351300.0
2026-04-07 17:42:30.061615,149274,820461381,820462457,0.8296,-0.183488,-0.095648,-12.2675,18.66375,-44.80875,-11.984,-15.736001,21.768002,eccentric,2,3.0,28283.0,381264.0,344243.0,403431.0,351300.0
2026-04-07 17:42:30.092343,149275,820475917,820477357,0.8296,-0.183488,-0.095648,-9.59875,19.39,-46.43625,-11.984,-15.736001,21.768002,eccentric,2,3.0,28283.0,381264.0,344243.0,403431.0,351300.0
2026-04-07 17:42:30.096801,149276,820484947,820486154,0.860832,-0.173728,-0.091744,-9.24875,20.23,-47.81875,-11.768001,-15.848001,20.672,eccentric,2,3.0,28283.0,381264.0,344243.0,403431.0,351300.0
2026-04-07 17:42:30.098520,149277,820493844,820494846,0.860832,-0.173728,-0.091744,-11.7425,22.1025,-48.27375,-11.768001,-15.848001,20.672,eccentric,2,3.0,28283.0,381264.0,344243.0,403431.0,351300.0
2026-04-07 17:42:30.100401,149278,820502809,820503542,0.8296,-0.171776,-0.08784,-13.7725,23.80875,-47.775,-10.72,-16.096,19.856,eccentric,2,3.0,28283.0,381264.0,344243.0,403431.0,351300.0
2026-04-07 17:42:30.131211,149279,820517746,820518457,0.862784,-0.12688,-0.083936,-15.435,24.43875,-45.78875,-10.968,-16.664001,20.432001,eccentric,2,3.0,28283.0,381264.0,344243.0,403431.0,351300.0
2026-04-07 17:42:30.158244,149289,820527176,820529290,0.862784,-0.12688,-0.083936,-16.10875,24.75375,-44.52875,-10.968,-16.664001,20.432001,eccentric,2,3.0,27747.0,376951.0,340783.0,402683.0,348967.0
2026-04-07 17:42:30.160000,149290,820536118,820537997,0.862784,-0.12688,-0.083936,-13.7375,25.6725,-45.31625,-10.968,-16.664001,20.432001,eccentric,2,3.0,27747.0,376951.0,340783.0,402683.0,348967.0
2026-04-07 17:42:30.161772,149291,820550617,820552905,0.843264,-0.105408,-0.11712,-11.31375,26.78375,-44.835,-11.352,-17.216002,20.92,eccentric,2,3.0,27747.0,376951.0,340783.0,402683.0,348967.0
2026-04-07 17:42:30.165568,149292,820559611,820561599,0.866688,-0.085888,-0.066368,-15.1375,27.02875,-45.07125,-11.416,-17.888,21.768002,eccentric,2,3.0,27747.0,376951.0,340783.0,402683.0,348967.0
2026-04-07 17:42:30.168383,149293,820568572,820570360,0.866688,-0.085888,-0.066368,-18.66375,28.56875,-47.11,-11.416,-17.888,21.768002,eccentric,2,3.0,27747.0,376951.0,340783.0,402683.0,348967.0
2026-04-07 17:42:30.206220,149294,820577561,820579081,0.843264,-0.085888,-0.070272,-15.88125,30.24,-47.48625,-11.032001,-17.832,23.240002,eccentric,2,3.0,27747.0,376951.0,340783.0,402683.0,348967.0
2026-04-07 17:42:30.208422,149295,820592058,820593960,0.843264,-0.085888,-0.070272,-16.68625,30.84375,-46.36625,-11.032001,-17.832,23.240002,eccentric,2,3.0,27747.0,376951.0,340783.0,402683.0,348967.0
2026-04-07 17:42:30.211345,149296,820601052,820602673,0.83936,-0.064416,-0.060512,-16.205,31.21125,-46.725,-10.584001,-18.248001,20.824001,eccentric,2,3.0,27747.0,376951.0,340783.0,402683.0,348967.0
2026-04-07 17:42:30.215630,149297,820610125,820611400,0.83936,-0.064416,-0.060512,-15.28625,31.1675,-47.4075,-10.584001,-18.248001,20.824001,eccentric,2,3.0,27747.0,376951.0,340783.0,402683.0,348967.0
2026-04-07 17:42:30.239765,149307,820624772,820626413,0.825696,-0.02928,-0.046848,-14.56875,31.01875,-48.15125,-10.664001,-18.880001,21.488,eccentric,2,3.0,27349.0,373819.0,338422.0,401047.0,347721.0
2026-04-07 17:42:30.241325,149308,820633775,820635145,0.825696,-0.02928,-0.046848,-12.215,31.3775,-48.30875,-10.664001,-18.880001,21.488,eccentric,2,3.0,27349.0,373819.0,338422.0,401047.0,347721.0
2026-04-07 17:42:30.245482,149309,820642757,820643861,0.782752,-0.040992,-0.085888,-10.17625,31.07125,-47.92375,-10.864,-20.216002,21.480001,eccentric,2,3.0,27349.0,373819.0,338422.0,401047.0,347721.0
2026-04-07 17:42:30.251657,149310,820657286,820658803,0.782752,-0.025376,-0.07808,-9.19625,28.805,-46.1825,-10.864,-20.216002,21.480001,eccentric,2,3.0,27349.0,373819.0,338422.0,401047.0,347721.0
2026-04-07 17:42:30.280218,149311,820666268,820667500,0.81984,-0.01952,-0.07808,-6.27375,25.76,-44.14375,-9.912001,-19.712002,24.384,eccentric,2,3.0,27349.0,373819.0,338422.0,401047.0,347721.0
2026-04-07 17:42:30.284747,149312,820675210,820676211,0.81984,-0.01952,-0.07808,-3.35125,23.96625,-43.05875,-9.912001,-19.712002,24.384,eccentric,2,3.0,27349.0,373819.0,338422.0,401047.0,347721.0
2026-04-07 17:42:30.286254,149313,820684122,820684909,0.782752,-0.001952,-0.072224,-0.49,23.40625,-41.545002,-10.344001,-19.864,21.792002,eccentric,2,3.0,27349.0,373819.0,338422.0,401047.0,347721.0
2026-04-07 17:42:30.292987,149314,820698661,820699823,0.80032,-0.00976,-0.06832,0.16625,22.60125,-39.50625,-10.632001,-20.064001,21.584002,eccentric,2,3.0,27349.0,373819.0,338422.0,401047.0,347721.0
2026-04-07 17:42:30.331198,149315,820707616,820708510,0.80032,-0.00976,-0.06832,-0.88375,20.92125,-36.89875,-10.632001,-20.064001,21.584002,eccentric,2,3.0,27349.0,373819.0,338422.0,401047.0,347721.0
2026-04-07 17:42:30.333423,149316,820716535,820717292,0.80032,-0.00976,-0.06832,-1.00625,20.4225,-35.69125,-10.632001,-20.064001,21.584002,eccentric,2,3.0,27349.0,373819.0,338422.0,401047.0,347721.0
2026-04-07 17:42:30.363506,149327,820731644,820732404,0.821792,-0.023424,-0.050752,-1.2775,20.553751,-35.14875,-9.752001,-20.256,21.832,eccentric,2,3.0,27191.0,372229.0,337096.0,399626.0,346640.0
2026-04-07 17:42:30.369349,149328,820741089,820743164,0.806176,-0.037088,-0.042944,-2.1,19.897501,-33.9325,-10.52,-20.808,22.240002,eccentric,2,3.0,27191.0,372229.0,337096.0,399626.0,346640.0
2026-04-07 17:42:30.371117,149329,820750057,820751899,0.806176,-0.037088,-0.042944,-2.03,19.13625,-31.815,-10.52,-20.808,22.240002,eccentric,2,3.0,27191.0,372229.0,337096.0,399626.0,346640.0
2026-04-07 17:42:30.372647,149330,820759011,820760659,0.847168,-0.070272,-0.064416,-0.56875,17.5525,-28.595,-10.048,-21.176,20.344002,eccentric,2,3.0,27191.0,372229.0,337096.0,399626.0,346640.0
2026-04-07 17:42:30.376817,149331,820773516,820775610,0.847168,-0.070272,-0.064416,-0.2975,15.37375,-25.2875,-10.048,-21.176,20.344002,eccentric,2,3.0,27191.0,372229.0,337096.0,399626.0,346640.0
2026-04-07 17:42:30.379359,149332,820782477,820784311,0.823744,-0.021472,-0.083936,1.49625,14.875,-22.61875,-9.872001,-20.824001,22.784,eccentric,2,3.0,27191.0,372229.0,337096.0,399626.0,346640.0
2026-04-07 17:42:30.385492,149333,820791395,820793058,0.823744,-0.021472,-0.083936,2.31,13.51,-20.41375,-9.872001,-20.824001,22.784,eccentric,2,3.0,27191.0,372229.0,337096.0,399626.0,346640.0
2026-04-07 17:42:30.413949,149334,820805879,820807962,0.821792,-0.003904,-0.050752,0.84875,11.99625,-19.4075,-9.664001,-20.664001,22.096,eccentric,2,3.0,27191.0,372229.0,337096.0,399626.0,346640.0
2026-04-07 17:42:30.418557,149335,820814796,820816661,0.821792,-0.003904,-0.050752,1.72375,11.20875,-18.71625,-9.664001,-20.664001,22.096,eccentric,2,3.0,27191.0,372229.0,337096.0,399626.0,346640.0
2026-04-07 17:42:30.442618,149345,820824295,820825433,0.81008,-0.06832,-0.060512,4.13,9.80875,-17.5875,-9.792001,-21.136002,22.576,eccentric,2,3.0,27309.0,372833.0,337376.0,399544.0,346453.0
2026-04-07 17:42:30.447009,149346,820833377,820834127,0.81008,-0.06832,-0.060512,7.6825,8.417501,-15.61875,-9.792001,-21.136002,22.576,eccentric,2,3.0,27309.0,372833.0,337376.0,399544.0,346453.0
2026-04-07 17:42:30.448531,149347,820848323,820849080,0.798368,-0.033184,-0.0488,10.4825,5.8975,-12.495,-10.376,-21.04,24.000002,eccentric,2,3.0,27309.0,372833.0,337376.0,399544.0,346453.0
2026-04-07 17:42:30.450952,149348,820857735,820859904,0.798368,-0.033184,-0.0488,9.7825,3.7975,-9.10875,-10.376,-21.04,24.000002,eccentric,2,3.0,27309.0,372833.0,337376.0,399544.0,346453.0
2026-04-07 17:42:30.503681,149349,820866703,820868663,0.812032,-0.003904,-0.046848,7.6475,1.77625,-6.6325,-10.160001,-21.288,21.312,eccentric,2,3.0,27309.0,372833.0,337376.0,399544.0,346453.0
2026-04-07 17:42:30.505934,149350,820875616,820877335,0.812032,-0.003904,-0.046848,7.49,1.58375,-5.31125,-10.160001,-21.288,21.312,eccentric,2,3.0,27309.0,372833.0,337376.0,399544.0,346453.0
2026-04-07 17:42:30.510738,149351,820890090,820892241,0.812032,-0.003904,-0.052704,8.98625,1.96875,-5.57375,-9.672001,-20.592001,22.672,eccentric,2,3.0,27309.0,372833.0,337376.0,399544.0,346453.0
2026-04-07 17:42:30.512430,149352,820898989,820900980,0.817888,-0.025376,-0.050752,10.823751,3.07125,-5.74,-9.440001,-21.448002,22.776001,eccentric,2,3.0,27309.0,372833.0,337376.0,399544.0,346453.0
2026-04-07 17:42:30.513845,149353,820907890,820909665,0.817888,-0.025376,-0.050752,11.4625,3.36,-5.80125,-9.440001,-21.448002,22.776001,eccentric,2,3.0,27309.0,372833.0,337376.0,399544.0,346453.0
2026-04-07 17:42:30.553861,149363,820922943,820924577,0.831552,-0.02928,-0.062464,11.87375,3.50875,-4.9525,-10.328,-21.128,23.944,eccentric,2,3.0,27332.0,372897.0,337336.0,399365.0,346287.0
2026-04-07 17:42:30.558064,149364,820932166,820933444,0.831552,-0.02928,-0.062464,10.535,3.61375,-3.15875,-10.328,-21.128,23.944,eccentric,2,3.0,27332.0,372897.0,337336.0,399365.0,346287.0
2026-04-07 17:42:30.559771,149365,820941133,820942236,0.812032,-0.025376,-0.06832,11.31375,1.93375,-1.35625,-10.152,-21.008001,23.800001,eccentric,2,3.0,27332.0,372897.0,337336.0,399365.0,346287.0
2026-04-07 17:42:30.563756,149366,820950062,820950926,0.812032,-0.025376,-0.06832,13.1425,0.42,0.88375,-10.152,-21.008001,23.800001,eccentric,2,3.0,27332.0,372897.0,337336.0,399365.0,346287.0
2026-04-07 17:42:30.565546,149367,820964586,820965865,0.854976,0.0488,-0.03904,15.81125,-0.6475,2.2225,-9.624001,-20.2,22.344002,eccentric,2,3.0,27332.0,372897.0,337336.0,399365.0,346287.0
2026-04-07 17:42:30.567094,149368,820973515,820974613,0.854976,0.0488,-0.03904,18.62,0.1575,1.58375,-9.624001,-20.2,22.344002,eccentric,2,3.0,27332.0,372897.0,337336.0,399365.0,346287.0
2026-04-07 17:42:30.597446,149369,820982478,820983310,0.806176,0.017568,-0.017568,19.76625,2.2925,0.39375,-10.344001,-20.384,23.264002,eccentric,2,3.0,27332.0,372897.0,337336.0,399365.0,346287.0
2026-04-07 17:42:30.601798,149370,820996944,820998191,0.806176,0.017568,-0.017568,17.22,2.6075,-0.49,-10.344001,-20.384,23.264002,eccentric,2,3.0,27332.0,372897.0,337336.0,399365.0,346287.0
2026-04-07 17:42:30.603531,149371,821005858,821006942,0.831552,-0.044896,-0.027328,14.8925,1.995,1.02375,-10.56,-20.512001,22.52,eccentric,2,3.0,27332.0,372897.0,337336.0,399365.0,346287.0
2026-04-07 17:42:30.605052,149372,821014760,821015633,0.831552,-0.044896,-0.027328,15.12875,0.9975,3.49125,-10.56,-20.512001,22.52,eccentric,2,3.0,27332.0,372897.0,337336.0,399365.0,346287.0
2026-04-07 17:42:30.665120,149383,821029333,821030571,0.812032,0.005856,-0.025376,15.68875,0.42,6.0375,-10.072001,-19.328001,21.952002,eccentric,2,3.0,27619.0,375111.0,339074.0,400976.0,347680.0
2026-04-07 17:42:30.669488,149384,821038228,821039317,0.812032,0.005856,-0.025376,15.3825,-0.28875,9.52,-10.072001,-19.328001,21.952002,eccentric,2,3.0,27619.0,375111.0,339074.0,400976.0,347680.0
2026-04-07 17:42:30.671062,149385,821047134,821047990,0.813984,0.046848,0.001952,14.35875,-0.69125,11.12125,-10.200001,-19.936,21.768002,eccentric,2,3.0,27619.0,375111.0,339074.0,400976.0,347680.0
2026-04-07 17:42:30.672636,149386,821061841,821063011,0.806176,0.003904,0.005856,11.45375,-0.35875,11.10375,-10.856001,-20.288,24.888,eccentric,2,3.0,27619.0,375111.0,339074.0,400976.0,347680.0
2026-04-07 17:42:30.676958,149387,821070810,821071817,0.806176,0.003904,0.005856,9.2575,0.51625,10.80625,-10.856001,-20.288,24.888,eccentric,2,3.0,27619.0,375111.0,339074.0,400976.0,347680.0
2026-04-07 17:42:30.678333,149388,821079736,821080514,0.845216,-0.031232,-0.003904,8.3825,0.5425,11.45375,-10.688001,-19.968,21.496,eccentric,2,3.0,27619.0,375111.0,339074.0,400976.0,347680.0
2026-04-07 17:42:30.685403,149389,821089132,821091301,0.845216,-0.031232,-0.003904,8.96875,0.32375,12.83625,-10.688001,-19.968,21.496,eccentric,2,3.0,27619.0,375111.0,339074.0,400976.0,347680.0
2026-04-07 17:42:30.713994,149390,821103629,821104109,0.845216,-0.005856,-0.003904,9.45,-0.23625,13.755,-11.240001,-19.720001,23.656002,concentric,2,3.0,27619.0,375111.0,339074.0,400976.0,347680.0
2026-04-07 17:42:30.719025,149391,821112964,821114908,0.845216,-0.005856,-0.003904,12.20625,-1.2775,15.365,-11.240001,-19.720001,23.656002,concentric,2,3.0,27619.0,375111.0,339074.0,400976.0,347680.0
2026-04-07 17:42:30.720183,149392,821121880,821123627,0.83936,0.021472,0.021472,14.91875,-1.19875,16.59,-11.080001,-19.328001,22.056002,concentric,2,3.0,27619.0,375111.0,339074.0,400976.0,347680.0
2026-04-07 17:42:30.749778,149402,821136428,821138626,0.83936,0.021472,0.021472,15.32125,-1.575,16.12625,-11.080001,-19.328001,22.056002,concentric,2,3.0,28147.0,379595.0,342721.0,403411.0,350562.0
2026-04-07 17:42:30.751241,149403,821145368,821147370,0.827648,-0.015616,-0.007808,15.68,-2.2925,15.58375,-11.128,-18.984001,21.344002,concentric,2,3.0,28147.0,379595.0,342721.0,403411.0,350562.0
2026-04-07 17:42:30.755579,149404,821154305,821156075,0.827648,-0.015616,-0.007808,16.2925,-4.17375,16.2925,-11.128,-18.984001,21.344002,concentric,2,3.0,28147.0,379595.0,342721.0,403411.0,350562.0
2026-04-07 17:42:30.757123,149405,821163354,821164778,0.837408,-0.031232,-0.025376,16.6425,-6.36125,17.7625,-11.480001,-18.552,22.688002,concentric,2,3.0,28147.0,379595.0,342721.0,403411.0,350562.0
2026-04-07 17:42:30.798754,149406,821177872,821179627,0.837408,-0.031232,-0.025376,15.82875,-8.82,20.30875,-11.480001,-18.552,22.688002,concentric,2,3.0,28147.0,379595.0,342721.0,403411.0,350562.0
2026-04-07 17:42:30.801015,149407,821186810,821188321,0.833504,-0.013664,-0.003904,15.02375,-10.64875,21.44625,-11.000001,-18.512001,21.664001,concentric,2,3.0,28147.0,379595.0,342721.0,403411.0,350562.0
2026-04-07 17:42:30.805590,149408,821195736,821197015,0.833504,-0.013664,-0.003904,15.56625,-10.7275,21.51625,-11.000001,-18.512001,21.664001,concentric,2,3.0,28147.0,379595.0,342721.0,403411.0,350562.0
2026-04-07 17:42:30.807188,149409,821210243,821211934,0.84912,0.025376,0.027328,16.59,-10.05375,19.39,-11.008,-18.44,21.44,concentric,2,3.0,28147.0,379595.0,342721.0,403411.0,350562.0
2026-04-07 17:42:30.814382,149410,821219306,821220610,0.84912,0.025376,-0.01952,17.2025,-9.292501,16.59,-11.008,-18.44,21.44,concentric,2,3.0,28147.0,379595.0,342721.0,403411.0,350562.0
2026-04-07 17:42:30.842330,149420,821228346,821229336,0.808128,-0.025376,-0.01952,16.695,-9.5375,16.8525,-12.408001,-18.576,20.672,concentric,2,3.0,28493.0,382575.0,345185.0,403431.0,352565.0
2026-04-07 17:42:30.843899,149421,821242937,821244296,0.81008,-0.074176,-0.021472,15.16375,-11.71625,18.5675,-11.896001,-17.928001,22.376001,concentric,2,3.0,28493.0,382575.0,345185.0,403431.0,352565.0
2026-04-07 17:42:30.847924,149422,821251866,821253015,0.81008,-0.074176,-0.021472,14.41125,-15.14625,21.51625,-11.896001,-17.928001,22.376001,concentric,2,3.0,28493.0,382575.0,345185.0,403431.0,352565.0
2026-04-07 17:42:30.854241,149423,821260808,821261720,0.8296,-0.0488,-0.011712,15.02375,-17.85875,24.80625,-11.52,-17.384,20.984001,concentric,2,3.0,28493.0,382575.0,345185.0,403431.0,352565.0
2026-04-07 17:42:30.882783,149424,821269787,821270426,0.8296,-0.0488,-0.011712,16.0475,-19.0575,28.16625,-11.52,-17.384,20.984001,concentric,2,3.0,28493.0,382575.0,345185.0,403431.0,352565.0
2026-04-07 17:42:30.887265,149425,821284697,821285334,0.821792,0.025376,0.003904,16.91375,-19.39,29.05875,-11.808001,-17.448,20.68,concentric,2,3.0,28493.0,382575.0,345185.0,403431.0,352565.0
2026-04-07 17:42:30.889609,149426,821293989,821296044,0.821792,0.025376,0.003904,16.26625,-18.87375,29.32125,-11.808001,-17.448,20.68,concentric,2,3.0,28493.0,382575.0,345185.0,403431.0,352565.0
2026-04-07 17:42:30.896643,149427,821303007,821304756,0.813984,-0.02928,-0.031232,13.62375,-18.87375,28.13125,-12.160001,-17.112001,20.296001,concentric,2,3.0,28493.0,382575.0,345185.0,403431.0,352565.0
2026-04-07 17:42:30.926510,149428,821317535,821319751,0.813984,-0.02928,-0.031232,11.38375,-20.1775,26.241251,-12.160001,-17.112001,20.296001,concentric,2,3.0,28493.0,382575.0,345185.0,403431.0,352565.0
2026-04-07 17:42:30.955141,149439,821326539,821328491,0.821792,-0.080032,-0.06832,14.525,-22.68,25.8125,-11.648001,-16.264,20.240002,concentric,2,3.0,29437.0,390170.0,351469.0,403431.0,357656.0
2026-04-07 17:42:30.959297,149440,821335563,821337252,0.821792,-0.080032,-0.06832,15.88125,-25.305,26.495,-11.648001,-16.264,20.240002,concentric,2,3.0,29437.0,390170.0,351469.0,403431.0,357656.0
2026-04-07 17:42:30.961059,149441,821344505,821345988,0.86864,-0.111264,-0.027328,13.886251,-27.973751,27.29125,-12.232,-15.856001,20.28,concentric,2,3.0,29437.0,390170.0,351469.0,403431.0,357656.0
2026-04-07 17:42:30.962624,149442,821359056,821360924,0.86864,-0.111264,-0.027328,11.7425,-29.12875,28.0875,-12.232,-15.856001,20.28,concentric,2,3.0,29437.0,390170.0,351469.0,403431.0,357656.0
2026-04-07 17:42:30.966720,149443,821367935,821369643,0.847168,-0.115168,-0.033184,10.42125,-29.12875,29.960001,-13.304001,-16.048,22.2,concentric,2,3.0,29437.0,390170.0,351469.0,403431.0,357656.0
2026-04-07 17:42:30.971634,149444,821376885,821378393,0.847168,-0.115168,-0.033184,9.4325,-27.9825,31.045,-13.304001,-16.048,22.2,concentric,2,3.0,29437.0,390170.0,351469.0,403431.0,357656.0
2026-04-07 17:42:31.000276,149445,821391420,821393323,0.854976,-0.095648,-0.060512,11.15625,-26.18,31.08,-13.104001,-15.304001,20.552,concentric,2,3.0,29437.0,390170.0,351469.0,403431.0,357656.0
2026-04-07 17:42:31.004748,149446,821400330,821402015,0.854976,-0.095648,-0.085888,12.32,-24.96375,29.855,-13.104001,-15.304001,20.552,concentric,2,3.0,29437.0,390170.0,351469.0,403431.0,357656.0
2026-04-07 17:42:31.006310,149447,821409277,821410717,0.845216,-0.103456,-0.085888,11.0075,-24.3775,27.44875,-12.52,-15.016001,19.728,concentric,2,3.0,29437.0,390170.0,351469.0,403431.0,357656.0
2026-04-07 17:42:31.038811,149457,821423803,821426064,0.825696,-0.144448,-0.091744,12.60875,-24.7625,26.04875,-12.208,-14.832001,19.144001,concentric,2,3.0,30432.0,398588.0,358686.0,403431.0,363619.0
2026-04-07 17:42:31.043169,149458,821432770,821434758,0.825696,-0.144448,-0.091744,12.32875,-25.50625,27.4225,-12.208,-14.832001,19.144001,concentric,2,3.0,30432.0,398588.0,358686.0,403431.0,363619.0
2026-04-07 17:42:31.045574,149459,821441798,821443549,0.833504,-0.158112,-0.044896,6.86875,-24.98125,28.105,-11.84,-14.096001,19.568,concentric,2,3.0,30432.0,398588.0,358686.0,403431.0,363619.0
2026-04-07 17:42:31.051946,149460,821456311,821458452,0.833504,-0.158112,-0.044896,2.28375,-22.4875,29.68875,-11.84,-14.096001,19.568,concentric,2,3.0,30432.0,398588.0,358686.0,403431.0,363619.0
2026-04-07 17:42:31.098766,149461,821465223,821467183,0.81984,-0.163968,-0.080032,-3.24625,-19.425,32.83875,-12.424001,-13.672001,19.144001,concentric,2,3.0,30432.0,398588.0,358686.0,403431.0,363619.0
2026-04-07 17:42:31.101006,149462,821474172,821475940,0.81984,-0.163968,-0.080032,-9.4675,-17.00125,33.6525,-12.424001,-13.672001,19.144001,concentric,2,3.0,30432.0,398588.0,358686.0,403431.0,363619.0
2026-04-07 17:42:31.105601,149463,821483121,821484637,0.813984,-0.191296,-0.095648,-10.255,-14.86625,33.013752,-12.528001,-13.912001,18.624,concentric,2,3.0,30432.0,398588.0,358686.0,403431.0,363619.0
2026-04-07 17:42:31.107261,149464,821497605,821499537,0.813984,-0.191296,-0.095648,-7.385,-13.6325,33.32875,-12.528001,-13.912001,18.624,concentric,2,3.0,30432.0,398588.0,358686.0,403431.0,363619.0
2026-04-07 17:42:31.109237,149465,821506570,821508225,0.827648,-0.216672,-0.119072,-4.73375,-11.8475,32.1825,-12.880001,-13.320001,18.12,concentric,2,3.0,30432.0,398588.0,358686.0,403431.0,363619.0
2026-04-07 17:42:31.112891,149466,821515488,821516896,0.827648,-0.216672,-0.119072,-1.39125,-11.725,31.15,-12.880001,-13.320001,18.12,concentric,2,3.0,30432.0,398588.0,358686.0,403431.0,363619.0
2026-04-07 17:42:31.141835,149476,821530284,821531929,0.81008,-0.21472,-0.142496,0.735,-10.85,32.138752,-13.064001,-12.992001,19.448002,concentric,2,3.0,31541.0,403431.0,366428.0,403431.0,370774.0
2026-04-07 17:42:31.143375,149477,821539315,821540629,0.81008,-0.21472,-0.142496,0.70875,-10.54375,32.576252,-13.064001,-12.992001,19.448002,concentric,2,3.0,31541.0,403431.0,366428.0,403431.0,370774.0
2026-04-07 17:42:31.150660,149478,821548285,821549353,0.815936,-0.238144,-0.138592,-0.0175,-9.37125,33.25875,-13.152,-12.480001,18.296001,concentric,2,3.0,31541.0,403431.0,366428.0,403431.0,370774.0
2026-04-07 17:42:31.155493,149479,821562759,821564305,0.794464,-0.208864,-0.148352,-2.0125,-7.62125,33.495,-13.256001,-12.432,19.320002,concentric,2,3.0,31541.0,403431.0,366428.0,403431.0,370774.0
2026-04-07 17:42:31.184854,149480,821571746,821572992,0.794464,-0.208864,-0.148352,-2.0475,-7.07,32.40125,-13.256001,-12.432,19.320002,concentric,2,3.0,31541.0,403431.0,366428.0,403431.0,370774.0
2026-04-07 17:42:31.189941,149481,821580637,821581730,0.794464,-0.208864,-0.148352,-0.72625,-7.4025,31.0625,-13.256001,-12.432,19.320002,concentric,2,3.0,31541.0,403431.0,366428.0,403431.0,370774.0
2026-04-07 17:42:31.211097,149482,821589540,821590401,0.806176,-0.238144,-0.167872,-1.9425,-7.34125,28.5425,-13.176001,-12.064,18.44,concentric,2,3.0,31541.0,403431.0,366428.0,403431.0,370774.0
2026-04-07 17:42:31.211136,149483,821604084,821605324,0.831552,-0.271328,-0.173728,-4.4625,-7.97125,26.95,-12.68,-11.496,17.512001,concentric,2,3.0,31541.0,403431.0,366428.0,403431.0,370774.0
2026-04-07 17:42:31.228847,149484,821613005,821614063,0.831552,-0.271328,-0.173728,-9.42375,-8.8725,23.12625,-12.68,-11.496,17.512001,concentric,2,3.0,31541.0,403431.0,366428.0,403431.0,370774.0
2026-04-07 17:42:31.230935,149485,821621932,821622746,0.851072,-0.318176,-0.191296,-12.99375,-8.60125,22.645,-13.104001,-11.152,18.392,concentric,2,3.0,31541.0,403431.0,366428.0,403431.0,370774.0
2026-04-07 17:42:31.266074,149496,821636484,821637686,0.851072,-0.318176,-0.191296,-9.52,-7.93625,23.93125,-13.104001,-11.152,18.392,concentric,2,3.0,31946.0,403431.0,369255.0,403431.0,373206.0
2026-04-07 17:42:31.267555,149497,821645409,821646436,0.870592,-0.290848,-0.199104,-3.1675,-7.13125,26.18,-13.456,-11.208,17.608002,concentric,2,3.0,31946.0,403431.0,369255.0,403431.0,373206.0
2026-04-07 17:42:31.271762,149498,821654362,821655148,0.870592,-0.290848,-0.199104,2.7125,-5.25,28.91,-13.456,-11.208,17.608002,concentric,2,3.0,31946.0,403431.0,369255.0,403431.0,373206.0
2026-04-07 17:42:31.273579,149499,821668896,821670092,0.847168,-0.255712,-0.187392,-0.7,-3.5525,26.85375,-14.280001,-11.504001,18.936,concentric,2,3.0,31946.0,403431.0,369255.0,403431.0,373206.0
2026-04-07 17:42:31.275279,149500,821677807,821678769,0.847168,-0.255712,-0.187392,-6.83375,-4.05125,21.4025,-14.280001,-11.504001,18.936,concentric,2,3.0,31946.0,403431.0,369255.0,403431.0,373206.0
2026-04-07 17:42:31.293097,149501,821686740,821687505,0.835456,-0.345504,-0.179584,-8.12,-3.12375,23.555,-13.856001,-11.336,17.384,concentric,2,3.0,31946.0,403431.0,369255.0,403431.0,373206.0
2026-04-07 17:42:31.295479,149502,821696257,821698279,0.835456,-0.345504,-0.179584,-5.66125,-2.16125,24.1675,-13.856001,-11.336,17.384,concentric,2,3.0,31946.0,403431.0,369255.0,403431.0,373206.0
2026-04-07 17:42:31.324002,149503,821710775,821711130,0.85888,-0.296704,-0.179584,-0.6125,-1.07625,23.51125,-13.576,-10.400001,17.656,concentric,2,3.0,31946.0,403431.0,369255.0,403431.0,373206.0
2026-04-07 17:42:31.328564,149504,821719983,821721864,0.85888,-0.296704,-0.179584,1.155,-0.44625,23.9925,-13.576,-10.400001,17.656,concentric,2,3.0,31946.0,403431.0,369255.0,403431.0,373206.0
2026-04-07 17:42:31.358116,149514,821729333,821730612,0.862784,-0.290848,-0.203008,0.46375,-0.04375,24.01875,-13.56,-9.912001,18.016,concentric,2,3.0,32159.0,403431.0,370191.0,403431.0,374134.0
2026-04-07 17:42:31.359656,149515,821744044,821745621,0.876448,-0.355264,-0.160064,-2.555,-0.07,22.21625,-13.240001,-9.464001,17.512001,concentric,2,3.0,32159.0,403431.0,370191.0,403431.0,374134.0
2026-04-07 17:42:31.366928,149516,821752990,821754349,0.876448,-0.355264,-0.160064,-4.6375,-0.79625,19.1625,-13.240001,-9.464001,17.512001,concentric,2,3.0,32159.0,403431.0,370191.0,403431.0,374134.0
2026-04-07 17:42:31.401225,149517,821761954,821763082,0.876448,-0.3416,-0.162016,-1.575,-0.93625,18.7075,-13.240001,-9.464001,17.512001,concentric,2,3.0,32159.0,403431.0,370191.0,403431.0,374134.0
2026-04-07 17:42:31.403463,149518,821770906,821771815,0.876448,-0.3416,-0.162016,-0.30625,-1.5575,17.29,-14.416,-9.72,18.656,concentric,2,3.0,32159.0,403431.0,370191.0,403431.0,374134.0
2026-04-07 17:42:31.408076,149519,821785384,821786923,0.886208,-0.353312,-0.16592,-2.12625,-0.9975,15.82,-14.384001,-10.192,18.968,concentric,2,3.0,32159.0,403431.0,370191.0,403431.0,374134.0
2026-04-07 17:42:31.409617,149520,821794305,821795647,0.886208,-0.353312,-0.16592,-4.68125,-1.11125,16.2925,-14.384001,-10.192,18.968,concentric,2,3.0,32159.0,403431.0,370191.0,403431.0,374134.0
2026-04-07 17:42:31.416851,149521,821803203,821804361,0.874496,-0.384544,-0.181536,-5.87125,0.07,16.96625,-13.912001,-9.360001,18.064001,concentric,2,3.0,32159.0,403431.0,370191.0,403431.0,374134.0
2026-04-07 17:42:31.418563,149522,821817654,821819249,0.874496,-0.384544,-0.181536,-3.54375,1.435,15.89,-13.912001,-9.360001,18.064001,concentric,2,3.0,32159.0,403431.0,370191.0,403431.0,374134.0
2026-04-07 17:42:31.461795,149532,821826611,821828403,0.866688,-0.333792,-0.163968,1.0325,2.66875,16.05625,-14.184001,-9.352,17.256,concentric,2,3.0,32751.0,403431.0,373471.0,403431.0,377538.0
2026-04-07 17:42:31.463481,149533,821835592,821837190,0.866688,-0.333792,-0.163968,3.185,2.4325,14.761251,-14.184001,-9.352,17.256,concentric,2,3.0,32751.0,403431.0,373471.0,403431.0,377538.0
2026-04-07 17:42:31.465049,149534,821850097,821852114,0.853024,-0.329888,-0.201056,4.5325,0.6475,12.81,-14.264001,-8.736,17.592001,concentric,2,3.0,32751.0,403431.0,373471.0,403431.0,377538.0
2026-04-07 17:42:31.469401,149535,821859040,821860809,0.853024,-0.329888,-0.201056,3.605,-1.61875,12.01375,-14.264001,-8.736,17.592001,concentric,2,3.0,32751.0,403431.0,373471.0,403431.0,377538.0
2026-04-07 17:42:31.471044,149536,821867988,821869557,0.83936,-0.366976,-0.169824,2.87,-3.22875,11.29625,-14.512001,-9.024,17.424002,concentric,2,3.0,32751.0,403431.0,373471.0,403431.0,377538.0
2026-04-07 17:42:31.472572,149537,821876929,821878279,0.83936,-0.366976,-0.169824,2.9575,-4.26125,11.8475,-14.512001,-9.024,17.424002,concentric,2,3.0,32751.0,403431.0,373471.0,403431.0,377538.0
2026-04-07 17:42:31.506160,149538,821891444,821893208,0.825696,-0.372832,-0.189344,3.12375,-4.6725,11.29625,-14.912001,-9.016001,18.288,concentric,2,3.0,32751.0,403431.0,373471.0,403431.0,377538.0
2026-04-07 17:42:31.508470,149539,821900363,821901931,0.825696,-0.372832,-0.189344,3.40375,-3.9375,9.4325,-14.912001,-9.016001,18.288,concentric,2,3.0,32751.0,403431.0,373471.0,403431.0,377538.0
2026-04-07 17:42:31.512910,149540,821909264,821910606,0.83936,-0.40992,-0.197152,4.6725,-2.23125,8.636251,-14.512001,-8.360001,16.928001,concentric,2,3.0,32751.0,403431.0,373471.0,403431.0,377538.0
2026-04-07 17:42:31.518095,149541,821923751,821925543,0.81008,-0.398208,-0.203008,9.65125,-0.84875,10.6225,-14.184001,-8.784,17.224,concentric,2,3.0,32751.0,403431.0,373471.0,403431.0,377538.0
2026-04-07 17:42:31.541310,149551,821932834,821934289,0.81008,-0.398208,-0.203008,12.83625,0.65625,8.9775,-14.184001,-8.784,17.224,concentric,2,3.0,32822.0,403431.0,374205.0,403431.0,377945.0
2026-04-07 17:42:31.543697,149552,821941829,821943017,0.81008,-0.398208,-0.203008,16.7125,1.505,10.12375,-14.184001,-8.784,17.224,concentric,2,3.0,32822.0,403431.0,374205.0,403431.0,377945.0
2026-04-07 17:42:31.549314,149553,821956303,821957976,0.788608,-0.404064,-0.208864,16.94875,1.72375,11.6725,-14.624001,-8.064,15.408001,concentric,2,3.0,32822.0,403431.0,374205.0,403431.0,377945.0
2026-04-07 17:42:31.577851,149554,821965207,821966674,0.769088,-0.402112,-0.169824,18.43625,2.52875,11.1125,-15.400001,-8.336,18.368,concentric,2,3.0,32822.0,403431.0,374205.0,403431.0,377945.0
2026-04-07 17:42:31.582311,149555,821974140,821975396,0.769088,-0.402112,-0.169824,22.33875,3.745,13.125,-15.400001,-8.336,18.368,concentric,2,3.0,32822.0,403431.0,374205.0,403431.0,377945.0
2026-04-07 17:42:31.583791,149556,821988610,821990350,0.767136,-0.37088,-0.16592,25.095,5.13625,14.9625,-14.52,-7.848001,17.184,concentric,2,3.0,32822.0,403431.0,374205.0,403431.0,377945.0
2026-04-07 17:42:31.611878,149557,821997516,821999032,0.767136,-0.37088,-0.16592,26.10125,5.775,14.805,-14.52,-7.848001,17.184,concentric,2,3.0,32822.0,403431.0,374205.0,403431.0,377945.0
2026-04-07 17:42:31.613460,149558,822006465,822007734,0.733952,-0.376736,-0.163968,26.13625,6.15125,14.56875,-14.544001,-7.784,17.2,concentric,2,3.0,32822.0,403431.0,374205.0,403431.0,377945.0
2026-04-07 17:42:31.615084,149559,822015364,822016444,0.733952,-0.376736,-0.163968,24.87625,5.50375,13.55375,-14.544001,-7.784,17.2,concentric,2,3.0,32822.0,403431.0,374205.0,403431.0,377945.0
2026-04-07 17:42:31.653071,149570,822030382,822031755,0.726144,-0.38064,-0.130784,23.02125,4.57625,12.0925,-14.64,-6.816001,17.640001,concentric,2,3.0,32725.0,403431.0,373641.0,403431.0,377351.0
2026-04-07 17:42:31.654785,149571,822039452,822040526,0.726144,-0.38064,-0.130784,22.295,3.955,12.3025,-14.64,-6.816001,17.640001,concentric,2,3.0,32725.0,403431.0,373641.0,403431.0,377351.0
2026-04-07 17:42:31.656455,149572,822048377,822049284,0.720288,-0.368928,-0.13664,21.245,3.15,11.865,-15.824,-7.168,18.152,concentric,2,3.0,32725.0,403431.0,373641.0,403431.0,377351.0
2026-04-07 17:42:31.660601,149573,822062910,822064176,0.720288,-0.368928,-0.134688,19.69625,1.81125,10.73625,-15.824,-7.168,18.152,concentric,2,3.0,32725.0,403431.0,373641.0,403431.0,377351.0
2026-04-07 17:42:31.664701,149574,822072029,822072963,0.732,-0.386496,-0.134688,17.57,0.42,10.52625,-14.880001,-6.888001,17.880001,concentric,2,3.0,32725.0,403431.0,373641.0,403431.0,377351.0
2026-04-07 17:42:31.698665,149575,822080980,822081720,0.732,-0.386496,-0.134688,16.975,0.00875,9.511251,-14.880001,-6.888001,17.880001,concentric,2,3.0,32725.0,403431.0,373641.0,403431.0,377351.0
2026-04-07 17:42:31.703068,149576,822090381,822092502,0.735904,-0.41968,-0.122976,16.24,-0.69125,7.805,-15.176001,-6.328,16.744001,concentric,2,3.0,32725.0,403431.0,373641.0,403431.0,377351.0
2026-04-07 17:42:31.704627,149577,822104913,822105343,0.720288,-0.445056,-0.122976,16.26625,-0.9975,8.35625,-15.136001,-6.128,16.256,concentric,2,3.0,32725.0,403431.0,373641.0,403431.0,377351.0
2026-04-07 17:42:31.709359,149578,822114223,822116123,0.720288,-0.445056,-0.122976,18.45375,-0.79625,10.63125,-15.136001,-6.128,16.256,concentric,2,3.0,32725.0,403431.0,373641.0,403431.0,377351.0
2026-04-07 17:42:31.716728,149579,822123211,822124809,0.720288,-0.445056,-0.142496,19.92375,-1.04125,9.61625,-15.136001,-6.128,16.256,concentric,2,3.0,32725.0,403431.0,373641.0,403431.0,377351.0
2026-04-07 17:42:31.744318,149589,822137736,822139841,0.735904,-0.466528,-0.142496,20.72875,-0.97125,9.49375,-15.472001,-6.304,18.896002,concentric,2,3.0,33036.0,403431.0,375617.0,403431.0,379546.0
2026-04-07 17:42:31.746940,149590,822146731,822148569,0.782752,-0.404064,-0.148352,19.022501,-0.58625,9.835,-15.256001,-5.584,16.432001,concentric,2,3.0,33036.0,403431.0,375617.0,403431.0,379546.0
2026-04-07 17:42:31.752876,149591,822155695,822157289,0.782752,-0.404064,-0.148352,15.93375,-1.015,7.95375,-15.256001,-5.584,16.432001,concentric,2,3.0,33036.0,403431.0,375617.0,403431.0,379546.0
2026-04-07 17:42:31.758323,149592,822164642,822166116,0.833504,-0.511424,-0.124928,11.87375,-1.77625,6.5275,-14.664001,-5.832,16.904001,concentric,2,3.0,33036.0,403431.0,375617.0,403431.0,379546.0
2026-04-07 17:42:31.788748,149593,822179260,822181037,0.833504,-0.511424,-0.124928,8.7325,-1.505,5.67,-14.664001,-5.832,16.904001,concentric,2,3.0,33036.0,403431.0,375617.0,403431.0,379546.0
2026-04-07 17:42:31.793124,149594,822188190,822189758,0.726144,-0.486048,-0.12688,10.15,-1.54,11.6025,-15.192,-5.616,16.68,concentric,2,3.0,33036.0,403431.0,375617.0,403431.0,379546.0
2026-04-07 17:42:31.794639,149595,822197108,822198447,0.726144,-0.486048,-0.12688,12.8625,-0.06125,12.7575,-15.192,-5.616,16.68,concentric,2,3.0,33036.0,403431.0,375617.0,403431.0,379546.0
2026-04-07 17:42:31.824921,149596,822211648,822213425,0.776896,-0.480192,-0.138592,16.30125,-0.8225,8.6275,-15.440001,-5.632,19.192001,concentric,2,3.0,33036.0,403431.0,375617.0,403431.0,379546.0
2026-04-07 17:42:31.827204,149597,822220605,822222122,0.776896,-0.480192,-0.138592,17.59625,-1.575,7.8575,-15.440001,-5.632,19.192001,concentric,2,3.0,33036.0,403431.0,375617.0,403431.0,379546.0
2026-04-07 17:42:31.864349,149607,822229541,822230857,0.784704,-0.45872,-0.152256,17.08,-1.89875,6.57125,-15.376,-5.448,16.576,concentric,2,3.0,32954.0,403431.0,375168.0,403431.0,378998.0
2026-04-07 17:42:31.866178,149608,822239501,822241640,0.784704,-0.45872,-0.152256,14.761251,-2.94,5.25875,-15.376,-5.448,16.576,concentric,2,3.0,32954.0,403431.0,375168.0,403431.0,378998.0
2026-04-07 17:42:31.867622,149609,822254082,822254509,0.782752,-0.505568,-0.140544,12.43375,-3.40375,4.6025,-15.192,-5.2,16.256,concentric,2,3.0,32954.0,403431.0,375168.0,403431.0,378998.0
2026-04-07 17:42:31.871869,149610,822263399,822265317,0.782752,-0.505568,-0.140544,11.55,-3.56125,4.31375,-15.192,-5.2,16.256,concentric,2,3.0,32954.0,403431.0,375168.0,403431.0,378998.0
2026-04-07 17:42:31.874280,149611,822272349,822274055,0.813984,-0.521184,-0.121024,10.61375,-3.43875,3.325,-16.240002,-5.168,18.136002,concentric,2,3.0,32954.0,403431.0,375168.0,403431.0,378998.0
2026-04-07 17:42:31.880466,149612,822286863,822288978,0.808128,-0.493856,-0.13664,11.17375,-3.2375,3.33375,-15.136001,-4.656,16.336,concentric,2,3.0,32954.0,403431.0,375168.0,403431.0,378998.0
2026-04-07 17:42:31.909478,149613,822295770,822297677,0.808128,-0.493856,-0.13664,13.405,-2.66875,3.08,-15.136001,-4.656,16.336,concentric,2,3.0,32954.0,403431.0,375168.0,403431.0,378998.0
2026-04-07 17:42:31.913525,149614,822306134,822306488,0.786656,-0.511424,-0.138592,13.877501,-2.66875,1.81125,-14.912001,-4.184,16.008001,concentric,2,3.0,32954.0,403431.0,375168.0,403431.0,378998.0
2026-04-07 17:42:31.915115,149615,822315363,822317274,0.786656,-0.511424,-0.138592,13.58875,-2.9225,2.415,-14.912001,-4.184,16.008001,concentric,2,3.0,32954.0,403431.0,375168.0,403431.0,378998.0
2026-04-07 17:42:31.919121,149616,822324286,822325962,0.786656,-0.503616,-0.13664,12.4775,-4.08625,2.625,-14.912001,-4.184,16.008001,concentric,2,3.0,32954.0,403431.0,375168.0,403431.0,378998.0
2026-04-07 17:42:31.948535,149627,822338852,822340994,0.786656,-0.503616,-0.13664,10.92875,-4.54125,1.8725,-14.888001,-4.0,16.264,concentric,2,3.0,33374.0,403431.0,377471.0,403431.0,381422.0
2026-04-07 17:42:31.950615,149628,822347838,822349813,0.81984,-0.548512,-0.115168,10.0625,-4.85625,1.6975,-15.288001,-4.216,15.976001,concentric,2,3.0,33374.0,403431.0,377471.0,403431.0,381422.0
2026-04-07 17:42:31.952652,149629,822356773,822358501,0.81984,-0.548512,-0.115168,9.56375,-4.1825,2.065,-15.288001,-4.216,15.976001,concentric,2,3.0,33374.0,403431.0,377471.0,403431.0,381422.0
2026-04-07 17:42:31.999952,149630,822371324,822373386,0.802272,-0.538752,-0.134688,11.261251,-3.22875,2.30125,-15.384001,-4.016,16.320002,concentric,2,3.0,33374.0,403431.0,377471.0,403431.0,381422.0
2026-04-07 17:42:32.004287,149631,822380277,822382120,0.802272,-0.538752,-0.134688,12.74,-1.96875,1.93375,-15.384001,-4.016,16.320002,concentric,2,3.0,33374.0,403431.0,377471.0,403431.0,381422.0
2026-04-07 17:42:32.005988,149632,822389176,822390823,0.796416,-0.511424,-0.144448,13.06375,-2.02125,2.5375,-15.432001,-3.8,15.688001,concentric,2,3.0,33374.0,403431.0,377471.0,403431.0,381422.0
2026-04-07 17:42:32.007558,149633,822403657,822405703,0.796416,-0.511424,-0.144448,11.08625,-2.14375,1.96875,-15.432001,-3.8,15.688001,concentric,2,3.0,33374.0,403431.0,377471.0,403431.0,381422.0
2026-04-07 17:42:32.011647,149634,822412624,822414432,0.806176,-0.511424,-0.15616,6.39625,-2.7825,0.6125,-15.464001,-3.672,15.976001,concentric,2,3.0,33374.0,403431.0,377471.0,403431.0,381422.0
2026-04-07 17:42:32.016659,149635,822421554,822423118,0.806176,-0.511424,-0.15616,1.3825,-3.33375,-0.86625,-15.464001,-3.672,15.976001,concentric,2,3.0,33374.0,403431.0,377471.0,403431.0,381422.0
2026-04-07 17:42:32.049310,149645,822436330,822438120,0.81984,-0.542656,-0.167872,-0.735,-3.49125,-1.67125,-15.728001,-3.848,16.824001,concentric,2,3.0,33608.0,403431.0,378635.0,403431.0,382467.0
2026-04-07 17:42:32.051103,149646,822445346,822446894,0.823744,-0.564128,-0.15616,-0.875,-3.59625,-2.31875,-15.584001,-3.84,16.312,concentric,2,3.0,33608.0,403431.0,378635.0,403431.0,382467.0
2026-04-07 17:42:32.052783,149647,822454289,822455607,0.823744,-0.564128,-0.15616,0.42875,-3.4475,-2.61625,-15.584001,-3.84,16.312,concentric,2,3.0,33608.0,403431.0,378635.0,403431.0,382467.0
2026-04-07 17:42:32.054956,149648,822463248,822464333,0.823744,-0.564128,-0.15616,3.21125,-3.2375,-2.02125,-15.584001,-3.84,16.312,concentric,2,3.0,33608.0,403431.0,378635.0,403431.0,382467.0
2026-04-07 17:42:32.086148,149649,822477723,822479254,0.81984,-0.5368,-0.173728,5.73125,-3.36875,-1.67125,-15.048,-3.904,16.400002,concentric,2,3.0,33608.0,403431.0,378635.0,403431.0,382467.0
2026-04-07 17:42:32.088477,149650,822486751,822487946,0.823744,-0.5368,-0.179584,5.075,-3.68375,-2.07375,-15.088,-3.736,13.584001,concentric,2,3.0,33608.0,403431.0,378635.0,403431.0,382467.0
2026-04-07 17:42:32.093057,149651,822495646,822496637,0.823744,-0.5368,-0.179584,3.5175,-4.34,-1.575,-15.088,-3.736,13.584001,concentric,2,3.0,33608.0,403431.0,378635.0,403431.0,382467.0
2026-04-07 17:42:32.121497,149652,822510117,822511567,0.815936,-0.54656,-0.17568,2.1,-4.73375,-1.505,-15.112,-3.976,15.496,concentric,2,3.0,33608.0,403431.0,378635.0,403431.0,382467.0
2026-04-07 17:42:32.126027,149653,822519119,822520276,0.815936,-0.54656,-0.17568,0.93625,-4.75125,-1.98625,-15.112,-3.976,15.496,concentric,2,3.0,33608.0,403431.0,378635.0,403431.0,382467.0
2026-04-07 17:42:32.128300,149654,822528032,822528946,0.81984,-0.568032,-0.183488,0.5075,-4.57625,-1.58375,-14.456,-4.096,14.792001,concentric,2,3.0,33608.0,403431.0,378635.0,403431.0,382467.0
2026-04-07 17:42:32.153532,149664,822542796,822543930,0.81984,-0.568032,-0.183488,1.16375,-4.34875,-0.945,-14.456,-4.096,14.792001,concentric,2,3.0,33694.0,403431.0,379075.0,403431.0,382945.0
2026-04-07 17:42:32.156348,149665,822551862,822552656,0.806176,-0.560224,-0.183488,1.715,-4.1125,-0.9275,-16.016,-4.2,17.344002,concentric,2,3.0,33694.0,403431.0,379075.0,403431.0,382945.0
2026-04-07 17:42:32.157845,149666,822560829,822561386,0.806176,-0.560224,-0.183488,2.38,-4.0075,-1.6275,-16.016,-4.2,17.344002,concentric,2,3.0,33694.0,403431.0,379075.0,403431.0,382945.0
2026-04-07 17:42:32.165495,149667,822570146,822572170,0.804224,-0.52704,-0.201056,1.75,-3.89375,-1.74125,-16.048,-3.968,16.256,concentric,2,3.0,33694.0,403431.0,379075.0,403431.0,382945.0
2026-04-07 17:42:32.193985,149668,822584671,822585068,0.804224,-0.52704,-0.201056,-0.35875,-3.5175,-1.95125,-16.048,-3.968,16.256,concentric,2,3.0,33694.0,403431.0,379075.0,403431.0,382945.0
