pc_time,serial_num,sensor_ts,host_ts,ax,ay,az,gx,gy,gz,mx,my,mz,phase,rpe,weight_kg,ppg_a,ppg_b,ppg_c,ppg_d,ppg_e
2026-04-07 17:42:08.499149,145244,798891956,798893228,0.745664,-0.445056,-0.1952,14.55125,12.64375,-0.2975,-13.6,-5.032,12.344001,eccentric,2,3.0,32799.0,403431.0,373875.0,403431.0,378301.0
2026-04-07 17:42:08.530391,145255,798900895,798901929,0.745664,-0.445056,-0.1952,14.595,13.25625,1.4175,-13.6,-5.032,12.344001,eccentric,2,3.0,32261.0,403431.0,370609.0,403431.0,374798.0
2026-04-07 17:42:08.534457,145256,798909958,798910658,0.765184,-0.404064,-0.181536,14.525,14.1225,2.1175,-13.312,-5.0,12.592001,eccentric,2,3.0,32261.0,403431.0,370609.0,403431.0,374798.0
2026-04-07 17:42:08.536173,145257,798924846,798925659,0.765184,-0.404064,-0.181536,10.2725,13.86,1.58375,-13.312,-5.0,12.592001,eccentric,2,3.0,32261.0,403431.0,370609.0,403431.0,374798.0
2026-04-07 17:42:08.537722,145258,798933789,798934379,0.80032,-0.394304,-0.218624,7.44625,14.14,1.575,-13.776001,-5.232,13.856001,eccentric,2,3.0,32261.0,403431.0,370609.0,403431.0,374798.0
2026-04-07 17:42:08.541747,145259,798943091,798945222,0.80032,-0.394304,-0.218624,2.31875,13.4575,0.13125,-13.776001,-5.232,13.856001,eccentric,2,3.0,32261.0,403431.0,370609.0,403431.0,374798.0
2026-04-07 17:42:08.545854,145260,798952063,798953922,0.792512,-0.407968,-0.208864,-3.73625,13.02875,-2.3975,-14.080001,-5.504,13.184001,eccentric,2,3.0,32261.0,403431.0,370609.0,403431.0,374798.0
2026-04-07 17:42:08.571942,145261,798966555,798968804,0.806176,-0.462624,-0.218624,-8.28625,12.635,-3.64875,-14.080001,-5.28,12.824,eccentric,2,3.0,32261.0,403431.0,370609.0,403431.0,374798.0
2026-04-07 17:42:08.573569,145262,798975518,798977532,0.806176,-0.462624,-0.218624,-9.948751,12.1975,-3.325,-13.552001,-5.28,12.824,eccentric,2,3.0,32261.0,403431.0,370609.0,403431.0,374798.0
2026-04-07 17:42:08.575242,145263,798984520,798986241,0.806176,-0.462624,-0.218624,-8.81125,10.99,-3.185,-13.552001,-5.28,12.824,eccentric,2,3.0,32261.0,403431.0,370609.0,403431.0,374798.0
2026-04-07 17:42:08.638724,145273,798999017,799001588,0.835456,-0.454816,-0.216672,-7.1225,10.675,-2.05625,-13.832001,-5.464,14.096001,eccentric,2,3.0,31621.0,403431.0,367187.0,403431.0,371531.0
2026-04-07 17:42:08.641137,145274,799007974,799008341,0.81984,-0.433344,-0.22448,-4.13,9.87,-1.155,-12.848001,-5.464,13.768001,eccentric,2,3.0,31621.0,403431.0,367187.0,403431.0,371531.0
2026-04-07 17:42:08.643556,145275,799017226,799019105,0.81984,-0.433344,-0.22448,-1.61,9.19625,-1.07625,-12.848001,-5.464,13.768001,eccentric,2,3.0,31621.0,403431.0,367187.0,403431.0,371531.0
2026-04-07 17:42:08.645086,145276,799031749,799034001,0.821792,-0.433344,-0.201056,-1.04125,8.636251,-2.1875,-13.392,-5.344,12.920001,eccentric,2,3.0,31621.0,403431.0,367187.0,403431.0,371531.0
2026-04-07 17:42:08.649398,145277,799040762,799042763,0.821792,-0.433344,-0.201056,-0.7,8.46125,-4.22625,-13.392,-5.344,12.920001,eccentric,2,3.0,31621.0,403431.0,367187.0,403431.0,371531.0
2026-04-07 17:42:08.651089,145278,799049742,799051506,0.831552,-0.46848,-0.18544,1.65375,7.35,-4.05125,-13.224001,-5.624,14.64,eccentric,2,3.0,31621.0,403431.0,367187.0,403431.0,371531.0
2026-04-07 17:42:08.652649,145279,799058795,799060246,0.831552,-0.46848,-0.18544,2.8,5.7575,-3.54375,-13.224001,-5.624,14.64,eccentric,2,3.0,31621.0,403431.0,367187.0,403431.0,371531.0
2026-04-07 17:42:08.685766,145280,799073360,799075147,0.813984,-0.441152,-0.208864,4.52375,5.0575,-3.19375,-13.264001,-5.568,12.872001,eccentric,2,3.0,31621.0,403431.0,367187.0,403431.0,371531.0
2026-04-07 17:42:08.687412,145281,799082310,799083831,0.813984,-0.441152,-0.208864,6.37,5.39,-3.66625,-13.264001,-5.568,12.872001,eccentric,2,3.0,31621.0,403431.0,367187.0,403431.0,371531.0
2026-04-07 17:42:08.688922,145282,799091254,799092521,0.821792,-0.404064,-0.216672,5.11,4.9875,-5.29375,-12.944,-5.464,13.288001,eccentric,2,3.0,31621.0,403431.0,367187.0,403431.0,371531.0
2026-04-07 17:42:08.718979,145292,799105915,799107550,0.821792,-0.404064,-0.216672,3.15875,5.66125,-7.14875,-12.944,-5.464,13.288001,eccentric,2,3.0,31736.0,403431.0,367701.0,403431.0,372111.0
2026-04-07 17:42:08.719057,145293,799114973,799116295,0.804224,-0.431392,-0.201056,0.315,5.76625,-8.33,-12.872001,-5.944,13.928,eccentric,2,3.0,31736.0,403431.0,367701.0,403431.0,372111.0
2026-04-07 17:42:08.722000,145294,799123904,799125016,0.804224,-0.431392,-0.201056,-1.82,5.73125,-9.31,-12.872001,-5.944,13.928,eccentric,2,3.0,31736.0,403431.0,367701.0,403431.0,372111.0
2026-04-07 17:42:08.725522,145295,799132882,799133710,0.806176,-0.480192,-0.187392,-1.8375,5.48625,-10.2025,-12.352,-5.832,13.512001,eccentric,2,3.0,31736.0,403431.0,367701.0,403431.0,372111.0
2026-04-07 17:42:08.754237,145296,799147368,799148584,0.80032,-0.47824,-0.203008,-0.3675,6.405,-10.24625,-12.352,-5.88,12.152,eccentric,2,3.0,31736.0,403431.0,367701.0,403431.0,372111.0
2026-04-07 17:42:08.758626,145297,799156317,799157340,0.80032,-0.47824,-0.203008,2.44125,7.2625,-9.56375,-12.552001,-5.88,12.152,eccentric,2,3.0,31736.0,403431.0,367701.0,403431.0,372111.0
2026-04-07 17:42:08.760915,145298,799165245,799166044,0.80032,-0.47824,-0.203008,5.57375,8.225,-10.45625,-12.552001,-5.88,12.152,eccentric,2,3.0,31736.0,403431.0,367701.0,403431.0,372111.0
2026-04-07 17:42:08.791214,145299,799179775,799180939,0.796416,-0.41968,-0.216672,6.85125,9.31875,-12.136251,-12.264001,-5.872,13.8,eccentric,2,3.0,31736.0,403431.0,367701.0,403431.0,372111.0
2026-04-07 17:42:08.795760,145300,799188719,799189631,0.788608,-0.42944,-0.181536,5.99375,10.35125,-14.245,-12.664001,-5.984,13.584001,eccentric,2,3.0,31736.0,403431.0,367701.0,403431.0,372111.0
2026-04-07 17:42:08.797462,145301,799197633,799198338,0.788608,-0.42944,-0.181536,2.89625,11.57625,-16.8,-12.664001,-5.984,13.584001,eccentric,2,3.0,31736.0,403431.0,367701.0,403431.0,372111.0
2026-04-07 17:42:08.829621,145312,799212724,799213336,0.769088,-0.486048,-0.189344,-0.315,13.69375,-17.0275,-12.864,-6.168,14.840001,eccentric,2,3.0,31620.0,403431.0,366863.0,403431.0,371347.0
2026-04-07 17:42:08.831178,145313,799221999,799224142,0.769088,-0.486048,-0.189344,1.11125,14.7875,-17.0625,-12.864,-6.168,14.840001,eccentric,2,3.0,31620.0,403431.0,366863.0,403431.0,371347.0
2026-04-07 17:42:08.832713,145314,799230931,799232889,0.806176,-0.423584,-0.183488,1.39125,16.00375,-18.7075,-11.72,-5.872,14.032001,eccentric,2,3.0,31620.0,403431.0,366863.0,403431.0,371347.0
2026-04-07 17:42:08.836806,145315,799239906,799241659,0.806176,-0.423584,-0.183488,2.31875,18.3225,-20.58875,-11.72,-5.872,14.032001,eccentric,2,3.0,31620.0,403431.0,366863.0,403431.0,371347.0
2026-04-07 17:42:08.865414,145316,799254409,799256603,0.7808,-0.40016,-0.203008,2.70375,19.985,-22.3125,-12.544001,-6.496,14.512001,eccentric,2,3.0,31620.0,403431.0,366863.0,403431.0,371347.0
2026-04-07 17:42:08.870467,145317,799263341,799265287,0.7808,-0.40016,-0.203008,-0.105,21.3325,-25.445,-12.544001,-6.496,14.512001,eccentric,2,3.0,31620.0,403431.0,366863.0,403431.0,371347.0
2026-04-07 17:42:08.871452,145318,799272367,799273977,0.772992,-0.435296,-0.140544,-0.41125,22.21625,-25.99625,-12.376,-7.12,13.936001,eccentric,2,3.0,31620.0,403431.0,366863.0,403431.0,371347.0
2026-04-07 17:42:08.879606,145319,799286947,799288927,0.772992,-0.435296,-0.140544,0.2275,22.84625,-24.0625,-12.376,-7.12,13.936001,eccentric,2,3.0,31620.0,403431.0,366863.0,403431.0,371347.0
2026-04-07 17:42:08.915046,145320,799295900,799297637,0.739808,-0.433344,-0.140544,-0.455,23.73,-23.625,-13.184001,-7.552001,15.768001,eccentric,2,3.0,31620.0,403431.0,366863.0,403431.0,371347.0
2026-04-07 17:42:08.941897,145330,799305029,799306404,0.739808,-0.433344,-0.140544,-0.23625,24.0275,-23.37125,-13.184001,-7.552001,15.768001,eccentric,2,3.0,31522.0,403431.0,366206.0,403431.0,370606.0
2026-04-07 17:42:08.943630,145331,799314025,799315117,0.794464,-0.368928,-0.154208,0.77,24.63125,-22.28625,-12.328001,-7.032001,14.936001,eccentric,2,3.0,31522.0,403431.0,366206.0,403431.0,370606.0
2026-04-07 17:42:08.945226,145332,799328503,799330067,0.782752,-0.388448,-0.17568,0.0,26.04,-24.7275,-12.264001,-7.76,15.248001,eccentric,2,3.0,31522.0,403431.0,366206.0,403431.0,370606.0
2026-04-07 17:42:08.950413,145333,799337525,799338825,0.782752,-0.388448,-0.17568,2.07375,26.53,-25.9175,-12.264001,-7.76,15.248001,eccentric,2,3.0,31522.0,403431.0,366206.0,403431.0,370606.0
2026-04-07 17:42:08.951375,145334,799346519,799347596,0.782752,-0.388448,-0.17568,1.25125,26.985,-26.13625,-12.264001,-7.76,15.248001,eccentric,2,3.0,31522.0,403431.0,366206.0,403431.0,370606.0
2026-04-07 17:42:08.952673,145335,799361123,799362489,0.769088,-0.388448,-0.160064,-1.925,28.37625,-27.2125,-12.624001,-7.768001,16.856,eccentric,2,3.0,31522.0,403431.0,366206.0,403431.0,370606.0
2026-04-07 17:42:08.985029,145336,799370166,799371173,0.776896,-0.38064,-0.109312,-4.305,27.9475,-26.59125,-12.688001,-7.880001,17.152,eccentric,2,3.0,31522.0,403431.0,366206.0,403431.0,370606.0
2026-04-07 17:42:08.987436,145337,799379073,799379917,0.776896,-0.38064,-0.109312,-6.48375,28.53375,-25.935,-12.688001,-7.880001,17.152,eccentric,2,3.0,31522.0,403431.0,366206.0,403431.0,370606.0
2026-04-07 17:42:08.992000,145338,799393584,799394849,0.798368,-0.359168,-0.160064,-7.65625,29.2425,-25.97875,-12.128,-8.440001,16.168001,eccentric,2,3.0,31522.0,403431.0,366206.0,403431.0,370606.0
2026-04-07 17:42:09.028785,145348,799402515,799403817,0.798368,-0.359168,-0.160064,-7.5425,29.49625,-29.16375,-12.128,-8.440001,16.168001,eccentric,2,3.0,31362.0,403431.0,365425.0,403431.0,369824.0
2026-04-07 17:42:09.030675,145349,799412562,799415496,0.778848,-0.363072,-0.15616,-4.27875,30.17,-30.23125,-12.152,-8.608001,16.144001,eccentric,2,3.0,31362.0,403431.0,365425.0,403431.0,369824.0
2026-04-07 17:42:09.031430,145350,799421524,799422132,0.778848,-0.363072,-0.15616,-3.05375,29.9775,-29.89875,-12.152,-8.608001,16.144001,eccentric,2,3.0,31362.0,403431.0,365425.0,403431.0,369824.0
2026-04-07 17:42:09.035596,145351,799436339,799437133,0.759328,-0.35136,-0.12688,-4.025,29.295,-31.63125,-11.944,-8.440001,16.456001,eccentric,2,3.0,31362.0,403431.0,365425.0,403431.0,369824.0
2026-04-07 17:42:09.039241,145352,799445927,799447923,0.759328,-0.35136,-0.12688,-4.76,28.8225,-31.38625,-11.944,-8.440001,16.456001,eccentric,2,3.0,31362.0,403431.0,365425.0,403431.0,369824.0
2026-04-07 17:42:09.068023,145353,799454857,799456618,0.7808,-0.363072,-0.101504,-4.41875,29.02375,-29.54875,-12.352,-9.232,17.056002,eccentric,2,3.0,31362.0,403431.0,365425.0,403431.0,369824.0
2026-04-07 17:42:09.072391,145354,799463789,799465285,0.7808,-0.363072,-0.101504,-8.32125,30.30125,-28.735,-12.352,-9.232,17.056002,eccentric,2,3.0,31362.0,403431.0,365425.0,403431.0,369824.0
2026-04-07 17:42:09.083248,145355,799478297,799480279,0.767136,-0.316224,-0.093696,-12.0575,31.38625,-29.18125,-12.648001,-9.360001,16.944,eccentric,2,3.0,31362.0,403431.0,365425.0,403431.0,369824.0
2026-04-07 17:42:09.089444,145356,799487219,799488972,0.767136,-0.316224,-0.093696,-10.2025,30.2925,-32.40125,-12.648001,-9.360001,16.944,eccentric,2,3.0,31362.0,403431.0,365425.0,403431.0,369824.0
2026-04-07 17:42:09.091140,145357,799496136,799497726,0.75152,-0.36112,-0.144448,-6.9825,28.63875,-33.67875,-12.320001,-9.592,17.216002,eccentric,2,3.0,31362.0,403431.0,365425.0,403431.0,369824.0
2026-04-07 17:42:09.129755,145368,799510712,799512803,0.730048,-0.333792,-0.119072,-5.5475,25.38375,-32.375,-12.864,-10.448001,18.208,eccentric,2,3.0,30673.0,400978.0,361069.0,403431.0,365893.0
2026-04-07 17:42:09.139395,145369,799519644,799521546,0.730048,-0.333792,-0.119072,-6.44875,23.1,-30.49375,-12.864,-10.448001,18.208,eccentric,2,3.0,30673.0,400978.0,361069.0,403431.0,365893.0
2026-04-07 17:42:09.141110,145370,799528595,799530299,0.730048,-0.298656,-0.0976,-5.59125,21.3675,-27.65875,-12.864,-10.448001,18.208,eccentric,2,3.0,30673.0,400978.0,361069.0,403431.0,365893.0
2026-04-07 17:42:09.142688,145371,799543179,799545200,0.77104,-0.298656,-0.0976,-7.6475,20.0375,-28.2975,-13.136001,-10.488001,18.496,eccentric,2,3.0,30673.0,400978.0,361069.0,403431.0,365893.0
2026-04-07 17:42:09.147162,145372,799552144,799553916,0.76128,-0.281088,-0.089792,-9.19625,20.93,-31.14125,-12.976001,-10.896001,17.808,eccentric,2,3.0,30673.0,400978.0,361069.0,403431.0,365893.0
2026-04-07 17:42:09.154291,145373,799561068,799562671,0.76128,-0.281088,-0.089792,-5.83625,21.23625,-33.46,-12.976001,-10.896001,17.808,eccentric,2,3.0,30673.0,400978.0,361069.0,403431.0,365893.0
2026-04-07 17:42:09.216982,145374,799569987,799571373,0.772992,-0.333792,-0.0976,-7.5775,21.4375,-35.035,-12.216001,-10.744,21.952002,eccentric,2,3.0,30673.0,400978.0,361069.0,403431.0,365893.0
2026-04-07 17:42:09.218625,145375,799584531,799586260,0.772992,-0.333792,-0.0976,-10.71,21.90125,-35.77,-12.216001,-10.744,21.952002,eccentric,2,3.0,30673.0,400978.0,361069.0,403431.0,365893.0
2026-04-07 17:42:09.220182,145376,799593429,799594984,0.76128,-0.32208,-0.072224,-11.375,23.28375,-34.29125,-11.744,-11.536,17.968,eccentric,2,3.0,30673.0,400978.0,361069.0,403431.0,365893.0
2026-04-07 17:42:09.224422,145377,799602360,799603716,0.76128,-0.32208,-0.072224,-13.39625,24.36,-33.17125,-11.744,-11.536,17.968,eccentric,2,3.0,30673.0,400978.0,361069.0,403431.0,365893.0
2026-04-07 17:42:09.259473,145387,799616869,799618641,0.782752,-0.26352,-0.081984,-16.10875,25.06875,-33.4775,-12.208,-11.480001,18.36,eccentric,2,3.0,30244.0,397927.0,358301.0,403431.0,363688.0
2026-04-07 17:42:09.261235,145388,799625797,799627349,0.782752,-0.26352,-0.081984,-15.74125,25.865,-35.18375,-12.208,-11.480001,18.36,eccentric,2,3.0,30244.0,397927.0,358301.0,403431.0,363688.0
2026-04-07 17:42:09.262700,145389,799634789,799636063,0.767136,-0.277184,-0.066368,-13.895,26.17125,-37.21375,-11.568001,-12.112,18.712002,eccentric,2,3.0,30244.0,397927.0,358301.0,403431.0,363688.0
2026-04-07 17:42:09.269791,145390,799649323,799651057,0.735904,-0.275232,-0.074176,-10.64,26.3375,-38.99,-11.568001,-12.112,16.664001,eccentric,2,3.0,30244.0,397927.0,358301.0,403431.0,363688.0
2026-04-07 17:42:09.271978,145391,799658261,799659785,0.737856,-0.275232,-0.074176,-9.94,25.795,-39.095,-12.040001,-12.52,18.0,eccentric,2,3.0,30244.0,397927.0,358301.0,403431.0,363688.0
2026-04-07 17:42:09.272625,145392,799667214,799668504,0.737856,-0.275232,-0.074176,-8.11125,25.26125,-37.03,-12.040001,-12.52,18.0,eccentric,2,3.0,30244.0,397927.0,358301.0,403431.0,363688.0
2026-04-07 17:42:09.276762,145393,799676164,799677236,0.720288,-0.21472,-0.046848,-12.59125,25.06,-35.56875,-12.240001,-12.872001,20.320002,eccentric,2,3.0,30244.0,397927.0,358301.0,403431.0,363688.0
2026-04-07 17:42:09.283084,145394,799690663,799692208,0.786656,-0.212768,-0.044896,-15.07625,24.66625,-34.107502,-11.912001,-13.232,19.048,eccentric,2,3.0,30244.0,397927.0,358301.0,403431.0,363688.0
2026-04-07 17:42:09.311705,145395,799699589,799700921,0.786656,-0.212768,-0.044896,-19.075,24.7975,-35.201252,-11.912001,-13.232,19.048,eccentric,2,3.0,30244.0,397927.0,358301.0,403431.0,363688.0
2026-04-07 17:42:09.345747,145405,799708767,799709732,0.786656,-0.212768,-0.044896,-20.51,26.075,-38.3425,-11.912001,-13.232,19.048,eccentric,2,3.0,29674.0,393458.0,354613.0,403431.0,360764.0
2026-04-07 17:42:09.347378,145406,799723275,799724712,0.747616,-0.245952,-0.03904,-15.37375,27.0375,-39.76875,-11.904,-13.328001,19.088001,eccentric,2,3.0,29674.0,393458.0,354613.0,403431.0,360764.0
2026-04-07 17:42:09.349244,145407,799732290,799733439,0.743712,-0.222528,-0.023424,-11.54125,26.80125,-40.25,-12.096001,-14.112,19.216002,eccentric,2,3.0,29674.0,393458.0,354613.0,403431.0,360764.0
2026-04-07 17:42:09.353236,145408,799741362,799742153,0.743712,-0.222528,-0.023424,-9.4325,25.3575,-40.005,-12.096001,-14.112,19.216002,eccentric,2,3.0,29674.0,393458.0,354613.0,403431.0,360764.0
2026-04-07 17:42:09.356283,145409,799755857,799757079,0.763232,-0.232288,-0.074176,-9.8,23.2575,-39.6725,-12.8,-14.624001,21.648,eccentric,2,3.0,29674.0,393458.0,354613.0,403431.0,360764.0
2026-04-07 17:42:09.368204,145410,799764730,799765804,0.763232,-0.232288,-0.074176,-11.96125,21.23625,-38.7275,-12.8,-14.624001,21.648,eccentric,2,3.0,29674.0,393458.0,354613.0,403431.0,360764.0
2026-04-07 17:42:09.370661,145411,799773861,799774570,0.784704,-0.232288,-0.037088,-14.5775,20.1425,-38.08,-12.472,-15.296001,21.560001,eccentric,2,3.0,29674.0,393458.0,354613.0,403431.0,360764.0
2026-04-07 17:42:09.376843,145412,799783221,799785393,0.784704,-0.232288,-0.037088,-12.71375,19.897501,-37.35375,-12.472,-15.296001,21.560001,eccentric,2,3.0,29674.0,393458.0,354613.0,403431.0,360764.0
2026-04-07 17:42:09.405354,145413,799797703,799798255,0.851072,-0.22448,-0.015616,-7.5075,19.45125,-38.22875,-11.424001,-15.080001,19.44,eccentric,2,3.0,29674.0,393458.0,354613.0,403431.0,360764.0
2026-04-07 17:42:09.438663,145424,799807022,799809045,0.851072,-0.22448,-0.015616,-5.1975,20.405,-40.18,-11.424001,-15.080001,19.44,eccentric,2,3.0,28964.0,387623.0,349884.0,403431.0,356752.0
2026-04-07 17:42:09.440286,145425,799816177,799817777,0.835456,-0.150304,0.011712,-1.925,22.960001,-41.74625,-11.280001,-15.112,20.016,eccentric,2,3.0,28964.0,387623.0,349884.0,403431.0,356752.0
2026-04-07 17:42:09.444455,145426,799830679,799832717,0.862784,-0.244,-0.042944,-5.10125,23.87,-44.14375,-11.544001,-15.792001,21.936,eccentric,2,3.0,28964.0,387623.0,349884.0,403431.0,356752.0
2026-04-07 17:42:09.446172,145427,799839589,799841438,0.862784,-0.244,-0.042944,-8.8725,23.4325,-44.555,-11.544001,-15.792001,21.936,eccentric,2,3.0,28964.0,387623.0,349884.0,403431.0,356752.0
2026-04-07 17:42:09.447963,145428,799848548,799850184,0.862784,-0.244,-0.042944,-10.465,23.47625,-44.135,-11.544001,-15.792001,21.936,eccentric,2,3.0,28964.0,387623.0,349884.0,403431.0,356752.0
2026-04-07 17:42:09.455492,145429,799857478,799858870,0.85888,-0.226432,-0.035136,-9.02125,24.87625,-43.076252,-11.344001,-15.864,20.768002,eccentric,2,3.0,28964.0,387623.0,349884.0,403431.0,356752.0
2026-04-07 17:42:09.513881,145430,799872111,799873791,0.837408,-0.089792,0.035136,-4.2525,26.4425,-43.96875,-11.920001,-16.616001,21.024,eccentric,2,3.0,28964.0,387623.0,349884.0,403431.0,356752.0
2026-04-07 17:42:09.516034,145431,799881049,799882502,0.837408,-0.089792,0.035136,-4.13,27.88625,-45.3775,-11.920001,-16.616001,21.024,eccentric,2,3.0,28964.0,387623.0,349884.0,403431.0,356752.0
2026-04-07 17:42:09.520665,145432,799889946,799891212,0.837408,-0.089792,-0.050752,-4.69875,29.23375,-47.565,-11.920001,-16.616001,21.024,eccentric,2,3.0,28964.0,387623.0,349884.0,403431.0,356752.0
2026-04-07 17:42:09.524152,145433,799904433,799906136,0.792512,-0.158112,-0.050752,-6.44875,28.7875,-47.3375,-11.464001,-17.248001,21.176,eccentric,2,3.0,28964.0,387623.0,349884.0,403431.0,356752.0
2026-04-07 17:42:09.557383,145443,799913382,799914942,0.817888,-0.144448,0.005856,-7.20125,27.545,-45.535,-10.944,-17.336,21.392,eccentric,2,3.0,28922.0,386840.0,348979.0,403431.0,355488.0
2026-04-07 17:42:09.559047,145444,799922298,799923631,0.817888,-0.144448,0.005856,-4.99625,27.1775,-44.8525,-10.944,-17.336,21.392,eccentric,2,3.0,28922.0,386840.0,348979.0,403431.0,355488.0
2026-04-07 17:42:09.563157,145445,799936846,799938601,0.747616,-0.105408,0.011712,-2.84375,25.97875,-44.98375,-11.808001,-17.056002,21.264002,eccentric,2,3.0,28922.0,386840.0,348979.0,403431.0,355488.0
2026-04-07 17:42:09.564866,145446,799945782,799947330,0.747616,-0.105408,0.011712,-3.9025,23.8875,-41.58875,-11.808001,-17.056002,21.264002,eccentric,2,3.0,28922.0,386840.0,348979.0,403431.0,355488.0
2026-04-07 17:42:09.566408,145447,799954773,799956099,0.72224,-0.10736,-0.044896,-6.18625,20.72875,-39.48875,-11.472,-17.672,21.352001,eccentric,2,3.0,28922.0,386840.0,348979.0,403431.0,355488.0
2026-04-07 17:42:09.570652,145448,799963820,799964839,0.72224,-0.10736,-0.044896,-8.25125,17.17625,-37.1,-11.472,-17.672,21.352001,eccentric,2,3.0,28922.0,386840.0,348979.0,403431.0,355488.0
2026-04-07 17:42:09.573160,145449,799978336,799979734,0.728096,-0.15616,-0.099552,-7.83125,12.64375,-33.59125,-11.392,-18.072,21.632002,eccentric,2,3.0,28922.0,386840.0,348979.0,403431.0,355488.0
2026-04-07 17:42:09.601562,145450,799989234,799990612,0.728096,-0.15616,-0.099552,-4.9,7.91875,-29.05875,-11.392,-18.072,21.632002,eccentric,2,3.0,28922.0,386840.0,348979.0,403431.0,355488.0
2026-04-07 17:42:09.606187,145451,799998169,799999316,0.74176,-0.132736,-0.095648,-0.9625,3.675,-24.710001,-10.928,-17.776001,21.04,eccentric,2,3.0,28922.0,386840.0,348979.0,403431.0,355488.0
2026-04-07 17:42:09.635756,145461,800007303,800007982,0.74176,-0.132736,-0.095648,1.365,0.1925,-19.775,-10.928,-17.776001,21.04,eccentric,2,3.0,28254.0,381201.0,344361.0,403431.0,351111.0
2026-04-07 17:42:09.637394,145462,800022304,800022993,0.728096,-0.122976,-0.05856,-1.2775,-2.91375,-14.595,-10.68,-18.2,21.736002,eccentric,2,3.0,28254.0,381201.0,344361.0,403431.0,351111.0
2026-04-07 17:42:09.638929,145463,800031855,800033791,0.735904,-0.163968,-0.105408,-5.92375,-6.23,-10.03625,-11.080001,-18.28,20.928001,eccentric,2,3.0,28254.0,381201.0,344361.0,403431.0,351111.0
2026-04-07 17:42:09.643161,145464,800040821,800042495,0.735904,-0.163968,-0.105408,-9.45875,-9.0825,-4.19125,-11.080001,-18.28,20.928001,eccentric,2,3.0,28254.0,381201.0,344361.0,403431.0,351111.0
2026-04-07 17:42:09.645602,145465,800049744,800051190,0.735904,-0.163968,-0.105408,-11.06,-12.04,0.98875,-11.080001,-18.28,20.928001,eccentric,2,3.0,28254.0,381201.0,344361.0,403431.0,351111.0
2026-04-07 17:42:09.674124,145466,800064267,800066104,0.79056,-0.138592,-0.093696,-8.8725,-14.67375,4.8125,-10.584001,-18.216002,21.136002,eccentric,2,3.0,28254.0,381201.0,344361.0,403431.0,351111.0
2026-04-07 17:42:09.678653,145467,800073177,800074808,0.835456,-0.050752,-0.044896,-5.1275,-14.23625,5.88,-10.888001,-17.76,21.160002,eccentric,2,3.0,28254.0,381201.0,344361.0,403431.0,351111.0
2026-04-07 17:42:09.680234,145468,800082120,800083509,0.835456,-0.050752,-0.044896,-3.96375,-11.41,4.515,-10.888001,-17.76,21.160002,eccentric,2,3.0,28254.0,381201.0,344361.0,403431.0,351111.0
2026-04-07 17:42:09.713789,145469,800096666,800098407,0.854976,-0.10736,-0.072224,-4.24375,-8.4,2.63375,-11.784,-17.560001,21.392,eccentric,2,3.0,28254.0,381201.0,344361.0,403431.0,351111.0
2026-04-07 17:42:09.718251,145470,800105578,800107088,0.854976,-0.10736,-0.072224,-3.9725,-6.1075,1.155,-11.784,-17.560001,21.392,eccentric,2,3.0,28254.0,381201.0,344361.0,403431.0,351111.0
2026-04-07 17:42:09.744930,145481,800114538,800115908,0.854976,-0.10736,-0.111264,-1.5925,-6.055,1.00625,-10.68,-17.848001,20.944,eccentric,2,3.0,28375.0,381997.0,344925.0,403431.0,351782.0
2026-04-07 17:42:09.746434,145482,800129016,800130830,0.854976,-0.10736,-0.111264,3.22,-9.1,3.2375,-10.68,-17.848001,20.944,eccentric,2,3.0,28375.0,381997.0,344925.0,403431.0,351782.0
2026-04-07 17:42:09.750618,145483,800137960,800139583,0.925248,-0.070272,-0.076128,7.6475,-10.77125,5.3025,-10.8,-17.976002,20.448002,eccentric,2,3.0,28375.0,381997.0,344925.0,403431.0,351782.0
2026-04-07 17:42:09.752327,145484,800146970,800148323,0.925248,-0.070272,-0.076128,6.0375,-10.89375,5.24125,-10.8,-17.976002,20.448002,eccentric,2,3.0,28375.0,381997.0,344925.0,403431.0,351782.0
2026-04-07 17:42:09.753968,145485,800155964,800157048,0.835456,-0.101504,-0.03904,4.27875,-9.89625,7.525,-10.832001,-17.448,20.76,eccentric,2,3.0,28375.0,381997.0,344925.0,403431.0,351782.0
2026-04-07 17:42:09.812584,145486,800170498,800172004,0.835456,-0.101504,-0.03904,7.72625,-10.255,7.385,-10.832001,-17.448,20.76,eccentric,2,3.0,28375.0,381997.0,344925.0,403431.0,351782.0
2026-04-07 17:42:09.816970,145487,800179454,800180715,0.813984,-0.091744,-0.072224,12.83625,-11.917501,7.805,-11.416,-17.2,19.472,eccentric,2,3.0,28375.0,381997.0,344925.0,403431.0,351782.0
2026-04-07 17:42:09.818701,145488,800188364,800189450,0.813984,-0.091744,-0.072224,15.4875,-14.28,9.765,-11.416,-17.2,19.472,eccentric,2,3.0,28375.0,381997.0,344925.0,403431.0,351782.0
2026-04-07 17:42:09.820445,145489,800202884,800204420,0.767136,-0.115168,-0.13664,16.555,-17.5875,11.45375,-10.632001,-17.256,20.36,eccentric,2,3.0,28375.0,381997.0,344925.0,403431.0,351782.0
2026-04-07 17:42:09.884887,145499,800211998,800213197,0.815936,-0.072224,-0.02928,16.66875,-20.30875,13.755,-10.632001,-16.816,20.064001,concentric,2,3.0,28559.0,383413.0,345958.0,403431.0,352764.0
2026-04-07 17:42:09.886617,145500,800220890,800221911,0.815936,-0.072224,-0.02928,15.37375,-20.34375,14.84,-10.296001,-16.816,20.064001,concentric,2,3.0,28559.0,383413.0,345958.0,403431.0,352764.0
2026-04-07 17:42:09.890693,145501,800235401,800236834,0.753472,-0.115168,-0.081984,14.0525,-18.8125,14.72625,-11.096001,-16.056002,19.528002,concentric,2,3.0,28559.0,383413.0,345958.0,403431.0,352764.0
2026-04-07 17:42:09.892354,145502,800244383,800245605,0.753472,-0.115168,-0.081984,11.19125,-17.9725,16.415,-11.096001,-16.056002,19.528002,concentric,2,3.0,28559.0,383413.0,345958.0,403431.0,352764.0
2026-04-07 17:42:09.894126,145503,800253274,800254340,0.730048,-0.1952,-0.158112,10.185,-18.10375,18.69875,-10.8,-16.352001,19.816002,concentric,2,3.0,28559.0,383413.0,345958.0,403431.0,352764.0
2026-04-07 17:42:09.900765,145504,800262236,800263017,0.730048,-0.1952,-0.158112,12.4425,-20.8775,20.36125,-10.8,-16.352001,19.816002,concentric,2,3.0,28559.0,383413.0,345958.0,403431.0,352764.0
2026-04-07 17:42:09.902438,145505,800276705,800277942,0.804224,-0.124928,-0.101504,16.8875,-24.68375,23.6075,-10.960001,-16.016,19.44,concentric,2,3.0,28559.0,383413.0,345958.0,403431.0,352764.0
2026-04-07 17:42:09.903914,145506,800285610,800286689,0.804224,-0.124928,-0.101504,19.11,-27.08125,25.43625,-10.960001,-16.016,19.44,concentric,2,3.0,28559.0,383413.0,345958.0,403431.0,352764.0
2026-04-07 17:42:09.909529,145507,800294532,800295389,0.794464,-0.113216,-0.052704,18.6725,-25.59375,22.6975,-11.224001,-15.944001,21.328001,concentric,2,3.0,28559.0,383413.0,345958.0,403431.0,352764.0
2026-04-07 17:42:09.935227,145517,800309035,800310301,0.794464,-0.113216,-0.052704,17.22875,-23.38,20.553751,-11.224001,-15.944001,21.328001,concentric,2,3.0,29153.0,388194.0,349804.0,403431.0,356316.0
2026-04-07 17:42:09.938636,145518,800318455,800319291,0.786656,-0.187392,-0.095648,18.31375,-22.0675,20.475,-11.176001,-15.608001,21.216002,concentric,2,3.0,29153.0,388194.0,349804.0,403431.0,356316.0
2026-04-07 17:42:09.940133,145519,800328071,800330180,0.786656,-0.187392,-0.095648,17.14125,-21.91,20.8075,-11.176001,-15.608001,21.216002,concentric,2,3.0,29153.0,388194.0,349804.0,403431.0,356316.0
2026-04-07 17:42:09.944316,145520,800337025,800338891,0.70272,-0.197152,-0.160064,17.22875,-24.75375,22.12,-11.280001,-14.912001,18.84,concentric,2,3.0,29153.0,388194.0,349804.0,403431.0,356316.0
2026-04-07 17:42:09.950664,145521,800351814,800352176,0.70272,-0.197152,-0.160064,19.5825,-30.14375,26.32,-11.280001,-14.912001,18.84,concentric,2,3.0,29153.0,388194.0,349804.0,403431.0,356316.0
2026-04-07 17:42:09.955535,145522,800361079,800363016,0.739808,-0.148352,-0.18544,19.18,-35.34125,30.2925,-10.912001,-14.960001,20.104,concentric,2,3.0,29153.0,388194.0,349804.0,403431.0,356316.0
2026-04-07 17:42:09.984150,145523,800369979,800371838,0.739808,-0.148352,-0.18544,16.91375,-37.00375,30.84375,-10.912001,-14.960001,20.104,concentric,2,3.0,29153.0,388194.0,349804.0,403431.0,356316.0
2026-04-07 17:42:09.989141,145524,800384465,800386740,0.841312,-0.130784,0.00976,14.945,-34.16,25.6025,-11.304001,-14.424001,17.496,concentric,2,3.0,29153.0,388194.0,349804.0,403431.0,356316.0
2026-04-07 17:42:09.991258,145525,800393384,800395423,0.845216,-0.191296,-0.121024,16.80875,-29.4875,21.2975,-10.312,-14.016001,17.448,concentric,2,3.0,29153.0,388194.0,349804.0,403431.0,356316.0
2026-04-07 17:42:09.996794,145526,800402306,800404229,0.845216,-0.191296,-0.121024,20.09875,-27.86,19.39875,-10.312,-14.016001,17.448,concentric,2,3.0,29153.0,388194.0,349804.0,403431.0,356316.0
2026-04-07 17:42:10.028798,145537,800411327,800413019,0.845216,-0.191296,-0.121024,20.195,-27.1075,18.75125,-10.312,-14.016001,17.448,concentric,2,3.0,29631.0,391925.0,352884.0,403431.0,359006.0
2026-04-07 17:42:10.031100,145538,800425918,800427988,0.774944,-0.1952,-0.203008,21.42,-27.475,21.49875,-10.888001,-14.000001,16.624,concentric,2,3.0,29631.0,391925.0,352884.0,403431.0,359006.0
2026-04-07 17:42:10.032621,145539,800434839,800436700,0.79056,-0.22448,-0.15616,18.83875,-30.49375,25.62875,-11.080001,-13.544001,17.024,concentric,2,3.0,29631.0,391925.0,352884.0,403431.0,359006.0
2026-04-07 17:42:10.036030,145540,800443772,800445364,0.79056,-0.22448,-0.15616,13.79875,-33.36375,27.1425,-11.080001,-13.544001,17.024,concentric,2,3.0,29631.0,391925.0,352884.0,403431.0,359006.0
2026-04-07 17:42:10.068255,145541,800458247,800460314,0.83936,-0.230336,-0.10736,11.54125,-33.04875,26.11,-10.816001,-13.232,18.136002,concentric,2,3.0,29631.0,391925.0,352884.0,403431.0,359006.0
2026-04-07 17:42:10.070892,145542,800467152,800469044,0.83936,-0.230336,-0.10736,14.02625,-30.51125,24.3075,-10.816001,-13.232,18.136002,concentric,2,3.0,29631.0,391925.0,352884.0,403431.0,359006.0
2026-04-07 17:42:10.071892,145543,800476054,800477756,0.772992,-0.197152,-0.128832,17.0275,-27.7375,21.06125,-10.952001,-12.896001,16.568,concentric,2,3.0,29631.0,391925.0,352884.0,403431.0,359006.0
2026-04-07 17:42:10.113768,145544,800490535,800492716,0.772992,-0.197152,-0.128832,20.04625,-26.52125,19.53,-10.952001,-12.896001,16.568,concentric,2,3.0,29631.0,391925.0,352884.0,403431.0,359006.0
2026-04-07 17:42:10.118253,145545,800499448,800501414,0.796416,-0.23424,-0.167872,20.81625,-26.32875,18.5675,-11.384001,-13.072001,17.456001,concentric,2,3.0,29631.0,391925.0,352884.0,403431.0,359006.0
2026-04-07 17:42:10.151262,145555,800508356,800510164,0.796416,-0.23424,-0.167872,18.17375,-26.4775,18.865,-11.384001,-13.072001,17.456001,concentric,2,3.0,30190.0,396706.0,356976.0,403431.0,362851.0
2026-04-07 17:42:10.153570,145556,800522892,800525091,0.815936,-0.271328,-0.109312,14.63,-25.5325,19.5125,-10.624001,-12.008,15.736001,concentric,2,3.0,30190.0,396706.0,356976.0,403431.0,362851.0
2026-04-07 17:42:10.155265,145557,800531869,800533793,0.815936,-0.271328,-0.109312,12.5825,-23.2575,19.62625,-10.624001,-12.008,15.736001,concentric,2,3.0,30190.0,396706.0,356976.0,403431.0,362851.0
2026-04-07 17:42:10.159393,145558,800540823,800542526,0.812032,-0.27328,-0.140544,11.83,-21.25375,21.5075,-10.856001,-11.688001,15.176001,concentric,2,3.0,30190.0,396706.0,356976.0,403431.0,362851.0
2026-04-07 17:42:10.161205,145559,800549762,800551256,0.812032,-0.27328,-0.140544,10.045,-19.460001,21.30625,-10.856001,-11.688001,15.176001,concentric,2,3.0,30190.0,396706.0,356976.0,403431.0,362851.0
2026-04-07 17:42:10.162896,145560,800564281,800566149,0.786656,-0.242048,-0.17568,11.725,-18.08625,20.86875,-10.84,-11.632001,15.480001,concentric,2,3.0,30190.0,396706.0,356976.0,403431.0,362851.0
2026-04-07 17:42:10.166816,145561,800573202,800574867,0.802272,-0.242048,-0.12688,13.72875,-17.675,20.4925,-10.84,-11.632001,17.528002,concentric,2,3.0,30190.0,396706.0,356976.0,403431.0,362851.0
2026-04-07 17:42:10.195335,145562,800582210,800583592,0.81008,-0.242048,-0.12688,12.4775,-17.0625,17.84125,-11.744,-11.736001,17.12,concentric,2,3.0,30190.0,396706.0,356976.0,403431.0,362851.0
2026-04-07 17:42:10.199997,145563,800596675,800598522,0.812032,-0.304512,-0.206912,14.14,-15.77625,15.408751,-11.232,-11.296001,15.400001,concentric,2,3.0,30190.0,396706.0,356976.0,403431.0,362851.0
2026-04-07 17:42:10.206997,145564,800605557,800607198,0.812032,-0.304512,-0.206912,13.37,-14.72625,14.21,-11.232,-11.296001,15.400001,concentric,2,3.0,30190.0,396706.0,356976.0,403431.0,362851.0
2026-04-07 17:42:10.231036,145574,800614659,800615974,0.778848,-0.279136,-0.150304,10.98125,-13.886251,13.685,-11.136001,-11.200001,15.136001,concentric,2,3.0,30777.0,401035.0,360981.0,403431.0,366204.0
2026-04-07 17:42:10.232677,145575,800629138,800630868,0.778848,-0.279136,-0.150304,11.935,-13.405,14.7175,-11.136001,-11.200001,15.136001,concentric,2,3.0,30777.0,401035.0,360981.0,403431.0,366204.0
2026-04-07 17:42:10.237119,145576,800638076,800639560,0.815936,-0.277184,-0.144448,12.66125,-13.7375,16.24,-12.256001,-11.400001,17.424002,concentric,2,3.0,30777.0,401035.0,360981.0,403431.0,366204.0
2026-04-07 17:42:10.242297,145577,800647022,800648276,0.815936,-0.277184,-0.144448,8.636251,-12.80125,15.5575,-12.256001,-11.400001,17.424002,concentric,2,3.0,30777.0,401035.0,360981.0,403431.0,366204.0
2026-04-07 17:42:10.272637,145578,800661511,800663216,0.782752,-0.31232,-0.1952,8.0675,-11.10375,15.60125,-11.776001,-10.584001,14.952001,concentric,2,3.0,30777.0,401035.0,360981.0,403431.0,366204.0
2026-04-07 17:42:10.274827,145579,800670417,800671917,0.782752,-0.31232,-0.1952,9.0475,-10.14125,15.75875,-11.776001,-10.584001,14.952001,concentric,2,3.0,30777.0,401035.0,360981.0,403431.0,366204.0
2026-04-07 17:42:10.278682,145580,800679346,800680625,0.804224,-0.296704,-0.18544,10.22,-9.835,13.7725,-10.928,-9.784,14.656001,concentric,2,3.0,30777.0,401035.0,360981.0,403431.0,366204.0
2026-04-07 17:42:10.280039,145581,800688264,800689344,0.804224,-0.296704,-0.18544,11.06875,-8.79375,11.6725,-10.928,-9.784,14.656001,concentric,2,3.0,30777.0,401035.0,360981.0,403431.0,366204.0
2026-04-07 17:42:10.311340,145582,800702755,800704224,0.831552,-0.329888,-0.203008,10.7975,-7.5425,10.185,-12.224001,-10.320001,16.216002,concentric,2,3.0,30777.0,401035.0,360981.0,403431.0,366204.0
2026-04-07 17:42:10.339866,145593,800712047,800713384,0.831552,-0.329888,-0.203008,8.26875,-5.64375,10.17625,-12.224001,-10.320001,16.216002,concentric,2,3.0,30927.0,401794.0,362272.0,403431.0,367357.0
2026-04-07 17:42:10.341398,145594,800721119,800722100,0.812032,-0.36112,-0.18544,8.81125,-3.68375,12.31125,-11.960001,-9.712001,14.840001,concentric,2,3.0,30927.0,401794.0,362272.0,403431.0,367357.0
2026-04-07 17:42:10.344870,145595,800735627,800737101,0.79056,-0.335744,-0.189344,5.95,-2.345,13.72,-11.864,-9.856001,14.848001,concentric,2,3.0,30927.0,401794.0,362272.0,403431.0,367357.0
2026-04-07 17:42:10.346711,145596,800744604,800745809,0.79056,-0.335744,-0.189344,4.50625,-0.525,13.79875,-11.864,-9.856001,14.848001,concentric,2,3.0,30927.0,401794.0,362272.0,403431.0,367357.0
2026-04-07 17:42:10.350571,145597,800753523,800754534,0.79056,-0.335744,-0.20496,5.43375,0.39375,13.55375,-11.864,-9.856001,14.848001,concentric,2,3.0,30927.0,401794.0,362272.0,403431.0,367357.0
2026-04-07 17:42:10.379092,145598,800768013,800769499,0.796416,-0.32208,-0.206912,4.33125,1.37375,12.60875,-12.448001,-9.200001,17.960001,concentric,2,3.0,30927.0,401794.0,362272.0,403431.0,367357.0
2026-04-07 17:42:10.415008,145599,800776923,800778195,0.804224,-0.339648,-0.216672,4.095,2.77375,9.6425,-12.096001,-8.936001,14.408001,concentric,2,3.0,30927.0,401794.0,362272.0,403431.0,367357.0
2026-04-07 17:42:10.417279,145600,800785840,800786922,0.804224,-0.339648,-0.216672,6.195,4.4275,6.04625,-12.096001,-8.936001,14.408001,concentric,2,3.0,30927.0,401794.0,362272.0,403431.0,367357.0
2026-04-07 17:42:10.421885,145601,800794756,800795599,0.798368,-0.353312,-0.206912,4.69,4.73375,6.125,-11.952001,-8.616,14.360001,concentric,2,3.0,30927.0,401794.0,362272.0,403431.0,367357.0
2026-04-07 17:42:10.423614,145602,800809237,800810493,0.798368,-0.353312,-0.206912,1.015,5.635,5.67,-11.952001,-8.616,14.360001,concentric,2,3.0,30927.0,401794.0,362272.0,403431.0,367357.0
2026-04-07 17:42:10.453336,145612,800818228,800819258,0.80032,-0.394304,-0.218624,2.065,5.9325,5.6875,-12.048,-8.576,14.656001,concentric,2,3.0,31493.0,403431.0,366165.0,403431.0,371053.0
2026-04-07 17:42:10.459218,145613,800827175,800827960,0.80032,-0.394304,-0.218624,2.66,7.1575,5.38125,-12.048,-8.576,14.656001,concentric,2,3.0,31493.0,403431.0,366165.0,403431.0,371053.0
2026-04-07 17:42:10.468152,145614,800841919,800842912,0.806176,-0.363072,-0.220576,1.84625,9.1,4.82125,-12.424001,-9.064,14.688001,concentric,2,3.0,31493.0,403431.0,366165.0,403431.0,371053.0
2026-04-07 17:42:10.471774,145615,800850927,800851667,0.806176,-0.363072,-0.220576,5.01375,10.42125,4.1825,-12.424001,-9.064,14.688001,concentric,2,3.0,31493.0,403431.0,366165.0,403431.0,371053.0
2026-04-07 17:42:10.472270,145616,800860282,800862449,0.79056,-0.32208,-0.226432,6.15125,10.6575,3.59625,-12.872001,-9.280001,14.472001,concentric,2,3.0,31493.0,403431.0,366165.0,403431.0,371053.0
2026-04-07 17:42:10.473887,145617,800869296,800871155,0.79056,-0.32208,-0.226432,6.32625,10.42125,2.30125,-12.872001,-9.280001,14.472001,concentric,2,3.0,31493.0,403431.0,366165.0,403431.0,371053.0
2026-04-07 17:42:10.478068,145618,800883835,800886130,0.802272,-0.32208,-0.212768,6.09875,9.79125,-1.16375,-13.216001,-8.656,14.736001,concentric,2,3.0,31493.0,403431.0,366165.0,403431.0,371053.0
2026-04-07 17:42:10.506708,145619,800892991,800894847,0.802272,-0.32208,-0.212768,7.72625,9.3275,-4.59375,-13.216001,-8.656,14.736001,concentric,2,3.0,31493.0,403431.0,366165.0,403431.0,371053.0
2026-04-07 17:42:10.511160,145620,800901949,800903540,0.813984,-0.36112,-0.183488,6.81625,9.84375,-5.25875,-13.432001,-9.344001,16.824001,concentric,2,3.0,31493.0,403431.0,366165.0,403431.0,371053.0
2026-04-07 17:42:10.544431,145630,800916541,800918499,0.79056,-0.366976,-0.18544,4.94375,11.8125,-5.69625,-13.744,-8.624001,14.632001,concentric,2,3.0,31835.0,403431.0,368638.0,403431.0,373396.0
2026-04-07 17:42:10.546137,145631,800925501,800927232,0.79056,-0.366976,-0.18544,5.67,14.46375,-6.8425,-13.744,-8.624001,14.632001,concentric,2,3.0,31835.0,403431.0,368638.0,403431.0,373396.0
2026-04-07 17:42:10.547678,145632,800934472,800935930,0.79056,-0.366976,-0.17568,8.1025,16.19625,-8.02375,-13.744,-8.624001,14.632001,concentric,2,3.0,31835.0,403431.0,368638.0,403431.0,373396.0
2026-04-07 17:42:10.551333,145633,800949013,800950857,0.817888,-0.374784,-0.17568,12.38125,17.33375,-6.69375,-13.704,-8.568001,13.64,concentric,2,3.0,31835.0,403431.0,368638.0,403431.0,373396.0
2026-04-07 17:42:10.553436,145634,800957989,800959556,0.81008,-0.31232,-0.121024,15.47,18.69,-8.32125,-13.576,-8.480001,14.936001,concentric,2,3.0,31835.0,403431.0,368638.0,403431.0,373396.0
2026-04-07 17:42:10.559261,145635,800966949,800968292,0.81008,-0.31232,-0.121024,18.31375,20.30875,-11.55,-13.576,-8.480001,14.936001,concentric,2,3.0,31835.0,403431.0,368638.0,403431.0,373396.0
2026-04-07 17:42:10.587954,145636,800975894,800977008,0.81008,-0.376736,-0.158112,19.425,21.83125,-11.54125,-13.784,-8.776,15.088,concentric,2,3.0,31835.0,403431.0,368638.0,403431.0,373396.0
2026-04-07 17:42:10.592533,145637,800990362,800991892,0.81008,-0.376736,-0.158112,17.33375,23.2225,-12.845,-13.784,-8.776,15.088,concentric,2,3.0,31835.0,403431.0,368638.0,403431.0,373396.0
2026-04-07 17:42:10.593919,145638,800999280,801000567,0.796416,-0.320128,-0.173728,19.25,23.86125,-13.685,-13.976001,-9.064,15.432001,concentric,2,3.0,31835.0,403431.0,368638.0,403431.0,373396.0
2026-04-07 17:42:10.600721,145639,801008219,801009376,0.796416,-0.320128,-0.173728,19.4425,23.9925,-15.085,-13.976001,-9.064,15.432001,concentric,2,3.0,31835.0,403431.0,368638.0,403431.0,373396.0
2026-04-07 17:42:10.626486,145650,801022808,801024367,0.856928,-0.286944,-0.152256,13.71125,22.70625,-17.815,-14.880001,-8.68,17.688002,concentric,2,3.0,31913.0,403431.0,369104.0,403431.0,373543.0
2026-04-07 17:42:10.630997,145651,801031783,801033121,0.856928,-0.286944,-0.152256,8.56625,22.07625,-18.29625,-14.880001,-8.68,17.688002,concentric,2,3.0,31913.0,403431.0,369104.0,403431.0,373543.0
2026-04-07 17:42:10.633580,145652,801040744,801041845,0.80032,-0.386496,-0.134688,10.5525,21.55125,-18.38375,-14.944,-8.416,17.272001,concentric,2,3.0,31913.0,403431.0,369104.0,403431.0,373543.0
2026-04-07 17:42:10.666215,145653,801055270,801056811,0.80032,-0.284992,-0.081984,15.35625,21.805,-20.44875,-14.944,-8.416,17.272001,concentric,2,3.0,31913.0,403431.0,369104.0,403431.0,373543.0
2026-04-07 17:42:10.674449,145654,801064221,801065551,0.864736,-0.284992,-0.081984,21.175,20.3875,-21.16625,-15.064001,-9.064,17.36,concentric,2,3.0,31913.0,403431.0,369104.0,403431.0,373543.0
2026-04-07 17:42:10.676881,145655,801073160,801074239,0.864736,-0.284992,-0.081984,22.58375,20.16875,-15.785,-15.064001,-9.064,17.36,concentric,2,3.0,31913.0,403431.0,369104.0,403431.0,373543.0
2026-04-07 17:42:10.680958,145656,801087623,801089112,0.835456,-0.277184,-0.113216,16.21375,18.31375,-19.08375,-15.56,-8.744,15.936001,concentric,2,3.0,31913.0,403431.0,369104.0,403431.0,373543.0
2026-04-07 17:42:10.716353,145657,801096576,801097811,0.845216,-0.345504,-0.081984,12.81875,16.8525,-21.02625,-15.408001,-8.744,17.560001,concentric,2,3.0,31913.0,403431.0,369104.0,403431.0,373543.0
2026-04-07 17:42:10.718541,145658,801105568,801106506,0.845216,-0.345504,-0.081984,12.425,15.505,-24.395,-15.408001,-8.744,17.560001,concentric,2,3.0,31913.0,403431.0,369104.0,403431.0,373543.0
2026-04-07 17:42:10.748717,145668,801114912,801115585,0.845216,-0.345504,-0.081984,13.877501,13.97375,-26.46875,-15.408001,-8.744,17.560001,concentric,2,3.0,30682.0,401332.0,361833.0,403431.0,366807.0
2026-04-07 17:42:10.750165,145669,801129813,801130511,0.901824,-0.343552,-0.093696,17.7275,14.23625,-27.475,-15.192,-8.328,16.344,concentric,2,3.0,30682.0,401332.0,361833.0,403431.0,366807.0
2026-04-07 17:42:10.753640,145670,801139131,801141299,0.890112,-0.294752,-0.033184,17.325,14.035,-27.48375,-15.832001,-9.016001,16.512001,concentric,2,3.0,30682.0,401332.0,361833.0,403431.0,366807.0
2026-04-07 17:42:10.755166,145671,801148039,801149991,0.890112,-0.294752,-0.033184,18.165,13.08125,-26.8625,-15.832001,-9.016001,16.512001,concentric,2,3.0,30682.0,401332.0,361833.0,403431.0,366807.0
2026-04-07 17:42:10.758419,145672,801157126,801158735,0.933056,-0.296704,-0.072224,20.86875,10.465,-27.30875,-15.984001,-9.552,14.712001,concentric,2,3.0,30682.0,401332.0,361833.0,403431.0,366807.0
2026-04-07 17:42:10.764317,145673,801171705,801173708,0.933056,-0.296704,-0.072224,20.8075,9.52,-29.2775,-15.984001,-9.552,14.712001,concentric,2,3.0,30682.0,401332.0,361833.0,403431.0,366807.0
2026-04-07 17:42:10.792745,145674,801180630,801182408,0.976,-0.320128,-0.060512,19.005,8.75875,-29.23375,-16.216002,-9.976001,17.976002,concentric,2,3.0,30682.0,401332.0,361833.0,403431.0,366807.0
2026-04-07 17:42:10.813209,145675,801189576,801191093,0.976,-0.320128,-0.060512,18.69,8.54875,-26.3375,-16.216002,-9.976001,17.976002,concentric,2,3.0,30682.0,401332.0,361833.0,403431.0,366807.0
2026-04-07 17:42:10.814941,145676,801204056,801205965,0.870592,-0.3904,-0.105408,18.8125,9.555,-25.13,-16.392,-9.752001,16.92,concentric,2,3.0,30682.0,401332.0,361833.0,403431.0,366807.0
2026-04-07 17:42:10.842348,145686,801212967,801214643,0.870592,-0.3904,-0.105408,15.09375,11.29625,-25.64625,-16.392,-9.752001,16.92,concentric,2,3.0,30336.0,399510.0,359859.0,403431.0,365108.0
2026-04-07 17:42:10.843918,145687,801222475,801223337,0.952576,-0.232288,-0.040992,15.855001,10.78875,-22.75875,-16.328001,-9.704,16.944,concentric,2,3.0,30336.0,399510.0,359859.0,403431.0,365108.0
2026-04-07 17:42:10.848198,145688,801236953,801238260,0.89792,-0.284992,-0.054656,17.21125,11.2,-21.35875,-15.720001,-9.184,16.84,concentric,2,3.0,30336.0,399510.0,359859.0,403431.0,365108.0
2026-04-07 17:42:10.849890,145689,801245880,801247021,0.89792,-0.284992,-0.054656,12.705,11.20875,-19.565,-15.720001,-9.184,16.84,concentric,2,3.0,30336.0,399510.0,359859.0,403431.0,365108.0
2026-04-07 17:42:10.851430,145690,801254852,801255733,0.89792,-0.284992,-0.054656,6.5625,11.1825,-16.3625,-15.720001,-9.184,16.84,concentric,2,3.0,30336.0,399510.0,359859.0,403431.0,365108.0
2026-04-07 17:42:10.855567,145691,801263755,801264529,0.944768,-0.32208,-0.064416,6.86,10.84125,-16.24875,-16.168001,-9.544001,18.136002,concentric,2,3.0,30336.0,399510.0,359859.0,403431.0,365108.0
2026-04-07 17:42:10.884157,145692,801278777,801279450,0.935008,-0.261568,-0.089792,6.78125,9.9575,-15.085,-16.800001,-9.888001,16.84,concentric,2,3.0,30336.0,399510.0,359859.0,403431.0,365108.0
2026-04-07 17:42:10.888612,145693,801288054,801290229,0.935008,-0.261568,-0.089792,4.5675,9.17,-13.86875,-16.800001,-9.888001,16.84,concentric,2,3.0,30336.0,399510.0,359859.0,403431.0,365108.0
2026-04-07 17:42:10.890912,145694,801297026,801298887,0.93696,-0.28304,-0.081984,0.385,7.6125,-14.0175,-16.912,-9.752001,17.08,concentric,2,3.0,30336.0,399510.0,359859.0,403431.0,365108.0
2026-04-07 17:42:10.897970,145695,801305998,801307614,0.93696,-0.28304,-0.081984,-3.885,6.6325,-12.573751,-16.912,-9.752001,17.08,concentric,2,3.0,30336.0,399510.0,359859.0,403431.0,365108.0
2026-04-07 17:42:10.953645,145706,801320539,801320878,0.903776,-0.279136,-0.101504,-5.5825,4.80375,-11.41875,-16.584002,-9.744,17.024,concentric,2,3.0,29700.0,394757.0,356038.0,403431.0,362023.0
2026-04-07 17:42:10.955141,145707,801329817,801331658,0.903776,-0.279136,-0.101504,-6.3175,3.4825,-10.66625,-16.584002,-9.744,17.024,concentric,2,3.0,29700.0,394757.0,356038.0,403431.0,362023.0
2026-04-07 17:42:10.958609,145708,801338750,801340379,0.929152,-0.290848,-0.089792,-7.07,1.26875,-9.59,-16.568,-9.768001,17.240002,concentric,2,3.0,29700.0,394757.0,356038.0,403431.0,362023.0
2026-04-07 17:42:10.960156,145709,801353210,801355324,0.929152,-0.290848,-0.089792,-5.775,-0.63875,-7.04375,-16.568,-9.768001,17.240002,concentric,2,3.0,29700.0,394757.0,356038.0,403431.0,362023.0
2026-04-07 17:42:10.964394,145710,801362159,801364154,0.915488,-0.255712,-0.099552,-4.6025,-1.98625,-6.55375,-17.320002,-10.216001,17.712,concentric,2,3.0,29700.0,394757.0,356038.0,403431.0,362023.0
2026-04-07 17:42:10.965987,145711,801371117,801372868,0.915488,-0.255712,-0.099552,-6.3525,-3.9025,-7.0525,-17.320002,-10.216001,17.712,concentric,2,3.0,29700.0,394757.0,356038.0,403431.0,362023.0
2026-04-07 17:42:11.016382,145712,801385606,801387817,0.935008,-0.26352,-0.085888,-9.77375,-5.3725,-6.37,-17.016,-9.616,16.784,concentric,2,3.0,29700.0,394757.0,356038.0,403431.0,362023.0
2026-04-07 17:42:11.018922,145713,801394545,801396514,0.935008,-0.26352,-0.085888,-14.4375,-6.7725,-6.48375,-17.016,-9.616,16.784,concentric,2,3.0,29700.0,394757.0,356038.0,403431.0,362023.0
2026-04-07 17:42:11.027311,145714,801403490,801405224,0.929152,-0.308416,-0.099552,-14.875,-8.40875,-6.02,-16.256,-9.928,17.048,concentric,2,3.0,29700.0,394757.0,356038.0,403431.0,362023.0
2026-04-07 17:42:11.054407,145724,801418322,801420211,0.954528,-0.275232,-0.105408,-14.11375,-9.4325,-4.31375,-16.568,-9.776,16.408,concentric,2,3.0,30161.0,397897.0,358449.0,403431.0,364396.0
2026-04-07 17:42:11.056807,145725,801427287,801428955,0.954528,-0.275232,-0.105408,-13.055,-9.9925,-3.36875,-16.568,-9.776,16.408,concentric,2,3.0,30161.0,397897.0,358449.0,403431.0,364396.0
2026-04-07 17:42:11.057615,145726,801436243,801437635,0.954528,-0.275232,-0.105408,-13.0025,-10.3075,-2.00375,-16.568,-9.776,16.408,concentric,2,3.0,30161.0,397897.0,358449.0,403431.0,364396.0
2026-04-07 17:42:11.061138,145727,801445208,801446384,0.95648,-0.294752,-0.128832,-12.845,-10.255,-1.33,-16.392,-10.504001,15.816001,concentric,2,3.0,30161.0,397897.0,358449.0,403431.0,364396.0
2026-04-07 17:42:11.062662,145728,801459794,801461409,0.968192,-0.30256,-0.142496,-15.26875,-10.87625,-0.3675,-16.232,-9.440001,16.312,concentric,2,3.0,30161.0,397897.0,358449.0,403431.0,364396.0
2026-04-07 17:42:11.065120,145729,801468722,801470159,0.968192,-0.30256,-0.142496,-15.8375,-10.7625,0.5775,-16.232,-9.440001,16.312,concentric,2,3.0,30161.0,397897.0,358449.0,403431.0,364396.0
2026-04-07 17:42:11.070920,145730,801477650,801478854,0.952576,-0.306464,-0.163968,-15.0325,-10.61375,1.2425,-16.656,-9.872001,16.056002,concentric,2,3.0,30161.0,397897.0,358449.0,403431.0,364396.0
2026-04-07 17:42:11.102535,145731,801492137,801493757,0.952576,-0.306464,-0.163968,-15.015,-10.8675,1.51375,-16.656,-9.872001,16.056002,concentric,2,3.0,30161.0,397897.0,358449.0,403431.0,364396.0
2026-04-07 17:42:11.107383,145732,801501050,801502503,0.940864,-0.32208,-0.181536,-14.0175,-11.27,2.205,-15.856001,-10.136001,16.28,concentric,2,3.0,30161.0,397897.0,358449.0,403431.0,364396.0
2026-04-07 17:42:11.109562,145733,801509953,801511204,0.940864,-0.32208,-0.181536,-14.5775,-11.13,1.60125,-15.856001,-10.136001,16.28,concentric,2,3.0,30161.0,397897.0,358449.0,403431.0,364396.0
2026-04-07 17:42:11.167337,145743,801524471,801526251,0.942816,-0.308416,-0.183488,-13.1075,-10.85,2.2575,-16.528,-10.344001,15.752001,concentric,2,3.0,30771.0,401593.0,362214.0,403431.0,367575.0
2026-04-07 17:42:11.168841,145744,801533387,801534982,0.942816,-0.308416,-0.183488,-10.9025,-10.00125,2.87875,-16.528,-10.344001,15.752001,concentric,2,3.0,30771.0,401593.0,362214.0,403431.0,367575.0
2026-04-07 17:42:11.173128,145745,801542322,801543671,0.935008,-0.314272,-0.1952,-9.4675,-8.74125,2.345,-16.2,-9.736,15.584001,concentric,2,3.0,30771.0,401593.0,362214.0,403431.0,367575.0
2026-04-07 17:42:11.174870,145746,801551231,801552366,0.935008,-0.314272,-0.1952,-8.6275,-8.02375,1.54875,-16.2,-9.736,15.584001,concentric,2,3.0,30771.0,401593.0,362214.0,403431.0,367575.0
2026-04-07 17:42:11.176607,145747,801565768,801567277,0.954528,-0.310368,-0.20496,-6.46625,-7.5775,1.54875,-15.64,-9.592,15.864,concentric,2,3.0,30771.0,401593.0,362214.0,403431.0,367575.0
2026-04-07 17:42:11.180634,145748,801574693,801576022,0.954528,-0.310368,-0.20496,-4.235,-7.39375,1.9775,-15.64,-9.592,15.864,concentric,2,3.0,30771.0,401593.0,362214.0,403431.0,367575.0
2026-04-07 17:42:11.182232,145749,801583666,801584739,0.944768,-0.304512,-0.212768,-4.2875,-7.07875,2.98375,-16.376001,-10.496,17.344002,concentric,2,3.0,30771.0,401593.0,362214.0,403431.0,367575.0
2026-04-07 17:42:11.212475,145750,801598191,801599630,0.950624,-0.327936,-0.203008,-4.6025,-6.755,4.50625,-16.240002,-10.056001,17.024,concentric,2,3.0,30771.0,401593.0,362214.0,403431.0,367575.0
2026-04-07 17:42:11.216958,145751,801607133,801608295,0.950624,-0.327936,-0.203008,-4.34,-6.545,4.36625,-16.240002,-10.056001,17.024,concentric,2,3.0,30771.0,401593.0,362214.0,403431.0,367575.0
2026-04-07 17:42:11.241907,145761,801616070,801617026,0.950624,-0.327936,-0.203008,-4.025,-6.7725,5.22375,-16.240002,-10.056001,17.024,concentric,2,3.0,31176.0,403133.0,364740.0,403431.0,369895.0
2026-04-07 17:42:11.243737,145762,801630614,801631918,0.950624,-0.294752,-0.201056,-3.22875,-5.60875,6.755,-15.688001,-9.856001,16.992,concentric,2,3.0,31176.0,403133.0,364740.0,403431.0,369895.0
2026-04-07 17:42:11.245389,145763,801639610,801640717,0.95648,-0.32208,-0.218624,-2.8875,-5.1625,6.71125,-15.920001,-9.808001,16.424002,concentric,2,3.0,31176.0,403133.0,364740.0,403431.0,369895.0
2026-04-07 17:42:11.249402,145764,801648587,801649469,0.95648,-0.32208,-0.218624,-3.0275,-5.39,6.44875,-15.920001,-9.808001,16.424002,concentric,2,3.0,31176.0,403133.0,364740.0,403431.0,369895.0
2026-04-07 17:42:11.251085,145765,801657525,801658208,0.95648,-0.353312,-0.21472,-2.72125,-5.83625,6.1775,-15.920001,-9.808001,16.424002,concentric,2,3.0,31176.0,403133.0,364740.0,403431.0,369895.0
2026-04-07 17:42:11.316335,145766,801672501,801673129,0.942816,-0.347456,-0.21472,-1.05,-6.23875,6.5625,-15.208001,-9.68,18.912,concentric,2,3.0,31176.0,403133.0,364740.0,403431.0,369895.0
2026-04-07 17:42:11.318528,145767,801681753,801683970,0.935008,-0.327936,-0.20496,0.62125,-7.14,7.14875,-15.232,-9.240001,15.088,concentric,2,3.0,31176.0,403133.0,364740.0,403431.0,369895.0
2026-04-07 17:42:11.326942,145768,801690671,801692701,0.935008,-0.327936,-0.20496,2.275,-7.32375,8.11125,-15.232,-9.240001,15.088,concentric,2,3.0,31176.0,403133.0,364740.0,403431.0,369895.0
2026-04-07 17:42:11.328716,145769,801705207,801705565,0.933056,-0.347456,-0.212768,3.26375,-7.42,7.385,-15.224001,-8.896001,15.328001,concentric,2,3.0,31176.0,403133.0,364740.0,403431.0,369895.0
2026-04-07 17:42:11.360683,145780,801714457,801716676,0.933056,-0.347456,-0.212768,4.27875,-7.09625,6.4925,-15.224001,-8.896001,15.328001,concentric,2,3.0,31358.0,403431.0,365848.0,403431.0,370862.0
2026-04-07 17:42:11.362464,145781,801723423,801725385,0.919392,-0.333792,-0.212768,4.76,-7.00875,5.57375,-15.128,-9.512,15.048,concentric,2,3.0,31358.0,403431.0,365848.0,403431.0,370862.0
2026-04-07 17:42:11.363885,145782,801732412,801734079,0.919392,-0.333792,-0.212768,6.265,-5.80125,5.34625,-15.128,-9.512,15.048,concentric,2,3.0,31358.0,403431.0,365848.0,403431.0,370862.0
