pc_time,serial_num,sensor_ts,host_ts,ax,ay,az,gx,gy,gz,mx,my,mz,phase,rpe,weight_kg,ppg_a,ppg_b,ppg_c,ppg_d,ppg_e
2026-04-07 17:42:17.229418,146874,807616497,807618337,0.98576,-0.251808,-0.187392,9.3625,-7.7875,9.7475,-16.304,-12.656,18.528002,eccentric,2,3.0,29375.0,390866.0,352359.0,403431.0,358939.0
2026-04-07 17:42:17.232136,146875,807625405,807627031,0.977952,-0.236192,-0.189344,8.995,-6.2475,10.815,-15.984001,-12.392,17.408,eccentric,2,3.0,29375.0,390866.0,352359.0,403431.0,358939.0
2026-04-07 17:42:17.233509,146876,807634373,807635738,0.977952,-0.236192,-0.189344,7.72625,-5.775,10.84125,-15.984001,-12.392,17.408,eccentric,2,3.0,29375.0,390866.0,352359.0,403431.0,358939.0
2026-04-07 17:42:17.324827,146887,807649288,807650692,1.01504,-0.271328,-0.18544,7.58625,-5.425,10.59625,-15.888001,-12.072001,17.976002,eccentric,2,3.0,30013.0,395944.0,356553.0,403431.0,362281.0
2026-04-07 17:42:17.327330,146888,807658290,807659491,1.01504,-0.271328,-0.18544,7.02625,-5.53,10.87625,-15.888001,-12.072001,17.976002,eccentric,2,3.0,30013.0,395944.0,356553.0,403431.0,362281.0
2026-04-07 17:42:17.328863,146889,807667254,807668188,1.009184,-0.251808,-0.1952,7.2625,-5.22375,11.2525,-15.616001,-12.400001,17.176,eccentric,2,3.0,30013.0,395944.0,356553.0,403431.0,362281.0
2026-04-07 17:42:17.333175,146890,807681953,807683111,1.009184,-0.251808,-0.1952,6.1075,-4.9875,10.823751,-15.616001,-12.400001,17.176,eccentric,2,3.0,30013.0,395944.0,356553.0,403431.0,362281.0
2026-04-07 17:42:17.334904,146891,807691103,807691983,0.981856,-0.27328,-0.183488,5.38125,-5.11,10.2375,-15.792001,-11.888001,17.640001,eccentric,2,3.0,30013.0,395944.0,356553.0,403431.0,362281.0
2026-04-07 17:42:17.336589,146892,807700052,807700698,0.981856,-0.27328,-0.183488,7.16625,-4.55875,10.71,-15.792001,-11.888001,17.640001,eccentric,2,3.0,30013.0,395944.0,356553.0,403431.0,362281.0
2026-04-07 17:42:17.344395,146893,807709326,807711457,0.940864,-0.279136,-0.167872,8.7325,-3.82375,10.80625,-14.960001,-12.248,16.864,eccentric,2,3.0,30013.0,395944.0,356553.0,403431.0,362281.0
2026-04-07 17:42:17.346094,146894,807723845,807724323,0.909632,-0.238144,-0.150304,11.69,-2.3275,10.78875,-15.296001,-11.312,17.808,eccentric,2,3.0,30013.0,395944.0,356553.0,403431.0,362281.0
2026-04-07 17:42:17.348096,146895,807733270,807735153,0.909632,-0.238144,-0.150304,14.6125,-0.48125,11.29625,-15.296001,-11.312,17.808,eccentric,2,3.0,30013.0,395944.0,356553.0,403431.0,362281.0
2026-04-07 17:42:17.351987,146896,807742278,807743885,0.909632,-0.238144,-0.150304,15.575,1.19875,12.41625,-15.296001,-11.312,17.808,eccentric,2,3.0,30013.0,395944.0,356553.0,403431.0,362281.0
2026-04-07 17:42:17.376863,146906,807751767,807752717,0.874496,-0.25376,-0.150304,12.55625,1.7325,12.08375,-14.728001,-11.752001,15.016001,eccentric,2,3.0,30215.0,397381.0,357664.0,403431.0,363074.0
2026-04-07 17:42:17.378615,146907,807766343,807767736,0.864736,-0.269376,-0.150304,10.94625,3.36875,11.4275,-14.920001,-11.456,18.088001,eccentric,2,3.0,30215.0,397381.0,357664.0,403431.0,363074.0
2026-04-07 17:42:17.380171,146908,807775462,807776448,0.864736,-0.269376,-0.150304,11.76,5.04,12.2675,-14.920001,-11.456,18.088001,eccentric,2,3.0,30215.0,397381.0,357664.0,403431.0,363074.0
2026-04-07 17:42:17.384239,146909,807784528,807785191,0.85888,-0.242048,-0.152256,13.25625,5.94125,12.0575,-14.776001,-10.944,18.392,eccentric,2,3.0,30215.0,397381.0,357664.0,403431.0,363074.0
2026-04-07 17:42:17.393147,146910,807793900,807796012,0.85888,-0.242048,-0.152256,13.46625,7.1925,10.91125,-14.776001,-10.944,18.392,eccentric,2,3.0,30215.0,397381.0,357664.0,403431.0,363074.0
2026-04-07 17:42:17.421665,146911,807808486,807808870,0.841312,-0.245952,-0.140544,12.6,8.93375,9.54625,-14.824,-11.272,17.048,eccentric,2,3.0,30215.0,397381.0,357664.0,403431.0,363074.0
2026-04-07 17:42:17.426097,146912,807817750,807819631,0.841312,-0.245952,-0.140544,10.15875,10.15875,8.8025,-14.824,-11.272,17.048,eccentric,2,3.0,30215.0,397381.0,357664.0,403431.0,363074.0
2026-04-07 17:42:17.427643,146913,807826665,807828315,0.833504,-0.257664,-0.130784,7.90125,10.94625,8.02375,-14.272,-11.136001,17.192001,eccentric,2,3.0,30215.0,397381.0,357664.0,403431.0,363074.0
2026-04-07 17:42:17.435583,146914,807841276,807843228,0.833504,-0.257664,-0.130784,5.53875,11.62875,6.8775,-14.272,-11.136001,17.192001,eccentric,2,3.0,30215.0,397381.0,357664.0,403431.0,363074.0
2026-04-07 17:42:17.489431,146924,807850525,807851942,0.825696,-0.271328,-0.150304,5.3725,11.6375,5.8625,-15.152,-10.968,18.528002,eccentric,2,3.0,30011.0,395727.0,356176.0,403431.0,361778.0
2026-04-07 17:42:17.491079,146925,807859571,807860637,0.825696,-0.271328,-0.150304,5.3025,11.725,3.94625,-15.152,-10.968,18.528002,eccentric,2,3.0,30011.0,395727.0,356176.0,403431.0,361778.0
2026-04-07 17:42:17.493093,146926,807868485,807869357,0.831552,-0.265472,-0.144448,3.64875,11.57625,2.31,-14.512001,-10.984,17.224,eccentric,2,3.0,30011.0,395727.0,356176.0,403431.0,361778.0
2026-04-07 17:42:17.496853,146927,807882988,807884275,0.831552,-0.265472,-0.144448,3.26375,12.18,0.56,-14.512001,-10.984,17.224,eccentric,2,3.0,30011.0,395727.0,356176.0,403431.0,361778.0
2026-04-07 17:42:17.498630,146928,807892016,807893035,0.833504,-0.277184,-0.142496,3.78,11.96125,-1.67125,-14.736001,-11.224001,18.784,eccentric,2,3.0,30011.0,395727.0,356176.0,403431.0,361778.0
2026-04-07 17:42:17.500202,146929,807900912,807901786,0.833504,-0.277184,-0.142496,4.03375,11.50625,-3.68375,-14.736001,-11.224001,18.784,eccentric,2,3.0,30011.0,395727.0,356176.0,403431.0,361778.0
2026-04-07 17:42:17.507324,146930,807915440,807916746,0.84912,-0.28304,-0.115168,5.03125,11.80375,-5.53875,-14.024001,-11.176001,17.424002,eccentric,2,3.0,30011.0,395727.0,356176.0,403431.0,361778.0
2026-04-07 17:42:17.533224,146931,807924374,807925463,0.813984,-0.275232,-0.12688,6.3525,11.92625,-6.6325,-14.024001,-11.176001,18.168001,eccentric,2,3.0,30011.0,395727.0,356176.0,403431.0,361778.0
2026-04-07 17:42:17.534707,146932,807933302,807934169,0.813984,-0.275232,-0.12688,5.31125,12.32875,-8.1025,-13.272,-10.768001,18.168001,eccentric,2,3.0,30011.0,395727.0,356176.0,403431.0,361778.0
2026-04-07 17:42:17.540452,146933,807947761,807949080,0.83936,-0.2928,-0.113216,3.7625,13.440001,-8.5225,-13.392,-10.944,17.240002,eccentric,2,3.0,30011.0,395727.0,356176.0,403431.0,361778.0
2026-04-07 17:42:17.568369,146944,807956770,807957883,0.83936,-0.2928,-0.113216,3.745,14.91875,-10.01,-13.392,-10.944,17.240002,eccentric,2,3.0,29907.0,394885.0,355461.0,403431.0,361204.0
2026-04-07 17:42:17.602546,146945,807965732,807966639,0.813984,-0.271328,-0.1464,4.3575,16.82625,-11.61125,-14.216001,-11.000001,19.712002,eccentric,2,3.0,29907.0,394885.0,355461.0,403431.0,361204.0
2026-04-07 17:42:17.604713,146946,807980293,807981560,0.813984,-0.271328,-0.1464,6.265,18.47125,-12.5475,-14.216001,-11.000001,19.712002,eccentric,2,3.0,29907.0,394885.0,355461.0,403431.0,361204.0
2026-04-07 17:42:17.609362,146947,807989231,807990297,0.802272,-0.25376,-0.119072,7.32375,20.0025,-14.49875,-13.912001,-11.064,20.2,eccentric,2,3.0,29907.0,394885.0,355461.0,403431.0,361204.0
2026-04-07 17:42:17.611044,146948,807998137,807998983,0.802272,-0.25376,-0.119072,6.8775,20.93875,-15.07625,-13.912001,-11.064,20.2,eccentric,2,3.0,29907.0,394885.0,355461.0,403431.0,361204.0
2026-04-07 17:42:17.612625,146949,808007059,808007724,0.776896,-0.249856,-0.0976,3.64875,21.25375,-15.53125,-13.512001,-11.448001,18.28,eccentric,2,3.0,29907.0,394885.0,355461.0,403431.0,361204.0
2026-04-07 17:42:17.621748,146950,808021990,808022667,0.776896,-0.249856,-0.0976,2.26625,21.84875,-15.2075,-13.512001,-11.448001,18.28,eccentric,2,3.0,29907.0,394885.0,355461.0,403431.0,361204.0
2026-04-07 17:42:17.625509,146951,808031435,808033474,0.776896,-0.269376,-0.140544,1.81125,21.3675,-15.3475,-13.296001,-11.960001,18.0,eccentric,2,3.0,29907.0,394885.0,355461.0,403431.0,361204.0
2026-04-07 17:42:17.654152,146952,808040429,808042191,0.776896,-0.269376,-0.140544,1.54,20.93875,-16.9575,-13.296001,-11.960001,18.0,eccentric,2,3.0,29907.0,394885.0,355461.0,403431.0,361204.0
2026-04-07 17:42:17.658599,146953,808049349,808050874,0.767136,-0.236192,-0.089792,2.28375,21.8225,-17.0625,-13.920001,-11.544001,18.504002,eccentric,2,3.0,29907.0,394885.0,355461.0,403431.0,361204.0
2026-04-07 17:42:17.686399,146963,808063848,808065824,0.767136,-0.236192,-0.089792,3.99875,22.5925,-17.03625,-13.920001,-11.544001,18.504002,eccentric,2,3.0,29278.0,389797.0,351312.0,403431.0,357498.0
2026-04-07 17:42:17.690606,146964,808072864,808074547,0.774944,-0.216672,-0.119072,2.93125,22.75,-18.61125,-12.624001,-11.888001,19.632002,eccentric,2,3.0,29278.0,389797.0,351312.0,403431.0,357498.0
2026-04-07 17:42:17.692319,146965,808081810,808083284,0.774944,-0.216672,-0.119072,1.56625,23.8,-19.29375,-12.624001,-11.888001,19.632002,eccentric,2,3.0,29278.0,389797.0,351312.0,403431.0,357498.0
2026-04-07 17:42:17.693885,146966,808096313,808098197,0.774944,-0.228384,-0.12688,0.1225,24.5175,-18.57625,-12.728001,-11.704,18.432001,eccentric,2,3.0,29278.0,389797.0,351312.0,403431.0,357498.0
2026-04-07 17:42:17.699254,146967,808105242,808106924,0.786656,-0.247904,-0.083936,-2.72125,24.24625,-18.8125,-12.728001,-12.584001,20.576,eccentric,2,3.0,29278.0,389797.0,351312.0,403431.0,357498.0
2026-04-07 17:42:17.730118,146968,808114173,808115614,0.786656,-0.247904,-0.083936,-3.84125,24.1675,-20.09,-13.744,-12.584001,20.576,eccentric,2,3.0,29278.0,389797.0,351312.0,403431.0,357498.0
2026-04-07 17:42:17.732324,146969,808128711,808130586,0.792512,-0.23424,-0.103456,-2.65125,24.6225,-20.36125,-12.784,-12.184001,19.008001,eccentric,2,3.0,29278.0,389797.0,351312.0,403431.0,357498.0
2026-04-07 17:42:17.736863,146970,808137607,808139311,0.792512,-0.23424,-0.103456,-2.905,24.5875,-19.94125,-12.784,-12.184001,19.008001,eccentric,2,3.0,29278.0,389797.0,351312.0,403431.0,357498.0
2026-04-07 17:42:17.740888,146971,808146505,808148045,0.794464,-0.218624,-0.11712,-4.71625,24.6575,-20.53625,-12.472,-13.256001,22.296001,eccentric,2,3.0,29278.0,389797.0,351312.0,403431.0,357498.0
2026-04-07 17:42:17.770157,146981,808161106,808163058,0.794464,-0.218624,-0.11712,-5.1275,24.61375,-19.95875,-12.472,-13.256001,22.296001,eccentric,2,3.0,28705.0,385119.0,347546.0,403431.0,354399.0
2026-04-07 17:42:17.774347,146982,808170081,808171899,0.80032,-0.230336,-0.093696,-5.145,24.38625,-20.772501,-13.240001,-13.480001,20.672,eccentric,2,3.0,28705.0,385119.0,347546.0,403431.0,354399.0
2026-04-07 17:42:17.776802,146983,808179007,808180591,0.80032,-0.230336,-0.093696,-4.57625,24.255,-21.8225,-13.240001,-13.480001,20.672,eccentric,2,3.0,28705.0,385119.0,347546.0,403431.0,354399.0
2026-04-07 17:42:17.780888,146984,808188025,808189280,0.815936,-0.22448,-0.091744,-3.80625,24.00125,-22.32125,-13.488001,-13.64,20.696001,eccentric,2,3.0,28705.0,385119.0,347546.0,403431.0,354399.0
2026-04-07 17:42:17.811261,146985,808202501,808204187,0.815936,-0.22448,-0.091744,-4.025,24.0275,-23.31875,-13.488001,-13.64,20.696001,eccentric,2,3.0,28705.0,385119.0,347546.0,403431.0,354399.0
2026-04-07 17:42:17.813585,146986,808211428,808212902,0.806176,-0.181536,-0.074176,-4.0775,24.535,-23.66,-12.048,-13.424001,19.640001,eccentric,2,3.0,28705.0,385119.0,347546.0,403431.0,354399.0
2026-04-07 17:42:17.818155,146987,808220352,808221591,0.806176,-0.181536,-0.074176,-4.12125,24.535,-23.89625,-12.048,-13.424001,19.640001,eccentric,2,3.0,28705.0,385119.0,347546.0,403431.0,354399.0
2026-04-07 17:42:17.846554,146988,808234841,808236543,0.806176,-0.216672,-0.07808,-7.455,24.42125,-26.460001,-12.504001,-13.344001,19.752,eccentric,2,3.0,28705.0,385119.0,347546.0,403431.0,354399.0
2026-04-07 17:42:17.851127,146989,808243746,808245232,0.806176,-0.216672,-0.07808,-5.705,24.1325,-27.74625,-12.504001,-13.344001,19.752,eccentric,2,3.0,28705.0,385119.0,347546.0,403431.0,354399.0
2026-04-07 17:42:17.910429,147000,808252744,808253864,0.798368,-0.222528,-0.101504,-4.655,22.8025,-27.39625,-12.624001,-13.808001,17.912,eccentric,2,3.0,28110.0,380260.0,343655.0,403431.0,351633.0
2026-04-07 17:42:17.914386,147001,808267252,808268824,0.80032,-0.173728,-0.033184,-5.355,21.58625,-28.07875,-12.512001,-14.440001,21.592001,eccentric,2,3.0,28110.0,380260.0,343655.0,403431.0,351633.0
2026-04-07 17:42:17.916045,147002,808276284,808277598,0.80032,-0.173728,-0.033184,-4.15625,20.88625,-29.303751,-12.512001,-14.440001,21.592001,eccentric,2,3.0,28110.0,380260.0,343655.0,403431.0,351633.0
2026-04-07 17:42:17.917613,147003,808285316,808286323,0.80032,-0.173728,-0.060512,-0.4725,21.28,-28.90125,-12.512001,-14.440001,21.592001,eccentric,2,3.0,28110.0,380260.0,343655.0,403431.0,351633.0
2026-04-07 17:42:17.921055,147004,808299774,808301237,0.808128,-0.183488,-0.060512,0.1925,21.06125,-30.598751,-12.880001,-14.464001,20.608002,eccentric,2,3.0,28110.0,380260.0,343655.0,403431.0,351633.0
2026-04-07 17:42:17.922616,147005,808308662,808309905,0.796416,-0.191296,-0.07808,-1.3825,20.69375,-32.97,-12.168,-15.120001,20.312,eccentric,2,3.0,28110.0,380260.0,343655.0,403431.0,351633.0
2026-04-07 17:42:17.926084,147006,808317579,808318667,0.796416,-0.191296,-0.07808,1.54875,19.92375,-32.90875,-12.168,-15.120001,20.312,eccentric,2,3.0,28110.0,380260.0,343655.0,403431.0,351633.0
2026-04-07 17:42:17.927603,147007,808326556,808327373,0.796416,-0.210816,-0.040992,2.07375,18.34875,-32.2,-12.768001,-15.608001,22.656,eccentric,2,3.0,28110.0,380260.0,343655.0,403431.0,351633.0
2026-04-07 17:42:17.934245,147008,808341121,808342303,0.796416,-0.210816,-0.040992,2.1,18.57625,-31.12375,-12.768001,-15.608001,22.656,eccentric,2,3.0,28110.0,380260.0,343655.0,403431.0,351633.0
2026-04-07 17:42:17.962819,147009,808350067,808351001,0.853024,-0.1952,0.01952,1.46125,19.41625,-28.60375,-12.688001,-15.128,20.472,eccentric,2,3.0,28110.0,380260.0,343655.0,403431.0,351633.0
2026-04-07 17:42:17.991137,147019,808359022,808359822,0.853024,-0.1952,0.01952,-2.5725,21.4025,-28.95375,-12.688001,-15.128,20.472,eccentric,2,3.0,27548.0,375723.0,340059.0,402605.0,349078.0
2026-04-07 17:42:17.992238,147020,808374040,808374815,0.804224,-0.154208,-0.003904,-2.80875,24.85,-32.52375,-12.248,-14.992001,20.240002,eccentric,2,3.0,27548.0,375723.0,340059.0,402605.0,349078.0
2026-04-07 17:42:17.993866,147021,808382942,808383523,0.804224,-0.154208,-0.003904,-0.245,26.80125,-34.13375,-12.248,-14.992001,20.240002,eccentric,2,3.0,27548.0,375723.0,340059.0,402605.0,349078.0
2026-04-07 17:42:17.998131,147022,808392248,808394293,0.792512,-0.208864,-0.005856,-2.79125,26.355,-34.72875,-11.752001,-15.840001,21.048,eccentric,2,3.0,27548.0,375723.0,340059.0,402605.0,349078.0
2026-04-07 17:42:17.999822,147023,808401210,808402994,0.792512,-0.208864,-0.005856,-1.61875,24.9375,-35.90125,-11.752001,-15.840001,21.048,eccentric,2,3.0,27548.0,375723.0,340059.0,402605.0,349078.0
2026-04-07 17:42:18.030117,147024,808415779,808417991,0.8296,-0.22448,-0.013664,3.31625,22.18125,-35.70875,-12.008,-15.912001,20.896002,eccentric,2,3.0,27548.0,375723.0,340059.0,402605.0,349078.0
2026-04-07 17:42:18.034396,147025,808424713,808426682,0.8296,-0.22448,-0.013664,5.1975,21.2625,-36.12,-12.008,-15.912001,20.896002,eccentric,2,3.0,27548.0,375723.0,340059.0,402605.0,349078.0
2026-04-07 17:42:18.036664,147026,808433628,808435362,0.835456,-0.128832,-0.025376,9.56375,20.8425,-37.33625,-11.8,-17.0,19.752,eccentric,2,3.0,27548.0,375723.0,340059.0,402605.0,349078.0
2026-04-07 17:42:18.042963,147027,808448126,808450314,0.776896,-0.056608,0.001952,10.386251,22.12875,-37.765,-12.008,-17.336,22.640001,eccentric,2,3.0,27548.0,375723.0,340059.0,402605.0,349078.0
2026-04-07 17:42:18.066831,147037,808457160,808459112,0.776896,-0.056608,0.001952,11.87375,24.3775,-39.36625,-12.008,-17.336,22.640001,eccentric,2,3.0,26963.0,370714.0,336201.0,399030.0,345568.0
2026-04-07 17:42:18.068982,147038,808466110,808467860,0.776896,-0.056608,-0.023424,13.8075,23.9575,-38.96375,-12.008,-17.336,22.640001,eccentric,2,3.0,26963.0,370714.0,336201.0,399030.0,345568.0
2026-04-07 17:42:18.075497,147039,808480672,808482770,0.776896,-0.152256,-0.023424,10.22875,22.46125,-37.44125,-12.184001,-17.6,22.920002,eccentric,2,3.0,26963.0,370714.0,336201.0,399030.0,345568.0
2026-04-07 17:42:18.104047,147040,808489618,808491457,0.767136,-0.181536,0.00976,9.9225,21.07,-36.61,-12.248,-17.480001,21.408,eccentric,2,3.0,26963.0,370714.0,336201.0,399030.0,345568.0
2026-04-07 17:42:18.108719,147041,808498540,808500221,0.767136,-0.181536,0.00976,11.06875,19.03125,-34.09875,-12.248,-17.480001,21.408,eccentric,2,3.0,26963.0,370714.0,336201.0,399030.0,345568.0
2026-04-07 17:42:18.110168,147042,808507471,808508926,0.745664,-0.074176,0.021472,12.25,17.28125,-30.8525,-11.416,-17.256,23.976002,eccentric,2,3.0,26963.0,370714.0,336201.0,399030.0,345568.0
2026-04-07 17:42:18.115506,147043,808521961,808523810,0.745664,-0.074176,0.021472,13.3,16.87875,-28.07,-11.416,-17.256,23.976002,eccentric,2,3.0,26963.0,370714.0,336201.0,399030.0,345568.0
2026-04-07 17:42:18.144023,147044,808530874,808532501,0.769088,-0.080032,0.011712,8.995,17.14125,-26.215,-11.264001,-16.888,21.752,eccentric,2,3.0,26963.0,370714.0,336201.0,399030.0,345568.0
2026-04-07 17:42:18.149074,147045,808539853,808541220,0.769088,-0.080032,0.011712,6.13375,17.185,-24.31625,-11.264001,-16.888,21.752,eccentric,2,3.0,26963.0,370714.0,336201.0,399030.0,345568.0
2026-04-07 17:42:18.208550,147056,808554389,808556560,0.767136,-0.093696,-0.013664,6.16,17.99,-22.05,-11.336,-17.904001,21.416,eccentric,2,3.0,26573.0,368064.0,334451.0,397740.0,343986.0
2026-04-07 17:42:18.210118,147057,808563492,808565397,0.767136,-0.093696,-0.013664,6.72875,17.75375,-17.87625,-11.336,-17.904001,21.416,eccentric,2,3.0,26573.0,368064.0,334451.0,397740.0,343986.0
2026-04-07 17:42:18.214370,147058,808572506,808574116,0.769088,-0.093696,0.005856,6.57125,15.715,-15.42625,-11.224001,-17.792002,21.704,eccentric,2,3.0,26573.0,368064.0,334451.0,397740.0,343986.0
2026-04-07 17:42:18.216175,147059,808587100,808589013,0.792512,-0.095648,0.021472,6.25625,13.20375,-13.18625,-11.224001,-17.696001,22.184002,eccentric,2,3.0,26573.0,368064.0,334451.0,397740.0,343986.0
2026-04-07 17:42:18.217777,147060,808596022,808597775,0.792512,-0.095648,0.021472,5.6875,11.655,-10.22,-11.384001,-17.696001,22.184002,eccentric,2,3.0,26573.0,368064.0,334451.0,397740.0,343986.0
2026-04-07 17:42:18.221066,147061,808604948,808606489,0.792512,-0.095648,0.021472,6.02875,10.6225,-9.2575,-11.384001,-17.696001,22.184002,eccentric,2,3.0,26573.0,368064.0,334451.0,397740.0,343986.0
2026-04-07 17:42:18.222590,147062,808619461,808621389,0.81008,-0.119072,0.013664,5.8625,9.8875,-8.72375,-11.544001,-18.112001,22.536001,eccentric,2,3.0,26573.0,368064.0,334451.0,397740.0,343986.0
2026-04-07 17:42:18.225255,147063,808628430,808630139,0.823744,-0.0976,0.011712,7.02625,9.2225,-6.5975,-11.824,-17.664001,20.800001,eccentric,2,3.0,26573.0,368064.0,334451.0,397740.0,343986.0
2026-04-07 17:42:18.231339,147064,808637404,808638873,0.823744,-0.0976,0.011712,6.0725,7.42875,-3.89375,-11.824,-17.664001,20.800001,eccentric,2,3.0,26573.0,368064.0,334451.0,397740.0,343986.0
2026-04-07 17:42:18.237453,147065,808646320,808647575,0.823744,-0.0976,0.011712,2.54625,5.01375,-2.23125,-11.824,-17.664001,20.800001,eccentric,2,3.0,26573.0,368064.0,334451.0,397740.0,343986.0
2026-04-07 17:42:18.268961,147075,808660821,808662595,0.835456,-0.074176,0.076128,0.13125,5.45125,-2.03875,-11.76,-17.888,24.656002,eccentric,2,3.0,26585.0,368003.0,334264.0,397360.0,344086.0
2026-04-07 17:42:18.271238,147076,808669778,808671327,0.84912,-0.150304,0.02928,0.11375,5.69625,-2.05625,-11.496,-17.992,22.720001,eccentric,2,3.0,26585.0,368003.0,334264.0,397360.0,344086.0
2026-04-07 17:42:18.275554,147077,808678747,808680051,0.84912,-0.150304,0.02928,-0.09625,5.3025,-1.89,-11.496,-17.992,22.720001,eccentric,2,3.0,26585.0,368003.0,334264.0,397360.0,344086.0
2026-04-07 17:42:18.304037,147078,808693287,808695015,0.837408,-0.115168,0.015616,1.82875,5.45125,-2.16125,-11.72,-17.696001,23.160002,eccentric,2,3.0,26585.0,368003.0,334264.0,397360.0,344086.0
2026-04-07 17:42:18.309421,147079,808702279,808703725,0.837408,-0.115168,0.015616,2.79125,4.9175,-1.5925,-11.72,-17.696001,23.160002,eccentric,2,3.0,26585.0,368003.0,334264.0,397360.0,344086.0
2026-04-07 17:42:18.315797,147080,808711195,808712408,0.86864,-0.095648,0.044896,-0.63,4.1125,-0.9975,-10.896001,-18.104,22.064001,eccentric,2,3.0,26585.0,368003.0,334264.0,397360.0,344086.0
2026-04-07 17:42:18.319661,147081,808725722,808727287,0.86864,-0.095648,0.044896,-4.50625,3.35125,-0.60375,-10.896001,-18.104,22.064001,eccentric,2,3.0,26585.0,368003.0,334264.0,397360.0,344086.0
2026-04-07 17:42:18.326751,147082,808734654,808736011,0.833504,-0.103456,0.050752,-6.4225,3.7975,-0.60375,-11.88,-18.048,23.152,eccentric,2,3.0,26585.0,368003.0,334264.0,397360.0,344086.0
2026-04-07 17:42:18.355313,147083,808743575,808744706,0.833504,-0.103456,0.050752,-7.67375,4.20875,-1.7325,-11.88,-18.048,23.152,eccentric,2,3.0,26585.0,368003.0,334264.0,397360.0,344086.0
2026-04-07 17:42:18.359852,147084,808752479,808753381,0.833504,-0.152256,0.035136,-5.11875,4.19125,-3.15,-11.52,-18.128,21.688002,eccentric,2,3.0,26585.0,368003.0,334264.0,397360.0,344086.0
2026-04-07 17:42:18.383966,147094,808767028,808768358,0.833504,-0.152256,0.035136,-1.81125,4.305,-4.20875,-11.52,-18.128,21.688002,eccentric,2,3.0,26691.0,368746.0,334797.0,397918.0,345096.0
2026-04-07 17:42:18.388101,147095,808775993,808777063,0.8296,-0.130784,0.017568,-0.48125,3.10625,-3.885,-11.608001,-17.720001,22.880001,eccentric,2,3.0,26691.0,368746.0,334797.0,397918.0,345096.0
2026-04-07 17:42:18.390440,147096,808784989,808785808,0.8296,-0.130784,0.017568,-1.925,0.25375,-2.2925,-11.608001,-17.720001,22.880001,eccentric,2,3.0,26691.0,368746.0,334797.0,397918.0,345096.0
2026-04-07 17:42:18.391408,147097,808799467,808800749,0.85888,-0.132736,0.007808,-2.82625,-3.01875,-0.14875,-11.896001,-17.76,22.04,eccentric,2,3.0,26691.0,368746.0,334797.0,397918.0,345096.0
2026-04-07 17:42:18.422425,147098,808808410,808809461,0.827648,-0.101504,0.025376,-0.67375,-3.15875,0.8225,-11.464001,-17.504002,22.224,eccentric,2,3.0,26691.0,368746.0,334797.0,397918.0,345096.0
2026-04-07 17:42:18.424700,147099,808817318,808818151,0.827648,-0.101504,0.025376,1.365,-2.835,0.77875,-11.464001,-17.504002,22.224,eccentric,2,3.0,26691.0,368746.0,334797.0,397918.0,345096.0
2026-04-07 17:42:18.429397,147100,808831787,808833072,0.825696,-0.132736,0.031232,3.00125,-2.19625,-0.455,-11.768001,-17.872002,21.848001,eccentric,2,3.0,26691.0,368746.0,334797.0,397918.0,345096.0
2026-04-07 17:42:18.433444,147101,808840744,808841798,0.825696,-0.132736,0.031232,3.08,-1.61875,-1.26875,-11.768001,-17.872002,21.848001,eccentric,2,3.0,26691.0,368746.0,334797.0,397918.0,345096.0
2026-04-07 17:42:18.463797,147102,808849662,808850471,0.823744,-0.144448,0.02928,2.38875,-1.33,-1.505,-12.096001,-17.864,23.184002,eccentric,2,3.0,26691.0,368746.0,334797.0,397918.0,345096.0
2026-04-07 17:42:18.531099,147113,808859010,808861315,0.823744,-0.144448,0.02928,0.16625,-1.00625,-0.86625,-12.096001,-17.864,23.184002,eccentric,2,3.0,26800.0,369449.0,335126.0,397971.0,345193.0
2026-04-07 17:42:18.532831,147114,808873586,808874215,0.84912,-0.138592,0.007808,-3.14125,-0.6475,0.00875,-11.328,-17.656,22.000002,eccentric,2,3.0,26800.0,369449.0,335126.0,397971.0,345193.0
2026-04-07 17:42:18.536142,147115,808882865,808885000,0.84912,-0.138592,0.007808,-5.62625,-0.9625,0.21,-11.328,-17.656,22.000002,eccentric,2,3.0,26800.0,369449.0,335126.0,397971.0,345193.0
2026-04-07 17:42:18.537653,147116,808891803,808893676,0.823744,-0.13664,-0.013664,-4.47125,-1.09375,0.2625,-11.152,-17.752,22.04,eccentric,2,3.0,26800.0,369449.0,335126.0,397971.0,345193.0
2026-04-07 17:42:18.541021,147117,808906339,808908654,0.823744,-0.13664,-0.013664,-0.9625,-0.95375,0.56,-11.152,-17.752,22.04,eccentric,2,3.0,26800.0,369449.0,335126.0,397971.0,345193.0
2026-04-07 17:42:18.542516,147118,808915237,808917341,0.83936,-0.150304,-0.00976,0.7175,-2.56375,0.02625,-11.248,-17.776001,22.080002,eccentric,2,3.0,26800.0,369449.0,335126.0,397971.0,345193.0
2026-04-07 17:42:18.547121,147119,808924174,808926028,0.83936,-0.150304,-0.00976,1.61875,-3.01,-0.62125,-11.248,-17.776001,22.080002,eccentric,2,3.0,26800.0,369449.0,335126.0,397971.0,345193.0
2026-04-07 17:42:18.548572,147120,808938739,808940995,0.808128,-0.142496,-0.023424,3.605,-3.675,-0.06125,-12.248,-17.800001,23.936,eccentric,2,3.0,26800.0,369449.0,335126.0,397971.0,345193.0
2026-04-07 17:42:18.550431,147121,808947651,808949737,0.808128,-0.142496,-0.023424,3.80625,-3.96375,1.0675,-12.248,-17.800001,23.936,eccentric,2,3.0,26800.0,369449.0,335126.0,397971.0,345193.0
2026-04-07 17:42:18.577064,147131,808957167,808958747,0.796416,-0.144448,0.017568,1.96,-3.605,1.8025,-11.984,-17.272001,23.952002,eccentric,2,3.0,27242.0,372737.0,337482.0,399927.0,346835.0
2026-04-07 17:42:18.583146,147132,808966259,808967573,0.796416,-0.144448,0.017568,0.07875,-3.325,3.08,-11.984,-17.272001,23.952002,eccentric,2,3.0,27242.0,372737.0,337482.0,399927.0,346835.0
2026-04-07 17:42:18.584825,147133,808980770,808982588,0.772992,-0.158112,-0.037088,-1.225,-3.395,4.2,-12.176001,-17.784,22.904001,eccentric,2,3.0,27242.0,372737.0,337482.0,399927.0,346835.0
2026-04-07 17:42:18.587371,147134,808989704,808991335,0.765184,-0.138592,-0.013664,1.07625,-5.15375,5.25875,-11.528001,-17.904001,22.832,eccentric,2,3.0,27242.0,372737.0,337482.0,399927.0,346835.0
2026-04-07 17:42:18.593107,147135,808998664,809000094,0.765184,-0.138592,-0.013664,4.7425,-6.36125,4.6725,-11.528001,-17.904001,22.832,eccentric,2,3.0,27242.0,372737.0,337482.0,399927.0,346835.0
2026-04-07 17:42:18.621622,147136,809013239,809015058,0.743712,-0.169824,-0.01952,7.34125,-7.51625,5.4425,-11.920001,-16.856,21.400002,eccentric,2,3.0,27242.0,372737.0,337482.0,399927.0,346835.0
2026-04-07 17:42:18.626189,147137,809022170,809023747,0.743712,-0.169824,-0.01952,8.75875,-10.31625,7.6825,-11.920001,-16.856,21.400002,eccentric,2,3.0,27242.0,372737.0,337482.0,399927.0,346835.0
2026-04-07 17:42:18.629613,147138,809031100,809032458,0.679296,-0.167872,-0.017568,10.3075,-13.57125,9.511251,-11.608001,-16.536001,21.176,eccentric,2,3.0,27242.0,372737.0,337482.0,399927.0,346835.0
2026-04-07 17:42:18.634297,147139,809040048,809041152,0.679296,-0.167872,-0.017568,11.62,-16.0825,13.0025,-11.608001,-16.536001,21.176,eccentric,2,3.0,27242.0,372737.0,337482.0,399927.0,346835.0
2026-04-07 17:42:18.664220,147140,809054526,809056091,0.730048,-0.1952,-0.042944,8.68,-19.01375,18.96125,-11.976001,-16.92,22.6,eccentric,2,3.0,27242.0,372737.0,337482.0,399927.0,346835.0
2026-04-07 17:42:18.701963,147150,809063455,809064810,0.730048,-0.1952,-0.042944,3.98125,-20.65,22.44375,-11.976001,-16.92,22.6,eccentric,2,3.0,27795.0,377109.0,340860.0,402714.0,349274.0
2026-04-07 17:42:18.703586,147151,809072367,809073529,0.7808,-0.169824,-0.035136,0.46375,-19.95,21.35875,-11.448001,-16.560001,20.984001,eccentric,2,3.0,27795.0,377109.0,340860.0,402714.0,349274.0
2026-04-07 17:42:18.706085,147152,809086840,809088463,0.7808,-0.169824,-0.035136,2.58125,-18.75125,20.37,-11.448001,-16.560001,20.984001,eccentric,2,3.0,27795.0,377109.0,340860.0,402714.0,349274.0
2026-04-07 17:42:18.707598,147153,809095751,809097249,0.739808,-0.16592,-0.044896,6.06375,-19.04,21.4025,-11.744,-15.496,20.344002,eccentric,2,3.0,27795.0,377109.0,340860.0,402714.0,349274.0
2026-04-07 17:42:18.711867,147154,809104688,809105952,0.739808,-0.16592,-0.044896,7.07,-20.22125,22.88125,-11.744,-15.496,20.344002,eccentric,2,3.0,27795.0,377109.0,340860.0,402714.0,349274.0
2026-04-07 17:42:18.713409,147155,809119232,809120870,0.718336,-0.216672,-0.060512,7.0875,-23.0475,24.6225,-11.904,-15.792001,20.448002,eccentric,2,3.0,27795.0,377109.0,340860.0,402714.0,349274.0
2026-04-07 17:42:18.720569,147156,809128159,809129650,0.718336,-0.216672,-0.060512,6.36125,-26.2675,29.68,-11.904,-15.792001,20.448002,eccentric,2,3.0,27795.0,377109.0,340860.0,402714.0,349274.0
2026-04-07 17:42:18.749217,147157,809137092,809138353,0.71248,-0.203008,-0.054656,5.25,-29.37375,35.07,-11.352,-15.384001,20.232,eccentric,2,3.0,27795.0,377109.0,340860.0,402714.0,349274.0
2026-04-07 17:42:18.753625,147158,809151550,809153300,0.730048,-0.183488,-0.080032,1.5225,-28.595,35.42875,-12.064,-14.776001,20.192001,eccentric,2,3.0,27795.0,377109.0,340860.0,402714.0,349274.0
2026-04-07 17:42:18.847338,147169,809160889,809162098,0.730048,-0.183488,-0.080032,-1.2425,-24.89375,32.17375,-12.064,-14.776001,20.192001,concentric,2,3.0,29060.0,387404.0,349106.0,403431.0,356046.0
2026-04-07 17:42:18.849765,147170,809170023,809170868,0.735904,-0.193248,-0.056608,-1.3475,-22.47,30.86125,-11.8,-14.696001,20.224,concentric,2,3.0,29060.0,387404.0,349106.0,403431.0,356046.0
2026-04-07 17:42:18.851975,147171,809179009,809179618,0.735904,-0.193248,-0.056608,-3.675,-22.4525,30.275,-11.8,-14.696001,20.224,concentric,2,3.0,29060.0,387404.0,349106.0,403431.0,356046.0
2026-04-07 17:42:18.862974,147172,809193783,809194531,0.732,-0.242048,-0.0976,-2.66,-24.1675,27.93,-11.728001,-14.008,19.752,concentric,2,3.0,29060.0,387404.0,349106.0,403431.0,356046.0
2026-04-07 17:42:18.870984,147173,809203160,809205272,0.732,-0.242048,-0.0976,0.62125,-26.2675,28.0,-11.728001,-14.008,19.752,concentric,2,3.0,29060.0,387404.0,349106.0,403431.0,356046.0
2026-04-07 17:42:18.871099,147174,809212087,809213932,0.778848,-0.226432,-0.101504,2.73875,-28.48125,30.59,-11.936001,-13.376,19.608002,concentric,2,3.0,29060.0,387404.0,349106.0,403431.0,356046.0
2026-04-07 17:42:18.872643,147175,809226586,809228862,0.778848,-0.226432,-0.101504,1.9075,-28.62125,30.98375,-11.936001,-13.376,19.608002,concentric,2,3.0,29060.0,387404.0,349106.0,403431.0,356046.0
2026-04-07 17:42:18.877009,147176,809235488,809237552,0.794464,-0.193248,-0.0976,3.36875,-26.53,29.522501,-12.096001,-13.328001,19.592001,concentric,2,3.0,29060.0,387404.0,349106.0,403431.0,356046.0
2026-04-07 17:42:18.881085,147177,809244434,809246245,0.794464,-0.193248,-0.0976,4.55875,-24.7975,27.51,-12.096001,-13.328001,19.592001,concentric,2,3.0,29060.0,387404.0,349106.0,403431.0,356046.0
2026-04-07 17:42:18.882664,147178,809253499,809254943,0.798368,-0.199104,-0.0976,4.57625,-23.397501,25.06,-11.920001,-12.712001,18.488,concentric,2,3.0,29060.0,387404.0,349106.0,403431.0,356046.0
2026-04-07 17:42:18.909585,147188,809268184,809269898,0.798368,-0.199104,-0.0976,4.45375,-23.40625,22.51375,-11.920001,-12.712001,18.488,concentric,2,3.0,29781.0,393542.0,354302.0,403431.0,360497.0
2026-04-07 17:42:18.911177,147189,809277283,809278685,0.798368,-0.269376,-0.13664,2.17,-24.38625,21.90125,-12.608001,-13.032001,19.024,concentric,2,3.0,29781.0,393542.0,354302.0,403431.0,360497.0
2026-04-07 17:42:18.912673,147190,809286250,809287430,0.798368,-0.269376,-0.13664,2.10875,-26.18875,22.47,-12.608001,-13.032001,19.024,concentric,2,3.0,29781.0,393542.0,354302.0,403431.0,360497.0
2026-04-07 17:42:18.916881,147191,809300889,809302365,0.815936,-0.222528,-0.124928,5.66125,-27.60625,22.40875,-12.84,-12.296001,18.352001,concentric,2,3.0,29781.0,393542.0,354302.0,403431.0,360497.0
2026-04-07 17:42:18.918582,147192,809309907,809311092,0.815936,-0.216672,-0.08784,4.935,-27.34375,22.19,-12.84,-12.296001,20.400002,concentric,2,3.0,29781.0,393542.0,354302.0,403431.0,360497.0
2026-04-07 17:42:18.920159,147193,809319007,809319810,0.903776,-0.216672,-0.08784,-0.1225,-24.955,19.005,-12.368001,-12.384001,19.656,concentric,2,3.0,29781.0,393542.0,354302.0,403431.0,360497.0
2026-04-07 17:42:18.924234,147194,809327981,809328597,0.903776,-0.216672,-0.08784,-1.47875,-21.595,14.9975,-12.368001,-12.384001,19.656,concentric,2,3.0,29781.0,393542.0,354302.0,403431.0,360497.0
2026-04-07 17:42:18.952866,147195,809342911,809343527,0.8784,-0.306464,-0.138592,0.72625,-19.81875,12.573751,-12.728001,-12.224001,19.256,concentric,2,3.0,29781.0,393542.0,354302.0,403431.0,360497.0
2026-04-07 17:42:18.957408,147196,809352157,809354284,0.851072,-0.271328,-0.138592,2.47625,-18.87375,11.50625,-13.072001,-12.000001,17.824001,concentric,2,3.0,29781.0,393542.0,354302.0,403431.0,360497.0
2026-04-07 17:42:18.981385,147206,809361791,809363195,0.851072,-0.271328,-0.138592,6.195,-18.1825,11.1475,-13.072001,-12.000001,17.824001,concentric,2,3.0,30828.0,401127.0,361012.0,403431.0,366227.0
2026-04-07 17:42:18.985601,147207,809370763,809371957,0.86864,-0.226432,-0.124928,9.23125,-18.52375,12.9675,-12.960001,-11.88,17.616001,concentric,2,3.0,30828.0,401127.0,361012.0,403431.0,366227.0
2026-04-07 17:42:18.987461,147208,809385241,809386950,0.86864,-0.226432,-0.124928,7.65625,-18.3225,13.39625,-12.960001,-11.88,17.616001,concentric,2,3.0,30828.0,401127.0,361012.0,403431.0,366227.0
2026-04-07 17:42:18.988917,147209,809394262,809395663,0.909632,-0.242048,-0.119072,3.01875,-16.205,11.62875,-12.704,-11.024,17.464,concentric,2,3.0,30828.0,401127.0,361012.0,403431.0,366227.0
2026-04-07 17:42:18.996822,147210,809403212,809404370,0.909632,-0.242048,-0.119072,1.44375,-12.34625,9.065,-12.704,-11.024,17.464,concentric,2,3.0,30828.0,401127.0,361012.0,403431.0,366227.0
2026-04-07 17:42:19.025287,147211,809417742,809419305,0.827648,-0.267424,-0.162016,2.73,-10.395,7.07,-13.624001,-11.920001,18.792002,concentric,2,3.0,30828.0,401127.0,361012.0,403431.0,366227.0
2026-04-07 17:42:19.030445,147212,809426660,809428001,0.827648,-0.267424,-0.162016,6.265,-11.795,5.6875,-13.624001,-11.920001,18.792002,concentric,2,3.0,30828.0,401127.0,361012.0,403431.0,366227.0
2026-04-07 17:42:19.031327,147213,809435590,809436685,0.81984,-0.277184,-0.154208,10.8675,-14.4375,5.285,-12.736001,-11.296001,17.328001,concentric,2,3.0,30828.0,401127.0,361012.0,403431.0,366227.0
2026-04-07 17:42:19.062931,147214,809450124,809451573,0.81984,-0.277184,-0.122976,13.37875,-18.17375,4.6025,-12.736001,-11.296001,17.328001,concentric,2,3.0,30828.0,401127.0,361012.0,403431.0,366227.0
2026-04-07 17:42:19.125123,147225,809459333,809460404,0.85888,-0.281088,-0.122976,15.155,-19.8275,4.2175,-13.032001,-11.032001,19.0,concentric,2,3.0,31529.0,403431.0,365271.0,403431.0,369714.0
2026-04-07 17:42:19.129371,147226,809468386,809469211,0.85888,-0.281088,-0.122976,13.1425,-19.36375,4.6025,-13.032001,-11.032001,19.0,concentric,2,3.0,31529.0,403431.0,365271.0,403431.0,369714.0
2026-04-07 17:42:19.132312,147227,809477357,809477914,0.823744,-0.2928,-0.132736,8.54,-16.93125,3.92,-13.104001,-10.552,16.648,concentric,2,3.0,31529.0,403431.0,365271.0,403431.0,369714.0
2026-04-07 17:42:19.138175,147228,809492088,809492921,0.804224,-0.267424,-0.167872,11.41875,-15.23375,4.1475,-12.992001,-10.496,16.128,concentric,2,3.0,31529.0,403431.0,365271.0,403431.0,369714.0
2026-04-07 17:42:19.139798,147229,809501093,809501670,0.804224,-0.267424,-0.167872,12.32,-15.12875,3.4825,-12.992001,-10.496,16.128,concentric,2,3.0,31529.0,403431.0,365271.0,403431.0,369714.0
2026-04-07 17:42:19.142251,147230,809510560,809512434,0.804224,-0.240096,-0.210816,11.0775,-15.98625,0.83125,-12.992001,-10.496,16.128,concentric,2,3.0,31529.0,403431.0,365271.0,403431.0,369714.0
2026-04-07 17:42:19.143833,147231,809519557,809521122,0.749568,-0.240096,-0.210816,15.09375,-17.64,-1.89,-13.240001,-10.584001,15.736001,concentric,2,3.0,31529.0,403431.0,365271.0,403431.0,369714.0
2026-04-07 17:42:19.148276,147232,809534111,809536126,0.825696,-0.314272,-0.134688,16.28375,-19.7575,-6.39625,-14.408001,-10.504001,18.512001,concentric,2,3.0,31529.0,403431.0,365271.0,403431.0,369714.0
2026-04-07 17:42:19.149947,147233,809543089,809544865,0.825696,-0.314272,-0.134688,9.8875,-20.15125,-9.61625,-14.408001,-10.504001,18.512001,concentric,2,3.0,31529.0,403431.0,365271.0,403431.0,369714.0
2026-04-07 17:42:19.151387,147234,809552032,809553557,0.815936,-0.359168,-0.154208,7.6475,-18.165,-10.57875,-13.240001,-10.544001,13.68,concentric,2,3.0,31529.0,403431.0,365271.0,403431.0,369714.0
2026-04-07 17:42:19.177391,147244,809566598,809568507,0.815936,-0.359168,-0.154208,11.8125,-15.6625,-10.64,-13.240001,-10.544001,13.68,concentric,2,3.0,31986.0,403431.0,368385.0,403431.0,372835.0
2026-04-07 17:42:19.178881,147245,809575668,809577278,0.853024,-0.290848,-0.17568,11.17375,-13.65,-11.20875,-13.312,-10.464001,15.656001,concentric,2,3.0,31986.0,403431.0,368385.0,403431.0,372835.0
2026-04-07 17:42:19.183055,147246,809584599,809585939,0.853024,-0.290848,-0.17568,14.83125,-12.39,-12.11,-13.312,-10.464001,15.656001,concentric,2,3.0,31986.0,403431.0,368385.0,403431.0,372835.0
2026-04-07 17:42:19.211529,147247,809599100,809600870,0.821792,-0.281088,-0.187392,17.5175,-10.94625,-12.53,-13.496,-10.576,15.936001,concentric,2,3.0,31986.0,403431.0,368385.0,403431.0,372835.0
2026-04-07 17:42:19.215077,147248,809607990,809609560,0.821792,-0.281088,-0.187392,16.24875,-10.22,-13.8075,-13.496,-10.576,15.936001,concentric,2,3.0,31986.0,403431.0,368385.0,403431.0,372835.0
2026-04-07 17:42:19.219243,147249,809616907,809618225,0.851072,-0.314272,-0.128832,14.0875,-8.84625,-14.455,-13.104001,-10.392,15.720001,concentric,2,3.0,31986.0,403431.0,368385.0,403431.0,372835.0
2026-04-07 17:42:19.224283,147250,809631414,809633141,0.83936,-0.353312,-0.12688,14.00875,-6.60625,-12.8975,-13.104001,-10.400001,17.224,concentric,2,3.0,31986.0,403431.0,368385.0,403431.0,372835.0
2026-04-07 17:42:19.254339,147251,809640393,809641879,0.83936,-0.353312,-0.12688,14.595,-2.77375,-10.12375,-13.896001,-10.400001,17.224,concentric,2,3.0,31986.0,403431.0,368385.0,403431.0,372835.0
2026-04-07 17:42:19.257685,147252,809649337,809650594,0.83936,-0.353312,-0.12688,16.28375,0.63875,-8.96,-13.896001,-10.400001,17.224,concentric,2,3.0,31986.0,403431.0,368385.0,403431.0,372835.0
2026-04-07 17:42:19.261663,147253,809658243,809659305,0.856928,-0.249856,-0.15616,18.445,3.6925,-9.35375,-13.480001,-10.208,15.832001,concentric,2,3.0,31986.0,403431.0,368385.0,403431.0,372835.0
2026-04-07 17:42:19.286089,147263,809672797,809674269,0.847168,-0.226432,-0.15616,17.0975,6.44,-9.31,-14.784,-10.080001,18.056002,concentric,2,3.0,32595.0,403431.0,371800.0,403431.0,376145.0
2026-04-07 17:42:19.287764,147264,809681745,809682978,0.847168,-0.226432,-0.15616,12.55625,8.02375,-12.04875,-14.784,-10.080001,18.056002,concentric,2,3.0,32595.0,403431.0,371800.0,403431.0,376145.0
2026-04-07 17:42:19.291714,147265,809690681,809691757,0.847168,-0.226432,-0.15616,10.7275,9.03875,-13.335,-14.784,-10.080001,18.056002,concentric,2,3.0,32595.0,403431.0,371800.0,403431.0,376145.0
2026-04-07 17:42:19.298001,147266,809705221,809706723,0.870592,-0.308416,-0.162016,7.76125,10.43875,-14.20125,-13.824,-10.424001,16.320002,concentric,2,3.0,32595.0,403431.0,371800.0,403431.0,376145.0
2026-04-07 17:42:19.326641,147267,809714149,809715421,0.841312,-0.308416,-0.142496,4.5325,12.55625,-14.945,-14.728001,-10.896001,17.528002,concentric,2,3.0,32595.0,403431.0,371800.0,403431.0,376145.0
2026-04-07 17:42:19.331030,147268,809723090,809724133,0.841312,-0.308416,-0.142496,6.44875,14.65625,-13.18625,-14.728001,-10.896001,17.528002,concentric,2,3.0,32595.0,403431.0,371800.0,403431.0,376145.0
2026-04-07 17:42:19.332683,147269,809737560,809739065,0.85888,-0.208864,-0.177632,9.82625,15.435,-12.11,-14.208001,-10.408001,16.128,concentric,2,3.0,32595.0,403431.0,371800.0,403431.0,376145.0
2026-04-07 17:42:19.339201,147270,809746531,809747791,0.85888,-0.208864,-0.177632,8.9775,15.49625,-12.80125,-14.208001,-10.408001,16.128,concentric,2,3.0,32595.0,403431.0,371800.0,403431.0,376145.0
2026-04-07 17:42:19.400780,147271,809755448,809756527,0.884256,-0.21472,-0.203008,6.335,14.42,-14.5775,-14.632001,-9.992001,16.448,concentric,2,3.0,32595.0,403431.0,371800.0,403431.0,376145.0
2026-04-07 17:42:19.431837,147282,809770040,809771672,0.884256,-0.21472,-0.203008,3.43,12.50375,-16.73,-14.632001,-9.992001,16.448,concentric,2,3.0,32252.0,403431.0,370159.0,403431.0,374053.0
2026-04-07 17:42:19.433581,147283,809778987,809780396,0.894016,-0.281088,-0.179584,2.3625,12.32,-17.33375,-14.960001,-10.784,16.560001,concentric,2,3.0,32252.0,403431.0,370159.0,403431.0,374053.0
2026-04-07 17:42:19.436049,147284,809787857,809789057,0.894016,-0.281088,-0.179584,0.77875,12.915,-15.79375,-14.960001,-10.784,16.560001,concentric,2,3.0,32252.0,403431.0,370159.0,403431.0,374053.0
2026-04-07 17:42:19.437580,147285,809796764,809797823,0.886208,-0.284992,-0.15616,1.96875,13.15125,-14.35875,-15.064001,-10.592001,16.856,concentric,2,3.0,32252.0,403431.0,370159.0,403431.0,374053.0
2026-04-07 17:42:19.441865,147286,809811259,809812719,0.886208,-0.284992,-0.15616,4.3575,13.55375,-10.15,-15.064001,-10.592001,16.856,concentric,2,3.0,32252.0,403431.0,370159.0,403431.0,374053.0
2026-04-07 17:42:19.443555,147287,809820205,809821452,0.86864,-0.255712,-0.142496,9.17,13.9475,-5.92375,-15.256001,-10.248,15.848001,concentric,2,3.0,32252.0,403431.0,370159.0,403431.0,374053.0
2026-04-07 17:42:19.446168,147288,809829148,809830246,0.86864,-0.255712,-0.142496,12.04875,13.72,-2.14375,-15.256001,-10.248,15.848001,concentric,2,3.0,32252.0,403431.0,370159.0,403431.0,374053.0
2026-04-07 17:42:19.451874,147289,809843708,809845178,0.899872,-0.226432,-0.134688,12.136251,13.67625,-1.855,-14.912001,-10.040001,16.552,concentric,2,3.0,32252.0,403431.0,370159.0,403431.0,374053.0
2026-04-07 17:42:19.453596,147290,809852675,809853929,0.895968,-0.220576,-0.128832,10.68375,14.21875,-2.345,-15.296001,-9.888001,16.816,concentric,2,3.0,32252.0,403431.0,370159.0,403431.0,374053.0
2026-04-07 17:42:19.479382,147300,809861621,809862737,0.895968,-0.220576,-0.128832,8.3125,14.1225,-2.3975,-15.296001,-9.888001,16.816,concentric,2,3.0,32072.0,403431.0,368903.0,403431.0,372859.0
2026-04-07 17:42:19.481053,147301,809876229,809877774,0.8784,-0.22448,-0.10736,2.63375,13.41375,-3.26375,-15.728001,-10.032001,16.632,concentric,2,3.0,32072.0,403431.0,368903.0,403431.0,372859.0
2026-04-07 17:42:19.482639,147302,809885173,809886528,0.8784,-0.22448,-0.10736,-3.64,12.792501,-2.77375,-15.728001,-10.032001,16.632,concentric,2,3.0,32072.0,403431.0,368903.0,403431.0,372859.0
2026-04-07 17:42:19.488042,147303,809894100,809895262,0.886208,-0.245952,-0.122976,-6.8075,12.215,-2.52,-15.776001,-10.160001,16.936,concentric,2,3.0,32072.0,403431.0,368903.0,403431.0,372859.0
2026-04-07 17:42:19.516590,147304,809903054,809903955,0.886208,-0.245952,-0.122976,-11.24375,10.5875,-3.4125,-15.776001,-10.160001,16.936,concentric,2,3.0,32072.0,403431.0,368903.0,403431.0,372859.0
2026-04-07 17:42:19.521031,147305,809917512,809918945,0.84912,-0.327936,-0.105408,-11.80375,11.025,-0.67375,-16.032001,-10.392,17.008001,concentric,2,3.0,32072.0,403431.0,368903.0,403431.0,372859.0
2026-04-07 17:42:19.522515,147306,809926408,809927624,0.84912,-0.327936,-0.105408,-11.7775,11.85625,-0.63875,-16.032001,-10.392,17.008001,concentric,2,3.0,32072.0,403431.0,368903.0,403431.0,372859.0
2026-04-07 17:42:19.528070,147307,809935283,809936360,0.84912,-0.251808,-0.13664,-5.27625,12.73125,-1.54875,-16.36,-10.352,17.608002,concentric,2,3.0,32072.0,403431.0,368903.0,403431.0,372859.0
2026-04-07 17:42:19.556536,147308,809949753,809951289,0.84912,-0.251808,-0.13664,-5.29375,13.0025,-1.89875,-16.36,-10.352,17.608002,concentric,2,3.0,32072.0,403431.0,368903.0,403431.0,372859.0
2026-04-07 17:42:19.560282,147309,809958698,809959998,0.841312,-0.28304,-0.160064,-7.81375,12.573751,-3.84125,-16.088001,-10.240001,17.44,concentric,2,3.0,32072.0,403431.0,368903.0,403431.0,372859.0
2026-04-07 17:42:19.586898,147319,809967663,809968740,0.841312,-0.28304,-0.160064,-10.4475,12.145,-5.39875,-16.088001,-10.240001,17.44,concentric,2,3.0,32112.0,403431.0,369511.0,403431.0,373525.0
2026-04-07 17:42:19.589042,147320,809982152,809983806,0.870592,-0.318176,-0.15616,-11.165,11.22625,-7.14,-16.072,-10.448001,18.344002,concentric,2,3.0,32112.0,403431.0,369511.0,403431.0,373525.0
2026-04-07 17:42:19.591149,147321,809991196,809992534,0.870592,-0.318176,-0.15616,-7.93625,11.27,-8.636251,-16.072,-10.448001,18.344002,concentric,2,3.0,32112.0,403431.0,369511.0,403431.0,373525.0
2026-04-07 17:42:19.594193,147322,810000172,810001303,0.90768,-0.339648,-0.154208,-11.76,11.6725,-9.415,-16.888,-10.344001,18.216002,concentric,2,3.0,32112.0,403431.0,369511.0,403431.0,373525.0
2026-04-07 17:42:19.622757,147323,810014667,810016276,0.919392,-0.333792,-0.171776,-8.40875,13.20375,-7.8225,-17.344002,-10.632001,17.008001,concentric,2,3.0,32112.0,403431.0,369511.0,403431.0,373525.0
2026-04-07 17:42:19.627534,147324,810023590,810024977,0.919392,-0.333792,-0.171776,-4.27,14.525,-5.845,-17.344002,-10.632001,17.008001,concentric,2,3.0,32112.0,403431.0,369511.0,403431.0,373525.0
2026-04-07 17:42:19.628945,147325,810032595,810033655,0.919392,-0.30256,-0.171776,0.9625,14.980001,-5.88875,-17.344002,-10.632001,17.008001,concentric,2,3.0,32112.0,403431.0,369511.0,403431.0,373525.0
2026-04-07 17:42:19.635518,147326,810041515,810042381,0.9272,-0.310368,-0.171776,5.36375,14.39375,-4.76875,-16.784,-10.408001,18.456001,concentric,2,3.0,32112.0,403431.0,369511.0,403431.0,373525.0
2026-04-07 17:42:19.664021,147327,810056018,810057320,0.935008,-0.31232,-0.144448,8.365,13.55375,-4.235,-17.032001,-10.456,17.824001,concentric,2,3.0,32112.0,403431.0,369511.0,403431.0,373525.0
2026-04-07 17:42:19.729818,147337,810065391,810066080,0.935008,-0.31232,-0.144448,8.91625,13.37,-4.0775,-17.032001,-10.456,17.824001,concentric,2,3.0,31951.0,403431.0,368889.0,403431.0,372835.0
2026-04-07 17:42:19.732327,147338,810074710,810076858,0.929152,-0.296704,-0.148352,8.82,13.69375,-3.36,-17.168001,-10.256001,17.472,concentric,2,3.0,31951.0,403431.0,368889.0,403431.0,372835.0
2026-04-07 17:42:19.733934,147339,810089196,810089699,0.929152,-0.296704,-0.148352,8.95125,13.3175,-3.77125,-17.168001,-10.256001,17.472,concentric,2,3.0,31951.0,403431.0,368889.0,403431.0,372835.0
2026-04-07 17:42:19.738175,147340,810098548,810100480,0.938912,-0.296704,-0.162016,8.07625,11.75125,-4.78625,-16.864,-10.536,17.704,concentric,2,3.0,31951.0,403431.0,368889.0,403431.0,372835.0
2026-04-07 17:42:19.739863,147341,810107468,810109165,0.938912,-0.296704,-0.162016,6.825,8.68875,-5.71375,-16.864,-10.536,17.704,concentric,2,3.0,31951.0,403431.0,368889.0,403431.0,372835.0
2026-04-07 17:42:19.741366,147342,810116378,810117855,0.968192,-0.320128,-0.13664,4.8125,4.9,-6.825,-16.936,-9.784,18.104,concentric,2,3.0,31951.0,403431.0,368889.0,403431.0,372835.0
2026-04-07 17:42:19.745652,147343,810130919,810132776,0.968192,-0.320128,-0.13664,4.1475,2.52,-7.6125,-16.936,-9.784,18.104,concentric,2,3.0,31951.0,403431.0,368889.0,403431.0,372835.0
2026-04-07 17:42:19.747249,147344,810139993,810141530,0.972096,-0.327936,-0.13664,3.7975,0.42875,-7.2625,-17.256,-10.176001,18.768002,concentric,2,3.0,31951.0,403431.0,368889.0,403431.0,372835.0
2026-04-07 17:42:19.749043,147345,810148988,810150330,0.972096,-0.327936,-0.13664,4.27,-0.88375,-7.27125,-17.256,-10.176001,18.768002,concentric,2,3.0,31951.0,403431.0,368889.0,403431.0,372835.0
2026-04-07 17:42:19.779780,147356,810164028,810165644,0.958432,-0.337696,-0.154208,3.885,-2.03875,-5.99375,-17.016,-10.168,17.864,concentric,2,3.0,32494.0,403431.0,372120.0,403431.0,376210.0
2026-04-07 17:42:19.781354,147357,810173149,810174387,0.958432,-0.337696,-0.142496,3.49125,-2.38875,-5.62625,-17.016,-10.168,17.864,concentric,2,3.0,32494.0,403431.0,372120.0,403431.0,376210.0
2026-04-07 17:42:19.785570,147358,810182118,810183175,0.944768,-0.337696,-0.142496,3.84125,-1.86375,-5.97625,-16.968,-10.608001,18.096,concentric,2,3.0,32494.0,403431.0,372120.0,403431.0,376210.0
2026-04-07 17:42:19.787367,147359,810191084,810191898,0.944768,-0.337696,-0.142496,5.215,-1.4175,-5.08375,-16.968,-10.608001,18.096,concentric,2,3.0,32494.0,403431.0,372120.0,403431.0,376210.0
2026-04-07 17:42:19.817508,147360,810205674,810206798,0.944768,-0.35136,-0.1464,6.25625,-0.07,-2.87,-17.024,-9.808001,17.640001,concentric,2,3.0,32494.0,403431.0,372120.0,403431.0,376210.0
2026-04-07 17:42:19.819847,147361,810214594,810215479,0.901824,-0.343552,-0.142496,6.83375,2.2925,-1.435,-17.416,-9.912001,20.144001,concentric,2,3.0,32494.0,403431.0,372120.0,403431.0,376210.0
2026-04-07 17:42:19.824230,147362,810223578,810224210,0.901824,-0.343552,-0.142496,8.60125,3.4475,0.5775,-17.416,-9.912001,20.144001,concentric,2,3.0,32494.0,403431.0,372120.0,403431.0,376210.0
2026-04-07 17:42:19.831067,147363,810238545,810239146,0.876448,-0.324032,-0.122976,10.0625,3.43,2.51125,-17.376001,-9.984,18.728,concentric,2,3.0,32494.0,403431.0,372120.0,403431.0,376210.0
2026-04-07 17:42:19.858984,147364,810247823,810249922,0.876448,-0.324032,-0.122976,10.59625,3.80625,4.26125,-17.376001,-9.984,18.728,concentric,2,3.0,32494.0,403431.0,372120.0,403431.0,376210.0
2026-04-07 17:42:19.867475,147365,810256728,810258662,0.856928,-0.2928,-0.119072,9.75625,3.05375,5.0225,-16.696001,-9.344001,18.016,concentric,2,3.0,32494.0,403431.0,372120.0,403431.0,376210.0
2026-04-07 17:42:19.895210,147375,810265872,810267773,0.856928,-0.2928,-0.119072,7.735,2.8525,4.8825,-16.696001,-9.344001,18.016,concentric,2,3.0,32686.0,403431.0,372805.0,403431.0,376739.0
2026-04-07 17:42:19.899313,147376,810280433,810282720,0.845216,-0.298656,-0.11712,5.1275,2.1525,4.68125,-16.648,-9.744,17.376001,concentric,2,3.0,32686.0,403431.0,372805.0,403431.0,376739.0
2026-04-07 17:42:19.901133,147377,810289366,810291468,0.845216,-0.298656,-0.11712,2.345,1.26875,4.0425,-16.648,-9.744,17.376001,concentric,2,3.0,32686.0,403431.0,372805.0,403431.0,376739.0
2026-04-07 17:42:19.902737,147378,810298352,810300203,0.843264,-0.30256,-0.085888,-1.21625,0.81375,2.02125,-17.544,-10.352,18.832,concentric,2,3.0,32686.0,403431.0,372805.0,403431.0,376739.0
2026-04-07 17:42:19.906690,147379,810312891,810315103,0.843264,-0.30256,-0.085888,-2.21375,1.75875,0.6475,-17.544,-10.352,18.832,concentric,2,3.0,32686.0,403431.0,372805.0,403431.0,376739.0
2026-04-07 17:42:19.935219,147380,810321976,810323819,0.853024,-0.30256,-0.115168,-2.03875,1.435,0.55125,-16.864,-9.112,18.560001,concentric,2,3.0,32686.0,403431.0,372805.0,403431.0,376739.0
2026-04-07 17:42:19.939834,147381,810330936,810332588,0.853024,-0.30256,-0.115168,-2.56375,0.93625,0.49875,-16.864,-9.112,18.560001,concentric,2,3.0,32686.0,403431.0,372805.0,403431.0,376739.0
2026-04-07 17:42:19.941315,147382,810339868,810341273,0.866688,-0.318176,-0.13664,-3.54375,0.46375,0.28,-16.736,-9.376,17.608002,concentric,2,3.0,32686.0,403431.0,372805.0,403431.0,376739.0
2026-04-07 17:42:19.948202,147383,810354383,810356161,0.882304,-0.324032,-0.144448,-3.0975,0.7875,0.315,-16.736,-9.88,18.84,concentric,2,3.0,32686.0,403431.0,372805.0,403431.0,376739.0
2026-04-07 17:42:20.024779,147393,810363335,810364965,0.882304,-0.324032,-0.144448,-2.52,0.91,0.6825,-17.528002,-9.88,18.84,concentric,2,3.0,32538.0,403431.0,372128.0,403431.0,376049.0
2026-04-07 17:42:20.026498,147394,810372311,810373810,0.882304,-0.324032,-0.144448,-1.9775,1.47,0.69125,-17.528002,-9.88,18.84,concentric,2,3.0,32538.0,403431.0,372128.0,403431.0,376049.0
2026-04-07 17:42:20.030679,147395,810386795,810388766,0.874496,-0.30256,-0.152256,-1.8025,1.46125,0.09625,-16.392,-9.592,17.152,concentric,2,3.0,32538.0,403431.0,372128.0,403431.0,376049.0
2026-04-07 17:42:20.033194,147396,810395766,810397452,0.872544,-0.325984,-0.163968,-2.135,1.96875,0.42875,-16.536001,-8.872001,17.488,concentric,2,3.0,32538.0,403431.0,372128.0,403431.0,376049.0
2026-04-07 17:42:20.034807,147397,810404681,810406128,0.872544,-0.325984,-0.163968,-2.35375,1.14625,1.44375,-16.536001,-8.872001,17.488,concentric,2,3.0,32538.0,403431.0,372128.0,403431.0,376049.0
2026-04-07 17:42:20.036375,147398,810419278,810421014,0.874496,-0.31232,-0.179584,-2.2575,0.41125,1.365,-17.76,-10.184,19.936,concentric,2,3.0,32538.0,403431.0,372128.0,403431.0,376049.0
2026-04-07 17:42:20.040449,147399,810428400,810429779,0.874496,-0.31232,-0.179584,-2.7825,-1.12875,1.1725,-17.76,-10.184,19.936,concentric,2,3.0,32538.0,403431.0,372128.0,403431.0,376049.0
2026-04-07 17:42:20.046900,147400,810437494,810438512,0.880352,-0.304512,-0.181536,-2.975,-2.02125,1.95125,-17.456001,-10.072001,19.856,concentric,2,3.0,32538.0,403431.0,372128.0,403431.0,376049.0
2026-04-07 17:42:20.048499,147401,810446443,810447234,0.880352,-0.304512,-0.181536,-3.9375,-4.08625,1.74125,-17.456001,-10.072001,19.856,concentric,2,3.0,32538.0,403431.0,372128.0,403431.0,376049.0
2026-04-07 17:42:20.054166,147402,810461500,810462187,0.892064,-0.318176,-0.193248,-4.13875,-5.50375,1.05,-17.456001,-9.904,18.776001,concentric,2,3.0,32538.0,403431.0,372128.0,403431.0,376049.0
2026-04-07 17:42:20.113919,147413,810470934,810473056,0.892064,-0.318176,-0.193248,-4.8125,-6.3175,0.0,-17.456001,-9.904,18.776001,concentric,2,3.0,32878.0,403431.0,374299.0,403431.0,378331.0
2026-04-07 17:42:20.118123,147414,810479870,810481761,0.909632,-0.33184,-0.179584,-4.7775,-7.06125,-0.60375,-16.880001,-9.848001,17.296001,concentric,2,3.0,32878.0,403431.0,374299.0,403431.0,378331.0
2026-04-07 17:42:20.119822,147415,810488907,810490477,0.909632,-0.33184,-0.179584,-3.9025,-6.92125,-0.8925,-16.880001,-9.848001,17.296001,concentric,2,3.0,32878.0,403431.0,374299.0,403431.0,378331.0
2026-04-07 17:42:20.122211,147416,810503384,810505346,0.909632,-0.343552,-0.181536,-1.33875,-6.22125,-0.805,-17.28,-9.688001,17.256,concentric,2,3.0,32878.0,403431.0,374299.0,403431.0,378331.0
2026-04-07 17:42:20.123739,147417,810512305,810514063,0.909632,-0.343552,-0.181536,1.16375,-5.9325,0.525,-17.28,-9.688001,17.256,concentric,2,3.0,32878.0,403431.0,374299.0,403431.0,378331.0
2026-04-07 17:42:20.128170,147418,810521229,810522795,0.91744,-0.325984,-0.193248,3.17625,-6.44875,0.90125,-16.104,-8.864,17.240002,concentric,2,3.0,32878.0,403431.0,374299.0,403431.0,378331.0
2026-04-07 17:42:20.129744,147419,810535759,810537708,0.923296,-0.37088,-0.193248,3.85,-7.39375,1.26875,-16.504002,-9.376,18.92,concentric,2,3.0,32878.0,403431.0,374299.0,403431.0,378331.0
