pc_time,serial_num,sensor_ts,host_ts,ax,ay,az,gx,gy,gz,mx,my,mz,phase,rpe,weight_kg,ppg_a,ppg_b,ppg_c,ppg_d,ppg_e
2026-04-07 17:42:20.159927,147420,810544699,810546410,0.923296,-0.37088,-0.193248,4.8825,-7.4725,2.66875,-16.504002,-9.376,18.92,eccentric,2,3.0,32878.0,403431.0,374299.0,403431.0,378331.0
2026-04-07 17:42:20.162530,147421,810553633,810555127,0.923296,-0.37088,-0.193248,6.44875,-7.2625,3.5525,-16.504002,-9.376,18.92,eccentric,2,3.0,32878.0,403431.0,374299.0,403431.0,378331.0
2026-04-07 17:42:20.199837,147431,810568649,810570170,0.931104,-0.314272,-0.193248,7.5775,-6.825,2.77375,-15.320001,-8.776,16.480001,eccentric,2,3.0,33317.0,403431.0,376750.0,403431.0,380976.0
2026-04-07 17:42:20.201334,147432,810577766,810578962,0.931104,-0.339648,-0.203008,7.77,-6.55375,2.79125,-16.488,-9.360001,18.176,eccentric,2,3.0,33317.0,403431.0,376750.0,403431.0,380976.0
2026-04-07 17:42:20.205661,147433,810586711,810587675,0.931104,-0.339648,-0.203008,6.44,-6.895,3.21125,-16.488,-9.360001,18.176,eccentric,2,3.0,33317.0,403431.0,376750.0,403431.0,380976.0
2026-04-07 17:42:20.207316,147434,810595629,810596381,0.938912,-0.396256,-0.210816,5.08375,-7.07875,2.3975,-16.216002,-9.376,17.192001,eccentric,2,3.0,33317.0,403431.0,376750.0,403431.0,380976.0
2026-04-07 17:42:20.209665,147435,810610702,810611328,0.938912,-0.396256,-0.210816,6.27375,-6.615,2.66875,-16.216002,-9.376,17.192001,eccentric,2,3.0,33317.0,403431.0,376750.0,403431.0,380976.0
2026-04-07 17:42:20.215472,147436,810619963,810622088,0.954528,-0.365024,-0.163968,8.9425,-5.46,2.91375,-16.232,-8.888001,16.392,eccentric,2,3.0,33317.0,403431.0,376750.0,403431.0,380976.0
2026-04-07 17:42:20.221785,147437,810628926,810630908,0.954528,-0.365024,-0.163968,11.480001,-3.815,3.50875,-16.232,-8.888001,16.392,eccentric,2,3.0,33317.0,403431.0,376750.0,403431.0,380976.0
2026-04-07 17:42:20.250270,147438,810643421,810643783,0.913536,-0.374784,-0.150304,14.67375,-1.65375,5.81875,-15.824,-8.84,17.728,eccentric,2,3.0,33317.0,403431.0,376750.0,403431.0,380976.0
2026-04-07 17:42:20.254750,147439,810652686,810654540,0.913536,-0.374784,-0.150304,16.4675,0.93625,6.93875,-15.824,-8.84,17.728,eccentric,2,3.0,33317.0,403431.0,376750.0,403431.0,380976.0
2026-04-07 17:42:20.257174,147440,810661626,810663265,0.911584,-0.376736,-0.15616,18.3575,3.24625,8.11125,-16.640001,-8.936001,20.488,eccentric,2,3.0,33317.0,403431.0,376750.0,403431.0,380976.0
2026-04-07 17:42:20.315587,147450,810670697,810672039,0.911584,-0.376736,-0.15616,20.6325,5.04875,9.23125,-16.640001,-8.936001,20.488,eccentric,2,3.0,33131.0,403431.0,375406.0,403431.0,379382.0
2026-04-07 17:42:20.317320,147451,810685189,810687065,0.909632,-0.353312,-0.154208,20.76375,6.95625,8.28625,-16.024,-8.752001,18.84,eccentric,2,3.0,33131.0,403431.0,375406.0,403431.0,379382.0
2026-04-07 17:42:20.319895,147452,810694094,810695775,0.909632,-0.353312,-0.154208,17.6575,9.2225,7.3325,-16.024,-8.752001,18.84,eccentric,2,3.0,33131.0,403431.0,375406.0,403431.0,379382.0
2026-04-07 17:42:20.321416,147453,810703017,810704473,0.901824,-0.35136,-0.13664,15.2425,11.27875,5.425,-15.880001,-8.976001,18.472,eccentric,2,3.0,33131.0,403431.0,375406.0,403431.0,379382.0
2026-04-07 17:42:20.325623,147454,810717499,810719384,0.899872,-0.3904,-0.07808,12.7225,12.3025,4.03375,-16.504002,-8.56,19.28,eccentric,2,3.0,33131.0,403431.0,375406.0,403431.0,379382.0
2026-04-07 17:42:20.327200,147455,810726438,810728079,0.899872,-0.3904,-0.07808,10.56125,13.93875,3.87625,-16.504002,-8.56,19.28,eccentric,2,3.0,33131.0,403431.0,375406.0,403431.0,379382.0
2026-04-07 17:42:20.334209,147456,810735382,810736792,0.899872,-0.3904,-0.115168,12.355001,15.49625,4.7425,-16.504002,-8.56,19.28,eccentric,2,3.0,33131.0,403431.0,375406.0,403431.0,379382.0
2026-04-07 17:42:20.362806,147457,810749877,810751733,0.86864,-0.368928,-0.115168,14.91875,16.73,4.41875,-15.200001,-8.392,19.192001,eccentric,2,3.0,33131.0,403431.0,375406.0,403431.0,379382.0
2026-04-07 17:42:20.367412,147458,810758799,810760425,0.856928,-0.314272,-0.122976,13.95625,16.79125,2.52,-15.368001,-8.656,20.720001,eccentric,2,3.0,33131.0,403431.0,375406.0,403431.0,379382.0
2026-04-07 17:42:20.397362,147469,810767869,810769211,0.856928,-0.314272,-0.122976,10.73625,17.4475,1.40875,-15.368001,-8.656,20.720001,eccentric,2,3.0,31795.0,403431.0,367293.0,403431.0,370625.0
2026-04-07 17:42:20.399811,147470,810776861,810777952,0.8296,-0.359168,-0.11712,6.4225,17.7625,-0.90125,-15.032001,-8.624001,18.648,eccentric,2,3.0,31795.0,403431.0,367293.0,403431.0,370625.0
2026-04-07 17:42:20.401329,147471,810791484,810792929,0.8296,-0.359168,-0.11712,3.29,17.2025,-3.6925,-15.032001,-8.624001,18.648,eccentric,2,3.0,31795.0,403431.0,367293.0,403431.0,370625.0
2026-04-07 17:42:20.405678,147472,810800394,810801689,0.81984,-0.36112,-0.080032,0.77,17.8325,-4.90875,-14.816001,-8.816,19.36,eccentric,2,3.0,31795.0,403431.0,367293.0,403431.0,370625.0
2026-04-07 17:42:20.408046,147473,810809320,810810401,0.81984,-0.36112,-0.080032,2.7125,18.59375,-5.9325,-14.816001,-8.816,19.36,eccentric,2,3.0,31795.0,403431.0,367293.0,403431.0,370625.0
2026-04-07 17:42:20.436562,147474,810823838,810825260,0.804224,-0.337696,-0.0976,5.17125,19.34625,-6.265,-15.248001,-8.400001,19.28,eccentric,2,3.0,31795.0,403431.0,367293.0,403431.0,370625.0
2026-04-07 17:42:20.440959,147475,810832771,810833973,0.804224,-0.337696,-0.0976,5.50375,19.41625,-6.79,-15.248001,-8.400001,19.28,eccentric,2,3.0,31795.0,403431.0,367293.0,403431.0,370625.0
2026-04-07 17:42:20.448155,147476,810841701,810842647,0.774944,-0.337696,-0.080032,4.38375,19.17125,-8.2425,-14.080001,-7.808001,17.984001,eccentric,2,3.0,31795.0,403431.0,367293.0,403431.0,370625.0
2026-04-07 17:42:20.450642,147477,810856163,810857564,0.774944,-0.335744,-0.083936,2.8,18.6725,-8.75,-14.080001,-7.808001,17.984001,eccentric,2,3.0,31795.0,403431.0,367293.0,403431.0,370625.0
2026-04-07 17:42:20.479018,147478,810865073,810866271,0.776896,-0.335744,-0.083936,0.04375,18.2875,-9.59,-15.016001,-8.544001,19.080002,eccentric,2,3.0,31795.0,403431.0,367293.0,403431.0,370625.0
2026-04-07 17:42:20.510815,147488,810874091,810875042,0.776896,-0.335744,-0.083936,-1.63625,18.935,-12.285,-15.016001,-8.544001,19.080002,eccentric,2,3.0,30303.0,398316.0,358475.0,403431.0,362775.0
2026-04-07 17:42:20.512488,147489,810883016,810883742,0.782752,-0.316224,-0.074176,-2.4325,19.39875,-15.225,-15.056001,-8.808001,22.128,eccentric,2,3.0,30303.0,398316.0,358475.0,403431.0,362775.0
2026-04-07 17:42:20.514012,147490,810897998,810898651,0.765184,-0.35136,-0.046848,-4.38375,18.7425,-16.2225,-15.68,-8.872001,20.032001,eccentric,2,3.0,30303.0,398316.0,358475.0,403431.0,362775.0
2026-04-07 17:42:20.518117,147491,810907284,810909486,0.765184,-0.35136,-0.046848,-7.06125,18.71625,-16.68625,-15.68,-8.872001,20.032001,eccentric,2,3.0,30303.0,398316.0,358475.0,403431.0,362775.0
2026-04-07 17:42:20.519654,147492,810916238,810918192,0.765184,-0.35136,-0.066368,-9.0475,18.08625,-17.535,-15.68,-8.872001,20.032001,eccentric,2,3.0,30303.0,398316.0,358475.0,403431.0,362775.0
2026-04-07 17:42:20.525492,147493,810930805,810933096,0.75152,-0.347456,-0.066368,-7.665,17.85,-18.15625,-15.408001,-9.584001,18.592001,eccentric,2,3.0,30303.0,398316.0,358475.0,403431.0,362775.0
2026-04-07 17:42:20.554012,147494,810939725,810941816,0.788608,-0.337696,-0.081984,-7.0875,17.3075,-18.655,-14.504001,-9.544001,20.656,eccentric,2,3.0,30303.0,398316.0,358475.0,403431.0,362775.0
2026-04-07 17:42:20.558563,147495,810948698,810950604,0.788608,-0.337696,-0.081984,-7.60375,17.4475,-19.3025,-14.504001,-9.544001,20.656,eccentric,2,3.0,30303.0,398316.0,358475.0,403431.0,362775.0
2026-04-07 17:42:20.560045,147496,810957730,810959291,0.802272,-0.314272,-0.064416,-5.7925,18.83875,-20.74625,-15.312,-9.52,22.528002,eccentric,2,3.0,30303.0,398316.0,358475.0,403431.0,362775.0
2026-04-07 17:42:20.621019,147506,810972413,810974474,0.802272,-0.314272,-0.064416,-4.2875,19.897501,-21.70875,-15.312,-9.52,22.528002,eccentric,2,3.0,29450.0,391616.0,352872.0,403431.0,358437.0
2026-04-07 17:42:20.622656,147507,810981457,810983213,0.792512,-0.3416,-0.050752,-5.52125,20.195,-22.56625,-14.248001,-10.096001,19.52,eccentric,2,3.0,29450.0,391616.0,352872.0,403431.0,358437.0
2026-04-07 17:42:20.627388,147508,810990364,810991893,0.792512,-0.3416,-0.050752,-8.37375,20.055,-23.178751,-14.248001,-10.096001,19.52,eccentric,2,3.0,29450.0,391616.0,352872.0,403431.0,358437.0
2026-04-07 17:42:20.628557,147509,811004868,811006763,0.804224,-0.35136,-0.074176,-8.72375,19.90625,-22.6975,-14.656001,-10.352,20.856,eccentric,2,3.0,29450.0,391616.0,352872.0,403431.0,358437.0
2026-04-07 17:42:20.631478,147510,811013814,811015476,0.804224,-0.35136,-0.074176,-9.09125,20.335001,-23.24,-14.656001,-10.352,20.856,eccentric,2,3.0,29450.0,391616.0,352872.0,403431.0,358437.0
2026-04-07 17:42:20.634415,147511,811022847,811024201,0.831552,-0.30256,-0.064416,-9.30125,21.77875,-24.4475,-14.320001,-10.656,20.824001,eccentric,2,3.0,29450.0,391616.0,352872.0,403431.0,358437.0
2026-04-07 17:42:20.635961,147512,811037355,811039130,0.815936,-0.310368,-0.07808,-7.84875,23.345,-24.59625,-14.328001,-10.856001,20.432001,eccentric,2,3.0,29450.0,391616.0,352872.0,403431.0,358437.0
2026-04-07 17:42:20.639658,147513,811046327,811047850,0.815936,-0.310368,-0.07808,-9.31875,25.2175,-26.0575,-14.328001,-10.856001,20.432001,eccentric,2,3.0,29450.0,391616.0,352872.0,403431.0,358437.0
2026-04-07 17:42:20.670071,147514,811055328,811056562,0.815936,-0.310368,-0.07808,-9.00375,26.145,-27.16875,-14.328001,-10.856001,20.432001,eccentric,2,3.0,29450.0,391616.0,352872.0,403431.0,358437.0
2026-04-07 17:42:20.672283,147515,811064263,811065308,0.798368,-0.314272,-0.072224,-9.415,26.897501,-27.65,-14.224001,-10.888001,19.136002,eccentric,2,3.0,29450.0,391616.0,352872.0,403431.0,358437.0
2026-04-07 17:42:20.700198,147526,811078801,811080295,0.784704,-0.286944,-0.056608,-9.42375,27.29125,-28.14875,-14.008,-10.744,19.656,eccentric,2,3.0,29121.0,388557.0,350183.0,403431.0,356240.0
2026-04-07 17:42:20.704365,147527,811087771,811088991,0.784704,-0.286944,-0.056608,-8.8375,27.7375,-27.32625,-14.008,-10.744,19.656,eccentric,2,3.0,29121.0,388557.0,350183.0,403431.0,356240.0
2026-04-07 17:42:20.706060,147528,811096758,811097737,0.784704,-0.286944,-0.040992,-11.83875,29.04125,-27.65875,-14.008,-10.744,19.656,eccentric,2,3.0,29121.0,388557.0,350183.0,403431.0,356240.0
2026-04-07 17:42:20.708366,147529,811111439,811112727,0.794464,-0.26352,-0.033184,-13.9825,30.49375,-28.79625,-14.016001,-11.264001,19.016,eccentric,2,3.0,29121.0,388557.0,350183.0,403431.0,356240.0
2026-04-07 17:42:20.714153,147530,811120509,811121464,0.765184,-0.257664,-0.052704,-14.2275,32.26125,-29.47,-13.64,-11.88,21.424002,eccentric,2,3.0,29121.0,388557.0,350183.0,403431.0,356240.0
2026-04-07 17:42:20.742779,147531,811129511,811130215,0.765184,-0.257664,-0.052704,-13.475,32.41875,-29.96875,-13.64,-11.88,21.424002,eccentric,2,3.0,29121.0,388557.0,350183.0,403431.0,356240.0
2026-04-07 17:42:20.747458,147532,811138940,811140961,0.739808,-0.257664,-0.021472,-15.198751,31.675,-31.24625,-13.992001,-12.216001,20.240002,eccentric,2,3.0,29121.0,388557.0,350183.0,403431.0,356240.0
2026-04-07 17:42:20.749063,147533,811153484,811155020,0.739808,-0.257664,-0.021472,-13.51875,30.5725,-31.29,-13.992001,-12.216001,20.240002,eccentric,2,3.0,29121.0,388557.0,350183.0,403431.0,356240.0
2026-04-07 17:42:20.755494,147534,811162451,811163756,0.753472,-0.244,-0.080032,-11.27,29.4175,-30.94,-13.192,-12.368001,20.888,eccentric,2,3.0,29121.0,388557.0,350183.0,403431.0,356240.0
2026-04-07 17:42:20.788571,147544,811171904,811172626,0.753472,-0.244,-0.080032,-10.395,27.7025,-30.598751,-13.192,-12.368001,20.888,eccentric,2,3.0,28437.0,383070.0,345876.0,403431.0,353200.0
2026-04-07 17:42:20.790931,147545,811186919,811187561,0.792512,-0.20496,-0.015616,-11.82125,27.5975,-31.28125,-14.112,-12.8,22.072,eccentric,2,3.0,28437.0,383070.0,345876.0,403431.0,353200.0
2026-04-07 17:42:20.803126,147546,811196169,811198385,0.792512,-0.20496,-0.015616,-10.745,28.1225,-32.1125,-14.112,-12.8,22.072,eccentric,2,3.0,28437.0,383070.0,345876.0,403431.0,353200.0
2026-04-07 17:42:20.804851,147547,811205189,811207106,0.743712,-0.218624,-0.040992,-7.91,28.25375,-31.77125,-13.656001,-13.120001,21.368002,eccentric,2,3.0,28437.0,383070.0,345876.0,403431.0,353200.0
2026-04-07 17:42:20.807243,147548,811214164,811215796,0.743712,-0.218624,-0.040992,-10.17625,27.553751,-30.68625,-13.656001,-13.120001,21.368002,eccentric,2,3.0,28437.0,383070.0,345876.0,403431.0,353200.0
2026-04-07 17:42:20.837513,147549,811228685,811230707,0.745664,-0.232288,-0.017568,-12.53875,25.87375,-28.84,-13.104001,-13.400001,21.016,eccentric,2,3.0,28437.0,383070.0,345876.0,403431.0,353200.0
2026-04-07 17:42:20.839712,147550,811237613,811239387,0.745664,-0.216672,-0.035136,-14.035,24.22,-27.48375,-13.104001,-13.400001,21.016,eccentric,2,3.0,28437.0,383070.0,345876.0,403431.0,353200.0
2026-04-07 17:42:20.844340,147551,811246616,811248112,0.792512,-0.21472,-0.035136,-15.8025,22.26,-28.1225,-13.376,-13.248001,20.28,eccentric,2,3.0,28437.0,383070.0,345876.0,403431.0,353200.0
2026-04-07 17:42:20.898735,147552,811261124,811263002,0.85888,-0.189344,0.007808,-11.8125,21.9625,-29.61,-13.608001,-13.736001,23.384,eccentric,2,3.0,28437.0,383070.0,345876.0,403431.0,353200.0
2026-04-07 17:42:20.925593,147562,811270397,811272003,0.85888,-0.189344,0.007808,-9.21375,22.14625,-32.52375,-13.608001,-13.736001,23.384,eccentric,2,3.0,27741.0,377510.0,341449.0,403275.0,350227.0
2026-04-07 17:42:20.927312,147563,811279373,811280749,0.788608,-0.208864,-0.023424,-7.9625,23.10875,-35.035,-13.056001,-13.840001,22.104002,eccentric,2,3.0,27741.0,377510.0,341449.0,403275.0,350227.0
2026-04-07 17:42:20.928857,147564,811288276,811289446,0.788608,-0.208864,-0.023424,-7.4025,23.275,-34.4225,-13.056001,-13.840001,22.104002,eccentric,2,3.0,27741.0,377510.0,341449.0,403275.0,350227.0
2026-04-07 17:42:20.933087,147565,811302763,811304352,0.821792,-0.232288,0.00976,-12.136251,21.74375,-32.80375,-13.024,-14.776001,21.768002,eccentric,2,3.0,27741.0,377510.0,341449.0,403275.0,350227.0
2026-04-07 17:42:20.934875,147566,811311725,811313057,0.821792,-0.232288,0.00976,-14.595,20.44,-31.053751,-13.024,-14.776001,21.768002,eccentric,2,3.0,27741.0,377510.0,341449.0,403275.0,350227.0
2026-04-07 17:42:20.936326,147567,811320645,811321810,0.825696,-0.158112,0.035136,-13.9475,19.59125,-30.345,-12.864,-14.64,22.12,eccentric,2,3.0,27741.0,377510.0,341449.0,403275.0,350227.0
2026-04-07 17:42:20.940567,147568,811335294,811336723,0.825696,-0.158112,0.035136,-12.075,19.57375,-31.36,-12.864,-14.64,22.12,eccentric,2,3.0,27741.0,377510.0,341449.0,403275.0,350227.0
2026-04-07 17:42:20.942176,147569,811344291,811345445,0.788608,-0.171776,0.0,-10.50875,18.7425,-32.445,-13.152,-15.184001,22.056002,eccentric,2,3.0,27741.0,377510.0,341449.0,403275.0,350227.0
2026-04-07 17:42:20.946043,147570,811353211,811354180,0.788608,-0.171776,0.0,-8.54,16.1,-31.92,-13.152,-15.184001,22.056002,eccentric,2,3.0,27741.0,377510.0,341449.0,403275.0,350227.0
2026-04-07 17:42:20.977449,147571,811367731,811369088,0.7808,-0.191296,0.001952,-8.25125,14.49875,-30.63375,-12.896001,-15.184001,22.488,eccentric,2,3.0,27741.0,377510.0,341449.0,403275.0,350227.0
2026-04-07 17:42:21.009844,147582,811376686,811377836,0.7808,-0.191296,0.001952,-7.175,12.20625,-29.95125,-12.896001,-15.184001,22.488,eccentric,2,3.0,27382.0,374343.0,338979.0,401855.0,348439.0
2026-04-07 17:42:21.011388,147583,811385589,811386568,0.802272,-0.16592,0.050752,-6.2475,10.9725,-30.28375,-13.344001,-15.224001,22.240002,eccentric,2,3.0,27382.0,374343.0,338979.0,401855.0,348439.0
2026-04-07 17:42:21.015652,147584,811394495,811395314,0.802272,-0.16592,0.050752,-5.32875,10.535,-30.5375,-13.344001,-15.224001,22.240002,eccentric,2,3.0,27382.0,374343.0,338979.0,401855.0,348439.0
2026-04-07 17:42:21.017339,147585,811409002,811410301,0.808128,-0.208864,0.054656,-5.03125,9.4675,-30.07375,-12.984,-15.336,23.608002,eccentric,2,3.0,27382.0,374343.0,338979.0,401855.0,348439.0
2026-04-07 17:42:21.018884,147586,811417943,811419035,0.808128,-0.208864,0.054656,-9.42375,8.505,-30.09125,-12.984,-15.336,23.608002,eccentric,2,3.0,27382.0,374343.0,338979.0,401855.0,348439.0
2026-04-07 17:42:21.023046,147587,811426879,811427725,0.806176,-0.244,0.027328,-10.5525,7.805,-28.91875,-12.312,-15.920001,19.84,eccentric,2,3.0,27382.0,374343.0,338979.0,401855.0,348439.0
2026-04-07 17:42:21.056936,147588,811441430,811442657,0.853024,-0.16592,0.064416,-11.865,6.09875,-27.85125,-12.368001,-16.0,23.312,eccentric,2,3.0,27382.0,374343.0,338979.0,401855.0,348439.0
2026-04-07 17:42:21.058565,147589,811450306,811451404,0.853024,-0.16592,0.064416,-13.51,7.105,-29.2775,-12.368001,-16.0,23.312,eccentric,2,3.0,27382.0,374343.0,338979.0,401855.0,348439.0
2026-04-07 17:42:21.060138,147590,811459203,811460140,0.821792,-0.160064,0.005856,-11.3225,10.31625,-29.12,-12.432,-16.0,22.848001,eccentric,2,3.0,27382.0,374343.0,338979.0,401855.0,348439.0
2026-04-07 17:42:21.086061,147600,811474237,811475217,0.821792,-0.160064,0.005856,-15.26875,12.53875,-25.3925,-12.432,-16.0,22.848001,eccentric,2,3.0,27390.0,374076.0,338685.0,401436.0,348240.0
2026-04-07 17:42:21.087641,147601,811483261,811483958,0.8296,-0.128832,0.066368,-19.45125,15.82875,-22.9425,-12.752001,-16.672,23.824001,eccentric,2,3.0,27390.0,374076.0,338685.0,401436.0,348240.0
2026-04-07 17:42:21.091688,147602,811492576,811494726,0.8296,-0.128832,0.066368,-19.17125,18.9175,-23.905,-12.752001,-16.672,23.824001,eccentric,2,3.0,27390.0,374076.0,338685.0,401436.0,348240.0
2026-04-07 17:42:21.096017,147603,811501537,811503413,0.7808,-0.11712,0.025376,-17.85875,21.11375,-25.08625,-12.264001,-16.880001,22.664001,eccentric,2,3.0,27390.0,374076.0,338685.0,401436.0,348240.0
2026-04-07 17:42:21.126207,147604,811516042,811518326,0.7808,-0.11712,0.025376,-14.49875,19.95875,-27.3875,-12.264001,-16.880001,22.664001,eccentric,2,3.0,27390.0,374076.0,338685.0,401436.0,348240.0
2026-04-07 17:42:21.128525,147605,811524938,811527039,0.782752,-0.171776,0.013664,-11.1125,18.52375,-28.77,-12.152,-17.392,22.976002,eccentric,2,3.0,27390.0,374076.0,338685.0,401436.0,348240.0
2026-04-07 17:42:21.133042,147606,811533819,811535714,0.782752,-0.171776,0.013664,-8.1025,14.665,-26.460001,-12.152,-17.392,22.976002,eccentric,2,3.0,27390.0,374076.0,338685.0,401436.0,348240.0
2026-04-07 17:42:21.161503,147607,811548332,811550627,0.792512,-0.12688,-0.015616,-3.64875,11.41875,-25.45375,-12.040001,-17.168001,22.920002,eccentric,2,3.0,27390.0,374076.0,338685.0,401436.0,348240.0
2026-04-07 17:42:21.166018,147608,811557252,811559336,0.792512,-0.12688,-0.015616,-0.65625,8.65375,-23.80875,-12.040001,-17.168001,22.920002,eccentric,2,3.0,27390.0,374076.0,338685.0,401436.0,348240.0
2026-04-07 17:42:21.199028,147609,811566142,811568025,0.843264,-0.060512,0.052704,-1.30375,6.93,-22.2775,-11.64,-17.352001,23.392,eccentric,2,3.0,27390.0,374076.0,338685.0,401436.0,348240.0
2026-04-07 17:42:21.227073,147619,811580685,811583013,0.786656,-0.101504,0.056608,-5.74,6.405,-22.09375,-11.200001,-17.696001,22.248001,eccentric,2,3.0,26963.0,370791.0,336236.0,399126.0,346091.0
2026-04-07 17:42:21.228739,147620,811589598,811591697,0.786656,-0.101504,0.056608,-8.715,6.43125,-20.3175,-11.200001,-17.696001,22.248001,eccentric,2,3.0,26963.0,370791.0,336236.0,399126.0,346091.0
2026-04-07 17:42:21.230186,147621,811598515,811600403,0.786656,-0.101504,0.056608,-9.98375,5.495,-18.515,-11.200001,-17.696001,22.248001,eccentric,2,3.0,26963.0,370791.0,336236.0,399126.0,346091.0
2026-04-07 17:42:21.234355,147622,811607440,811609081,0.79056,-0.160064,0.025376,-8.82,4.1825,-17.535,-11.920001,-18.088001,22.224,eccentric,2,3.0,26963.0,370791.0,336236.0,399126.0,346091.0
2026-04-07 17:42:21.236057,147623,811621897,811623976,0.817888,-0.109312,0.01952,-5.80125,3.05375,-14.83125,-11.672001,-18.264,23.208,eccentric,2,3.0,26963.0,370791.0,336236.0,399126.0,346091.0
2026-04-07 17:42:21.237600,147624,811630918,811632726,0.817888,-0.109312,0.01952,-7.3675,3.15875,-13.3175,-11.672001,-18.264,23.208,eccentric,2,3.0,26963.0,370791.0,336236.0,399126.0,346091.0
2026-04-07 17:42:21.243240,147625,811639868,811641424,0.784704,-0.101504,0.005856,-9.6425,4.15625,-10.52625,-11.672001,-18.096,23.768002,eccentric,2,3.0,26963.0,370791.0,336236.0,399126.0,346091.0
2026-04-07 17:42:21.246362,147626,811654440,811656369,0.784704,-0.101504,0.005856,-12.285,4.2525,-8.9775,-11.432,-18.096,23.768002,eccentric,2,3.0,26963.0,370791.0,336236.0,399126.0,346091.0
2026-04-07 17:42:21.277392,147627,811663360,811665129,0.772992,-0.138592,0.003904,-12.775,3.5,-9.31,-11.512,-18.224,23.064001,eccentric,2,3.0,26963.0,370791.0,336236.0,399126.0,346091.0
2026-04-07 17:42:21.305012,147638,811672839,811674187,0.772992,-0.138592,0.003904,-10.2725,2.7825,-8.89,-11.512,-18.224,23.064001,eccentric,2,3.0,27069.0,371399.0,336633.0,399460.0,346475.0
2026-04-07 17:42:21.309670,147639,811687373,811689092,0.812032,-0.138592,0.033184,-6.85125,1.61,-8.2425,-12.048,-18.048,23.28,eccentric,2,3.0,27069.0,371399.0,336633.0,399460.0,346475.0
2026-04-07 17:42:21.311200,147640,811696321,811697834,0.812032,-0.138592,0.033184,-6.23,1.2425,-8.11125,-12.048,-18.048,23.28,eccentric,2,3.0,27069.0,371399.0,336633.0,399460.0,346475.0
2026-04-07 17:42:21.312780,147641,811705304,811706554,0.796416,-0.119072,0.0,-7.1575,1.89,-7.20125,-11.296001,-18.224,22.968,eccentric,2,3.0,27069.0,371399.0,336633.0,399460.0,346475.0
2026-04-07 17:42:21.316743,147642,811714219,811715281,0.796416,-0.119072,0.0,-10.91125,2.17875,-6.755,-11.296001,-18.224,22.968,eccentric,2,3.0,27069.0,371399.0,336633.0,399460.0,346475.0
2026-04-07 17:42:21.345339,147643,811728729,811730232,0.8296,-0.162016,-0.003904,-13.04625,2.66875,-6.195,-10.952001,-18.176,24.160002,eccentric,2,3.0,27069.0,371399.0,336633.0,399460.0,346475.0
2026-04-07 17:42:21.349674,147644,811737650,811738960,0.8296,-0.162016,-0.003904,-11.375,4.52375,-4.97875,-10.952001,-18.176,24.160002,eccentric,2,3.0,27069.0,371399.0,336633.0,399460.0,346475.0
2026-04-07 17:42:21.384927,147645,811746559,811747650,0.821792,-0.154208,0.003904,-11.43625,5.88,-3.01,-11.576,-18.2,23.432001,eccentric,2,3.0,27069.0,371399.0,336633.0,399460.0,346475.0
2026-04-07 17:42:21.389514,147646,811761030,811762541,0.864736,-0.152256,-0.044896,-14.2275,5.88875,-0.91875,-11.64,-18.232,22.672,eccentric,2,3.0,27069.0,371399.0,336633.0,399460.0,346475.0
2026-04-07 17:42:21.391467,147647,811769979,811771281,0.864736,-0.152256,-0.044896,-16.70375,5.355,0.34125,-11.64,-18.232,22.672,eccentric,2,3.0,27069.0,371399.0,336633.0,399460.0,346475.0
2026-04-07 17:42:21.418597,147657,811778975,811780104,0.864736,-0.152256,-0.044896,-17.42125,4.41875,0.23625,-11.64,-18.232,22.672,eccentric,2,3.0,27418.0,374138.0,338692.0,401244.0,348105.0
2026-04-07 17:42:21.420265,147658,811793554,811794991,0.845216,-0.115168,-0.037088,-13.16,3.85,-1.26875,-12.200001,-18.512001,22.968,eccentric,2,3.0,27418.0,374138.0,338692.0,401244.0,348105.0
2026-04-07 17:42:21.424337,147659,811802510,811803711,0.856928,-0.121024,-0.003904,-8.02375,3.0625,-2.94875,-12.248,-18.464,24.320002,eccentric,2,3.0,27418.0,374138.0,338692.0,401244.0,348105.0
2026-04-07 17:42:21.426039,147660,811811460,811812513,0.856928,-0.121024,-0.003904,-5.0225,2.98375,-4.2875,-12.248,-18.464,24.320002,eccentric,2,3.0,27418.0,374138.0,338692.0,401244.0,348105.0
2026-04-07 17:42:21.427662,147661,811825973,811827478,0.83936,-0.158112,-0.031232,-4.15625,3.22,-4.3575,-12.096001,-18.44,24.648,eccentric,2,3.0,27418.0,374138.0,338692.0,401244.0,348105.0
2026-04-07 17:42:21.431717,147662,811834931,811836217,0.83936,-0.158112,-0.031232,-3.66625,2.5025,-4.06875,-12.096001,-18.44,24.648,eccentric,2,3.0,27418.0,374138.0,338692.0,401244.0,348105.0
2026-04-07 17:42:21.438093,147663,811843954,811844979,0.841312,-0.160064,-0.046848,-3.1675,1.81125,-2.94875,-11.944,-18.352001,24.736002,eccentric,2,3.0,27418.0,374138.0,338692.0,401244.0,348105.0
2026-04-07 17:42:21.497501,147664,811852903,811853737,0.841312,-0.160064,-0.046848,-3.17625,1.16375,-1.18125,-11.944,-18.352001,24.736002,eccentric,2,3.0,27418.0,374138.0,338692.0,401244.0,348105.0
2026-04-07 17:42:21.499821,147665,811867390,811868617,0.827648,-0.11712,0.005856,-3.115,1.0325,-0.98875,-11.744,-17.472,22.624,eccentric,2,3.0,27418.0,374138.0,338692.0,401244.0,348105.0
2026-04-07 17:42:21.529450,147675,811876468,811877387,0.827648,-0.11712,0.005856,-2.205,2.73875,-1.5225,-11.744,-17.472,22.624,eccentric,2,3.0,27817.0,376898.0,340696.0,402582.0,349154.0
2026-04-07 17:42:21.531819,147676,811885450,811886127,0.786656,-0.154208,-0.021472,-2.49375,3.75375,-0.81375,-11.6,-18.36,23.432001,eccentric,2,3.0,27817.0,376898.0,340696.0,402582.0,349154.0
2026-04-07 17:42:21.538095,147677,811900319,811901017,0.786656,-0.169824,-0.02928,-2.70375,3.98125,-0.77,-11.6,-18.36,23.432001,eccentric,2,3.0,27817.0,376898.0,340696.0,402582.0,349154.0
2026-04-07 17:42:21.539819,147678,811909604,811911799,0.755424,-0.167872,-0.02928,-1.575,4.48875,-0.44625,-11.664001,-18.272001,23.912,eccentric,2,3.0,27817.0,376898.0,340696.0,402582.0,349154.0
2026-04-07 17:42:21.541343,147679,811918759,811920556,0.755424,-0.167872,-0.02928,-0.525,3.71,1.07625,-11.664001,-18.272001,23.912,eccentric,2,3.0,27817.0,376898.0,340696.0,402582.0,349154.0
2026-04-07 17:42:21.545847,147680,811927856,811929281,0.759328,-0.173728,-0.066368,1.8375,0.665,3.185,-12.200001,-18.456001,25.456001,eccentric,2,3.0,27817.0,376898.0,340696.0,402582.0,349154.0
2026-04-07 17:42:21.551978,147681,811942461,811944196,0.796416,-0.140544,-0.037088,4.6725,-0.46375,4.85625,-12.512001,-18.336,25.104002,eccentric,2,3.0,27817.0,376898.0,340696.0,402582.0,349154.0
2026-04-07 17:42:21.553564,147682,811951426,811952927,0.796416,-0.140544,-0.037088,6.46625,-0.2275,4.96125,-12.512001,-18.336,25.104002,eccentric,2,3.0,27817.0,376898.0,340696.0,402582.0,349154.0
2026-04-07 17:42:21.555068,147683,811960382,811961657,0.796416,-0.140544,-0.015616,7.3675,0.14875,3.71,-12.512001,-18.336,25.104002,eccentric,2,3.0,27817.0,376898.0,340696.0,402582.0,349154.0
2026-04-07 17:42:21.616079,147694,811975405,811976669,0.767136,-0.17568,-0.015616,7.805,-0.27125,3.45625,-11.792001,-17.736,23.512001,concentric,2,3.0,27892.0,377607.0,341232.0,402773.0,349354.0
2026-04-07 17:42:21.617607,147695,811984539,811985385,0.74176,-0.199104,-0.02928,8.77625,-2.66875,5.31125,-11.424001,-17.76,23.264002,concentric,2,3.0,27892.0,377607.0,341232.0,402773.0,349354.0
2026-04-07 17:42:21.621831,147696,811993493,811994077,0.74176,-0.199104,-0.02928,10.89375,-6.13375,8.46125,-11.424001,-17.76,23.264002,concentric,2,3.0,27892.0,377607.0,341232.0,402773.0,349354.0
2026-04-07 17:42:21.623536,147697,812002711,812004844,0.792512,-0.18544,0.001952,14.27125,-9.38875,12.6175,-11.312,-17.176,22.640001,concentric,2,3.0,27892.0,377607.0,341232.0,402773.0,349354.0
2026-04-07 17:42:21.626213,147698,812017234,812017718,0.792512,-0.18544,0.001952,15.18125,-9.23125,14.42875,-11.312,-17.176,22.640001,concentric,2,3.0,27892.0,377607.0,341232.0,402773.0,349354.0
2026-04-07 17:42:21.628604,147699,812026648,812028492,0.730048,-0.17568,0.001952,12.74875,-5.80125,12.80125,-11.952001,-17.704,23.064001,concentric,2,3.0,27892.0,377607.0,341232.0,402773.0,349354.0
2026-04-07 17:42:21.635663,147700,812035607,812037181,0.730048,-0.17568,0.001952,10.75375,-2.59,13.41375,-11.952001,-17.704,23.064001,concentric,2,3.0,27892.0,377607.0,341232.0,402773.0,349354.0
2026-04-07 17:42:21.638049,147701,812044571,812045939,0.737856,-0.218624,-0.042944,4.9175,-2.8875,15.33875,-12.656,-17.272001,24.376001,concentric,2,3.0,27892.0,377607.0,341232.0,402773.0,349354.0
2026-04-07 17:42:21.666844,147702,812059073,812060852,0.737856,-0.218624,-0.042944,4.9525,-4.50625,17.4825,-12.656,-17.272001,24.376001,concentric,2,3.0,27892.0,377607.0,341232.0,402773.0,349354.0
2026-04-07 17:42:21.671108,147703,812067989,812069561,0.753472,-0.187392,-0.050752,8.56625,-6.01125,18.82125,-12.464001,-16.616001,23.2,concentric,2,3.0,27892.0,377607.0,341232.0,402773.0,349354.0
2026-04-07 17:42:21.696071,147713,812077380,812078463,0.753472,-0.187392,-0.050752,12.60875,-8.07625,21.53375,-12.464001,-16.616001,23.2,concentric,2,3.0,28502.0,382485.0,345109.0,403431.0,352294.0
2026-04-07 17:42:21.697607,147714,812092078,812093400,0.7808,-0.128832,0.011712,11.97,-8.86375,21.81375,-12.896001,-16.224,22.888,concentric,2,3.0,28502.0,382485.0,345109.0,403431.0,352294.0
2026-04-07 17:42:21.704345,147715,812101223,812102200,0.7808,-0.17568,-0.027328,11.8825,-8.89,20.58,-12.896001,-16.224,22.888,concentric,2,3.0,28502.0,382485.0,345109.0,403431.0,352294.0
2026-04-07 17:42:21.706957,147716,812110209,812110927,0.772992,-0.181536,-0.027328,13.86875,-9.91375,19.9675,-13.064001,-16.456001,22.576,concentric,2,3.0,28502.0,382485.0,345109.0,403431.0,352294.0
2026-04-07 17:42:21.735403,147717,812119538,812121713,0.772992,-0.181536,-0.027328,14.323751,-10.85,20.055,-13.064001,-16.456001,22.576,concentric,2,3.0,28502.0,382485.0,345109.0,403431.0,352294.0
2026-04-07 17:42:21.739774,147718,812134247,812134567,0.76128,-0.179584,-0.011712,15.44375,-11.515,19.64375,-13.176001,-15.64,23.52,concentric,2,3.0,28502.0,382485.0,345109.0,403431.0,352294.0
2026-04-07 17:42:21.741309,147719,812143489,812145393,0.796416,-0.177632,-0.02928,17.40375,-13.16875,19.81,-12.56,-15.240001,24.320002,concentric,2,3.0,28502.0,382485.0,345109.0,403431.0,352294.0
2026-04-07 17:42:21.745535,147720,812152404,812154143,0.796416,-0.177632,-0.02928,17.70125,-14.761251,21.525,-12.56,-15.240001,24.320002,concentric,2,3.0,28502.0,382485.0,345109.0,403431.0,352294.0
2026-04-07 17:42:21.798740,147721,812166930,812169049,0.81984,-0.181536,-0.021472,14.51625,-14.84,21.1575,-12.768001,-14.920001,22.416,concentric,2,3.0,28502.0,382485.0,345109.0,403431.0,352294.0
2026-04-07 17:42:21.829031,147731,812176246,812177795,0.81984,-0.181536,-0.021472,14.63875,-14.542501,19.32,-12.768001,-14.920001,22.416,concentric,2,3.0,29329.0,389091.0,350461.0,403431.0,356870.0
2026-04-07 17:42:21.830119,147732,812185293,812186510,0.782752,-0.197152,-0.054656,19.425,-15.408751,19.27625,-13.136001,-15.120001,22.096,concentric,2,3.0,29329.0,389091.0,350461.0,403431.0,356870.0
2026-04-07 17:42:21.834404,147733,812194167,812195262,0.782752,-0.197152,-0.054656,24.94625,-17.07125,20.5275,-13.136001,-15.120001,22.096,concentric,2,3.0,29329.0,389091.0,350461.0,403431.0,356870.0
2026-04-07 17:42:21.836004,147734,812208687,812210196,0.786656,-0.177632,-0.037088,26.4425,-18.3925,21.9275,-13.504001,-14.584001,22.504002,concentric,2,3.0,29329.0,389091.0,350461.0,403431.0,356870.0
2026-04-07 17:42:21.837648,147735,812217713,812218931,0.786656,-0.177632,-0.037088,23.86125,-19.22375,22.63625,-13.504001,-14.584001,22.504002,concentric,2,3.0,29329.0,389091.0,350461.0,403431.0,356870.0
2026-04-07 17:42:21.841835,147736,812226602,812227669,0.804224,-0.17568,0.017568,21.9275,-18.61125,22.82875,-14.016001,-14.64,24.512001,concentric,2,3.0,29329.0,389091.0,350461.0,403431.0,356870.0
2026-04-07 17:42:21.843577,147737,812241164,812242679,0.804224,-0.17568,0.017568,19.425,-17.1325,21.77875,-14.016001,-14.64,24.512001,concentric,2,3.0,29329.0,389091.0,350461.0,403431.0,356870.0
2026-04-07 17:42:21.845491,147738,812250150,812251395,0.786656,-0.21472,-0.035136,20.772501,-15.33,19.678751,-13.400001,-13.928,20.832,concentric,2,3.0,29329.0,389091.0,350461.0,403431.0,356870.0
2026-04-07 17:42:21.852965,147739,812259084,812260226,0.786656,-0.21472,-0.035136,21.62125,-15.6975,17.710001,-13.400001,-13.928,20.832,concentric,2,3.0,29329.0,389091.0,350461.0,403431.0,356870.0
2026-04-07 17:42:21.884955,147740,812267999,812268923,0.782752,-0.238144,-0.03904,24.77125,-17.535,17.47375,-13.752001,-13.256001,21.352001,concentric,2,3.0,29329.0,389091.0,350461.0,403431.0,356870.0
2026-04-07 17:42:21.913928,147751,812282578,812283969,0.786656,-0.226432,-0.003904,27.991251,-19.92375,18.4275,-13.592001,-12.744,21.28,concentric,2,3.0,30081.0,395330.0,355614.0,403431.0,361146.0
2026-04-07 17:42:21.915553,147752,812291516,812292696,0.786656,-0.226432,-0.003904,28.647501,-22.3125,20.0725,-13.592001,-12.744,21.28,concentric,2,3.0,30081.0,395330.0,355614.0,403431.0,361146.0
2026-04-07 17:42:21.917635,147753,812300429,812301371,0.786656,-0.226432,-0.003904,27.65875,-22.33,20.9475,-13.592001,-12.744,21.28,concentric,2,3.0,30081.0,395330.0,355614.0,403431.0,361146.0
2026-04-07 17:42:21.921771,147754,812314960,812316260,0.767136,-0.201056,0.011712,24.84125,-21.2975,20.53625,-13.64,-12.856001,20.384,concentric,2,3.0,30081.0,395330.0,355614.0,403431.0,361146.0
2026-04-07 17:42:21.925588,147755,812323897,812324995,0.757376,-0.210816,-0.083936,25.08625,-20.34375,18.9525,-14.288001,-12.84,20.744001,concentric,2,3.0,30081.0,395330.0,355614.0,403431.0,361146.0
2026-04-07 17:42:21.927162,147756,812332863,812333729,0.757376,-0.210816,-0.083936,27.69375,-21.18375,17.40375,-14.288001,-12.84,20.744001,concentric,2,3.0,30081.0,395330.0,355614.0,403431.0,361146.0
2026-04-07 17:42:21.957476,147757,812347342,812348631,0.79056,-0.212768,-0.001952,31.19375,-22.21625,16.397501,-14.216001,-12.688001,21.84,concentric,2,3.0,30081.0,395330.0,355614.0,403431.0,361146.0
2026-04-07 17:42:21.959726,147758,812356263,812357374,0.79056,-0.212768,-0.001952,29.88125,-23.4675,15.65375,-14.216001,-12.688001,21.84,concentric,2,3.0,30081.0,395330.0,355614.0,403431.0,361146.0
2026-04-07 17:42:21.964437,147759,812365170,812366062,0.813984,-0.27328,-0.001952,27.90375,-24.17625,15.2425,-14.456,-11.704,20.112001,concentric,2,3.0,30081.0,395330.0,355614.0,403431.0,361146.0
2026-04-07 17:42:21.991107,147769,812379861,812380968,0.813984,-0.27328,-0.001952,26.04,-24.2025,15.505,-14.456,-11.704,20.112001,concentric,2,3.0,30680.0,400129.0,359753.0,403431.0,364707.0
2026-04-07 17:42:21.991172,147770,812388848,812389782,0.813984,-0.25376,-0.037088,23.0125,-23.8525,15.61,-14.68,-12.440001,21.216002,concentric,2,3.0,30680.0,400129.0,359753.0,403431.0,364707.0
2026-04-07 17:42:21.992564,147771,812397775,812398483,0.813984,-0.25376,-0.037088,25.94375,-23.12625,14.91,-14.68,-12.440001,21.216002,concentric,2,3.0,30680.0,400129.0,359753.0,403431.0,364707.0
2026-04-07 17:42:22.023675,147772,812407096,812409255,0.835456,-0.240096,-0.046848,26.460001,-22.86375,13.615,-14.592001,-11.464001,21.232,concentric,2,3.0,30680.0,400129.0,359753.0,403431.0,364707.0
2026-04-07 17:42:22.025966,147773,812421602,812422072,0.835456,-0.240096,-0.046848,25.7775,-22.75,11.45375,-14.592001,-11.464001,21.232,concentric,2,3.0,30680.0,400129.0,359753.0,403431.0,364707.0
2026-04-07 17:42:22.032037,147774,812430994,812432859,0.862784,-0.26352,-0.064416,28.91,-23.73875,9.073751,-14.504001,-10.912001,18.960001,concentric,2,3.0,30680.0,400129.0,359753.0,403431.0,364707.0
2026-04-07 17:42:22.033105,147775,812439899,812441570,0.862784,-0.26352,-0.064416,28.16625,-23.0475,5.62625,-14.504001,-10.912001,18.960001,concentric,2,3.0,30680.0,400129.0,359753.0,403431.0,364707.0
2026-04-07 17:42:22.061496,147776,812454431,812456540,0.876448,-0.28304,-0.017568,23.79125,-20.83375,4.75125,-14.208001,-10.88,19.144001,concentric,2,3.0,30680.0,400129.0,359753.0,403431.0,364707.0
2026-04-07 17:42:22.065904,147777,812463379,812465268,0.870592,-0.320128,-0.017568,20.545,-19.06625,5.4775,-14.608001,-10.656,18.984001,concentric,2,3.0,30680.0,400129.0,359753.0,403431.0,364707.0
2026-04-07 17:42:22.102817,147778,812472309,812473951,0.870592,-0.320128,-0.017568,19.66125,-17.54375,6.60625,-14.608001,-10.656,18.984001,concentric,2,3.0,30680.0,400129.0,359753.0,403431.0,364707.0
2026-04-07 17:42:22.131003,147788,812481336,812482846,0.870592,-0.320128,-0.017568,17.185,-16.555,6.6325,-14.608001,-10.656,18.984001,concentric,2,3.0,31319.0,403034.0,364240.0,403431.0,368922.0
2026-04-07 17:42:22.132616,147789,812495817,812497706,0.86864,-0.28304,-0.027328,18.03375,-16.0475,6.44875,-14.288001,-10.928,21.384,concentric,2,3.0,31319.0,403034.0,364240.0,403431.0,368922.0
2026-04-07 17:42:22.136836,147790,812504740,812506392,0.882304,-0.271328,-0.0488,18.90875,-14.980001,6.67625,-15.200001,-10.64,18.976002,concentric,2,3.0,31319.0,403034.0,364240.0,403431.0,368922.0
2026-04-07 17:42:22.138616,147791,812513722,812515073,0.882304,-0.271328,-0.0488,14.14875,-13.877501,7.34125,-15.200001,-10.64,18.976002,concentric,2,3.0,31319.0,403034.0,364240.0,403431.0,368922.0
2026-04-07 17:42:22.140147,147792,812528275,812530049,0.899872,-0.2928,-0.003904,12.08375,-12.1625,6.7025,-15.824,-10.864,21.288,concentric,2,3.0,31319.0,403034.0,364240.0,403431.0,368922.0
2026-04-07 17:42:22.144359,147793,812537206,812538791,0.899872,-0.2928,-0.003904,12.5475,-10.3075,5.9325,-15.824,-10.864,21.288,concentric,2,3.0,31319.0,403034.0,364240.0,403431.0,368922.0
2026-04-07 17:42:22.147086,147794,812546197,812547473,0.894016,-0.304512,-0.046848,11.3925,-8.81125,5.81,-15.496,-10.376,20.176,concentric,2,3.0,31319.0,403034.0,364240.0,403431.0,368922.0
2026-04-07 17:42:22.154210,147795,812560704,812562421,0.894016,-0.304512,-0.046848,11.655,-7.245,4.3575,-15.496,-10.376,20.176,concentric,2,3.0,31319.0,403034.0,364240.0,403431.0,368922.0
2026-04-07 17:42:22.182707,147796,812569604,812571114,0.864736,-0.327936,-0.042944,12.9675,-7.1575,3.14125,-15.416,-9.472,18.112001,concentric,2,3.0,31319.0,403034.0,364240.0,403431.0,368922.0
2026-04-07 17:42:22.216149,147807,812578765,812579859,0.864736,-0.327936,-0.042944,13.09,-7.2975,4.26125,-15.416,-9.472,18.112001,concentric,2,3.0,32325.0,403431.0,370729.0,403431.0,375278.0
2026-04-07 17:42:22.217741,147808,812587794,812588609,0.866688,-0.333792,-0.037088,10.605001,-6.30875,5.38125,-14.312,-9.744,18.104,concentric,2,3.0,32325.0,403431.0,370729.0,403431.0,375278.0
2026-04-07 17:42:22.221854,147809,812602376,812603503,0.866688,-0.333792,-0.037088,8.74125,-4.73375,5.67875,-14.312,-9.744,18.104,concentric,2,3.0,32325.0,403431.0,370729.0,403431.0,375278.0
2026-04-07 17:42:22.223622,147810,812611375,812612201,0.843264,-0.368928,-0.033184,5.10125,-2.0475,7.97125,-15.856001,-10.008,20.400002,concentric,2,3.0,32325.0,403431.0,370729.0,403431.0,375278.0
2026-04-07 17:42:22.225159,147811,812620316,812620927,0.843264,-0.368928,-0.033184,0.77875,0.385,11.042501,-15.856001,-10.008,20.400002,concentric,2,3.0,32325.0,403431.0,370729.0,403431.0,375278.0
2026-04-07 17:42:22.229949,147812,812635125,812635810,0.825696,-0.320128,-0.08784,2.17,1.70625,10.99875,-15.68,-9.6,19.176,concentric,2,3.0,32325.0,403431.0,370729.0,403431.0,375278.0
2026-04-07 17:42:22.257693,147813,812644427,812646593,0.833504,-0.236192,-0.085888,4.22625,0.95375,8.12875,-15.624001,-9.736,19.944,concentric,2,3.0,32325.0,403431.0,370729.0,403431.0,375278.0
2026-04-07 17:42:22.262262,147814,812653375,812655269,0.833504,-0.236192,-0.085888,0.07875,0.41125,5.39875,-15.624001,-9.736,19.944,concentric,2,3.0,32325.0,403431.0,370729.0,403431.0,375278.0
2026-04-07 17:42:22.263724,147815,812662344,812663983,0.833504,-0.236192,-0.085888,-5.13625,0.16625,3.71875,-15.624001,-9.736,19.944,concentric,2,3.0,32325.0,403431.0,370729.0,403431.0,375278.0
2026-04-07 17:42:22.291321,147825,812676828,812678895,0.845216,-0.35136,-0.081984,-11.13875,0.21,3.29875,-15.784,-9.088,16.240002,concentric,2,3.0,32936.0,403431.0,374600.0,403431.0,378799.0
2026-04-07 17:42:22.295656,147826,812686165,812687641,0.81984,-0.396256,-0.083936,-13.69375,1.4525,3.7625,-16.096,-9.016001,19.536001,concentric,2,3.0,32936.0,403431.0,374600.0,403431.0,378799.0
2026-04-07 17:42:22.297159,147827,812695101,812696436,0.81984,-0.396256,-0.083936,-8.56625,2.47625,4.68125,-16.096,-9.016001,19.536001,concentric,2,3.0,32936.0,403431.0,374600.0,403431.0,378799.0
2026-04-07 17:42:22.303009,147828,812709610,812711368,0.815936,-0.286944,-0.085888,-1.5925,1.95125,6.4225,-16.112001,-9.504001,19.096,concentric,2,3.0,32936.0,403431.0,374600.0,403431.0,378799.0
2026-04-07 17:42:22.332305,147829,812718585,812720136,0.815936,-0.286944,-0.085888,-4.71625,2.30125,3.4825,-16.112001,-9.504001,19.096,concentric,2,3.0,32936.0,403431.0,374600.0,403431.0,378799.0
2026-04-07 17:42:22.336832,147830,812727567,812728867,0.823744,-0.316224,-0.132736,-6.1075,1.68,1.3125,-16.04,-8.76,17.76,concentric,2,3.0,32936.0,403431.0,374600.0,403431.0,378799.0
2026-04-07 17:42:22.338485,147831,812742048,812743766,0.823744,-0.316224,-0.132736,-5.0575,1.81125,2.24875,-16.04,-8.76,17.76,concentric,2,3.0,32936.0,403431.0,374600.0,403431.0,378799.0
2026-04-07 17:42:22.344241,147832,812751135,812752477,0.853024,-0.357216,-0.064416,-5.64375,1.61,0.14,-16.056002,-9.064,17.992,concentric,2,3.0,32936.0,403431.0,374600.0,403431.0,378799.0
2026-04-07 17:42:22.399985,147833,812760081,812761208,0.853024,-0.357216,-0.064416,-7.09625,3.15875,1.18125,-16.056002,-9.064,17.992,concentric,2,3.0,32936.0,403431.0,374600.0,403431.0,378799.0
2026-04-07 17:42:22.402228,147834,812769011,812769892,0.843264,-0.368928,-0.060512,-4.55875,4.7075,4.1475,-15.928,-8.832001,19.36,concentric,2,3.0,32936.0,403431.0,374600.0,403431.0,378799.0
2026-04-07 17:42:22.430425,147844,812783596,812784950,0.843264,-0.368928,-0.060512,-0.4375,5.1625,6.1425,-15.928,-8.832001,19.36,concentric,2,3.0,33116.0,403431.0,375664.0,403431.0,380015.0
2026-04-07 17:42:22.434760,147845,812792548,812793650,0.847168,-0.306464,-0.089792,1.2425,4.12125,5.7225,-16.192001,-8.816,17.992,concentric,2,3.0,33116.0,403431.0,375664.0,403431.0,380015.0
2026-04-07 17:42:22.436264,147846,812801535,812802359,0.847168,-0.306464,-0.089792,0.875,2.24,2.80875,-16.192001,-8.816,17.992,concentric,2,3.0,33116.0,403431.0,375664.0,403431.0,380015.0
2026-04-07 17:42:22.440567,147847,812816014,812817242,0.884256,-0.337696,-0.083936,-2.31,0.86625,-0.18375,-16.672,-8.704,18.528002,concentric,2,3.0,33116.0,403431.0,375664.0,403431.0,380015.0
2026-04-07 17:42:22.442243,147848,812824933,812825972,0.895968,-0.406016,-0.06832,-8.37375,-0.035,-1.75875,-16.072,-8.392,17.632,concentric,2,3.0,33116.0,403431.0,375664.0,403431.0,380015.0
2026-04-07 17:42:22.444015,147849,812833908,812834715,0.895968,-0.406016,-0.06832,-11.6025,0.27125,-0.4725,-16.072,-8.392,17.632,concentric,2,3.0,33116.0,403431.0,375664.0,403431.0,380015.0
2026-04-07 17:42:22.448283,147850,812848418,812849628,0.90768,-0.41968,-0.0976,-12.0925,0.84,-1.39125,-16.720001,-8.576,18.032001,concentric,2,3.0,33116.0,403431.0,375664.0,403431.0,380015.0
2026-04-07 17:42:22.452225,147851,812857356,812858336,0.90768,-0.41968,-0.0976,-9.82625,2.00375,-0.35875,-16.720001,-8.576,18.032001,concentric,2,3.0,33116.0,403431.0,375664.0,403431.0,380015.0
2026-04-07 17:42:22.459203,147852,812866297,812867043,0.9272,-0.404064,-0.121024,-8.04125,1.54,-0.18375,-16.776001,-8.160001,19.792002,concentric,2,3.0,33116.0,403431.0,375664.0,403431.0,380015.0
2026-04-07 17:42:22.487745,147853,812875776,812877869,0.9272,-0.404064,-0.121024,-7.875,1.05,-1.82875,-16.776001,-8.160001,19.792002,concentric,2,3.0,33116.0,403431.0,375664.0,403431.0,380015.0
2026-04-07 17:42:22.515639,147863,812890383,812890784,0.952576,-0.40992,-0.101504,-9.5375,0.49875,-2.2925,-16.048,-8.224,17.928001,concentric,2,3.0,34020.0,403431.0,380874.0,403431.0,385317.0
2026-04-07 17:42:22.517309,147864,812899643,812901536,0.952576,-0.40992,-0.101504,-11.99625,0.63,-4.3575,-16.048,-8.224,17.928001,concentric,2,3.0,34020.0,403431.0,380874.0,403431.0,385317.0
2026-04-07 17:42:22.518888,147865,812908597,812910273,0.944768,-0.462624,-0.12688,-12.66125,2.16125,-2.87,-17.480001,-8.224,19.184,concentric,2,3.0,34020.0,403431.0,380874.0,403431.0,385317.0
2026-04-07 17:42:22.523064,147866,812923276,812925167,0.944768,-0.462624,-0.12688,-11.55,3.6575,-0.4725,-17.480001,-8.224,19.184,concentric,2,3.0,34020.0,403431.0,380874.0,403431.0,385317.0
2026-04-07 17:42:22.524644,147867,812932235,812933922,0.935008,-0.447008,-0.138592,-8.30375,4.2,0.42,-17.432001,-8.776,18.688002,concentric,2,3.0,34020.0,403431.0,380874.0,403431.0,385317.0
2026-04-07 17:42:22.554925,147868,812941218,812942639,0.935008,-0.447008,-0.138592,-4.7425,3.71875,0.6125,-17.432001,-8.776,18.688002,concentric,2,3.0,34020.0,403431.0,380874.0,403431.0,385317.0
2026-04-07 17:42:22.557281,147869,812950159,812951328,0.944768,-0.407968,-0.138592,-2.87875,3.5525,0.77875,-16.768002,-8.592,19.640001,concentric,2,3.0,34020.0,403431.0,380874.0,403431.0,385317.0
2026-04-07 17:42:22.561871,147870,812964637,812966234,0.944768,-0.407968,-0.152256,-3.675,2.40625,-0.245,-16.768002,-8.592,19.640001,concentric,2,3.0,34020.0,403431.0,380874.0,403431.0,385317.0
2026-04-07 17:42:22.565888,147871,812973621,812974978,0.929152,-0.447008,-0.152256,-2.49375,2.065,0.385,-16.944,-7.936,17.928001,concentric,2,3.0,34020.0,403431.0,380874.0,403431.0,385317.0
2026-04-07 17:42:22.596080,147882,812982722,812983803,0.929152,-0.447008,-0.152256,-0.2975,1.84625,1.47875,-16.944,-7.936,17.928001,concentric,2,3.0,34184.0,403431.0,382104.0,403431.0,386715.0
2026-04-07 17:42:22.597644,147883,812997273,812998849,0.894016,-0.392352,-0.1464,1.49625,1.23375,1.3125,-17.008001,-8.504001,19.192001,concentric,2,3.0,34184.0,403431.0,382104.0,403431.0,386715.0
2026-04-07 17:42:22.601698,147884,813006206,813007600,0.884256,-0.425536,-0.152256,2.65125,0.1225,1.33875,-17.28,-8.192,19.384,concentric,2,3.0,34184.0,403431.0,382104.0,403431.0,386715.0
2026-04-07 17:42:22.607969,147885,813015163,813016301,0.884256,-0.425536,-0.152256,2.1525,-1.00625,1.12875,-17.28,-8.192,19.384,concentric,2,3.0,34184.0,403431.0,382104.0,403431.0,386715.0
2026-04-07 17:42:22.654911,147886,813029680,813031275,0.880352,-0.431392,-0.148352,1.33,-1.7325,1.295,-16.832,-7.656,17.552,concentric,2,3.0,34184.0,403431.0,382104.0,403431.0,386715.0
2026-04-07 17:42:22.657218,147887,813038642,813039955,0.880352,-0.431392,-0.148352,1.26875,-2.93125,1.05875,-16.832,-7.656,17.552,concentric,2,3.0,34184.0,403431.0,382104.0,403431.0,386715.0
2026-04-07 17:42:22.661831,147888,813047592,813048685,0.870592,-0.398208,-0.152256,2.66,-3.82375,1.2425,-16.688002,-7.992001,17.712,concentric,2,3.0,34184.0,403431.0,382104.0,403431.0,386715.0
2026-04-07 17:42:22.663543,147889,813056500,813057353,0.870592,-0.398208,-0.152256,2.47625,-3.9725,0.62125,-16.688002,-7.992001,17.712,concentric,2,3.0,34184.0,403431.0,382104.0,403431.0,386715.0
2026-04-07 17:42:22.665077,147890,813070983,813072277,0.854976,-0.404064,-0.169824,1.4,-3.4475,-0.77875,-17.04,-7.808001,18.016,concentric,2,3.0,34184.0,403431.0,382104.0,403431.0,386715.0
2026-04-07 17:42:22.730595,147900,813080371,813081036,0.854976,-0.404064,-0.169824,0.16625,-4.095,-1.61,-17.04,-7.808001,18.016,concentric,2,3.0,34240.0,403431.0,382356.0,403431.0,386951.0
2026-04-07 17:42:22.732302,147901,813089676,813091862,0.843264,-0.445056,-0.160064,-1.14625,-3.885,-1.46125,-16.76,-8.128,17.888,concentric,2,3.0,34240.0,403431.0,382356.0,403431.0,386951.0
2026-04-07 17:42:22.733983,147902,813104175,813104745,0.843264,-0.445056,-0.160064,0.2275,-3.64875,-0.385,-16.76,-8.128,17.888,concentric,2,3.0,34240.0,403431.0,382356.0,403431.0,386951.0
2026-04-07 17:42:22.736375,147903,813113424,813115509,0.843264,-0.411872,-0.163968,2.835,-3.38625,-0.9975,-17.328001,-7.752,19.096,concentric,2,3.0,34240.0,403431.0,382356.0,403431.0,386951.0
2026-04-07 17:42:22.740585,147904,813122344,813124207,0.843264,-0.411872,-0.163968,3.42125,-2.4675,-1.04125,-17.328001,-7.752,19.096,concentric,2,3.0,34240.0,403431.0,382356.0,403431.0,386951.0
2026-04-07 17:42:22.742271,147905,813131412,813132917,0.845216,-0.441152,-0.163968,3.29875,-1.67125,0.105,-16.800001,-7.64,17.608002,concentric,2,3.0,34240.0,403431.0,382356.0,403431.0,386951.0
2026-04-07 17:42:22.743994,147906,813145924,813147853,0.841312,-0.413824,-0.142496,2.94875,-1.09375,0.95375,-16.800001,-7.64,15.016001,concentric,2,3.0,34240.0,403431.0,382356.0,403431.0,386951.0
2026-04-07 17:42:22.748078,147907,813154935,813156571,0.841312,-0.413824,-0.142496,3.3425,0.06125,0.9625,-16.808,-7.736001,15.016001,concentric,2,3.0,34240.0,403431.0,382356.0,403431.0,386951.0
2026-04-07 17:42:22.776619,147908,813163943,813165288,0.841312,-0.413824,-0.142496,4.5325,0.44625,1.67125,-16.808,-7.736001,15.016001,concentric,2,3.0,34240.0,403431.0,382356.0,403431.0,386951.0
2026-04-07 17:42:22.804381,147918,813178421,813180395,0.827648,-0.407968,-0.148352,5.67,1.32125,2.31875,-16.28,-7.6,17.184,concentric,2,3.0,34112.0,403431.0,381651.0,403431.0,386107.0
2026-04-07 17:42:22.806036,147919,813187434,813189100,0.821792,-0.359168,-0.160064,5.6875,1.68875,1.56625,-16.904001,-7.288001,15.040001,concentric,2,3.0,34112.0,403431.0,381651.0,403431.0,386107.0
2026-04-07 17:42:22.807600,147920,813196378,813197859,0.821792,-0.359168,-0.160064,2.6075,1.40875,0.2625,-16.904001,-7.288001,15.040001,concentric,2,3.0,34112.0,403431.0,381651.0,403431.0,386107.0
2026-04-07 17:42:22.811836,147921,813210911,813212885,0.81984,-0.404064,-0.152256,-1.225,1.58375,-1.12875,-16.824001,-7.448,18.400002,concentric,2,3.0,34112.0,403431.0,381651.0,403431.0,386107.0
2026-04-07 17:42:22.813394,147922,813219852,813221585,0.81984,-0.404064,-0.152256,-3.92,0.91,-1.925,-16.824001,-7.448,18.400002,concentric,2,3.0,34112.0,403431.0,381651.0,403431.0,386107.0
2026-04-07 17:42:22.843775,147923,813228766,813230289,0.821792,-0.425536,-0.148352,-4.68125,0.76125,-2.00375,-16.912,-8.064,18.632,concentric,2,3.0,34112.0,403431.0,381651.0,403431.0,386107.0
2026-04-07 17:42:22.845981,147924,813237680,813239073,0.821792,-0.425536,-0.148352,-3.19375,0.62125,-2.58125,-16.912,-8.064,18.632,concentric,2,3.0,34112.0,403431.0,381651.0,403431.0,386107.0
2026-04-07 17:42:22.850569,147925,813252149,813253959,0.8296,-0.406016,-0.171776,-0.1925,1.46125,-2.8875,-16.296001,-7.920001,17.344002,concentric,2,3.0,34112.0,403431.0,381651.0,403431.0,386107.0
2026-04-07 17:42:22.854596,147926,813261057,813262648,0.8296,-0.406016,-0.171776,1.89875,0.86625,-2.2925,-16.296001,-7.920001,17.344002,concentric,2,3.0,34112.0,403431.0,381651.0,403431.0,386107.0
