pc_time,serial_num,sensor_ts,host_ts,ax,ay,az,gx,gy,gz,mx,my,mz,phase,rpe,weight_kg,ppg_a,ppg_b,ppg_c,ppg_d,ppg_e
2026-04-08 21:38:20.826574,111709,1609503472951570,1072918451,-1.10288,-0.031232,0.167872,6.44,-10.03625,13.755,24.824001,-17.192001,5.544,inter_set_rest,3,3.0,21807.0,151960.0,243388.0,292140.0,269435.0
2026-04-08 21:38:20.854875,111720,1609503472960500,1072927088,-1.10288,-0.031232,0.167872,5.69625,-10.6575,11.165,24.824001,-17.192001,5.544,inter_set_rest,3,3.0,21884.0,152324.0,243857.0,292460.0,269616.0
2026-04-08 21:38:20.858316,111721,1609503472969442,1072935789,-1.016992,-0.02928,0.30256,5.3725,-10.78875,10.22,24.928001,-17.720001,5.36,inter_set_rest,3,3.0,21884.0,152324.0,243857.0,292460.0,269616.0
2026-04-08 21:38:20.859980,111722,1609503472983957,1072950721,-1.016992,-0.02928,0.30256,6.1775,-10.185,9.56375,24.928001,-17.720001,5.36,inter_set_rest,3,3.0,21884.0,152324.0,243857.0,292460.0,269616.0
2026-04-08 21:38:20.861627,111723,1609503472992904,1072959390,-1.100928,0.023424,0.314272,6.475,-8.8375,7.8225,24.232,-17.36,5.68,inter_set_rest,3,3.0,21884.0,152324.0,243857.0,292460.0,269616.0
2026-04-08 21:38:20.865646,111724,1609503473007391,1072974307,-1.100928,0.01952,0.35136,4.7425,-8.56625,6.3,24.232,-17.36,5.68,inter_set_rest,3,3.0,21884.0,152324.0,243857.0,292460.0,269616.0
2026-04-08 21:38:20.871119,111725,1609503473016329,1072982987,-1.057984,0.01952,0.35136,3.7975,-9.49375,3.78,24.2,-17.472,6.656,inter_set_rest,3,3.0,21884.0,152324.0,243857.0,292460.0,269616.0
2026-04-08 21:38:20.902668,111726,1609503473030798,1072997849,-0.989664,-0.021472,0.37088,2.9575,-10.64,0.63875,24.472002,-17.640001,5.096,inter_set_rest,3,3.0,21884.0,152324.0,243857.0,292460.0,269616.0
2026-04-08 21:38:20.907148,111727,1609503473039717,1073006488,-0.989664,-0.021472,0.37088,0.90125,-11.92625,-1.16375,24.472002,-17.640001,5.096,inter_set_rest,3,3.0,21884.0,152324.0,243857.0,292460.0,269616.0
2026-04-08 21:38:20.908685,111728,1609503473048650,1073015151,-0.991616,0.013664,0.404064,3.26375,-10.70125,-1.77625,24.544,-17.608002,4.424,inter_set_rest,3,3.0,21884.0,152324.0,243857.0,292460.0,269616.0
2026-04-08 21:38:20.942848,111740,1609503473063508,1073030166,-0.991616,0.013664,0.404064,8.49625,-9.9575,-2.45875,24.544,-17.608002,4.424,inter_set_rest,3,3.0,22017.0,152830.0,244381.0,292860.0,269860.0
2026-04-08 21:38:20.945327,111741,1609503473072587,1073038866,-1.030656,0.050752,0.3416,11.6375,-8.4875,-2.37125,24.288002,-17.648,4.976,inter_set_rest,3,3.0,22017.0,152830.0,244381.0,292860.0,269860.0
2026-04-08 21:38:20.949673,111742,1609503473087108,1073053806,-1.030656,0.050752,0.3416,11.33125,-6.16875,-2.555,24.288002,-17.648,4.976,inter_set_rest,3,3.0,22017.0,152830.0,244381.0,292860.0,269860.0
2026-04-08 21:38:20.982687,111743,1609503473096075,1073062525,-1.038464,-0.011712,0.140544,7.98,-5.55625,-4.1125,24.080002,-17.744001,7.616,inter_set_rest,3,3.0,22017.0,152830.0,244381.0,292860.0,269860.0
2026-04-08 21:38:20.985004,111744,1609503473110541,1073077414,-0.968192,-0.027328,0.329888,6.6325,-4.96125,-6.055,24.104002,-17.816,4.92,inter_set_rest,3,3.0,22017.0,152830.0,244381.0,292860.0,269860.0
2026-04-08 21:38:20.989578,111745,1609503473119464,1073086079,-0.968192,-0.027328,0.329888,8.0675,-4.71625,-7.945,24.104002,-17.816,4.92,inter_set_rest,3,3.0,22017.0,152830.0,244381.0,292860.0,269860.0
2026-04-08 21:38:20.992014,111746,1609503473128375,1073094739,-0.962336,0.017568,0.3904,11.48875,-5.355,-8.44375,24.104002,-17.816,3.4,inter_set_rest,3,3.0,22017.0,152830.0,244381.0,292860.0,269860.0
2026-04-08 21:38:20.998167,111747,1609503473142989,1073109666,-0.962336,0.017568,0.3904,17.19375,-5.915,-8.18125,24.44,-17.640001,3.4,inter_set_rest,3,3.0,22017.0,152830.0,244381.0,292860.0,269860.0
2026-04-08 21:38:21.026751,111748,1609503473151916,1073118396,-1.042368,0.056608,0.357216,22.47,-6.64125,-8.1725,24.720001,-18.048,5.432,inter_set_rest,3,3.0,22017.0,152830.0,244381.0,292860.0,269860.0
2026-04-08 21:38:21.055541,111759,1609503473166609,1073133865,-1.042368,0.056608,0.357216,27.055,-7.30625,-9.065,24.720001,-18.048,5.432,inter_set_rest,3,3.0,22424.0,154410.0,246105.0,293881.0,270480.0
2026-04-08 21:38:21.059604,111760,1609503473175549,1073142608,-1.077504,0.0488,0.222528,29.35625,-8.42625,-10.49125,24.424002,-17.84,5.04,inter_set_rest,3,3.0,22424.0,154410.0,246105.0,293881.0,270480.0
2026-04-08 21:38:21.061299,111761,1609503473184462,1073151257,-1.077504,0.0488,0.222528,31.473751,-8.3825,-11.13875,24.424002,-17.84,5.04,inter_set_rest,3,3.0,22424.0,154410.0,246105.0,293881.0,270480.0
2026-04-08 21:38:21.062966,111762,1609503473198971,1073164140,-1.089216,0.033184,0.20496,34.7375,-8.26,-12.43375,24.648,-17.448,4.296,inter_set_rest,3,3.0,22424.0,154410.0,246105.0,293881.0,270480.0
2026-04-08 21:38:21.066951,111763,1609503473208215,1073174926,-1.089216,0.033184,0.20496,35.9275,-8.26,-12.31125,24.648,-17.448,4.296,inter_set_rest,3,3.0,22424.0,154410.0,246105.0,293881.0,270480.0
2026-04-08 21:38:21.095581,111764,1609503473222753,1073189800,-1.00528,0.023424,0.242048,36.8725,-8.68,-12.01375,24.648,-17.992,4.024,inter_set_rest,3,3.0,22424.0,154410.0,246105.0,293881.0,270480.0
2026-04-08 21:38:21.100141,111765,1609503473231680,1073198490,-0.993568,0.083936,0.40992,39.20875,-9.135,-12.88875,24.6,-17.496,4.208,inter_set_rest,3,3.0,22424.0,154410.0,246105.0,293881.0,270480.0
2026-04-08 21:38:21.105736,111766,1609503473246144,1073211309,-0.993568,0.083936,0.40992,41.88625,-9.0125,-15.3825,24.6,-17.496,4.208,inter_set_rest,3,3.0,22424.0,154410.0,246105.0,293881.0,270480.0
2026-04-08 21:38:21.109427,111767,1609503473255317,1073222051,-1.01504,0.046848,0.38064,40.80125,-8.295,-18.025,24.68,-17.744001,3.968,inter_set_rest,3,3.0,22424.0,154410.0,246105.0,293881.0,270480.0
2026-04-08 21:38:21.203442,111778,1609503473264537,1073230772,-1.01504,0.046848,0.38064,34.79875,-8.77625,-18.76,24.68,-17.744001,3.968,inter_set_rest,3,3.0,22333.0,153864.0,245144.0,293137.0,270088.0
2026-04-08 21:38:21.205113,111779,1609503473279087,1073245710,-1.0736,0.054656,0.26352,29.53125,-9.9925,-18.8125,24.816002,-17.400002,4.168,inter_set_rest,3,3.0,22333.0,153864.0,245144.0,293137.0,270088.0
2026-04-08 21:38:21.206602,111780,1609503473288018,1073254397,-1.0736,0.054656,0.26352,29.365,-11.75125,-18.97,24.816002,-17.400002,4.168,inter_set_rest,3,3.0,22333.0,153864.0,245144.0,293137.0,270088.0
2026-04-08 21:38:21.210915,111781,1609503473302529,1073269330,-0.993568,0.031232,0.388448,34.09875,-15.30375,-18.90875,25.248001,-17.744001,4.136,inter_set_rest,3,3.0,22333.0,153864.0,245144.0,293137.0,270088.0
2026-04-08 21:38:21.212628,111782,1609503473311484,1073278016,-0.993568,-0.001952,0.197152,41.37,-17.2375,-20.265,24.568,-17.52,4.936,inter_set_rest,3,3.0,22333.0,153864.0,245144.0,293137.0,270088.0
2026-04-08 21:38:21.214256,111783,1609503473320519,1073286689,-0.993568,-0.001952,0.197152,47.38125,-17.03625,-21.9975,24.568,-17.52,4.936,inter_set_rest,3,3.0,22333.0,153864.0,245144.0,293137.0,270088.0
2026-04-08 21:38:21.218380,111784,1609503473334997,1073301582,-0.987712,0.050752,0.333792,48.58875,-16.555,-21.81375,25.056002,-17.496,2.944,inter_set_rest,3,3.0,22333.0,153864.0,245144.0,293137.0,270088.0
2026-04-08 21:38:21.220101,111785,1609503473343902,1073310248,-0.987712,0.050752,0.333792,44.3625,-15.89,-20.5625,25.056002,-17.496,2.944,inter_set_rest,3,3.0,22333.0,153864.0,245144.0,293137.0,270088.0
2026-04-08 21:38:21.221770,111786,1609503473358399,1073325129,-0.962336,0.031232,0.327936,37.625,-16.28375,-18.69875,24.936,-17.664001,2.952,inter_set_rest,3,3.0,22333.0,153864.0,245144.0,293137.0,270088.0
2026-04-08 21:38:21.286562,111797,1609503473367600,1073333892,-0.962336,0.031232,0.327936,34.2125,-17.1325,-16.1175,24.936,-17.664001,2.952,inter_set_rest,3,3.0,21989.0,152354.0,243152.0,291715.0,269261.0
2026-04-08 21:38:21.288762,111798,1609503473382127,1073348833,-0.948672,0.040992,0.343552,36.18125,-18.92625,-15.085,24.720001,-17.544,0.896,inter_set_rest,3,3.0,21989.0,152354.0,243152.0,291715.0,269261.0
2026-04-08 21:38:21.293389,111799,1609503473391152,1073357523,-1.057984,0.007808,0.189344,41.3,-19.73125,-18.15625,25.04,-17.160002,0.632,inter_set_rest,3,3.0,21989.0,152354.0,243152.0,291715.0,269261.0
2026-04-08 21:38:21.295099,111800,1609503473400090,1073366234,-1.057984,0.007808,0.189344,43.4875,-20.23,-21.0525,25.04,-17.160002,0.632,inter_set_rest,3,3.0,21989.0,152354.0,243152.0,291715.0,269261.0
2026-04-08 21:38:21.296609,111801,1609503473414588,1073381164,-0.999424,-0.015616,0.218624,39.59375,-20.69375,-20.685,25.392002,-17.608002,2.448,inter_set_rest,3,3.0,21989.0,152354.0,243152.0,291715.0,269261.0
2026-04-08 21:38:21.300862,111802,1609503473423481,1073389818,-0.999424,-0.015616,0.218624,36.53125,-21.3325,-17.52625,25.392002,-17.608002,2.448,inter_set_rest,3,3.0,21989.0,152354.0,243152.0,291715.0,269261.0
2026-04-08 21:38:21.302559,111803,1609503473438001,1073404717,-0.96624,0.035136,0.329888,36.65375,-21.41125,-15.846251,25.336,-17.552,2.584,inter_set_rest,3,3.0,21989.0,152354.0,243152.0,291715.0,269261.0
2026-04-08 21:38:21.304134,111804,1609503473446972,1073413399,-0.96624,0.035136,0.329888,38.9725,-21.4375,-17.96375,25.336,-17.552,2.584,inter_set_rest,3,3.0,21989.0,152354.0,243152.0,291715.0,269261.0
2026-04-08 21:38:21.337081,111805,1609503473461482,1073428300,-1.026752,-0.001952,0.203008,40.0225,-21.23625,-21.13125,25.328001,-17.424002,2.496,inter_set_rest,3,3.0,21989.0,152354.0,243152.0,291715.0,269261.0
2026-04-08 21:38:21.362793,111816,1609503473470453,1073436992,-1.026752,0.025376,0.411872,38.3425,-22.37375,-23.1175,25.328001,-17.424002,2.496,inter_set_rest,3,3.0,21737.0,151357.0,241855.0,290745.0,268690.0
2026-04-08 21:38:21.365373,111817,1609503473479360,1073445686,-1.032608,0.025376,0.411872,36.70625,-24.59625,-22.11125,25.464,-17.472,2.512,inter_set_rest,3,3.0,21737.0,151357.0,241855.0,290745.0,268690.0
2026-04-08 21:38:21.367834,111818,1609503473493854,1073460543,-1.011136,0.013664,0.199104,38.8325,-26.67,-21.8225,25.152,-17.312,3.344,inter_set_rest,3,3.0,21737.0,151357.0,241855.0,290745.0,268690.0
2026-04-08 21:38:21.370329,111819,1609503473503108,1073469452,-1.011136,0.013664,0.199104,43.951252,-28.25375,-23.91375,25.152,-17.312,3.344,inter_set_rest,3,3.0,21737.0,151357.0,241855.0,290745.0,268690.0
2026-04-08 21:38:21.372873,111820,1609503473517622,1073484403,-0.950624,-0.007808,0.355264,50.39125,-27.85125,-26.705,25.656002,-17.112001,2.24,inter_set_rest,3,3.0,21737.0,151357.0,241855.0,290745.0,268690.0
2026-04-08 21:38:21.379117,111821,1609503473526551,1073493070,-0.950624,-0.007808,0.355264,52.05375,-27.67625,-29.32125,25.656002,-17.112001,2.24,inter_set_rest,3,3.0,21737.0,151357.0,241855.0,290745.0,268690.0
2026-04-08 21:38:21.409272,111822,1609503473535492,1073501775,-1.036512,-0.007808,0.443104,47.52125,-28.76125,-31.19375,25.920002,-17.304,2.784,inter_set_rest,3,3.0,21737.0,151357.0,241855.0,290745.0,268690.0
2026-04-08 21:38:21.412897,111823,1609503473549967,1073516646,-1.036512,-0.007808,0.443104,41.51875,-31.28125,-31.675,25.920002,-17.304,2.784,inter_set_rest,3,3.0,21737.0,151357.0,241855.0,290745.0,268690.0
2026-04-08 21:38:21.415398,111824,1609503473558879,1073525312,-1.050176,0.042944,0.271328,41.58875,-33.97625,-31.465,26.096,-16.896,2.192,inter_set_rest,3,3.0,21737.0,151357.0,241855.0,290745.0,268690.0
2026-04-08 21:38:21.446599,111835,1609503473573808,1073540639,-1.00528,0.02928,0.236192,47.92375,-36.04125,-33.985,25.776001,-16.768002,2.088,inter_set_rest,3,3.0,21311.0,149453.0,239355.0,288827.0,267534.0
2026-04-08 21:38:21.449088,111836,1609503473582732,1073549317,-1.00528,0.02928,0.236192,54.4775,-37.12625,-37.75625,25.776001,-16.768002,2.088,inter_set_rest,3,3.0,21311.0,149453.0,239355.0,288827.0,267534.0
2026-04-08 21:38:21.451605,111837,1609503473597287,1073564181,-0.950624,0.025376,0.486048,54.83625,-37.38,-39.41875,25.992,-16.752,2.816,inter_set_rest,3,3.0,21311.0,149453.0,239355.0,288827.0,267534.0
2026-04-08 21:38:21.457865,111838,1609503473606272,1073572890,-0.950624,0.025376,0.486048,49.420002,-38.15875,-37.31,25.992,-16.752,2.816,inter_set_rest,3,3.0,21311.0,149453.0,239355.0,288827.0,267534.0
2026-04-08 21:38:21.488198,111839,1609503473615204,1073581562,-0.90768,-0.01952,0.407968,41.55375,-40.3375,-35.175,26.424002,-16.624,2.36,inter_set_rest,3,3.0,21311.0,149453.0,239355.0,288827.0,267534.0
2026-04-08 21:38:21.491633,111840,1609503473629649,1073596420,-0.90768,-0.01952,0.407968,36.65375,-41.30875,-34.83375,26.424002,-16.624,2.36,inter_set_rest,3,3.0,21311.0,149453.0,239355.0,288827.0,267534.0
2026-04-08 21:38:21.494103,111841,1609503473638558,1073605087,-0.925248,0.035136,0.509472,37.415,-41.99125,-36.63625,26.36,-16.472,2.344,inter_set_rest,3,3.0,21311.0,149453.0,239355.0,288827.0,267534.0
2026-04-08 21:38:21.524202,111842,1609503473653076,1073619953,-1.001376,0.02928,0.288896,39.6375,-42.81375,-38.9375,26.456001,-15.968,3.408,inter_set_rest,3,3.0,21311.0,149453.0,239355.0,288827.0,267534.0
2026-04-08 21:38:21.527853,111843,1609503473662008,1073628693,-1.001376,0.02928,0.288896,40.69625,-43.81125,-40.32,26.456001,-15.968,3.408,inter_set_rest,3,3.0,21311.0,149453.0,239355.0,288827.0,267534.0
2026-04-08 21:38:21.592113,111854,1609503473676601,1073643675,-0.876448,0.013664,0.50752,39.025,-46.0075,-39.41,26.816002,-16.096,1.984,inter_set_rest,3,3.0,21088.0,148814.0,238481.0,288065.0,266996.0
2026-04-08 21:38:21.593827,111855,1609503473685638,1073652383,-0.876448,0.013664,0.50752,35.3325,-48.18625,-38.7625,26.816002,-16.096,1.984,inter_set_rest,3,3.0,21088.0,148814.0,238481.0,288065.0,266996.0
2026-04-08 21:38:21.596272,111856,1609503473694552,1073661051,-0.835456,-0.037088,0.441152,33.69625,-48.545002,-38.08,26.904001,-16.192001,2.424,inter_set_rest,3,3.0,21088.0,148814.0,238481.0,288065.0,266996.0
2026-04-08 21:38:21.597902,111857,1609503473709109,1073675927,-0.835456,-0.037088,0.441152,30.63375,-48.90375,-38.54375,26.904001,-16.192001,2.424,inter_set_rest,3,3.0,21088.0,148814.0,238481.0,288065.0,266996.0
2026-04-08 21:38:21.602141,111858,1609503473718019,1073684607,-0.94672,0.031232,0.388448,25.935,-49.420002,-39.26125,26.792002,-15.68,2.544,inter_set_rest,3,3.0,21088.0,148814.0,238481.0,288065.0,266996.0
2026-04-08 21:38:21.603853,111859,1609503473732479,1073699469,-0.921344,0.027328,0.376736,23.26625,-50.05875,-38.8325,26.792002,-15.216001,0.416,inter_set_rest,3,3.0,21088.0,148814.0,238481.0,288065.0,266996.0
2026-04-08 21:38:21.605402,111860,1609503473741452,1073708152,-0.921344,0.027328,0.376736,22.18125,-51.8875,-37.84375,26.928001,-15.216001,0.416,inter_set_rest,3,3.0,21088.0,148814.0,238481.0,288065.0,266996.0
2026-04-08 21:38:21.610889,111861,1609503473755951,1073723020,-0.919392,0.007808,0.398208,22.51375,-54.50375,-37.87,26.760002,-15.336,3.664,inter_set_rest,3,3.0,21088.0,148814.0,238481.0,288065.0,266996.0
2026-04-08 21:38:21.667824,111872,1609503473764880,1073731685,-0.919392,0.007808,0.398208,21.84,-56.63,-39.59375,26.760002,-15.336,3.664,inter_set_rest,3,3.0,21395.0,150186.0,240031.0,289027.0,267467.0
2026-04-08 21:38:21.672172,111873,1609503473773873,1073740364,-0.80032,-0.042944,0.54656,18.66375,-57.697502,-40.94125,27.2,-14.944,5.304,inter_set_rest,3,3.0,21395.0,150186.0,240031.0,289027.0,267467.0
2026-04-08 21:38:21.673925,111874,1609503473788360,1073755252,-0.80032,-0.042944,0.54656,12.74,-58.2575,-40.4425,27.2,-14.944,5.304,inter_set_rest,3,3.0,21395.0,150186.0,240031.0,289027.0,267467.0
2026-04-08 21:38:21.675361,111875,1609503473797284,1073763925,-0.804224,-0.044896,0.511424,8.68875,-59.14125,-39.7075,27.6,-15.112,4.04,inter_set_rest,3,3.0,21395.0,150186.0,240031.0,289027.0,267467.0
2026-04-08 21:38:21.679661,111876,1609503473811808,1073778803,-0.804224,-0.044896,0.511424,10.1325,-58.87875,-38.85,27.6,-15.112,4.04,inter_set_rest,3,3.0,21395.0,150186.0,240031.0,289027.0,267467.0
2026-04-08 21:38:21.681402,111877,1609503473820826,1073787481,-0.81008,-0.0488,0.417728,14.542501,-59.24625,-38.6925,27.000002,-15.152,6.08,inter_set_rest,3,3.0,21395.0,150186.0,240031.0,289027.0,267467.0
2026-04-08 21:38:21.682895,111878,1609503473829745,1073796206,-0.81008,-0.0488,0.417728,15.5225,-59.1325,-37.975,27.000002,-15.152,6.08,inter_set_rest,3,3.0,21395.0,150186.0,240031.0,289027.0,267467.0
2026-04-08 21:38:21.714060,111879,1609503473844211,1073811068,-0.76128,-0.023424,0.593408,8.96,-58.66875,-34.4575,27.080002,-14.512001,6.368001,inter_set_rest,3,3.0,21395.0,150186.0,240031.0,289027.0,267467.0
2026-04-08 21:38:21.718551,111880,1609503473853131,1073819726,-0.843264,-0.06832,0.37088,3.2025,-59.7625,-29.2075,27.080002,-14.512001,4.272,inter_set_rest,3,3.0,21395.0,150186.0,240031.0,289027.0,267467.0
2026-04-08 21:38:21.744388,111891,1609503473867686,1073834631,-0.843264,-0.06832,0.37088,0.23625,-61.25875,-26.9675,27.304,-14.392001,4.272,inter_set_rest,3,3.0,21799.0,151740.0,241808.0,290160.0,268092.0
2026-04-08 21:38:21.748379,111892,1609503473876908,1073843383,-0.763232,-0.134688,0.486048,1.70625,-62.13375,-26.7225,27.624,-14.040001,5.248,inter_set_rest,3,3.0,21799.0,151740.0,241808.0,290160.0,268092.0
2026-04-08 21:38:21.750789,111893,1609503473891406,1073858382,-0.763232,-0.134688,0.486048,5.0225,-62.01125,-27.265,27.624,-14.040001,5.248,inter_set_rest,3,3.0,21799.0,151740.0,241808.0,290160.0,268092.0
2026-04-08 21:38:21.754546,111894,1609503473900340,1073867090,-0.792512,-0.095648,0.493856,5.565,-62.335,-24.63125,27.616001,-14.176001,6.608,inter_set_rest,3,3.0,21799.0,151740.0,241808.0,290160.0,268092.0
2026-04-08 21:38:21.783109,111895,1609503473909244,1073875741,-0.792512,-0.095648,0.493856,5.5125,-63.385002,-21.4725,27.616001,-14.176001,6.608,inter_set_rest,3,3.0,21799.0,151740.0,241808.0,290160.0,268092.0
2026-04-08 21:38:21.786658,111896,1609503473923715,1073890656,-0.749568,-0.074176,0.632448,2.58125,-63.46375,-20.2475,27.152,-13.968,6.648,inter_set_rest,3,3.0,21799.0,151740.0,241808.0,290160.0,268092.0
2026-04-08 21:38:21.789141,111897,1609503473932693,1073899331,-0.749568,-0.074176,0.632448,-3.63125,-63.166252,-19.62625,27.152,-13.968,6.648,inter_set_rest,3,3.0,21799.0,151740.0,241808.0,290160.0,268092.0
2026-04-08 21:38:21.820304,111898,1609503473947233,1073914223,-0.835456,-0.105408,0.708576,-9.7825,-64.12875,-16.94,26.928001,-13.904,6.056,inter_set_rest,3,3.0,21799.0,151740.0,241808.0,290160.0,268092.0
2026-04-08 21:38:21.823277,111899,1609503473956164,1073922872,-0.74176,-0.154208,0.745664,-10.823751,-67.75125,-14.3675,26.992,-13.76,7.448,inter_set_rest,3,3.0,21799.0,151740.0,241808.0,290160.0,268092.0
2026-04-08 21:38:21.887864,111910,1609503473970759,1073937767,-0.74176,-0.154208,0.745664,-5.76625,-71.04125,-17.1675,26.992,-13.76,7.448,inter_set_rest,3,3.0,22069.0,152720.0,242898.0,290934.0,268566.0
2026-04-08 21:38:21.890354,111911,1609503473979826,1073946444,-0.718336,-0.222528,0.50752,-2.87875,-72.808754,-22.84625,26.784,-13.704,7.704001,inter_set_rest,3,3.0,22069.0,152720.0,242898.0,290934.0,268566.0
2026-04-08 21:38:21.892921,111912,1609503473988781,1073955126,-0.718336,-0.222528,0.50752,-5.985,-73.605,-24.29,26.784,-13.704,7.704001,inter_set_rest,3,3.0,22069.0,152720.0,242898.0,290934.0,268566.0
2026-04-08 21:38:21.895783,111913,1609503474003309,1073969990,-0.782752,-0.191296,0.714432,-11.15625,-76.5625,-19.73125,26.480001,-13.704,9.664001,inter_set_rest,3,3.0,22069.0,152720.0,242898.0,290934.0,268566.0
2026-04-08 21:38:21.897876,111914,1609503474012284,1073978706,-0.782752,-0.191296,0.714432,-7.02625,-83.0025,-14.945,26.480001,-13.704,9.664001,inter_set_rest,3,3.0,22069.0,152720.0,242898.0,290934.0,268566.0
2026-04-08 21:38:21.900700,111915,1609503474026775,1073993660,-0.689056,-0.138592,0.886208,9.66875,-89.8625,-17.710001,26.168001,-13.72,8.992001,inter_set_rest,3,3.0,22069.0,152720.0,242898.0,290934.0,268566.0
2026-04-08 21:38:21.903397,111916,1609503474035716,1074002336,-0.622688,-0.230336,0.706624,26.915,-94.246254,-24.6575,25.696001,-13.952001,10.128,inter_set_rest,3,3.0,22069.0,152720.0,242898.0,290934.0,268566.0
2026-04-08 21:38:21.905452,111917,1609503474050215,1074017232,-0.622688,-0.230336,0.706624,32.12125,-93.9925,-27.50125,25.696001,-13.952001,10.128,inter_set_rest,3,3.0,22069.0,152720.0,242898.0,290934.0,268566.0
2026-04-08 21:38:21.935611,111918,1609503474059141,1074025886,-0.689056,-0.257664,0.894016,18.6375,-95.69875,-22.155,25.560001,-13.536,10.512,inter_set_rest,3,3.0,22069.0,152720.0,242898.0,290934.0,268566.0
2026-04-08 21:38:21.964208,111929,1609503474068541,1074034959,-0.689056,-0.257664,0.894016,-0.3675,-101.17625,-19.45125,25.560001,-13.536,10.512,inter_set_rest,3,3.0,22233.0,153193.0,243425.0,291321.0,268797.0
2026-04-08 21:38:21.966659,111930,1609503474083059,1074049828,-0.70272,-0.210816,0.677344,-11.83,-107.73,-31.4475,25.128,-13.248001,11.336,inter_set_rest,3,3.0,22233.0,153193.0,243425.0,291321.0,268797.0
2026-04-08 21:38:21.969149,111931,1609503474091982,1074058520,-0.70272,-0.210816,0.677344,-6.53625,-112.95375,-43.84625,25.128,-13.248001,11.336,inter_set_rest,3,3.0,22233.0,153193.0,243425.0,291321.0,268797.0
2026-04-08 21:38:21.971695,111932,1609503474106522,1074073439,-0.460672,-0.122976,0.93696,11.795,-113.61875,-48.3175,24.68,-13.256001,12.648001,inter_set_rest,3,3.0,22233.0,153193.0,243425.0,291321.0,268797.0
2026-04-08 21:38:21.976724,111933,1609503474115462,1074082149,-0.36112,-0.240096,0.86864,13.23875,-108.92875,-49.27125,23.992,-12.792001,13.792001,inter_set_rest,3,3.0,22233.0,153193.0,243425.0,291321.0,268797.0
2026-04-08 21:38:21.980195,111934,1609503474124482,1074090856,-0.36112,-0.240096,0.86864,5.88,-106.4175,-38.57,23.992,-12.792001,13.792001,inter_set_rest,3,3.0,22233.0,153193.0,243425.0,291321.0,268797.0
2026-04-08 21:38:22.011826,111935,1609503474138972,1074105760,-0.365024,-0.154208,0.749568,0.55125,-109.26125,-21.4375,23.224,-12.984,13.320001,inter_set_rest,3,3.0,22233.0,153193.0,243425.0,291321.0,268797.0
2026-04-08 21:38:22.015472,111936,1609503474147906,1074114398,-0.365024,-0.154208,0.749568,16.56375,-108.59625,-14.65625,23.224,-12.984,13.320001,inter_set_rest,3,3.0,22233.0,153193.0,243425.0,291321.0,268797.0
2026-04-08 21:38:22.017985,111937,1609503474162415,1074129241,-0.304512,-0.201056,0.845216,18.89125,-105.14,-21.14875,23.240002,-12.920001,13.968,inter_set_rest,3,3.0,22233.0,153193.0,243425.0,291321.0,268797.0
2026-04-08 21:38:22.047901,111948,1609503474171819,1074137994,-0.304512,-0.201056,0.845216,3.6925,-100.0475,-23.79125,23.240002,-12.920001,13.968,inter_set_rest,3,3.0,22622.0,154527.0,244808.0,292085.0,269173.0
2026-04-08 21:38:22.050475,111949,1609503474180841,1074146793,-0.329888,-0.13664,0.983808,-13.3875,-102.06,-13.37875,22.36,-13.128,15.696001,inter_set_rest,3,3.0,22622.0,154527.0,244808.0,292085.0,269173.0
2026-04-08 21:38:22.054073,111950,1609503474195308,1074161668,-0.300608,-0.035136,0.622688,-5.45125,-105.14,-0.65625,22.36,-13.128,17.344002,inter_set_rest,3,3.0,22622.0,154527.0,244808.0,292085.0,269173.0
2026-04-08 21:38:22.056669,111951,1609503474204305,1074170331,-0.300608,-0.035136,0.622688,11.96125,-102.66375,-7.69125,21.552002,-12.792001,17.344002,inter_set_rest,3,3.0,22622.0,154527.0,244808.0,292085.0,269173.0
2026-04-08 21:38:22.086837,111952,1609503474218841,1074185236,-0.437248,-0.150304,1.106784,8.82,-99.16375,-16.3275,20.992,-13.880001,16.688002,inter_set_rest,3,3.0,22622.0,154527.0,244808.0,292085.0,269173.0
2026-04-08 21:38:22.090409,111953,1609503474227795,1074193909,-0.437248,-0.150304,1.106784,1.72375,-99.32125,-7.21,20.992,-13.880001,16.688002,inter_set_rest,3,3.0,22622.0,154527.0,244808.0,292085.0,269173.0
2026-04-08 21:38:22.094134,111954,1609503474242224,1074208799,-0.30256,-0.085888,0.981856,-12.60875,-95.1125,-1.30375,20.528002,-13.120001,16.752,inter_set_rest,3,3.0,22622.0,154527.0,244808.0,292085.0,269173.0
2026-04-08 21:38:22.124381,111955,1609503474251154,1074217465,-0.30256,-0.085888,0.981856,-16.695,-101.73625,-20.76375,20.528002,-13.120001,16.752,inter_set_rest,3,3.0,22622.0,154527.0,244808.0,292085.0,269173.0
2026-04-08 21:38:22.127972,111956,1609503474260043,1074226112,-0.183488,-0.150304,0.612928,-41.3525,-106.5925,-36.21625,19.984001,-12.368001,17.52,inter_set_rest,3,3.0,22622.0,154527.0,244808.0,292085.0,269173.0
2026-04-08 21:38:22.187911,111967,1609503474274640,1074241036,-0.183488,-0.150304,0.612928,-72.77375,-106.89,-42.805,19.984001,-12.368001,17.52,inter_set_rest,3,3.0,22856.0,155272.0,245522.0,292431.0,269330.0
2026-04-08 21:38:22.190420,111968,1609503474283639,1074249864,-0.122976,-0.056608,1.13216,-67.06875,-109.64625,-24.78875,18.936,-11.920001,16.960001,inter_set_rest,3,3.0,22856.0,155272.0,245522.0,292431.0,269330.0
2026-04-08 21:38:22.192896,111969,1609503474298178,1074264795,-0.081984,-0.12688,0.964288,-36.12875,-111.3,-6.76375,17.856,-11.816001,20.504002,inter_set_rest,3,3.0,22856.0,155272.0,245522.0,292431.0,269330.0
2026-04-08 21:38:22.195375,111970,1609503474307114,1074273475,-0.081984,-0.12688,0.964288,-18.06,-109.38375,-13.32625,17.856,-11.816001,20.504002,inter_set_rest,3,3.0,22856.0,155272.0,245522.0,292431.0,269330.0
2026-04-08 21:38:22.197915,111971,1609503474321563,1074288323,-0.179584,-0.462624,0.925248,-30.70375,-104.95625,-28.65625,17.112001,-10.936001,20.392,inter_set_rest,3,3.0,22856.0,155272.0,245522.0,292431.0,269330.0
2026-04-08 21:38:22.200364,111972,1609503474330468,1074296979,-0.179584,-0.462624,0.925248,-44.8525,-103.95,-28.56875,17.112001,-10.936001,20.392,inter_set_rest,3,3.0,22856.0,155272.0,245522.0,292431.0,269330.0
2026-04-08 21:38:22.202885,111973,1609503474339366,1074305674,-0.052704,-0.222528,1.077504,-45.7625,-107.6425,-15.7675,16.352001,-10.992001,20.632002,inter_set_rest,3,3.0,22856.0,155272.0,245522.0,292431.0,269330.0
2026-04-08 21:38:22.206698,111974,1609503474353919,1074320554,-0.052704,-0.222528,1.077504,-18.2525,-108.7625,-11.33125,16.352001,-10.992001,20.632002,inter_set_rest,3,3.0,22856.0,155272.0,245522.0,292431.0,269330.0
2026-04-08 21:38:22.236858,111975,1609503474362872,1074329219,0.056608,-0.13664,1.2688,13.09875,-102.01625,-19.25,15.880001,-10.904,21.704,inter_set_rest,3,3.0,22856.0,155272.0,245522.0,292431.0,269330.0
2026-04-08 21:38:22.269095,111986,1609503474377669,1074344221,0.074176,-0.333792,1.579168,-2.135,-90.965004,-28.2975,14.992001,-10.896001,21.544,inter_set_rest,3,3.0,23024.0,155517.0,245540.0,292352.0,269276.0
2026-04-08 21:38:22.271704,111987,1609503474386582,1074352889,0.074176,-0.333792,1.579168,-21.0875,-83.79875,-24.96375,14.992001,-10.896001,21.544,inter_set_rest,3,3.0,23024.0,155517.0,245540.0,292352.0,269276.0
2026-04-08 21:38:22.274146,111988,1609503474401076,1074367920,0.18544,-0.199104,1.467904,-19.48625,-78.6275,-6.72,14.384001,-10.88,22.208,inter_set_rest,3,3.0,23024.0,155517.0,245540.0,292352.0,269276.0
2026-04-08 21:38:22.276647,111989,1609503474409976,1074376584,0.18544,-0.199104,1.467904,-4.2,-71.4175,-1.5575,14.384001,-10.88,22.208,inter_set_rest,3,3.0,23024.0,155517.0,245540.0,292352.0,269276.0
2026-04-08 21:38:22.279129,111990,1609503474418902,1074385235,0.220576,-0.3416,1.218048,30.98375,-62.78125,-12.635,13.168,-11.488001,23.896002,inter_set_rest,3,3.0,23024.0,155517.0,245540.0,292352.0,269276.0
2026-04-08 21:38:22.285461,111991,1609503474433395,1074400179,0.220576,-0.3416,1.218048,68.04,-56.0175,-17.710001,13.168,-11.488001,23.896002,inter_set_rest,3,3.0,23024.0,155517.0,245540.0,292352.0,269276.0
2026-04-08 21:38:22.315656,111992,1609503474442310,1074408856,0.083936,-0.32208,1.159488,83.1775,-52.1675,-4.2525,13.088,-12.544001,22.096,inter_set_rest,3,3.0,23024.0,155517.0,245540.0,292352.0,269276.0
2026-04-08 21:38:22.319172,111993,1609503474456806,1074423702,0.083936,-0.111264,1.067744,84.60375,-50.4,12.6525,13.088,-12.544001,22.096,inter_set_rest,3,3.0,23024.0,155517.0,245540.0,292352.0,269276.0
2026-04-08 21:38:22.321653,111994,1609503474465758,1074432370,-0.15616,-0.111264,1.067744,77.51625,-52.89375,15.8025,12.52,-13.120001,22.776001,inter_set_rest,3,3.0,23024.0,155517.0,245540.0,292352.0,269276.0
2026-04-08 21:38:22.349110,112005,1609503474480316,1074447419,-0.249856,-0.08784,0.782752,63.93625,-54.145,4.025,12.288,-13.592001,22.728,inter_set_rest,3,3.0,22721.0,154439.0,244317.0,291738.0,269001.0
2026-04-08 21:38:22.351637,112006,1609503474489263,1074456137,-0.249856,-0.08784,0.782752,44.00375,-53.41,-15.190001,12.288,-13.592001,22.728,inter_set_rest,3,3.0,22721.0,154439.0,244317.0,291738.0,269001.0
2026-04-08 21:38:22.354133,112007,1609503474498204,1074464793,-0.259616,-0.251808,0.911584,18.0075,-55.55375,-24.15,11.488001,-13.312,25.136002,inter_set_rest,3,3.0,22721.0,154439.0,244317.0,291738.0,269001.0
2026-04-08 21:38:22.384309,112008,1609503474512681,1074479635,-0.259616,-0.251808,0.911584,-5.145,-57.435,-11.36625,11.488001,-13.312,25.136002,inter_set_rest,3,3.0,22721.0,154439.0,244317.0,291738.0,269001.0
2026-04-08 21:38:22.387941,112009,1609503474521615,1074488327,-0.021472,-0.257664,1.19072,-12.73125,-60.48,2.79125,10.76,-13.688001,22.472,inter_set_rest,3,3.0,22721.0,154439.0,244317.0,291738.0,269001.0
2026-04-08 21:38:22.390361,112010,1609503474536037,1074501187,-0.021472,-0.257664,1.19072,-8.435,-62.3175,5.60875,10.76,-13.688001,22.472,inter_set_rest,3,3.0,22721.0,154439.0,244317.0,291738.0,269001.0
2026-04-08 21:38:22.420644,112011,1609503474545238,1074511926,-0.007808,-0.17568,1.05408,-3.42125,-60.68125,-1.9075,10.296001,-13.736001,20.792002,inter_set_rest,3,3.0,22721.0,154439.0,244317.0,291738.0,269001.0
2026-04-08 21:38:22.424361,112012,1609503474559711,1074526779,-0.035136,-0.158112,0.923296,3.14125,-55.86,-6.615,10.328,-13.672001,22.640001,inter_set_rest,3,3.0,22721.0,154439.0,244317.0,291738.0,269001.0
2026-04-08 21:38:22.521678,112023,1609503474568614,1074535484,-0.035136,-0.158112,0.923296,-2.54625,-48.97375,-0.8925,10.328,-13.672001,22.640001,inter_set_rest,3,3.0,23027.0,155633.0,245764.0,292662.0,269509.0
2026-04-08 21:38:22.524124,112024,1609503474577597,1074544167,-0.035136,0.013664,1.204384,-14.175,-41.62375,2.70375,10.328,-13.672001,22.640001,inter_set_rest,3,3.0,23027.0,155633.0,245764.0,292662.0,269509.0
2026-04-08 21:38:22.526647,112025,1609503474592086,1074559103,0.128832,0.013664,1.204384,-13.3175,-37.54625,0.5775,9.696,-13.424001,22.608002,inter_set_rest,3,3.0,23027.0,155633.0,245764.0,292662.0,269509.0
2026-04-08 21:38:22.532824,112026,1609503474600993,1074567838,0.163968,0.130784,1.27856,6.1775,-36.4875,-5.11,9.56,-13.672001,22.864,inter_set_rest,3,3.0,23027.0,155633.0,245764.0,292662.0,269509.0
2026-04-08 21:38:22.535370,112027,1609503474615493,1074580662,0.163968,0.130784,1.27856,29.4175,-33.04,-19.43375,9.56,-13.672001,22.864,inter_set_rest,3,3.0,23027.0,155633.0,245764.0,292662.0,269509.0
2026-04-08 21:38:22.538564,112028,1609503474624745,1074591395,0.245952,-0.017568,0.935008,27.7025,-28.44625,-30.87,9.576,-13.704,21.528002,inter_set_rest,3,3.0,23027.0,155633.0,245764.0,292662.0,269509.0
2026-04-08 21:38:22.540511,112029,1609503474633676,1074600109,0.245952,-0.017568,0.935008,7.56875,-23.40625,-26.9325,9.576,-13.704,21.528002,inter_set_rest,3,3.0,23027.0,155633.0,245764.0,292662.0,269509.0
2026-04-08 21:38:22.542789,112030,1609503474648143,1074614976,0.179584,-0.20496,0.94672,-15.627501,-20.02,-10.185,8.848001,-13.576,23.720001,inter_set_rest,3,3.0,23027.0,155633.0,245764.0,292662.0,269509.0
2026-04-08 21:38:22.545315,112031,1609503474657092,1074623635,0.179584,-0.20496,0.94672,-35.06125,-17.68375,8.0325,8.848001,-13.576,23.720001,inter_set_rest,3,3.0,23027.0,155633.0,245764.0,292662.0,269509.0
2026-04-08 21:38:22.581631,112042,1609503474671827,1074638567,0.130784,-0.376736,0.872544,-38.6575,-17.01,16.0825,9.016001,-12.832001,23.352001,inter_set_rest,3,3.0,23071.0,155631.0,245676.0,292631.0,269486.0
2026-04-08 21:38:22.584183,112043,1609503474680791,1074647258,0.062464,-0.488,0.833504,-36.28625,-18.62,9.82625,8.864,-12.848001,24.080002,inter_set_rest,3,3.0,23071.0,155631.0,245676.0,292631.0,269486.0
2026-04-08 21:38:22.586634,112044,1609503474695502,1074662209,0.062464,-0.488,0.833504,-28.6125,-22.085001,2.59,8.864,-12.848001,24.080002,inter_set_rest,3,3.0,23071.0,155631.0,245676.0,292631.0,269486.0
2026-04-08 21:38:22.589143,112045,1609503474704455,1074670922,0.162016,-0.3416,0.530944,-19.25,-25.27,3.59625,8.384001,-12.888001,24.152,inter_set_rest,3,3.0,23071.0,155631.0,245676.0,292631.0,269486.0
2026-04-08 21:38:22.591531,112046,1609503474713404,1074679667,0.162016,-0.3416,0.530944,-6.97375,-28.1575,2.7475,8.384001,-12.888001,24.152,inter_set_rest,3,3.0,23071.0,155631.0,245676.0,292631.0,269486.0
2026-04-08 21:38:22.594079,112047,1609503474727913,1074694541,0.15616,-0.070272,0.79056,6.65875,-31.00125,-0.6475,8.136001,-13.128,23.536001,inter_set_rest,3,3.0,23071.0,155631.0,245676.0,292631.0,269486.0
2026-04-08 21:38:22.596591,112048,1609503474736859,1074703270,0.15616,-0.070272,0.79056,26.57375,-31.885,0.735,8.136001,-13.128,23.536001,inter_set_rest,3,3.0,23071.0,155631.0,245676.0,292631.0,269486.0
2026-04-08 21:38:22.626845,112049,1609503474751336,1074718160,0.130784,-0.119072,0.823744,35.5775,-33.17125,4.515,7.264,-13.688001,24.064001,inter_set_rest,3,3.0,23071.0,155631.0,245676.0,292631.0,269486.0
2026-04-08 21:38:22.630923,112050,1609503474760264,1074726838,0.249856,-0.284992,1.046272,27.23,-34.65875,4.7075,7.568,-14.008,21.584002,inter_set_rest,3,3.0,23071.0,155631.0,245676.0,292631.0,269486.0
2026-04-08 21:38:22.660324,112061,1609503474774864,1074741741,0.249856,-0.284992,1.046272,18.76875,-35.8925,5.6875,7.568,-14.008,21.584002,inter_set_rest,3,3.0,23415.0,156209.0,246068.0,293000.0,269739.0
2026-04-08 21:38:22.662852,112062,1609503474783878,1074750482,0.20496,-0.27328,0.874496,13.055,-35.98875,8.21625,6.656,-14.408001,23.968,inter_set_rest,3,3.0,23415.0,156209.0,246068.0,293000.0,269739.0
2026-04-08 21:38:22.665359,112063,1609503474792796,1074759160,0.20496,-0.27328,0.874496,7.0875,-35.56,7.805,6.656,-14.408001,23.968,inter_set_rest,3,3.0,23415.0,156209.0,246068.0,293000.0,269739.0
2026-04-08 21:38:22.667863,112064,1609503474807288,1074774031,0.199104,-0.142496,0.798368,7.09625,-36.33875,7.07,6.456,-14.296001,23.648,inter_set_rest,3,3.0,23415.0,156209.0,246068.0,293000.0,269739.0
2026-04-08 21:38:22.670364,112065,1609503474816297,1074782737,0.199104,-0.142496,0.798368,15.47,-38.745,8.5925,6.456,-14.296001,23.648,inter_set_rest,3,3.0,23415.0,156209.0,246068.0,293000.0,269739.0
2026-04-08 21:38:22.700479,112066,1609503474830788,1074797642,0.173728,-0.15616,0.876448,25.7075,-42.04375,6.46625,6.16,-14.944,22.656,inter_set_rest,3,3.0,23415.0,156209.0,246068.0,293000.0,269739.0
2026-04-08 21:38:22.704210,112067,1609503474839687,1074806305,0.173728,-0.128832,0.954528,29.05875,-45.22,0.34125,6.16,-15.160001,22.552002,inter_set_rest,3,3.0,23415.0,156209.0,246068.0,293000.0,269739.0
2026-04-08 21:38:22.707000,112068,1609503474848607,1074814986,0.173728,-0.128832,0.954528,24.8675,-48.23875,-5.08375,5.488,-15.160001,22.552002,inter_set_rest,3,3.0,23415.0,156209.0,246068.0,293000.0,269739.0
2026-04-08 21:38:22.737734,112069,1609503474863077,1074829898,0.220576,-0.121024,0.8296,20.79,-50.88125,-7.23625,4.784,-14.712001,24.224,inter_set_rest,3,3.0,23415.0,156209.0,246068.0,293000.0,269739.0
2026-04-08 21:38:22.804463,112080,1609503474872010,1074839077,0.220576,-0.121024,0.8296,19.04875,-52.73625,-4.2175,4.784,-14.712001,24.224,inter_set_rest,3,3.0,23579.0,156692.0,246249.0,293029.0,269697.0
2026-04-08 21:38:22.812192,112081,1609503474886549,1074851903,0.21472,-0.081984,0.71248,13.9475,-54.43375,-4.8125,4.664,-15.248001,23.432001,inter_set_rest,3,3.0,23579.0,156692.0,246249.0,293029.0,269697.0
2026-04-08 21:38:22.813873,112082,1609503474895949,1074862699,0.21472,-0.081984,0.71248,8.435,-57.365,-10.2725,4.664,-15.248001,23.432001,inter_set_rest,3,3.0,23579.0,156692.0,246249.0,293029.0,269697.0
2026-04-08 21:38:22.815379,112083,1609503474910427,1074875589,0.27328,-0.046848,0.884256,3.00125,-59.9025,-15.33,3.736,-15.288001,23.912,inter_set_rest,3,3.0,23579.0,156692.0,246249.0,293029.0,269697.0
2026-04-08 21:38:22.819655,112084,1609503474919596,1074886316,0.27328,-0.046848,0.786656,-1.77625,-62.09,-18.34,3.736,-15.288001,23.912,inter_set_rest,3,3.0,23579.0,156692.0,246249.0,293029.0,269697.0
2026-04-08 21:38:22.821364,112085,1609503474928523,1074894994,0.327936,-0.0976,0.786656,-5.34625,-63.04375,-18.69,3.664,-15.904,24.144001,inter_set_rest,3,3.0,23579.0,156692.0,246249.0,293029.0,269697.0
2026-04-08 21:38:22.822928,112086,1609503474942981,1074909869,0.329888,-0.074176,0.70272,-6.57125,-63.83125,-14.1575,2.976,-15.664001,23.76,inter_set_rest,3,3.0,23579.0,156692.0,246249.0,293029.0,269697.0
2026-04-08 21:38:22.827149,112087,1609503474951946,1074918556,0.329888,-0.074176,0.70272,-5.9675,-66.7275,-15.02375,2.976,-15.664001,23.76,inter_set_rest,3,3.0,23579.0,156692.0,246249.0,293029.0,269697.0
2026-04-08 21:38:22.828968,112088,1609503474966435,1074933421,0.327936,-0.07808,0.804224,-6.01125,-66.1325,-19.06625,2.392,-15.480001,23.504002,inter_set_rest,3,3.0,23579.0,156692.0,246249.0,293029.0,269697.0
2026-04-08 21:38:22.857164,112099,1609503474975902,1074942177,0.327936,-0.07808,0.804224,-3.10625,-67.41875,-18.64625,2.392,-15.480001,23.504002,inter_set_rest,3,3.0,23778.0,156891.0,246137.0,292805.0,269512.0
2026-04-08 21:38:22.860278,112100,1609503474984897,1074950867,0.378688,-0.113216,0.739808,-1.5575,-67.41875,-17.4125,1.352,-15.272,25.824001,inter_set_rest,3,3.0,23778.0,156891.0,246137.0,292805.0,269512.0
2026-04-08 21:38:22.861588,112101,1609503474999423,1074965755,0.378688,-0.113216,0.739808,-1.75,-66.80625,-14.90125,1.352,-15.272,25.824001,inter_set_rest,3,3.0,23778.0,156891.0,246137.0,292805.0,269512.0
2026-04-08 21:38:22.864467,112102,1609503475008350,1074974507,0.421632,-0.023424,1.003328,-0.8925,-65.73875,-13.13375,0.52,-15.272,24.824001,inter_set_rest,3,3.0,23778.0,156891.0,246137.0,292805.0,269512.0
2026-04-08 21:38:22.894067,112103,1609503475022888,1074989409,0.447008,-0.007808,0.977952,0.60375,-64.6275,-13.4925,0.824,-15.880001,23.584002,inter_set_rest,3,3.0,23778.0,156891.0,246137.0,292805.0,269512.0
2026-04-08 21:38:22.896231,112104,1609503475031785,1074998058,0.447008,-0.007808,0.977952,1.98625,-62.88625,-14.49875,0.824,-15.880001,23.584002,inter_set_rest,3,3.0,23778.0,156891.0,246137.0,292805.0,269512.0
2026-04-08 21:38:22.900886,112105,1609503475046263,1075012898,0.462624,-0.080032,0.93696,1.3125,-63.420002,-15.7325,-0.144,-15.800001,24.008001,inter_set_rest,3,3.0,23778.0,156891.0,246137.0,292805.0,269512.0
2026-04-08 21:38:22.929394,112106,1609503475055266,1075021614,0.462624,-0.080032,0.93696,-0.4725,-63.4375,-17.08875,-0.144,-15.800001,24.008001,inter_set_rest,3,3.0,23778.0,156891.0,246137.0,292805.0,269512.0
2026-04-08 21:38:22.934294,112107,1609503475064171,1075030274,0.388448,-0.056608,0.812032,-2.79125,-62.11625,-18.0775,-0.568,-15.720001,24.224,inter_set_rest,3,3.0,23778.0,156891.0,246137.0,292805.0,269512.0
2026-04-08 21:38:22.960400,112118,1609503475078655,1075045259,0.388448,-0.056608,0.812032,-7.20125,-60.4975,-17.36,-0.568,-15.720001,24.224,inter_set_rest,3,3.0,23974.0,157428.0,246691.0,293168.0,269688.0
2026-04-08 21:38:22.964692,112119,1609503475087639,1075053969,0.489952,-0.01952,0.710528,-10.0275,-59.64,-15.16375,-1.072,-16.12,23.848001,inter_set_rest,3,3.0,23974.0,157428.0,246691.0,293168.0,269688.0
2026-04-08 21:38:22.966389,112120,1609503475102136,1075068870,0.50752,0.0,0.681248,-11.97,-58.7475,-13.39625,-1.52,-15.416,24.328001,inter_set_rest,3,3.0,23974.0,157428.0,246691.0,293168.0,269688.0
2026-04-08 21:38:22.968766,112121,1609503475111035,1075077531,0.50752,0.0,0.681248,-15.11125,-57.951252,-13.825,-1.52,-15.416,24.328001,inter_set_rest,3,3.0,23974.0,157428.0,246691.0,293168.0,269688.0
2026-04-08 21:38:22.999079,112122,1609503475125514,1075092389,0.499712,-0.111264,0.700768,-19.45125,-57.37375,-15.5575,-2.272,-15.256001,24.176,inter_set_rest,3,3.0,23974.0,157428.0,246691.0,293168.0,269688.0
2026-04-08 21:38:23.003488,112123,1609503475134418,1075101039,0.499712,-0.111264,0.700768,-21.62125,-57.365,-16.47625,-2.272,-15.256001,24.176,inter_set_rest,3,3.0,23974.0,157428.0,246691.0,293168.0,269688.0
2026-04-08 21:38:23.005074,112124,1609503475143337,1075109716,0.501664,-0.206912,0.667584,-21.55125,-58.05625,-17.4825,-2.344,-15.376,24.672,inter_set_rest,3,3.0,23974.0,157428.0,246691.0,293168.0,269688.0
2026-04-08 21:38:23.012112,112125,1609503475157833,1075124607,0.501664,-0.206912,0.667584,-18.99625,-57.995,-18.515,-2.344,-15.376,24.672,inter_set_rest,3,3.0,23974.0,157428.0,246691.0,293168.0,269688.0
2026-04-08 21:38:23.040697,112126,1609503475166767,1075133335,0.450912,-0.121024,0.745664,-14.1575,-58.31875,-18.76,-3.408,-15.344001,25.328001,inter_set_rest,3,3.0,23974.0,157428.0,246691.0,293168.0,269688.0
2026-04-08 21:38:23.105280,112137,1609503475181300,1075148300,0.450912,-0.121024,0.548512,-8.60125,-58.80875,-17.85875,-3.408,-15.344001,25.328001,inter_set_rest,3,3.0,24216.0,157991.0,247166.0,293406.0,269781.0
2026-04-08 21:38:23.107590,112138,1609503475190216,1075156933,0.450912,-0.042944,0.548512,-3.35125,-58.80875,-17.75375,-3.752,-15.144001,24.136002,inter_set_rest,3,3.0,24216.0,157991.0,247166.0,293406.0,269781.0
2026-04-08 21:38:23.109142,112139,1609503475204707,1075171858,0.532896,-0.0488,0.616832,-1.2075,-59.15875,-19.6525,-4.584,-15.200001,24.880001,inter_set_rest,3,3.0,24216.0,157991.0,247166.0,293406.0,269781.0
2026-04-08 21:38:23.113407,112140,1609503475213648,1075180517,0.532896,-0.0488,0.616832,-3.43,-59.91125,-20.20375,-4.584,-15.200001,24.880001,inter_set_rest,3,3.0,24216.0,157991.0,247166.0,293406.0,269781.0
2026-04-08 21:38:23.115143,112141,1609503475222551,1075189165,0.569984,-0.07808,0.804224,-6.86,-61.08375,-19.29375,-4.808,-15.384001,23.936,inter_set_rest,3,3.0,24216.0,157991.0,247166.0,293406.0,269781.0
2026-04-08 21:38:23.116682,112142,1609503475237016,1075204000,0.569984,-0.07808,0.804224,-9.38875,-61.74875,-18.095,-4.808,-15.384001,23.936,inter_set_rest,3,3.0,24216.0,157991.0,247166.0,293406.0,269781.0
2026-04-08 21:38:23.121018,112143,1609503475245965,1075212699,0.597312,-0.115168,0.679296,-9.80875,-61.24125,-17.99875,-5.6,-15.448001,25.248001,inter_set_rest,3,3.0,24216.0,157991.0,247166.0,293406.0,269781.0
2026-04-08 21:38:23.122654,112144,1609503475260478,1075227607,0.597312,-0.115168,0.679296,-8.8375,-60.55,-19.22375,-5.6,-15.448001,25.248001,inter_set_rest,3,3.0,24216.0,157991.0,247166.0,293406.0,269781.0
2026-04-08 21:38:23.124338,112145,1609503475269408,1075236322,0.618784,-0.064416,0.65392,-8.89,-58.51125,-19.2675,-5.936,-15.576001,24.416,inter_set_rest,3,3.0,24216.0,157991.0,247166.0,293406.0,269781.0
2026-04-08 21:38:23.152688,112156,1609503475284085,1075249463,0.700768,0.132736,0.895968,-7.1575,-54.62625,-17.73625,-5.992,-15.456,23.648,inter_set_rest,3,3.0,24442.0,158735.0,248144.0,294109.0,270244.0
2026-04-08 21:38:23.154167,112157,1609503475293471,1075260222,0.700768,0.132736,0.895968,0.49875,-48.97375,-17.96375,-5.992,-15.456,23.648,inter_set_rest,3,3.0,24442.0,158735.0,248144.0,294109.0,270244.0
2026-04-08 21:38:23.158252,112158,1609503475302410,1075268918,0.700768,0.003904,1.116544,14.8925,-41.6675,-23.35375,-5.992,-15.456,25.696001,inter_set_rest,3,3.0,24442.0,158735.0,248144.0,294109.0,270244.0
2026-04-08 21:38:23.186834,112159,1609503475316877,1075283770,0.977952,0.003904,1.116544,26.565,-31.98125,-25.305,-6.264,-15.864,25.416,inter_set_rest,3,3.0,24442.0,158735.0,248144.0,294109.0,270244.0
2026-04-08 21:38:23.191355,112160,1609503475325904,1075292456,1.003328,-0.208864,1.032608,26.34625,-25.52375,-21.6825,-6.208,-16.168001,23.920002,inter_set_rest,3,3.0,24442.0,158735.0,248144.0,294109.0,270244.0
2026-04-08 21:38:23.192918,112161,1609503475340385,1075307294,1.003328,-0.208864,1.032608,7.95375,-20.9125,-13.78125,-6.208,-16.168001,23.920002,inter_set_rest,3,3.0,24442.0,158735.0,248144.0,294109.0,270244.0
2026-04-08 21:38:23.224091,112162,1609503475349307,1075315967,0.79056,-0.251808,0.642208,-12.573751,-16.3625,0.35,-6.36,-15.832001,25.696001,inter_set_rest,3,3.0,24442.0,158735.0,248144.0,294109.0,270244.0
2026-04-08 21:38:23.228558,112163,1609503475358340,1075324655,0.79056,-0.251808,0.642208,-22.960001,-12.90625,20.20375,-6.36,-15.832001,25.696001,inter_set_rest,3,3.0,24442.0,158735.0,248144.0,294109.0,270244.0
2026-04-08 21:38:23.255094,112174,1609503475372808,1075339473,0.511424,-0.07808,0.538752,-26.9325,-13.4225,33.232502,-6.624001,-15.840001,23.936,inter_set_rest,3,3.0,24692.0,159874.0,249641.0,295095.0,270790.0
2026-04-08 21:38:23.256693,112175,1609503475381849,1075348187,0.511424,-0.07808,0.538752,-24.9025,-17.605,25.1125,-6.624001,-15.840001,23.936,inter_set_rest,3,3.0,24692.0,159874.0,249641.0,295095.0,270790.0
2026-04-08 21:38:23.261891,112176,1609503475396417,1075363087,0.628544,-0.06832,0.571936,-18.62,-19.6525,5.495,-6.88,-15.68,24.2,inter_set_rest,3,3.0,24692.0,159874.0,249641.0,295095.0,270790.0
2026-04-08 21:38:23.263488,112177,1609503475405420,1075371769,0.698816,-0.13664,0.441152,-5.71375,-21.07,-12.32875,-6.896,-15.712001,23.496,inter_set_rest,3,3.0,24692.0,159874.0,249641.0,295095.0,270790.0
2026-04-08 21:38:23.291959,112178,1609503475420040,1075386763,0.698816,-0.13664,0.441152,3.43,-20.772501,-24.70125,-6.896,-15.712001,23.496,inter_set_rest,3,3.0,24692.0,159874.0,249641.0,295095.0,270790.0
2026-04-08 21:38:23.296381,112179,1609503475428939,1075395426,0.79056,-0.193248,0.404064,4.26125,-19.25,-29.05875,-6.968,-15.744,23.936,inter_set_rest,3,3.0,24692.0,159874.0,249641.0,295095.0,270790.0
2026-04-08 21:38:23.297948,112180,1609503475437868,1075404102,0.79056,-0.193248,0.404064,2.17875,-18.62875,-20.92125,-6.968,-15.744,23.936,inter_set_rest,3,3.0,24692.0,159874.0,249641.0,295095.0,270790.0
2026-04-08 21:38:23.329004,112181,1609503475452377,1075418971,0.804224,-0.134688,0.425536,-5.39,-19.1975,-4.12125,-6.920001,-15.664001,23.976002,inter_set_rest,3,3.0,24692.0,159874.0,249641.0,295095.0,270790.0
2026-04-08 21:38:23.334158,112182,1609503475461293,1075427646,0.804224,-0.134688,0.425536,-9.35375,-17.43875,4.12125,-6.920001,-15.664001,23.976002,inter_set_rest,3,3.0,24692.0,159874.0,249641.0,295095.0,270790.0
2026-04-08 21:38:23.400106,112193,1609503475475930,1075442547,0.821792,-0.111264,0.650016,-3.885,-14.60375,3.395,-7.608,-15.736001,24.048,inter_set_rest,3,3.0,25250.0,161383.0,250864.0,295631.0,271003.0
2026-04-08 21:38:23.401690,112194,1609503475484900,1075451316,0.81008,-0.099552,0.69296,4.725,-11.87375,0.06125,-7.568,-16.256,24.512001,inter_set_rest,3,3.0,25250.0,161383.0,250864.0,295631.0,271003.0
2026-04-08 21:38:23.405033,112195,1609503475493974,1075460049,0.81008,-0.099552,0.69296,9.58125,-10.22,2.5025,-7.568,-16.256,24.512001,inter_set_rest,3,3.0,25250.0,161383.0,250864.0,295631.0,271003.0
2026-04-08 21:38:23.406599,112196,1609503475508427,1075475007,0.80032,-0.066368,0.610976,14.16625,-9.28375,6.9475,-7.736001,-15.760001,24.472002,inter_set_rest,3,3.0,25250.0,161383.0,250864.0,295631.0,271003.0
2026-04-08 21:38:23.410932,112197,1609503475517375,1075483642,0.80032,-0.066368,0.610976,16.2575,-6.7725,8.575,-7.736001,-15.760001,24.472002,inter_set_rest,3,3.0,25250.0,161383.0,250864.0,295631.0,271003.0
2026-04-08 21:38:23.412613,112198,1609503475531809,1075498478,0.753472,0.0,0.530944,11.94375,-6.83375,12.88875,-7.536,-16.064001,23.976002,inter_set_rest,3,3.0,25250.0,161383.0,250864.0,295631.0,271003.0
2026-04-08 21:38:23.414147,112199,1609503475540727,1075507174,0.753472,0.0,0.530944,7.595,-7.83125,16.72125,-7.536,-16.064001,23.976002,inter_set_rest,3,3.0,25250.0,161383.0,250864.0,295631.0,271003.0
2026-04-08 21:38:23.419079,112200,1609503475555203,1075522068,0.767136,-0.017568,0.489952,5.85375,-7.35,16.45875,-7.76,-16.04,23.784,inter_set_rest,3,3.0,25250.0,161383.0,250864.0,295631.0,271003.0
2026-04-08 21:38:23.420894,112201,1609503475564158,1075530754,0.767136,-0.042944,0.511424,4.82125,-6.79,13.658751,-7.76,-16.04,23.784,inter_set_rest,3,3.0,25250.0,161383.0,250864.0,295631.0,271003.0
2026-04-08 21:38:23.477127,112212,1609503475578980,1075545693,0.759328,-0.042944,0.511424,2.0825,-6.16875,9.40625,-7.904,-16.16,24.112001,inter_set_rest,3,3.0,25231.0,161700.0,251501.0,296147.0,271366.0
2026-04-08 21:38:23.478872,112213,1609503475587938,1075554417,0.704672,-0.0488,0.44896,-2.86125,-5.15375,7.79625,-7.624001,-16.240002,23.456001,inter_set_rest,3,3.0,25231.0,161700.0,251501.0,296147.0,271366.0
2026-04-08 21:38:23.480374,112214,1609503475596944,1075563131,0.704672,-0.0488,0.44896,-9.30125,-3.61375,10.24625,-7.624001,-16.240002,23.456001,inter_set_rest,3,3.0,25231.0,161700.0,251501.0,296147.0,271366.0
2026-04-08 21:38:23.488435,112215,1609503475611510,1075578031,0.726144,-0.01952,0.642208,-12.8975,-2.07375,15.05875,-8.312,-15.872001,25.720001,inter_set_rest,3,3.0,25231.0,161700.0,251501.0,296147.0,271366.0
2026-04-08 21:38:23.490176,112216,1609503475620530,1075586739,0.726144,-0.01952,0.642208,-11.43625,0.5075,18.4275,-8.312,-15.872001,25.720001,inter_set_rest,3,3.0,25231.0,161700.0,251501.0,296147.0,271366.0
2026-04-08 21:38:23.491664,112217,1609503475635022,1075601668,0.782752,-0.085888,0.591456,-9.3625,-0.315,15.0325,-8.216001,-15.304001,24.704,inter_set_rest,3,3.0,25231.0,161700.0,251501.0,296147.0,271366.0
2026-04-08 21:38:23.498398,112218,1609503475643927,1075610348,0.782752,-0.085888,0.591456,-11.36625,1.54875,12.50375,-8.216001,-15.304001,24.704,inter_set_rest,3,3.0,25231.0,161700.0,251501.0,296147.0,271366.0
2026-04-08 21:38:23.526861,112219,1609503475652826,1075619007,0.778848,-0.060512,0.646112,-13.7025,2.52875,13.02875,-8.480001,-15.424001,25.112001,inter_set_rest,3,3.0,25231.0,161700.0,251501.0,296147.0,271366.0
2026-04-08 21:38:23.531425,112220,1609503475667311,1075633862,0.778848,-0.099552,0.6344,-16.9225,2.93125,13.685,-8.288,-15.320001,23.68,inter_set_rest,3,3.0,25231.0,161700.0,251501.0,296147.0,271366.0
2026-04-08 21:38:23.560403,112231,1609503475676254,1075642536,0.778848,-0.099552,0.6344,-21.84875,2.24875,13.99125,-8.288,-15.320001,23.68,inter_set_rest,3,3.0,25112.0,161847.0,252122.0,296587.0,271696.0
2026-04-08 21:38:23.564655,112232,1609503475690815,1075657484,0.782752,-0.179584,0.772992,-25.1825,1.18125,13.29125,-8.768001,-14.848001,25.048,inter_set_rest,3,3.0,25112.0,161847.0,252122.0,296587.0,271696.0
2026-04-08 21:38:23.566406,112233,1609503475699824,1075666197,0.782752,-0.179584,0.772992,-22.4,0.72625,12.78375,-8.768001,-14.848001,25.048,inter_set_rest,3,3.0,25112.0,161847.0,252122.0,296587.0,271696.0
2026-04-08 21:38:23.567882,112234,1609503475714321,1075681098,0.74176,-0.1952,0.735904,-16.35375,0.60375,12.355001,-8.424001,-14.76,25.480001,inter_set_rest,3,3.0,25112.0,161847.0,252122.0,296587.0,271696.0
2026-04-08 21:38:23.598115,112235,1609503475723270,1075689776,0.74176,-0.1952,0.735904,-10.45625,-1.085,11.43625,-8.424001,-14.76,25.480001,inter_set_rest,3,3.0,25112.0,161847.0,252122.0,296587.0,271696.0
2026-04-08 21:38:23.601676,112236,1609503475732190,1075698446,0.724192,-0.15616,0.694912,-2.3275,-1.25125,10.3425,-8.032001,-14.688001,25.320002,inter_set_rest,3,3.0,25112.0,161847.0,252122.0,296587.0,271696.0
2026-04-08 21:38:23.604129,112237,1609503475746677,1075713290,0.667584,-0.10736,0.431392,3.9375,-0.48125,8.3125,-8.376,-14.976001,23.824001,inter_set_rest,3,3.0,25112.0,161847.0,252122.0,296587.0,271696.0
2026-04-08 21:38:23.607892,112238,1609503475755588,1075721961,0.667584,-0.10736,0.431392,2.2225,-0.245,6.93,-8.376,-14.976001,23.824001,inter_set_rest,3,3.0,25112.0,161847.0,252122.0,296587.0,271696.0
2026-04-08 21:38:23.638148,112239,1609503475770084,1075736816,0.677344,-0.111264,0.417728,-2.10875,0.035,6.2475,-8.824,-14.832001,24.056002,inter_set_rest,3,3.0,25112.0,161847.0,252122.0,296587.0,271696.0
2026-04-08 21:38:23.699131,112250,1609503475779643,1075745878,0.677344,-0.111264,0.417728,-7.04375,-0.09625,7.16625,-8.824,-14.832001,24.056002,inter_set_rest,3,3.0,25028.0,161735.0,252117.0,296597.0,271712.0
2026-04-08 21:38:23.701669,112251,1609503475788558,1075754618,0.745664,-0.158112,0.72224,-12.31125,-1.1375,8.77625,-8.400001,-14.792001,24.28,inter_set_rest,3,3.0,25028.0,161735.0,252117.0,296597.0,271712.0
2026-04-08 21:38:23.704290,112252,1609503475803073,1075769538,0.745664,-0.158112,0.72224,-16.695,-1.9075,10.36,-8.400001,-14.792001,24.28,inter_set_rest,3,3.0,25028.0,161735.0,252117.0,296597.0,271712.0
2026-04-08 21:38:23.706613,112253,1609503475812015,1075778187,0.753472,-0.240096,0.554368,-20.15125,-2.05625,10.8675,-8.72,-14.576001,24.776001,inter_set_rest,3,3.0,25028.0,161735.0,252117.0,296597.0,271712.0
2026-04-08 21:38:23.709177,112254,1609503475826462,1075793037,0.714432,-0.18544,0.640256,-21.37625,-1.5925,11.655,-8.544001,-14.480001,24.144001,inter_set_rest,3,3.0,25028.0,161735.0,252117.0,296597.0,271712.0
2026-04-08 21:38:23.711628,112255,1609503475835386,1075801753,0.714432,-0.18544,0.640256,-22.82875,-0.9975,12.39,-8.544001,-14.480001,24.144001,inter_set_rest,3,3.0,25028.0,161735.0,252117.0,296597.0,271712.0
2026-04-08 21:38:23.714203,112256,1609503475849894,1075816693,0.679296,-0.162016,0.630496,-23.51125,0.1925,12.48625,-8.864,-14.080001,25.408,inter_set_rest,3,3.0,25028.0,161735.0,252117.0,296597.0,271712.0
2026-04-08 21:38:23.716703,112257,1609503475858833,1075825368,0.679296,-0.162016,0.630496,-25.803751,1.16375,13.58,-8.864,-14.080001,25.408,inter_set_rest,3,3.0,25028.0,161735.0,252117.0,296597.0,271712.0
2026-04-08 21:38:23.720455,112258,1609503475867792,1075834050,0.655872,-0.242048,0.466528,-30.40625,2.2225,15.6975,-8.816,-13.304001,25.768002,inter_set_rest,3,3.0,25028.0,161735.0,252117.0,296597.0,271712.0
2026-04-08 21:38:23.785456,112269,1609503475882388,1075849035,0.655872,-0.242048,0.466528,-34.53625,4.17375,18.66375,-8.816,-13.304001,25.768002,inter_set_rest,3,3.0,24964.0,161399.0,251676.0,296224.0,271452.0
2026-04-08 21:38:23.787950,112270,1609503475891311,1075857691,0.66368,-0.298656,0.569984,-33.670002,3.78,22.67125,-8.936001,-13.152,25.024002,inter_set_rest,3,3.0,24964.0,161399.0,251676.0,296224.0,271452.0
2026-04-08 21:38:23.790432,112271,1609503475905763,1075872561,0.66368,-0.298656,0.569984,-31.1325,2.96625,25.48,-8.936001,-13.152,25.024002,inter_set_rest,3,3.0,24964.0,161399.0,251676.0,296224.0,271452.0
2026-04-08 21:38:23.792923,112272,1609503475914667,1075881224,0.67344,-0.296704,0.75152,-25.12125,-0.2975,24.0275,-9.0,-13.040001,26.048,inter_set_rest,3,3.0,24964.0,161399.0,251676.0,296224.0,271452.0
2026-04-08 21:38:23.795348,112273,1609503475929259,1075896103,0.560224,-0.308416,0.513376,-17.5525,-1.505,19.6175,-9.0,-12.472,25.096,inter_set_rest,3,3.0,24964.0,161399.0,251676.0,296224.0,271452.0
2026-04-08 21:38:23.797890,112274,1609503475938271,1075904803,0.560224,-0.308416,0.513376,-10.64,-2.09125,12.25,-9.0,-12.472,25.096,inter_set_rest,3,3.0,24964.0,161399.0,251676.0,296224.0,271452.0
2026-04-08 21:38:23.800403,112275,1609503475947211,1075913497,0.583648,-0.269376,0.5856,-9.205,-2.75625,6.9125,-9.0,-12.320001,25.296001,inter_set_rest,3,3.0,24964.0,161399.0,251676.0,296224.0,271452.0
2026-04-08 21:38:23.830674,112276,1609503475961749,1075928380,0.583648,-0.269376,0.5856,-8.225,-3.07125,4.45375,-9.0,-12.320001,25.296001,inter_set_rest,3,3.0,24964.0,161399.0,251676.0,296224.0,271452.0
2026-04-08 21:38:23.834149,112277,1609503475970672,1075937037,0.66368,-0.249856,0.767136,-5.3375,-2.00375,4.24375,-8.712001,-12.536,25.192001,inter_set_rest,3,3.0,24964.0,161399.0,251676.0,296224.0,271452.0
2026-04-08 21:38:23.861595,112288,1609503475985233,1075951961,0.66368,-0.249856,0.767136,-1.4,-1.2425,3.75375,-8.712001,-12.536,25.192001,inter_set_rest,3,3.0,24808.0,160920.0,251214.0,296026.0,271360.0
2026-04-08 21:38:23.864176,112289,1609503475994303,1075960610,0.583648,-0.23424,0.64416,0.76125,-0.4025,3.21125,-8.88,-12.512001,26.096,inter_set_rest,3,3.0,24808.0,160920.0,251214.0,296026.0,271360.0
2026-04-08 21:38:23.866651,112290,1609503476008820,1075975501,0.675392,-0.261568,0.601216,1.4,0.35,2.555,-9.008,-12.76,23.904001,inter_set_rest,3,3.0,24808.0,160920.0,251214.0,296026.0,271360.0
2026-04-08 21:38:23.870394,112291,1609503476017777,1075984174,0.675392,-0.261568,0.601216,0.77875,1.23375,1.68,-9.008,-12.76,23.904001,inter_set_rest,3,3.0,24808.0,160920.0,251214.0,296026.0,271360.0
2026-04-08 21:38:23.902768,112292,1609503476026713,1075992824,0.675392,-0.261568,0.679296,-2.23125,2.30125,0.9975,-9.008,-12.76,23.904001,inter_set_rest,3,3.0,24808.0,160920.0,251214.0,296026.0,271360.0
2026-04-08 21:38:23.905404,112293,1609503476041217,1076007738,0.704672,-0.242048,0.679296,-7.20125,2.98375,0.5775,-9.032001,-12.200001,25.576002,inter_set_rest,3,3.0,24808.0,160920.0,251214.0,296026.0,271360.0
2026-04-08 21:38:23.907952,112294,1609503476050146,1076016436,0.607072,-0.210816,0.62464,-12.136251,4.1125,1.8725,-8.704,-12.216001,25.312,inter_set_rest,3,3.0,24808.0,160920.0,251214.0,296026.0,271360.0
2026-04-08 21:38:23.938202,112295,1609503476064636,1076031295,0.607072,-0.210816,0.62464,-15.26,4.33125,3.7975,-8.704,-12.216001,25.312,inter_set_rest,3,3.0,24808.0,160920.0,251214.0,296026.0,271360.0
2026-04-08 21:38:23.941675,112296,1609503476073598,1076039955,0.60512,-0.23424,0.657824,-16.59875,4.6725,4.935,-8.96,-12.096001,25.152,inter_set_rest,3,3.0,24808.0,160920.0,251214.0,296026.0,271360.0
2026-04-08 21:38:24.004718,112307,1609503476082669,1076048788,0.60512,-0.23424,0.657824,-17.35125,5.005,4.7775,-8.96,-12.096001,25.152,inter_set_rest,3,3.0,24706.0,160654.0,250972.0,295899.0,271322.0
2026-04-08 21:38:24.006377,112308,1609503476097144,1076063757,0.638304,-0.251808,0.730048,-16.31,5.22375,4.41,-8.864,-12.104001,25.264002,inter_set_rest,3,3.0,24706.0,160654.0,250972.0,295899.0,271322.0
2026-04-08 21:38:24.007897,112309,1609503476106192,1076072447,0.638304,-0.251808,0.730048,-13.5275,5.81,4.27875,-8.864,-12.104001,25.264002,inter_set_rest,3,3.0,24706.0,160654.0,250972.0,295899.0,271322.0
2026-04-08 21:38:24.012159,112310,1609503476120601,1076087298,0.70272,-0.279136,0.706624,-10.3425,6.23,3.49125,-9.016001,-11.776001,24.12,inter_set_rest,3,3.0,24706.0,160654.0,250972.0,295899.0,271322.0
2026-04-08 21:38:24.013902,112311,1609503476129535,1076095964,0.714432,-0.261568,0.704672,-9.02125,7.00875,2.00375,-8.64,-12.176001,25.512001,inter_set_rest,3,3.0,24706.0,160654.0,250972.0,295899.0,271322.0
2026-04-08 21:38:24.015469,112312,1609503476144039,1076110909,0.714432,-0.261568,0.704672,-7.8925,7.6475,1.53125,-8.64,-12.176001,25.512001,inter_set_rest,3,3.0,24706.0,160654.0,250972.0,295899.0,271322.0
2026-04-08 21:38:24.018847,112313,1609503476153029,1076119656,0.71248,-0.249856,0.696864,-7.77875,8.6975,1.79375,-8.736,-11.184001,26.192001,inter_set_rest,3,3.0,24706.0,160654.0,250972.0,295899.0,271322.0
2026-04-08 21:38:24.020418,112314,1609503476161954,1076128374,0.71248,-0.249856,0.696864,-10.43,10.77125,2.19625,-8.736,-11.184001,26.192001,inter_set_rest,3,3.0,24706.0,160654.0,250972.0,295899.0,271322.0
2026-04-08 21:38:24.051561,112315,1609503476176568,1076143272,0.689056,-0.259616,0.564128,-15.16375,12.85375,2.415,-8.784,-11.360001,26.52,inter_set_rest,3,3.0,24706.0,160654.0,250972.0,295899.0,271322.0
2026-04-08 21:38:24.080156,112326,1609503476185569,1076151985,0.689056,-0.259616,0.564128,-20.92125,14.1575,3.78875,-8.784,-11.360001,26.52,inter_set_rest,3,3.0,24675.0,160642.0,250996.0,295950.0,271359.0
2026-04-08 21:38:24.081824,112327,1609503476200053,1076166888,0.70272,-0.251808,0.687104,-27.04625,15.16375,5.32875,-8.736,-10.912001,26.080002,inter_set_rest,3,3.0,24675.0,160642.0,250996.0,295950.0,271359.0
2026-04-08 21:38:24.085923,112328,1609503476208995,1076175561,0.669536,-0.259616,0.667584,-29.741251,15.2425,6.0725,-8.264,-10.76,27.400002,inter_set_rest,3,3.0,24675.0,160642.0,250996.0,295950.0,271359.0
2026-04-08 21:38:24.087703,112329,1609503476223555,1076190478,0.669536,-0.259616,0.667584,-30.555,15.47,5.78375,-8.264,-10.76,27.400002,inter_set_rest,3,3.0,24675.0,160642.0,250996.0,295950.0,271359.0
2026-04-08 21:38:24.090003,112330,1609503476232474,1076199161,0.651968,-0.269376,0.71248,-29.741251,16.5725,5.6175,-8.024,-10.208,26.776001,inter_set_rest,3,3.0,24675.0,160642.0,250996.0,295950.0,271359.0
2026-04-08 21:38:24.095730,112331,1609503476241402,1076207828,0.651968,-0.269376,0.71248,-29.365,17.535,5.97625,-8.024,-10.208,26.776001,inter_set_rest,3,3.0,24675.0,160642.0,250996.0,295950.0,271359.0
2026-04-08 21:38:24.124448,112332,1609503476255892,1076222713,0.65392,-0.2928,0.718336,-30.616251,17.6925,7.07875,-8.104,-9.68,26.696001,inter_set_rest,3,3.0,24675.0,160642.0,250996.0,295950.0,271359.0
2026-04-08 21:38:24.128996,112333,1609503476264822,1076231359,0.65392,-0.2928,0.718336,-31.94625,17.465,8.89875,-8.104,-9.68,26.696001,inter_set_rest,3,3.0,24675.0,160642.0,250996.0,295950.0,271359.0
2026-04-08 21:38:24.155416,112344,1609503476279571,1076246750,0.577792,-0.306464,0.581696,-30.7475,16.24875,11.445,-7.568,-9.544001,26.080002,inter_set_rest,3,3.0,24580.0,160304.0,250607.0,295702.0,271224.0
2026-04-08 21:38:24.157498,112345,1609503476288611,1076255474,0.577792,-0.306464,0.525088,-25.095,13.8075,12.5475,-7.568,-9.544001,26.080002,inter_set_rest,3,3.0,24580.0,160304.0,250607.0,295702.0,271224.0
2026-04-08 21:38:24.160766,112346,1609503476303152,1076268318,0.609024,-0.345504,0.525088,-17.70125,11.445,10.78,-7.304,-9.192,26.592001,inter_set_rest,3,3.0,24580.0,160304.0,250607.0,295702.0,271224.0
2026-04-08 21:38:24.164139,112347,1609503476312322,1076279123,0.667584,-0.359168,0.638304,-10.22,11.05125,8.47,-7.376,-9.408,27.144001,inter_set_rest,3,3.0,24580.0,160304.0,250607.0,295702.0,271224.0
2026-04-08 21:38:24.194351,112348,1609503476321252,1076287807,0.667584,-0.359168,0.638304,-5.5825,10.29,7.175,-7.376,-9.408,27.144001,inter_set_rest,3,3.0,24580.0,160304.0,250607.0,295702.0,271224.0
2026-04-08 21:38:24.197918,112349,1609503476335722,1076302692,0.554368,-0.294752,0.589504,-4.71625,9.3275,7.09625,-7.480001,-8.992001,26.568,inter_set_rest,3,3.0,24580.0,160304.0,250607.0,295702.0,271224.0
2026-04-08 21:38:24.200410,112350,1609503476344626,1076311335,0.554368,-0.294752,0.589504,-5.27625,9.28375,7.315,-7.480001,-8.992001,26.568,inter_set_rest,3,3.0,24580.0,160304.0,250607.0,295702.0,271224.0
2026-04-08 21:38:24.230745,112351,1609503476359133,1076326264,0.534848,-0.294752,0.601216,-5.67875,9.26625,7.1575,-7.568,-9.176001,26.480001,inter_set_rest,3,3.0,24580.0,160304.0,250607.0,295702.0,271224.0
2026-04-08 21:38:24.234156,112352,1609503476368057,1076334949,0.534848,-0.294752,0.601216,-6.44875,8.5225,5.81,-7.568,-9.176001,26.480001,inter_set_rest,3,3.0,24580.0,160304.0,250607.0,295702.0,271224.0
2026-04-08 21:38:24.236668,112353,1609503476377005,1076343627,0.521184,-0.318176,0.540704,-6.81625,6.8775,3.885,-7.248,-9.176001,25.976002,inter_set_rest,3,3.0,24580.0,160304.0,250607.0,295702.0,271224.0
2026-04-08 21:38:24.296611,112364,1609503476391701,1076358556,0.607072,-0.324032,0.720288,-5.87125,5.83625,2.0125,-7.56,-9.112,29.584002,inter_set_rest,3,3.0,24468.0,160091.0,250465.0,295669.0,271233.0
2026-04-08 21:38:24.300129,112365,1609503476400652,1076367223,0.607072,-0.324032,0.720288,-5.775,4.64625,0.5775,-7.56,-9.112,29.584002,inter_set_rest,3,3.0,24468.0,160091.0,250465.0,295669.0,271233.0
2026-04-08 21:38:24.303228,112366,1609503476415160,1076382109,0.525088,-0.310368,0.60512,-5.50375,3.3775,-0.51625,-7.296001,-8.984,26.824001,inter_set_rest,3,3.0,24468.0,160091.0,250465.0,295669.0,271233.0
2026-04-08 21:38:24.304314,112367,1609503476424049,1076390766,0.525088,-0.310368,0.60512,-5.355,2.82625,-1.26,-7.296001,-8.984,26.824001,inter_set_rest,3,3.0,24468.0,160091.0,250465.0,295669.0,271233.0
2026-04-08 21:38:24.306685,112368,1609503476438631,1076405671,0.587552,-0.3416,0.550464,-5.03125,2.24,-1.60125,-7.432,-8.72,26.680002,inter_set_rest,3,3.0,24468.0,160091.0,250465.0,295669.0,271233.0
2026-04-08 21:38:24.311694,112369,1609503476447574,1076414343,0.587552,-0.3416,0.550464,-3.955,1.44375,-2.51125,-7.432,-8.72,26.680002,inter_set_rest,3,3.0,24468.0,160091.0,250465.0,295669.0,271233.0
2026-04-08 21:38:24.314238,112370,1609503476456498,1076422966,0.540704,-0.304512,0.638304,-2.2925,1.645,-4.05125,-7.336,-8.68,26.776001,inter_set_rest,3,3.0,24468.0,160091.0,250465.0,295669.0,271233.0
2026-04-08 21:38:24.346923,112371,1609503476470982,1076437847,0.56608,-0.294752,0.691008,-2.415,1.9425,-4.69875,-7.032001,-8.632,25.760002,inter_set_rest,3,3.0,24468.0,160091.0,250465.0,295669.0,271233.0
2026-04-08 21:38:24.375378,112382,1609503476479904,1076446528,0.56608,-0.294752,0.691008,-3.10625,1.88125,-4.8125,-7.032001,-8.632,25.760002,inter_set_rest,3,3.0,24434.0,160107.0,250532.0,295721.0,271266.0
2026-04-08 21:38:24.377876,112383,1609503476494839,1076461463,0.609024,-0.300608,0.763232,-2.975,1.855,-4.62875,-7.32,-8.84,26.856,inter_set_rest,3,3.0,24434.0,160107.0,250532.0,295721.0,271266.0
2026-04-08 21:38:24.381695,112384,1609503476503759,1076470189,0.609024,-0.300608,0.763232,-3.00125,1.28625,-5.62625,-7.32,-8.84,26.856,inter_set_rest,3,3.0,24434.0,160107.0,250532.0,295721.0,271266.0
2026-04-08 21:38:24.383723,112385,1609503476518282,1076485122,0.646112,-0.345504,0.687104,-3.7275,1.67125,-6.01125,-7.552001,-8.544001,28.032001,inter_set_rest,3,3.0,24434.0,160107.0,250532.0,295721.0,271266.0
2026-04-08 21:38:24.385605,112386,1609503476527243,1076493798,0.646112,-0.345504,0.687104,-4.61125,1.56625,-5.32,-7.552001,-8.544001,28.032001,inter_set_rest,3,3.0,24434.0,160107.0,250532.0,295721.0,271266.0
2026-04-08 21:38:24.389145,112387,1609503476536169,1076502484,0.638304,-0.359168,0.599264,-4.1475,1.575,-4.585,-7.304,-8.816,27.928001,inter_set_rest,3,3.0,24434.0,160107.0,250532.0,295721.0,271266.0
2026-04-08 21:38:24.419455,112388,1609503476550648,1076517377,0.607072,-0.343552,0.52704,-2.82625,1.4,-4.0425,-7.304,-8.816,25.536001,inter_set_rest,3,3.0,24434.0,160107.0,250532.0,295721.0,271266.0
2026-04-08 21:38:24.422921,112389,1609503476559568,1076526048,0.607072,-0.343552,0.52704,-1.1025,1.645,-4.8125,-7.016,-8.984,25.536001,inter_set_rest,3,3.0,24434.0,160107.0,250532.0,295721.0,271266.0
2026-04-08 21:38:24.426644,112390,1609503476574049,1076540905,0.589504,-0.333792,0.499712,-0.11375,1.9775,-5.9325,-7.072001,-9.128,26.448002,inter_set_rest,3,3.0,24434.0,160107.0,250532.0,295721.0,271266.0
2026-04-08 21:38:24.469057,112401,1609503476583071,1076549748,0.589504,-0.333792,0.499712,-0.49,2.2575,-5.915,-7.072001,-9.128,26.448002,inter_set_rest,3,3.0,24393.0,160044.0,250496.0,295697.0,271259.0
2026-04-08 21:38:24.471603,112402,1609503476592065,1076558445,0.568032,-0.2928,0.696864,-1.95125,2.24,-5.95875,-7.336,-8.72,27.704,inter_set_rest,3,3.0,24393.0,160044.0,250496.0,295697.0,271259.0
2026-04-08 21:38:24.474070,112403,1609503476606571,1076573318,0.568032,-0.2928,0.696864,-3.885,2.17875,-5.74875,-7.336,-8.72,27.704,inter_set_rest,3,3.0,24393.0,160044.0,250496.0,295697.0,271259.0
2026-04-08 21:38:24.476556,112404,1609503476615513,1076582017,0.544608,-0.324032,0.52704,-4.9525,1.40875,-4.7425,-7.136,-9.056001,27.752,inter_set_rest,3,3.0,24393.0,160044.0,250496.0,295697.0,271259.0
2026-04-08 21:38:24.482812,112405,1609503476630009,1076596919,0.544608,-0.324032,0.52704,-5.0575,1.1025,-5.1975,-7.136,-9.056001,27.752,inter_set_rest,3,3.0,24393.0,160044.0,250496.0,295697.0,271259.0
2026-04-08 21:38:24.513196,112406,1609503476639008,1076605578,0.64416,-0.349408,0.667584,-3.4825,0.44625,-5.81875,-7.12,-8.88,27.960001,inter_set_rest,3,3.0,24393.0,160044.0,250496.0,295697.0,271259.0
2026-04-08 21:38:24.516820,112407,1609503476653513,1076620439,0.589504,-0.324032,0.636352,-1.33875,0.04375,-5.69625,-7.000001,-9.256001,26.744001,inter_set_rest,3,3.0,24393.0,160044.0,250496.0,295697.0,271259.0
2026-04-08 21:38:24.519193,112408,1609503476662431,1076629091,0.589504,-0.324032,0.636352,-0.23625,0.28,-5.3375,-7.000001,-9.256001,26.744001,inter_set_rest,3,3.0,24393.0,160044.0,250496.0,295697.0,271259.0
2026-04-08 21:38:24.522918,112409,1609503476671376,1076637794,0.589504,-0.333792,0.564128,1.32125,0.25375,-5.25,-7.000001,-9.256001,26.744001,inter_set_rest,3,3.0,24393.0,160044.0,250496.0,295697.0,271259.0
2026-04-08 21:38:24.609304,112420,1609503476685995,1076652968,0.587552,-0.333792,0.564128,1.61875,0.39375,-4.27875,-7.232,-9.048,28.320002,inter_set_rest,3,3.0,24277.0,159759.0,250212.0,295527.0,271171.0
2026-04-08 21:38:24.611717,112421,1609503476694930,1076661643,0.550464,-0.294752,0.62464,1.07625,0.2275,-3.73625,-6.912,-9.368,26.712002,inter_set_rest,3,3.0,24277.0,159759.0,250212.0,295527.0,271171.0
2026-04-08 21:38:24.615090,112422,1609503476709399,1076676497,0.550464,-0.294752,0.62464,1.75,-0.5075,-3.99875,-6.912,-9.368,26.712002,inter_set_rest,3,3.0,24277.0,159759.0,250212.0,295527.0,271171.0
2026-04-08 21:38:24.616756,112423,1609503476718302,1076685113,0.59536,-0.32208,0.57584,2.82625,-0.63875,-4.41,-6.856,-9.0,26.808,inter_set_rest,3,3.0,24277.0,159759.0,250212.0,295527.0,271171.0
2026-04-08 21:38:24.620783,112424,1609503476732767,1076697917,0.591456,-0.284992,0.733952,3.535,-1.225,-5.08375,-7.192,-9.04,28.048002,inter_set_rest,3,3.0,24277.0,159759.0,250212.0,295527.0,271171.0
2026-04-08 21:38:24.624184,112425,1609503476741903,1076708678,0.591456,-0.284992,0.733952,3.325,-1.1725,-4.7075,-7.192,-9.04,28.048002,inter_set_rest,3,3.0,24277.0,159759.0,250212.0,295527.0,271171.0
2026-04-08 21:38:24.625235,112426,1609503476750843,1076717382,0.591456,-0.284992,0.733952,2.35375,-0.805,-3.99875,-7.192,-9.04,28.048002,inter_set_rest,3,3.0,24277.0,159759.0,250212.0,295527.0,271171.0
2026-04-08 21:38:24.626812,112427,1609503476765374,1076732330,0.657824,-0.320128,0.737856,1.26,-0.76125,-3.3075,-7.112001,-8.648001,25.952002,inter_set_rest,3,3.0,24277.0,159759.0,250212.0,295527.0,271171.0
2026-04-08 21:38:24.629147,112428,1609503476774314,1076741060,0.552416,-0.294752,0.667584,0.42,-0.76125,-2.98375,-7.000001,-9.416,27.576002,inter_set_rest,3,3.0,24277.0,159759.0,250212.0,295527.0,271171.0
2026-04-08 21:38:24.659156,112439,1609503476788896,1076756007,0.552416,-0.294752,0.667584,0.2625,-0.07,-2.77375,-7.000001,-9.416,27.576002,inter_set_rest,3,3.0,24151.0,159565.0,250081.0,295468.0,271171.0
2026-04-08 21:38:24.661654,112440,1609503476797914,1076764683,0.628544,-0.32208,0.650016,-0.20125,0.09625,-2.905,-6.832,-9.0,27.728,inter_set_rest,3,3.0,24151.0,159565.0,250081.0,295468.0,271171.0
2026-04-08 21:38:24.665415,112441,1609503476812444,1076779597,0.64416,-0.327936,0.61488,-0.7175,0.18375,-2.73,-6.832,-9.0,30.272001,inter_set_rest,3,3.0,24151.0,159565.0,250081.0,295468.0,271171.0
2026-04-08 21:38:24.695615,112442,1609503476821437,1076788326,0.64416,-0.327936,0.61488,-0.97125,0.3675,-3.26375,-7.296001,-9.688001,30.272001,inter_set_rest,3,3.0,24151.0,159565.0,250081.0,295468.0,271171.0
2026-04-08 21:38:24.699869,112443,1609503476830382,1076797000,0.64416,-0.327936,0.61488,-1.4525,0.51625,-3.7275,-7.296001,-9.688001,30.272001,inter_set_rest,3,3.0,24151.0,159565.0,250081.0,295468.0,271171.0
2026-04-08 21:38:24.702949,112444,1609503476844846,1076811846,0.609024,-0.300608,0.728096,-2.16125,0.14875,-3.29875,-6.736001,-9.56,26.560001,inter_set_rest,3,3.0,24151.0,159565.0,250081.0,295468.0,271171.0
2026-04-08 21:38:24.707987,112445,1609503476853772,1076820513,0.573888,-0.33184,0.519232,-1.715,0.14875,-3.0275,-6.88,-9.200001,27.36,inter_set_rest,3,3.0,24151.0,159565.0,250081.0,295468.0,271171.0
2026-04-08 21:38:24.738241,112446,1609503476868286,1076835389,0.573888,-0.33184,0.519232,-0.7525,0.39375,-2.47625,-6.88,-9.200001,27.36,inter_set_rest,3,3.0,24151.0,159565.0,250081.0,295468.0,271171.0
2026-04-08 21:38:24.741621,112447,1609503476877175,1076844049,0.55632,-0.316224,0.538752,0.6825,0.175,-2.5375,-6.960001,-9.096001,26.704,inter_set_rest,3,3.0,24151.0,159565.0,250081.0,295468.0,271171.0
2026-04-08 21:38:24.769135,112458,1609503476891855,1076858996,0.55632,-0.316224,0.538752,1.785,-0.07875,-3.3775,-6.960001,-9.096001,26.704,inter_set_rest,3,3.0,24025.0,159343.0,249981.0,295428.0,271152.0
2026-04-08 21:38:24.771607,112459,1609503476900811,1076867663,0.540704,-0.279136,0.620736,2.485,-0.0175,-3.98125,-6.952,-9.648001,26.12,inter_set_rest,3,3.0,24025.0,159343.0,249981.0,295428.0,271152.0
2026-04-08 21:38:24.775082,112460,1609503476909803,1076876328,0.540704,-0.279136,0.620736,2.40625,-0.28875,-4.19125,-6.952,-9.648001,26.12,inter_set_rest,3,3.0,24025.0,159343.0,249981.0,295428.0,271152.0
2026-04-08 21:38:24.776629,112461,1609503476924364,1076891222,0.607072,-0.318176,0.558272,1.8025,-0.455,-3.64,-6.784,-9.120001,26.720001,inter_set_rest,3,3.0,24025.0,159343.0,249981.0,295428.0,271152.0
2026-04-08 21:38:24.806913,112462,1609503476933305,1076899891,0.597312,-0.277184,0.765184,-0.2975,-0.175,-3.71875,-6.784,-9.120001,26.512001,inter_set_rest,3,3.0,24025.0,159343.0,249981.0,295428.0,271152.0
2026-04-08 21:38:24.810464,112463,1609503476947789,1076914801,0.597312,-0.277184,0.765184,-1.12,-0.14875,-3.68375,-7.136,-9.584001,26.512001,inter_set_rest,3,3.0,24025.0,159343.0,249981.0,295428.0,271152.0
2026-04-08 21:38:24.812868,112464,1609503476956691,1076923441,0.560224,-0.286944,0.603168,-1.96875,-0.63875,-3.70125,-7.096,-9.432,26.840002,inter_set_rest,3,3.0,24025.0,159343.0,249981.0,295428.0,271152.0
2026-04-08 21:38:24.817885,112465,1609503476965628,1076932127,0.560224,-0.286944,0.603168,-2.065,-1.02375,-3.52625,-7.096,-9.432,26.840002,inter_set_rest,3,3.0,24025.0,159343.0,249981.0,295428.0,271152.0
2026-04-08 21:38:24.883201,112466,1609503476980093,1076947023,0.583648,-0.318176,0.52704,-1.70625,-0.6475,-4.12125,-7.168,-9.240001,27.528002,inter_set_rest,3,3.0,24025.0,159343.0,249981.0,295428.0,271152.0
2026-04-08 21:38:24.911706,112477,1609503476989021,1076955741,0.583648,-0.318176,0.52704,-1.7325,-0.6475,-4.33125,-7.168,-9.240001,27.528002,inter_set_rest,3,3.0,23924.0,159184.0,249916.0,295413.0,271169.0
2026-04-08 21:38:24.914198,112478,1609503477003491,1076970639,0.61488,-0.288896,0.786656,-0.97125,-0.42,-3.98125,-6.992,-9.360001,26.728,inter_set_rest,3,3.0,23924.0,159184.0,249916.0,295413.0,271169.0
2026-04-08 21:38:24.916710,112479,1609503477012430,1076979316,0.61488,-0.288896,0.786656,-0.81375,-0.30625,-3.36875,-6.992,-9.360001,26.728,inter_set_rest,3,3.0,23924.0,159184.0,249916.0,295413.0,271169.0
2026-04-08 21:38:24.919159,112480,1609503477026918,1076992142,0.640256,-0.32208,0.675392,-1.4175,-0.525,-2.625,-6.992,-9.296001,25.608002,inter_set_rest,3,3.0,23924.0,159184.0,249916.0,295413.0,271169.0
2026-04-08 21:38:24.922632,112481,1609503477036139,1077002874,0.630496,-0.327936,0.61488,-1.67125,-0.23625,-2.98375,-6.864,-9.072001,26.424002,inter_set_rest,3,3.0,23924.0,159184.0,249916.0,295413.0,271169.0
2026-04-08 21:38:24.924224,112482,1609503477045117,1077011603,0.630496,-0.327936,0.61488,-1.74125,-0.11375,-3.465,-6.864,-9.072001,26.424002,inter_set_rest,3,3.0,23924.0,159184.0,249916.0,295413.0,271169.0
2026-04-08 21:38:24.928441,112483,1609503477059749,1077026495,0.65392,-0.32208,0.685152,-2.42375,-0.4025,-3.2025,-7.408001,-9.072001,28.152,inter_set_rest,3,3.0,23924.0,159184.0,249916.0,295413.0,271169.0
2026-04-08 21:38:24.930025,112484,1609503477068711,1077035186,0.65392,-0.32208,0.685152,-2.4325,-0.4375,-2.905,-7.408001,-9.072001,28.152,inter_set_rest,3,3.0,23924.0,159184.0,249916.0,295413.0,271169.0
2026-04-08 21:38:24.960148,112495,1609503477083815,1077050195,0.597312,-0.333792,0.530944,-2.19625,0.04375,-2.52,-7.176,-9.592,28.000002,inter_set_rest,3,3.0,23819.0,159058.0,249883.0,295423.0,271181.0
2026-04-08 21:38:24.961848,112496,1609503477092988,1077058944,0.597312,-0.333792,0.530944,-2.3275,-0.35,-1.98625,-7.176,-9.592,28.000002,inter_set_rest,3,3.0,23819.0,159058.0,249883.0,295423.0,271181.0
2026-04-08 21:38:24.965834,112497,1609503477102008,1077067636,0.638304,-0.308416,0.778848,-2.42375,-0.25375,-1.12,-7.104001,-9.128,27.584002,inter_set_rest,3,3.0,23819.0,159058.0,249883.0,295423.0,271181.0
2026-04-08 21:38:24.970853,112498,1609503477116504,1077082507,0.655872,-0.327936,0.739808,-2.05625,-0.14875,-1.14625,-7.088,-9.360001,27.464,inter_set_rest,3,3.0,23819.0,159058.0,249883.0,295423.0,271181.0
2026-04-08 21:38:24.999378,112499,1609503477125440,1077091211,0.655872,-0.327936,0.739808,-1.60125,-0.56,-1.155,-7.088,-9.360001,27.464,inter_set_rest,3,3.0,23819.0,159058.0,249883.0,295423.0,271181.0
2026-04-08 21:38:25.036590,112500,1609503477139908,1077106070,0.560224,-0.298656,0.657824,-0.42,-0.77,-1.2425,-6.888001,-9.288,26.2,inter_set_rest,3,3.0,23819.0,159058.0,249883.0,295423.0,271181.0
2026-04-08 21:38:25.040440,112501,1609503477148870,1077114783,0.560224,-0.298656,0.657824,-0.07875,-0.74375,-1.12875,-6.888001,-9.288,26.2,inter_set_rest,3,3.0,23819.0,159058.0,249883.0,295423.0,271181.0
2026-04-08 21:38:25.041686,112502,1609503477163354,1077129687,0.597312,-0.281088,0.749568,1.02375,-0.98,-1.61875,-6.896,-9.632001,27.376001,inter_set_rest,3,3.0,23819.0,159058.0,249883.0,295423.0,271181.0
2026-04-08 21:38:25.046167,112503,1609503477172287,1077138361,0.597312,-0.281088,0.749568,1.785,-1.04125,-1.645,-6.896,-9.632001,27.376001,inter_set_rest,3,3.0,23819.0,159058.0,249883.0,295423.0,271181.0
2026-04-08 21:38:25.049914,112504,1609503477181186,1077146998,0.571936,-0.288896,0.603168,3.115,-1.60125,-1.96,-6.936,-9.84,26.560001,inter_set_rest,3,3.0,23819.0,159058.0,249883.0,295423.0,271181.0
2026-04-08 21:38:25.085514,112516,1609503477195816,1077162250,0.632448,-0.316224,0.609024,3.2375,-1.8375,-1.645,-6.824,-9.528001,28.536001,inter_set_rest,3,3.0,23682.0,158682.0,249560.0,295227.0,271083.0
2026-04-08 21:38:25.089750,112517,1609503477204730,1077170951,0.632448,-0.316224,0.609024,2.6425,-1.435,-1.39125,-6.824,-9.528001,28.536001,inter_set_rest,3,3.0,23682.0,158682.0,249560.0,295227.0,271083.0
2026-04-08 21:38:25.091467,112518,1609503477219237,1077185831,0.54656,-0.281088,0.61488,2.38,-1.47,-1.44375,-7.048,-9.64,26.624,inter_set_rest,3,3.0,23682.0,158682.0,249560.0,295227.0,271083.0
2026-04-08 21:38:25.093079,112519,1609503477228252,1077194495,0.54656,-0.281088,0.61488,0.595,-1.79375,-1.75,-7.048,-9.64,26.624,inter_set_rest,3,3.0,23682.0,158682.0,249560.0,295227.0,271083.0
2026-04-08 21:38:25.097061,112520,1609503477242752,1077209432,0.599264,-0.329888,0.534848,-1.02375,-1.855,-2.0475,-7.104001,-9.632001,28.328001,inter_set_rest,3,3.0,23682.0,158682.0,249560.0,295227.0,271083.0
2026-04-08 21:38:25.125651,112521,1609503477251757,1077218153,0.599264,-0.329888,0.534848,-1.33,-2.3975,-2.135,-7.104001,-9.632001,28.328001,inter_set_rest,3,3.0,23682.0,158682.0,249560.0,295227.0,271083.0
2026-04-08 21:38:25.129222,112522,1609503477260680,1077226823,0.558272,-0.281088,0.638304,0.28,-2.0825,-2.73,-7.304,-9.328,27.152,inter_set_rest,3,3.0,23682.0,158682.0,249560.0,295227.0,271083.0
2026-04-08 21:38:25.133302,112523,1609503477275171,1077241703,0.558272,-0.296704,0.759328,2.4325,-1.89,-2.555,-7.304,-9.328,27.152,inter_set_rest,3,3.0,23682.0,158682.0,249560.0,295227.0,271083.0
2026-04-08 21:38:25.196323,112534,1609503477284095,1077250337,0.64416,-0.284992,0.759328,2.975,-1.365,-2.6775,-7.224001,-9.736,26.296001,inter_set_rest,3,3.0,23593.0,158470.0,249393.0,295125.0,271051.0
2026-04-08 21:38:25.197905,112535,1609503477298632,1077265251,0.55632,-0.269376,0.54656,2.975,-1.54875,-2.765,-7.664001,-9.76,27.480001,inter_set_rest,3,3.0,23593.0,158470.0,249393.0,295125.0,271051.0
2026-04-08 21:38:25.202229,112536,1609503477307619,1077273955,0.55632,-0.269376,0.54656,3.5,-0.9975,-2.79125,-7.664001,-9.76,27.480001,inter_set_rest,3,3.0,23593.0,158470.0,249393.0,295125.0,271051.0
2026-04-08 21:38:25.203926,112537,1609503477316530,1077282635,0.562176,-0.265472,0.609024,3.01875,-0.67375,-2.87,-7.32,-9.928,26.928001,inter_set_rest,3,3.0,23593.0,158470.0,249393.0,295125.0,271051.0
2026-04-08 21:38:25.205537,112538,1609503477331017,1077297546,0.562176,-0.265472,0.609024,0.7875,-0.30625,-3.605,-7.32,-9.928,26.928001,inter_set_rest,3,3.0,23593.0,158470.0,249393.0,295125.0,271051.0
2026-04-08 21:38:25.209736,112539,1609503477339968,1077306200,0.579744,-0.267424,0.704672,-1.23375,-0.49875,-3.31625,-6.960001,-9.736,26.680002,inter_set_rest,3,3.0,23593.0,158470.0,249393.0,295125.0,271051.0
2026-04-08 21:38:25.211312,112540,1609503477354457,1077321074,0.579744,-0.267424,0.704672,-2.625,0.0175,-2.58125,-6.960001,-9.736,26.680002,inter_set_rest,3,3.0,23593.0,158470.0,249393.0,295125.0,271051.0
2026-04-08 21:38:25.218379,112541,1609503477363443,1077329781,0.571936,-0.310368,0.509472,-3.71,0.6475,-1.68,-7.256001,-9.608001,27.480001,inter_set_rest,3,3.0,23593.0,158470.0,249393.0,295125.0,271051.0
2026-04-08 21:38:25.246969,112542,1609503477377911,1077344641,0.646112,-0.308416,0.755424,-5.6875,0.5075,-1.49625,-7.344,-9.896001,26.592001,inter_set_rest,3,3.0,23593.0,158470.0,249393.0,295125.0,271051.0
2026-04-08 21:38:25.280186,112553,1609503477386941,1077353377,0.646112,-0.308416,0.755424,-4.54125,0.4375,-1.67125,-7.344,-9.896001,26.592001,inter_set_rest,3,3.0,23475.0,158234.0,249221.0,295021.0,271025.0
2026-04-08 21:38:25.281722,112554,1609503477395959,1077362136,0.646112,-0.308416,0.609024,-3.05375,0.2975,-1.82875,-7.344,-9.896001,26.592001,inter_set_rest,3,3.0,23475.0,158234.0,249221.0,295021.0,271025.0
2026-04-08 21:38:25.286082,112555,1609503477410510,1077377043,0.628544,-0.32208,0.609024,-2.1875,0.11375,-1.6625,-7.04,-9.624001,25.976002,inter_set_rest,3,3.0,23475.0,158234.0,249221.0,295021.0,271025.0
2026-04-08 21:38:25.287729,112556,1609503477419423,1077385748,0.597312,-0.281088,0.69296,-0.88375,-0.3675,-1.82,-7.016,-9.672001,26.6,inter_set_rest,3,3.0,23475.0,158234.0,249221.0,295021.0,271025.0
2026-04-08 21:38:25.289996,112557,1609503477433924,1077400688,0.597312,-0.281088,0.69296,0.51625,-0.58625,-2.24875,-7.016,-9.672001,26.6,inter_set_rest,3,3.0,23475.0,158234.0,249221.0,295021.0,271025.0
2026-04-08 21:38:25.297115,112558,1609503477442954,1077409395,0.589504,-0.314272,0.505568,0.04375,0.00875,-2.7125,-7.520001,-9.240001,28.264002,inter_set_rest,3,3.0,23475.0,158234.0,249221.0,295021.0,271025.0
2026-04-08 21:38:25.325994,112559,1609503477457528,1077424275,0.552416,-0.281088,0.591456,-1.49625,-0.27125,-2.58125,-7.192,-9.632001,24.76,inter_set_rest,3,3.0,23475.0,158234.0,249221.0,295021.0,271025.0
2026-04-08 21:38:25.330310,112560,1609503477466435,1077432941,0.552416,-0.281088,0.591456,-3.00125,-0.21,-2.0825,-7.192,-9.632001,24.76,inter_set_rest,3,3.0,23475.0,158234.0,249221.0,295021.0,271025.0
2026-04-08 21:38:25.331644,112561,1609503477475342,1077441567,0.552416,-0.281088,0.591456,-4.2525,0.175,-1.9425,-7.192,-9.632001,24.76,inter_set_rest,3,3.0,23475.0,158234.0,249221.0,295021.0,271025.0
2026-04-08 21:38:25.363487,112572,1609503477490094,1077456624,0.640256,-0.306464,0.737856,-4.62875,0.39375,-1.89875,-6.968,-9.696,28.752,inter_set_rest,3,3.0,23406.0,158094.0,249153.0,295018.0,270999.0
2026-04-08 21:38:25.365147,112573,1609503477499038,1077465355,0.599264,-0.288896,0.755424,-4.0425,0.175,-1.6275,-7.128,-9.624001,27.28,inter_set_rest,3,3.0,23406.0,158094.0,249153.0,295018.0,270999.0
2026-04-08 21:38:25.367004,112574,1609503477513603,1077480292,0.599264,-0.288896,0.755424,-2.52,0.27125,-1.5225,-7.128,-9.624001,27.28,inter_set_rest,3,3.0,23406.0,158094.0,249153.0,295018.0,270999.0
2026-04-08 21:38:25.397790,112575,1609503477522555,1077488985,0.591456,-0.281088,0.743712,-0.84,0.315,-1.3475,-7.128,-9.688001,27.464,inter_set_rest,3,3.0,23406.0,158094.0,249153.0,295018.0,270999.0
2026-04-08 21:38:25.400093,112576,1609503477537054,1077503832,0.591456,-0.314272,0.677344,-0.7525,0.49875,-1.54875,-7.128,-9.688001,27.464,inter_set_rest,3,3.0,23406.0,158094.0,249153.0,295018.0,270999.0
2026-04-08 21:38:25.404615,112577,1609503477545966,1077512492,0.651968,-0.314272,0.677344,-0.02625,0.39375,-2.14375,-7.216001,-9.664001,27.112001,inter_set_rest,3,3.0,23406.0,158094.0,249153.0,295018.0,270999.0
2026-04-08 21:38:25.408263,112578,1609503477554894,1077521188,0.651968,-0.314272,0.677344,1.5575,-0.0525,-2.59875,-7.216001,-9.664001,27.112001,inter_set_rest,3,3.0,23406.0,158094.0,249153.0,295018.0,270999.0
2026-04-08 21:38:25.437016,112579,1609503477569431,1077536067,0.540704,-0.275232,0.610976,2.765,0.30625,-3.1325,-7.016,-9.744,26.768002,inter_set_rest,3,3.0,23406.0,158094.0,249153.0,295018.0,270999.0
2026-04-08 21:38:25.441509,112580,1609503477578354,1077544726,0.64416,-0.308416,0.6832,1.645,0.5775,-2.87,-6.992,-9.864,27.672,inter_set_rest,3,3.0,23406.0,158094.0,249153.0,295018.0,270999.0
2026-04-08 21:38:25.504149,112591,1609503477592904,1077559668,0.64416,-0.308416,0.6832,-0.48125,0.32375,-1.91625,-6.992,-9.864,27.672,inter_set_rest,3,3.0,23295.0,157893.0,249033.0,294984.0,271028.0
2026-04-08 21:38:25.506632,112592,1609503477601856,1077568398,0.554368,-0.2928,0.515328,-1.95125,0.2275,-1.04125,-7.008,-9.832001,27.52,inter_set_rest,3,3.0,23295.0,157893.0,249033.0,294984.0,271028.0
2026-04-08 21:38:25.509157,112593,1609503477616335,1077583284,0.554368,-0.2928,0.515328,-3.22,0.32375,-2.26625,-7.008,-9.832001,27.52,inter_set_rest,3,3.0,23295.0,157893.0,249033.0,294984.0,271028.0
2026-04-08 21:38:25.511633,112594,1609503477625257,1077591953,0.564128,-0.308416,0.519232,-5.4075,0.20125,-2.93125,-6.976,-9.664001,26.272001,inter_set_rest,3,3.0,23295.0,157893.0,249033.0,294984.0,271028.0
2026-04-08 21:38:25.514160,112595,1609503477634201,1077600616,0.564128,-0.308416,0.519232,-5.34625,0.32375,-2.75625,-6.976,-9.664001,26.272001,inter_set_rest,3,3.0,23295.0,157893.0,249033.0,294984.0,271028.0
2026-04-08 21:38:25.516653,112596,1609503477648736,1077615505,0.636352,-0.32208,0.64416,-4.89125,0.2625,-1.6975,-7.344,-9.448001,28.336,inter_set_rest,3,3.0,23295.0,157893.0,249033.0,294984.0,271028.0
2026-04-08 21:38:25.519123,112597,1609503477657704,1077624182,0.636352,-0.275232,0.74176,-3.4825,0.5075,-1.89,-7.344,-9.448001,28.336,inter_set_rest,3,3.0,23295.0,157893.0,249033.0,294984.0,271028.0
2026-04-08 21:38:25.524126,112598,1609503477672181,1077639072,0.59536,-0.279136,0.74176,-1.95125,0.41125,-2.19625,-6.976,-9.576,26.296001,inter_set_rest,3,3.0,23295.0,157893.0,249033.0,294984.0,271028.0
2026-04-08 21:38:25.554319,112599,1609503477681086,1077647756,0.622688,-0.294752,0.753472,-0.79625,0.245,-2.14375,-6.952,-9.52,26.312002,inter_set_rest,3,3.0,23295.0,157893.0,249033.0,294984.0,271028.0
2026-04-08 21:38:25.582845,112610,1609503477690588,1077656609,0.622688,-0.294752,0.753472,-0.70875,0.5075,-1.86375,-6.952,-9.52,26.312002,inter_set_rest,3,3.0,23249.0,157755.0,248939.0,294921.0,270981.0
2026-04-08 21:38:25.585605,112611,1609503477705112,1077671530,0.56608,-0.275232,0.71248,-1.3475,0.41125,-2.14375,-6.992,-9.432,27.416,inter_set_rest,3,3.0,23249.0,157755.0,248939.0,294921.0,270981.0
2026-04-08 21:38:25.589607,112612,1609503477714065,1077680284,0.56608,-0.275232,0.71248,-1.645,0.20125,-2.58125,-6.992,-9.432,27.416,inter_set_rest,3,3.0,23249.0,157755.0,248939.0,294921.0,270981.0
2026-04-08 21:38:25.592617,112613,1609503477728597,1077695233,0.603168,-0.327936,0.55632,-2.21375,-0.2975,-2.415,-6.76,-9.8,27.544,inter_set_rest,3,3.0,23249.0,157755.0,248939.0,294921.0,270981.0
2026-04-08 21:38:25.593576,112614,1609503477737517,1077703934,0.603168,-0.327936,0.55632,-2.625,-0.30625,-1.96875,-6.76,-9.8,27.544,inter_set_rest,3,3.0,23249.0,157755.0,248939.0,294921.0,270981.0
2026-04-08 21:38:25.623132,112615,1609503477751980,1077718809,0.56608,-0.304512,0.564128,-2.38875,-0.49,-2.10875,-7.192,-10.056001,28.488,inter_set_rest,3,3.0,23249.0,157755.0,248939.0,294921.0,270981.0
2026-04-08 21:38:25.626740,112616,1609503477760900,1077727493,0.57584,-0.269376,0.716384,-1.5225,-0.5425,-1.88125,-6.896,-9.744,26.496002,inter_set_rest,3,3.0,23249.0,157755.0,248939.0,294921.0,270981.0
2026-04-08 21:38:25.629148,112617,1609503477769794,1077736152,0.57584,-0.269376,0.716384,-1.12875,-0.48125,-1.5225,-6.896,-9.744,26.496002,inter_set_rest,3,3.0,23249.0,157755.0,248939.0,294921.0,270981.0
2026-04-08 21:38:25.659238,112618,1609503477784340,1077751004,0.616832,-0.284992,0.733952,-0.525,-0.30625,-1.33,-7.136,-9.832001,27.472002,inter_set_rest,3,3.0,23249.0,157755.0,248939.0,294921.0,270981.0
2026-04-08 21:38:25.691644,112629,1609503477793436,1077759684,0.616832,-0.284992,0.733952,-0.35,-0.13125,-1.855,-7.136,-9.832001,27.472002,inter_set_rest,3,3.0,23187.0,157521.0,248643.0,294735.0,270887.0
2026-04-08 21:38:25.694122,112630,1609503477807949,1077774600,0.650016,-0.318176,0.675392,-0.49,-0.07,-2.24875,-7.000001,-9.928,26.416,inter_set_rest,3,3.0,23187.0,157521.0,248643.0,294735.0,270887.0
2026-04-08 21:38:25.696643,112631,1609503477816941,1077783241,0.650016,-0.318176,0.675392,-1.9775,-0.2975,-2.23125,-7.000001,-9.928,26.416,inter_set_rest,3,3.0,23187.0,157521.0,248643.0,294735.0,270887.0
2026-04-08 21:38:25.699196,112632,1609503477826006,1077791916,0.59536,-0.277184,0.75152,-3.47375,0.00875,-1.9075,-6.64,-9.352,26.312002,inter_set_rest,3,3.0,23187.0,157521.0,248643.0,294735.0,270887.0
2026-04-08 21:38:25.701751,112633,1609503477840519,1077806828,0.612928,-0.33184,0.54656,-3.9025,-0.14875,-1.72375,-7.008,-9.896001,27.184002,inter_set_rest,3,3.0,23187.0,157521.0,248643.0,294735.0,270887.0
2026-04-08 21:38:25.704196,112634,1609503477849451,1077815498,0.612928,-0.33184,0.54656,-3.5875,-0.28875,-1.61875,-7.008,-9.896001,27.184002,inter_set_rest,3,3.0,23187.0,157521.0,248643.0,294735.0,270887.0
2026-04-08 21:38:25.736936,112635,1609503477863945,1077830375,0.610976,-0.294752,0.75152,-2.17875,-0.455,-1.575,-7.272,-9.64,27.400002,inter_set_rest,3,3.0,23187.0,157521.0,248643.0,294735.0,270887.0
2026-04-08 21:38:25.740389,112636,1609503477872858,1077839094,0.610976,-0.294752,0.75152,-1.60125,0.14,-1.715,-7.272,-9.64,27.400002,inter_set_rest,3,3.0,23187.0,157521.0,248643.0,294735.0,270887.0
2026-04-08 21:38:25.801459,112647,1609503477887358,1077853915,0.560224,-0.31232,0.511424,-1.23375,0.1225,-2.03,-6.992,-9.632001,26.576002,inter_set_rest,3,3.0,23121.0,157346.0,248492.0,294660.0,270845.0
2026-04-08 21:38:25.802968,112648,1609503477896473,1077862621,0.560224,-0.31232,0.511424,-0.20125,-0.56875,-2.3625,-6.992,-9.632001,26.576002,inter_set_rest,3,3.0,23121.0,157346.0,248492.0,294660.0,270845.0
2026-04-08 21:38:25.809708,112649,1609503477905531,1077871363,0.571936,-0.298656,0.534848,0.49875,-0.44625,-2.8175,-6.576,-9.568001,27.28,inter_set_rest,3,3.0,23121.0,157346.0,248492.0,294660.0,270845.0
2026-04-08 21:38:25.811414,112650,1609503477920038,1077886217,0.66368,-0.314272,0.743712,-0.385,-0.7,-3.3075,-7.12,-9.664001,25.792002,inter_set_rest,3,3.0,23121.0,157346.0,248492.0,294660.0,270845.0
2026-04-08 21:38:25.812964,112651,1609503477928976,1077894885,0.66368,-0.314272,0.743712,-1.19875,-0.72625,-3.5875,-7.12,-9.664001,25.792002,inter_set_rest,3,3.0,23121.0,157346.0,248492.0,294660.0,270845.0
2026-04-08 21:38:25.817418,112652,1609503477943530,1077909764,0.568032,-0.324032,0.515328,-0.91875,-0.63875,-4.08625,-7.28,-9.728001,27.528002,inter_set_rest,3,3.0,23121.0,157346.0,248492.0,294660.0,270845.0
2026-04-08 21:38:25.819394,112653,1609503477952464,1077918450,0.568032,-0.324032,0.515328,-1.88125,-0.79625,-4.34875,-7.28,-9.728001,27.528002,inter_set_rest,3,3.0,23121.0,157346.0,248492.0,294660.0,270845.0
2026-04-08 21:38:25.820927,112654,1609503477966977,1077933350,0.569984,-0.28304,0.691008,-1.67125,-1.225,-4.55875,-7.056,-9.736,29.376001,inter_set_rest,3,3.0,23121.0,157346.0,248492.0,294660.0,270845.0
2026-04-08 21:38:25.829554,112655,1609503477975942,1077942017,0.569984,-0.28304,0.691008,0.53375,-1.40875,-5.41625,-7.056,-9.736,29.376001,inter_set_rest,3,3.0,23121.0,157346.0,248492.0,294660.0,270845.0
2026-04-08 21:38:25.858100,112656,1609503477984876,1077950712,0.569984,-0.275232,0.66368,1.96,-1.4875,-6.37,-6.912,-10.208,26.504002,inter_set_rest,3,3.0,23121.0,157346.0,248492.0,294660.0,270845.0
2026-04-08 21:38:25.886834,112667,1609503477999503,1077965657,0.569984,-0.275232,0.66368,3.99,-1.47,-7.175,-6.912,-10.208,26.504002,inter_set_rest,3,3.0,23073.0,157251.0,248473.0,294629.0,270839.0
2026-04-08 21:38:25.890953,112668,1609503478008416,1077974328,0.558272,-0.286944,0.579744,5.03125,-1.435,-7.665,-6.808,-9.944,28.024002,inter_set_rest,3,3.0,23073.0,157251.0,248473.0,294629.0,270839.0
2026-04-08 21:38:25.892716,112669,1609503478022915,1077989241,0.618784,-0.267424,0.77104,5.55625,-0.8575,-7.56,-6.712,-9.944,26.536001,inter_set_rest,3,3.0,23073.0,157251.0,248473.0,294629.0,270839.0
2026-04-08 21:38:25.894547,112670,1609503478031853,1077997978,0.618784,-0.267424,0.77104,5.495,-0.56,-7.51625,-6.712,-9.944,26.536001,inter_set_rest,3,3.0,23073.0,157251.0,248473.0,294629.0,270839.0
2026-04-08 21:38:25.902135,112671,1609503478046339,1078012865,0.597312,-0.265472,0.638304,5.005,-0.2975,-7.13125,-6.68,-10.208,26.552002,inter_set_rest,3,3.0,23073.0,157251.0,248473.0,294629.0,270839.0
2026-04-08 21:38:25.908287,112672,1609503478055312,1078021568,0.597312,-0.265472,0.638304,4.34,0.06125,-6.97375,-6.68,-10.208,26.552002,inter_set_rest,3,3.0,23073.0,157251.0,248473.0,294629.0,270839.0
2026-04-08 21:38:25.936900,112673,1609503478064301,1078030278,0.60512,-0.255712,0.737856,2.84375,0.7175,-7.07,-6.544,-10.408001,26.672,inter_set_rest,3,3.0,23073.0,157251.0,248473.0,294629.0,270839.0
2026-04-08 21:38:25.941389,112674,1609503478078775,1078045127,0.60512,-0.255712,0.737856,1.4875,1.23375,-6.29125,-6.544,-10.408001,26.672,inter_set_rest,3,3.0,23073.0,157251.0,248473.0,294629.0,270839.0
2026-04-08 21:38:25.943033,112675,1609503478087704,1078053781,0.655872,-0.304512,0.685152,0.00875,1.68875,-5.8275,-6.648,-10.136001,26.664001,inter_set_rest,3,3.0,23073.0,157251.0,248473.0,294629.0,270839.0
2026-04-08 21:38:25.970621,112686,1609503478102304,1078068826,0.630496,-0.265472,0.743712,-1.75,1.925,-4.9175,-6.928001,-10.184,27.832,inter_set_rest,3,3.0,23002.0,157075.0,248297.0,294558.0,270811.0
2026-04-08 21:38:25.974556,112687,1609503478111234,1078077530,0.630496,-0.265472,0.743712,-1.995,3.00125,-3.63125,-6.928001,-10.184,27.832,inter_set_rest,3,3.0,23002.0,157075.0,248297.0,294558.0,270811.0
2026-04-08 21:38:25.984603,112688,1609503478125737,1078092444,0.5368,-0.23424,0.599264,-2.33625,4.3925,-1.98625,-6.776001,-9.816001,26.792002,inter_set_rest,3,3.0,23002.0,157075.0,248297.0,294558.0,270811.0
2026-04-08 21:38:25.988307,112689,1609503478134676,1078101130,0.5368,-0.23424,0.599264,-2.49375,5.2325,-0.7175,-6.776001,-9.816001,26.792002,inter_set_rest,3,3.0,23002.0,157075.0,248297.0,294558.0,270811.0
2026-04-08 21:38:26.017016,112690,1609503478143624,1078109816,0.612928,-0.28304,0.530944,-3.82375,5.88,0.93625,-6.72,-10.728001,27.584002,inter_set_rest,3,3.0,23002.0,157075.0,248297.0,294558.0,270811.0
2026-04-08 21:38:26.022312,112691,1609503478158122,1078124679,0.612928,-0.28304,0.530944,-5.5125,6.79,2.31,-6.72,-10.728001,27.584002,inter_set_rest,3,3.0,23002.0,157075.0,248297.0,294558.0,270811.0
2026-04-08 21:38:26.023779,112692,1609503478167063,1078133358,0.636352,-0.275232,0.763232,-7.805,7.4375,3.77125,-6.328,-10.144,26.680002,inter_set_rest,3,3.0,23002.0,157075.0,248297.0,294558.0,270811.0
2026-04-08 21:38:26.080469,112693,1609503478181555,1078148235,0.62464,-0.284992,0.757376,-8.2775,7.6125,5.45125,-6.328,-9.872001,26.984001,inter_set_rest,3,3.0,23002.0,157075.0,248297.0,294558.0,270811.0
2026-04-08 21:38:26.111966,112704,1609503478190770,1078157228,0.62464,-0.284992,0.757376,-10.01875,7.77875,7.2975,-6.264,-9.872001,26.984001,inter_set_rest,3,3.0,22889.0,156802.0,248112.0,294455.0,270759.0
2026-04-08 21:38:26.116013,112705,1609503478199808,1078165957,0.62464,-0.284992,0.757376,-10.91125,7.30625,10.66625,-6.264,-9.872001,26.984001,inter_set_rest,3,3.0,22889.0,156802.0,248112.0,294455.0,270759.0
2026-04-08 21:38:26.118512,112706,1609503478214309,1078180889,0.571936,-0.306464,0.525088,-9.02125,6.23875,13.60625,-6.624001,-9.736,26.344002,inter_set_rest,3,3.0,22889.0,156802.0,248112.0,294455.0,270759.0
2026-04-08 21:38:26.120235,112707,1609503478223209,1078189562,0.603168,-0.306464,0.784704,-6.4925,4.7075,14.27125,-6.304,-9.728001,27.04,inter_set_rest,3,3.0,22889.0,156802.0,248112.0,294455.0,270759.0
2026-04-08 21:38:26.122644,112708,1609503478237689,1078204478,0.603168,-0.306464,0.784704,-3.07125,3.42125,12.36375,-6.304,-9.728001,27.04,inter_set_rest,3,3.0,22889.0,156802.0,248112.0,294455.0,270759.0
2026-04-08 21:38:26.125154,112709,1609503478246692,1078213194,0.636352,-0.357216,0.812032,-0.84,1.61,10.45625,-6.408001,-9.656,26.824001,inter_set_rest,3,3.0,22889.0,156802.0,248112.0,294455.0,270759.0
2026-04-08 21:38:26.126754,112710,1609503478261293,1078228143,0.636352,-0.357216,0.812032,1.715,-0.4025,9.16125,-6.408001,-9.656,26.824001,inter_set_rest,3,3.0,22889.0,156802.0,248112.0,294455.0,270759.0
2026-04-08 21:38:26.130981,112711,1609503478270235,1078236917,0.577792,-0.324032,0.798368,3.885,-2.63375,8.3475,-6.8,-9.96,30.088001,inter_set_rest,3,3.0,22889.0,156802.0,248112.0,294455.0,270759.0
2026-04-08 21:38:26.133458,112712,1609503478279209,1078245610,0.577792,-0.324032,0.798368,4.83,-4.3925,6.6675,-6.8,-9.96,30.088001,inter_set_rest,3,3.0,22889.0,156802.0,248112.0,294455.0,270759.0
2026-04-08 21:38:26.191488,112723,1609503478294102,1078260557,0.610976,-0.324032,0.804224,6.265,-6.0725,3.8675,-6.592001,-10.048,27.408,inter_set_rest,3,3.0,22710.0,156209.0,247530.0,294120.0,270610.0
2026-04-08 21:38:26.192970,112724,1609503478303069,1078269287,0.505568,-0.286944,0.700768,7.67375,-7.30625,0.6125,-6.744,-9.912001,27.536001,inter_set_rest,3,3.0,22710.0,156209.0,247530.0,294120.0,270610.0
2026-04-08 21:38:26.197240,112725,1609503478317535,1078284136,0.505568,-0.286944,0.700768,7.76125,-8.295,-2.38875,-6.744,-9.912001,27.536001,inter_set_rest,3,3.0,22710.0,156209.0,247530.0,294120.0,270610.0
2026-04-08 21:38:26.198907,112726,1609503478326558,1078292851,0.523136,-0.281088,0.69296,6.9475,-8.5925,-4.8125,-7.056,-10.272,27.112001,inter_set_rest,3,3.0,22710.0,156209.0,247530.0,294120.0,270610.0
2026-04-08 21:38:26.200507,112727,1609503478335499,1078301529,0.523136,-0.281088,0.69296,7.23625,-8.3475,-6.71125,-7.056,-10.272,27.112001,inter_set_rest,3,3.0,22710.0,156209.0,247530.0,294120.0,270610.0
2026-04-08 21:38:26.204632,112728,1609503478349985,1078316453,0.587552,-0.279136,0.778848,7.8575,-8.8725,-8.4,-7.24,-9.776,25.336,inter_set_rest,3,3.0,22710.0,156209.0,247530.0,294120.0,270610.0
2026-04-08 21:38:26.233230,112729,1609503478358948,1078325135,0.587552,-0.279136,0.778848,7.56,-8.35625,-10.0625,-7.24,-9.776,25.336,inter_set_rest,3,3.0,22710.0,156209.0,247530.0,294120.0,270610.0
2026-04-08 21:38:26.236728,112730,1609503478373393,1078340061,0.525088,-0.271328,0.59536,7.6125,-7.86625,-10.115,-7.184001,-10.544001,27.000002,inter_set_rest,3,3.0,22710.0,156209.0,247530.0,294120.0,270610.0
2026-04-08 21:38:26.239216,112731,1609503478382281,1078348742,0.525088,-0.271328,0.776896,6.74625,-6.95625,-10.68375,-7.184001,-10.544001,27.000002,inter_set_rest,3,3.0,22710.0,156209.0,247530.0,294120.0,270610.0
2026-04-08 21:38:26.270455,112742,1609503478397003,1078363684,0.616832,-0.267424,0.776896,5.45125,-6.32625,-10.59625,-7.104001,-10.744,27.992,inter_set_rest,3,3.0,22733.0,156316.0,247590.0,294141.0,270592.0
2026-04-08 21:38:26.272990,112743,1609503478406030,1078372429,0.616832,-0.25376,0.75152,3.5175,-5.74,-10.12375,-7.064,-10.76,26.392002,inter_set_rest,3,3.0,22733.0,156316.0,247590.0,294141.0,270592.0
2026-04-08 21:38:26.275439,112744,1609503478415028,1078381129,0.616832,-0.25376,0.75152,1.70625,-4.96125,-9.073751,-7.064,-10.76,26.392002,inter_set_rest,3,3.0,22733.0,156316.0,247590.0,294141.0,270592.0
2026-04-08 21:38:26.303938,112745,1609503478429506,1078396084,0.622688,-0.2928,0.51728,-0.42,-4.10375,-8.25125,-7.216001,-10.072001,27.512001,inter_set_rest,3,3.0,22733.0,156316.0,247590.0,294141.0,270592.0
2026-04-08 21:38:26.305472,112746,1609503478438418,1078404751,0.622688,-0.2928,0.51728,-0.8225,-3.31625,-7.35,-7.216001,-10.072001,27.512001,inter_set_rest,3,3.0,22733.0,156316.0,247590.0,294141.0,270592.0
2026-04-08 21:38:26.307914,112747,1609503478452942,1078419614,0.632448,-0.261568,0.737856,-2.14375,-3.2725,-6.4225,-6.912,-10.6,26.296001,inter_set_rest,3,3.0,22733.0,156316.0,247590.0,294141.0,270592.0
2026-04-08 21:38:26.321789,112748,1609503478461859,1078428294,0.632448,-0.261568,0.737856,-3.3425,-2.68625,-5.53,-6.912,-10.6,26.296001,inter_set_rest,3,3.0,22733.0,156316.0,247590.0,294141.0,270592.0
2026-04-08 21:38:26.382079,112749,1609503478476357,1078443218,0.591456,-0.275232,0.638304,-3.21125,-2.44125,-4.48875,-7.232,-10.320001,29.28,inter_set_rest,3,3.0,22733.0,156316.0,247590.0,294141.0,270592.0
2026-04-08 21:38:26.385516,112750,1609503478485385,1078451906,0.560224,-0.286944,0.562176,-2.6075,-2.00375,-3.5875,-7.048,-10.576,26.512001,inter_set_rest,3,3.0,22733.0,156316.0,247590.0,294141.0,270592.0
2026-04-08 21:38:26.412953,112761,1609503478494881,1078460903,0.560224,-0.286944,0.562176,-2.17875,-1.3475,-3.115,-7.048,-10.576,26.512001,inter_set_rest,3,3.0,22709.0,156190.0,247489.0,294046.0,270565.0
2026-04-08 21:38:26.415496,112762,1609503478509461,1078475815,0.665632,-0.296704,0.733952,-1.82875,-0.9275,-2.30125,-7.184001,-10.976001,26.216002,inter_set_rest,3,3.0,22709.0,156190.0,247489.0,294046.0,270565.0
2026-04-08 21:38:26.417982,112763,1609503478518378,1078484499,0.665632,-0.296704,0.733952,-2.17875,-0.84875,-1.63625,-7.184001,-10.976001,26.216002,inter_set_rest,3,3.0,22709.0,156190.0,247489.0,294046.0,270565.0
2026-04-08 21:38:26.420472,112764,1609503478532838,1078499413,0.659776,-0.2928,0.733952,-3.12375,-0.8925,-1.30375,-7.168,-10.6,26.432001,inter_set_rest,3,3.0,22709.0,156190.0,247489.0,294046.0,270565.0
2026-04-08 21:38:26.423002,112765,1609503478541765,1078508119,0.659776,-0.2928,0.733952,-3.84125,-0.7525,-1.47875,-7.168,-10.6,26.432001,inter_set_rest,3,3.0,22709.0,156190.0,247489.0,294046.0,270565.0
2026-04-08 21:38:26.425691,112766,1609503478550725,1078516773,0.648064,-0.306464,0.650016,-4.69,-0.25375,-2.0125,-7.224001,-10.528001,27.880001,inter_set_rest,3,3.0,22709.0,156190.0,247489.0,294046.0,270565.0
2026-04-08 21:38:26.427976,112767,1609503478565220,1078531696,0.620736,-0.28304,0.735904,-5.32,0.0875,-2.5725,-6.848001,-10.416,26.920002,inter_set_rest,3,3.0,22709.0,156190.0,247489.0,294046.0,270565.0
2026-04-08 21:38:26.430552,112768,1609503478574168,1078540367,0.620736,-0.28304,0.735904,-5.24125,-0.02625,-2.065,-6.848001,-10.416,26.920002,inter_set_rest,3,3.0,22709.0,156190.0,247489.0,294046.0,270565.0
2026-04-08 21:38:26.463834,112769,1609503478588699,1078555262,0.61488,-0.286944,0.739808,-5.3725,-0.0525,-1.6625,-7.12,-10.264001,26.400002,inter_set_rest,3,3.0,22709.0,156190.0,247489.0,294046.0,270565.0
2026-04-08 21:38:26.490973,112780,1609503478597702,1078564018,0.61488,-0.286944,0.739808,-5.46,0.35,-1.42625,-7.12,-10.264001,26.400002,inter_set_rest,3,3.0,22572.0,155825.0,247112.0,293834.0,270445.0
2026-04-08 21:38:26.492664,112781,1609503478612181,1078578950,0.622688,-0.286944,0.778848,-4.4975,0.62125,-1.39125,-7.312,-10.488001,26.616001,inter_set_rest,3,3.0,22572.0,155825.0,247112.0,293834.0,270445.0
2026-04-08 21:38:26.494388,112782,1609503478621152,1078587617,0.622688,-0.286944,0.778848,-2.98375,0.49875,-1.6975,-7.312,-10.488001,26.616001,inter_set_rest,3,3.0,22572.0,155825.0,247112.0,293834.0,270445.0
2026-04-08 21:38:26.498515,112783,1609503478630169,1078596276,0.640256,-0.310368,0.667584,-2.73875,0.79625,-1.37375,-7.384,-10.328,27.344002,inter_set_rest,3,3.0,22572.0,155825.0,247112.0,293834.0,270445.0
2026-04-08 21:38:26.500917,112784,1609503478644638,1078611230,0.577792,-0.255712,0.737856,-2.31,0.56875,-1.155,-7.384,-10.272,26.928001,inter_set_rest,3,3.0,22572.0,155825.0,247112.0,293834.0,270445.0
2026-04-08 21:38:26.507135,112785,1609503478653571,1078619919,0.577792,-0.255712,0.737856,-2.2225,0.1575,-0.805,-7.400001,-10.272,26.928001,inter_set_rest,3,3.0,22572.0,155825.0,247112.0,293834.0,270445.0
2026-04-08 21:38:26.535645,112786,1609503478668038,1078634838,0.630496,-0.286944,0.730048,-2.21375,0.30625,-1.42625,-7.36,-10.240001,27.104002,inter_set_rest,3,3.0,22572.0,155825.0,247112.0,293834.0,270445.0
2026-04-08 21:38:26.541009,112787,1609503478676974,1078643499,0.630496,-0.286944,0.730048,-2.58125,0.1225,-1.1725,-7.36,-10.240001,27.104002,inter_set_rest,3,3.0,22572.0,155825.0,247112.0,293834.0,270445.0
2026-04-08 21:38:26.573494,112798,1609503478691449,1078658407,0.560224,-0.257664,0.71248,-1.9075,0.14875,-0.8925,-7.08,-10.296001,25.928001,inter_set_rest,3,3.0,22509.0,155555.0,246853.0,293676.0,270370.0
2026-04-08 21:38:26.575245,112799,1609503478700372,1078667237,0.560224,-0.257664,0.71248,-1.49625,-0.4725,-0.93625,-7.08,-10.296001,25.928001,inter_set_rest,3,3.0,22509.0,155555.0,246853.0,293676.0,270370.0
2026-04-08 21:38:26.576828,112800,1609503478709478,1078675912,0.548512,-0.288896,0.534848,-2.07375,-0.53375,-1.435,-7.16,-10.344001,26.176,inter_set_rest,3,3.0,22509.0,155555.0,246853.0,293676.0,270370.0
2026-04-08 21:38:26.580007,112801,1609503478724050,1078690803,0.548512,-0.288896,0.534848,-2.31,-0.53375,-1.925,-7.16,-10.344001,26.176,inter_set_rest,3,3.0,22509.0,155555.0,246853.0,293676.0,270370.0
2026-04-08 21:38:26.587111,112802,1609503478732977,1078699487,0.532896,-0.27328,0.577792,-1.88125,-0.77875,-2.0475,-7.088,-10.096001,26.392002,inter_set_rest,3,3.0,22509.0,155555.0,246853.0,293676.0,270370.0
2026-04-08 21:38:26.615725,112803,1609503478747458,1078714359,0.6344,-0.310368,0.642208,-1.35625,-0.76125,-1.995,-6.72,-10.504001,26.912,inter_set_rest,3,3.0,22509.0,155555.0,246853.0,293676.0,270370.0
2026-04-08 21:38:26.620782,112804,1609503478756386,1078723041,0.6344,-0.310368,0.642208,-1.1025,-0.7525,-1.8025,-6.72,-10.504001,26.912,inter_set_rest,3,3.0,22509.0,155555.0,246853.0,293676.0,270370.0
2026-04-08 21:38:26.627095,112805,1609503478770888,1078737906,0.640256,-0.275232,0.77104,-1.65375,-1.155,-1.47875,-7.016,-10.208,26.384,inter_set_rest,3,3.0,22509.0,155555.0,246853.0,293676.0,270370.0
2026-04-08 21:38:26.633408,112806,1609503478779814,1078746630,0.640256,-0.275232,0.77104,-1.02375,-1.84625,-1.89875,-7.016,-10.208,26.384,inter_set_rest,3,3.0,22509.0,155555.0,246853.0,293676.0,270370.0
2026-04-08 21:38:26.680788,112807,1609503478788740,1078755303,0.65392,-0.32208,0.65392,-0.65625,-2.02125,-2.7125,-7.6,-10.128,26.328001,inter_set_rest,3,3.0,22509.0,155555.0,246853.0,293676.0,270370.0
2026-04-08 21:38:26.709387,112818,1609503478803286,1078770252,0.65392,-0.32208,0.65392,-0.97125,-1.7675,-3.52625,-7.6,-10.128,26.328001,inter_set_rest,3,3.0,22454.0,155413.0,246710.0,293597.0,270353.0
2026-04-08 21:38:26.713485,112819,1609503478812199,1078778902,0.581696,-0.314272,0.521184,-0.9275,-2.2925,-3.57875,-7.04,-10.704,26.056002,inter_set_rest,3,3.0,22454.0,155413.0,246710.0,293597.0,270353.0
2026-04-08 21:38:26.715212,112820,1609503478826680,1078793793,0.636352,-0.286944,0.706624,-0.56875,-3.01875,-2.73,-7.232,-10.280001,26.392002,inter_set_rest,3,3.0,22454.0,155413.0,246710.0,293597.0,270353.0
2026-04-08 21:38:26.716904,112821,1609503478835603,1078802458,0.636352,-0.286944,0.706624,0.2975,-3.35125,-2.73875,-7.232,-10.280001,26.392002,inter_set_rest,3,3.0,22454.0,155413.0,246710.0,293597.0,270353.0
2026-04-08 21:38:26.721039,112822,1609503478850156,1078815319,0.550464,-0.277184,0.59536,1.4525,-3.57875,-3.9025,-7.24,-10.552,26.064001,inter_set_rest,3,3.0,22454.0,155413.0,246710.0,293597.0,270353.0
2026-04-08 21:38:26.722728,112823,1609503478859332,1078826055,0.550464,-0.277184,0.59536,2.1525,-3.91125,-4.935,-7.24,-10.552,26.064001,inter_set_rest,3,3.0,22454.0,155413.0,246710.0,293597.0,270353.0
2026-04-08 21:38:26.724293,112824,1609503478868321,1078834821,0.560224,-0.267424,0.646112,2.38,-4.33125,-5.67,-7.128,-10.160001,26.992,inter_set_rest,3,3.0,22454.0,155413.0,246710.0,293597.0,270353.0
2026-04-08 21:38:26.755398,112825,1609503478882820,1078849707,0.560224,-0.267424,0.646112,2.14375,-4.445,-4.9175,-7.128,-10.160001,26.992,inter_set_rest,3,3.0,22454.0,155413.0,246710.0,293597.0,270353.0
2026-04-08 21:38:26.783351,112836,1609503478891757,1078858717,0.65392,-0.269376,0.743712,2.98375,-4.33125,-4.0425,-7.032001,-10.544001,26.080002,inter_set_rest,3,3.0,22382.0,155123.0,246405.0,293399.0,270221.0
2026-04-08 21:38:26.786459,112837,1609503478906354,1078871563,0.57584,-0.249856,0.669536,4.41,-4.12125,-4.27875,-7.032001,-10.672001,27.696001,inter_set_rest,3,3.0,22382.0,155123.0,246405.0,293399.0,270221.0
2026-04-08 21:38:26.788700,112838,1609503478915571,1078882323,0.57584,-0.249856,0.669536,5.38125,-4.47125,-5.55625,-7.176,-10.672001,27.696001,inter_set_rest,3,3.0,22382.0,155123.0,246405.0,293399.0,270221.0
2026-04-08 21:38:26.790813,112839,1609503478924539,1078891053,0.57584,-0.249856,0.669536,5.71375,-4.655,-5.85375,-7.176,-10.672001,27.696001,inter_set_rest,3,3.0,22382.0,155123.0,246405.0,293399.0,270221.0
2026-04-08 21:38:26.794581,112840,1609503478939118,1078905987,0.560224,-0.265472,0.591456,4.97875,-4.445,-6.475,-7.456,-10.592001,24.608002,inter_set_rest,3,3.0,22382.0,155123.0,246405.0,293399.0,270221.0
2026-04-08 21:38:26.823154,112841,1609503478948071,1078914670,0.638304,-0.247904,0.774944,3.5875,-4.2175,-6.58875,-7.440001,-10.808001,24.064001,inter_set_rest,3,3.0,22382.0,155123.0,246405.0,293399.0,270221.0
2026-04-08 21:38:26.826806,112842,1609503478962604,1078929528,0.638304,-0.247904,0.774944,2.24875,-3.92875,-6.51875,-7.440001,-10.808001,24.064001,inter_set_rest,3,3.0,22382.0,155123.0,246405.0,293399.0,270221.0
2026-04-08 21:38:26.829242,112843,1609503478971515,1078938173,0.589504,-0.244,0.564128,1.12875,-3.6575,-6.51,-7.336,-10.480001,25.944002,inter_set_rest,3,3.0,22382.0,155123.0,246405.0,293399.0,270221.0
2026-04-08 21:38:26.860092,112844,1609503478986066,1078953086,0.589504,-0.244,0.59536,1.1375,-3.01,-7.37625,-7.336,-10.480001,25.944002,inter_set_rest,3,3.0,22382.0,155123.0,246405.0,293399.0,270221.0
2026-04-08 21:38:26.887996,112855,1609503478995202,1078961824,0.65392,-0.290848,0.593408,-0.385,-2.73,-8.0675,-7.584001,-10.648001,26.328001,inter_set_rest,3,3.0,22311.0,154885.0,246134.0,293175.0,270099.0
2026-04-08 21:38:26.890545,112856,1609503479004135,1078970520,0.65392,-0.290848,0.593408,-2.765,-1.9775,-8.26,-7.584001,-10.648001,26.328001,inter_set_rest,3,3.0,22311.0,154885.0,246134.0,293175.0,270099.0
2026-04-08 21:38:26.893028,112857,1609503479018633,1078985474,0.601216,-0.240096,0.716384,-4.05125,-1.54875,-7.77875,-7.312,-11.032001,26.344002,inter_set_rest,3,3.0,22311.0,154885.0,246134.0,293175.0,270099.0
2026-04-08 21:38:26.895478,112858,1609503479027672,1078994246,0.568032,-0.25376,0.511424,-3.955,-0.83125,-7.3325,-7.28,-10.744,25.736002,inter_set_rest,3,3.0,22311.0,154885.0,246134.0,293175.0,270099.0
2026-04-08 21:38:26.897954,112859,1609503479042207,1079009119,0.568032,-0.25376,0.511424,-3.99875,0.04375,-7.62125,-7.28,-10.744,25.736002,inter_set_rest,3,3.0,22311.0,154885.0,246134.0,293175.0,270099.0
2026-04-08 21:38:26.904263,112860,1609503479051128,1079017784,0.564128,-0.247904,0.552416,-3.675,0.67375,-7.1925,-7.048,-10.424001,26.952002,inter_set_rest,3,3.0,22311.0,154885.0,246134.0,293175.0,270099.0
2026-04-08 21:38:26.934865,112861,1609503479060045,1079026475,0.564128,-0.247904,0.552416,-2.65125,1.47,-7.0525,-7.048,-10.424001,26.952002,inter_set_rest,3,3.0,22311.0,154885.0,246134.0,293175.0,270099.0
2026-04-08 21:38:26.937543,112862,1609503479074520,1079041370,0.609024,-0.28304,0.519232,-3.08875,2.00375,-6.37,-7.328001,-10.864,28.168001,inter_set_rest,3,3.0,22311.0,154885.0,246134.0,293175.0,270099.0
2026-04-08 21:38:26.942020,112863,1609503479083424,1079050086,0.609024,-0.28304,0.519232,-2.8175,2.1875,-5.01375,-7.328001,-10.864,28.168001,inter_set_rest,3,3.0,22311.0,154885.0,246134.0,293175.0,270099.0
2026-04-08 21:38:27.002949,112874,1609503479098312,1079064920,0.560224,-0.245952,0.571936,-3.56125,2.58125,-4.41,-7.008,-10.904,26.088001,inter_set_rest,3,3.0,22208.0,154615.0,245854.0,293031.0,270027.0
2026-04-08 21:38:27.005446,112875,1609503479107325,1079073694,0.57584,-0.249856,0.532896,-4.6375,2.9575,-4.26125,-7.008,-10.904,26.088001,inter_set_rest,3,3.0,22208.0,154615.0,245854.0,293031.0,270027.0
2026-04-08 21:38:27.007969,112876,1609503479121814,1079088527,0.569984,-0.249856,0.532896,-4.7075,3.35125,-4.2175,-7.016,-10.68,26.296001,inter_set_rest,3,3.0,22208.0,154615.0,245854.0,293031.0,270027.0
2026-04-08 21:38:27.010447,112877,1609503479130691,1079097175,0.661728,-0.249856,0.763232,-5.50375,3.64,-3.21125,-6.912,-10.6,26.184002,inter_set_rest,3,3.0,22208.0,154615.0,245854.0,293031.0,270027.0
2026-04-08 21:38:27.012933,112878,1609503479139830,1079105847,0.661728,-0.249856,0.763232,-7.0175,4.47125,-2.38,-6.912,-10.6,26.184002,inter_set_rest,3,3.0,22208.0,154615.0,245854.0,293031.0,270027.0
2026-04-08 21:38:27.015463,112879,1609503479154376,1079120780,0.581696,-0.275232,0.505568,-8.72375,4.76875,-1.16375,-6.952,-10.656,27.408,inter_set_rest,3,3.0,22208.0,154615.0,245854.0,293031.0,270027.0
2026-04-08 21:38:27.017934,112880,1609503479163333,1079129462,0.581696,-0.275232,0.505568,-8.89875,4.795,0.0875,-6.952,-10.656,27.408,inter_set_rest,3,3.0,22208.0,154615.0,245854.0,293031.0,270027.0
2026-04-08 21:38:27.048224,112881,1609503479177807,1079144383,0.632448,-0.286944,0.609024,-10.2025,5.17125,0.7,-7.352,-10.448001,27.832,inter_set_rest,3,3.0,22208.0,154615.0,245854.0,293031.0,270027.0
2026-04-08 21:38:27.051705,112882,1609503479186730,1079153067,0.632448,-0.286944,0.609024,-10.85,4.9525,0.7175,-7.352,-10.448001,27.832,inter_set_rest,3,3.0,22208.0,154615.0,245854.0,293031.0,270027.0
2026-04-08 21:38:27.079266,112893,1609503479201378,1079167998,0.591456,-0.284992,0.568032,-10.26375,4.85625,0.63,-7.096,-10.472,27.400002,inter_set_rest,3,3.0,22089.0,154177.0,245371.0,292701.0,269837.0
2026-04-08 21:38:27.085494,112894,1609503479210405,1079176790,0.558272,-0.277184,0.564128,-8.82,4.55875,0.945,-6.856,-10.360001,26.160002,inter_set_rest,3,3.0,22089.0,154177.0,245371.0,292701.0,269837.0
2026-04-08 21:38:27.087980,112895,1609503479219462,1079185470,0.558272,-0.277184,0.564128,-7.175,4.50625,1.0325,-6.856,-10.360001,26.160002,inter_set_rest,3,3.0,22089.0,154177.0,245371.0,292701.0,269837.0
2026-04-08 21:38:27.090420,112896,1609503479233981,1079200351,0.597312,-0.26352,0.708576,-6.50125,4.40125,0.875,-6.656,-10.344001,26.648,inter_set_rest,3,3.0,22089.0,154177.0,245371.0,292701.0,269837.0
2026-04-08 21:38:27.096687,112897,1609503479242926,1079208996,0.597312,-0.26352,0.708576,-5.355,4.305,1.155,-6.656,-10.344001,26.648,inter_set_rest,3,3.0,22089.0,154177.0,245371.0,292701.0,269837.0
2026-04-08 21:38:27.126938,112898,1609503479257395,1079223894,0.630496,-0.284992,0.679296,-5.45125,4.22625,0.84875,-6.8,-10.056001,27.320002,inter_set_rest,3,3.0,22089.0,154177.0,245371.0,292701.0,269837.0
2026-04-08 21:38:27.130412,112899,1609503479266304,1079232559,0.630496,-0.284992,0.679296,-5.285,4.0075,0.13125,-6.8,-10.056001,27.320002,inter_set_rest,3,3.0,22089.0,154177.0,245371.0,292701.0,269837.0
2026-04-08 21:38:27.132953,112900,1609503479275199,1079241205,0.558272,-0.288896,0.554368,-4.8825,3.75375,-0.4725,-6.656,-10.120001,26.312002,inter_set_rest,3,3.0,22089.0,154177.0,245371.0,292701.0,269837.0
2026-04-08 21:38:27.163210,112901,1609503479289708,1079256081,0.534848,-0.261568,0.640256,-5.6875,2.87875,-0.93625,-6.592001,-10.440001,26.192001,inter_set_rest,3,3.0,22089.0,154177.0,245371.0,292701.0,269837.0
2026-04-08 21:38:27.191728,112912,1609503479299099,1079265137,0.534848,-0.261568,0.640256,-6.04625,2.17,-0.805,-6.592001,-10.440001,26.192001,inter_set_rest,3,3.0,21977.0,153703.0,244854.0,292354.0,269676.0
2026-04-08 21:38:27.197976,112913,1609503479313624,1079280038,0.603168,-0.290848,0.698816,-5.7575,1.65375,-1.085,-6.704001,-10.392,26.744001,inter_set_rest,3,3.0,21977.0,153703.0,244854.0,292354.0,269676.0
2026-04-08 21:38:27.200395,112914,1609503479322680,1079288755,0.603168,-0.290848,0.698816,-5.5475,1.37375,-2.1175,-6.704001,-10.392,26.744001,inter_set_rest,3,3.0,21977.0,153703.0,244854.0,292354.0,269676.0
2026-04-08 21:38:27.202946,112915,1609503479331699,1079297433,0.577792,-0.279136,0.694912,-4.8125,0.88375,-2.905,-6.664001,-10.176001,28.136002,inter_set_rest,3,3.0,21977.0,153703.0,244854.0,292354.0,269676.0
2026-04-08 21:38:27.205418,112916,1609503479346202,1079312420,0.577792,-0.279136,0.694912,-3.43875,0.21,-2.765,-6.664001,-10.176001,28.136002,inter_set_rest,3,3.0,21977.0,153703.0,244854.0,292354.0,269676.0
2026-04-08 21:38:27.207974,112917,1609503479355136,1079321088,0.589504,-0.27328,0.698816,-2.65125,0.14,-2.38,-6.88,-10.128,28.144001,inter_set_rest,3,3.0,21977.0,153703.0,244854.0,292354.0,269676.0
2026-04-08 21:38:27.238173,112918,1609503479369641,1079335964,0.587552,-0.286944,0.616832,-2.00375,0.06125,-2.5025,-6.776001,-10.008,27.928001,inter_set_rest,3,3.0,21977.0,153703.0,244854.0,292354.0,269676.0
2026-04-08 21:38:27.241759,112919,1609503479378563,1079344638,0.587552,-0.286944,0.616832,-1.14625,0.455,-3.01875,-6.776001,-10.008,27.928001,inter_set_rest,3,3.0,21977.0,153703.0,244854.0,292354.0,269676.0
2026-04-08 21:38:27.246771,112920,1609503479393007,1079359567,0.60512,-0.265472,0.737856,-0.77,0.41125,-2.8,-6.520001,-10.144,26.576002,inter_set_rest,3,3.0,21977.0,153703.0,244854.0,292354.0,269676.0
2026-04-08 21:38:27.309220,112931,1609503479401975,1079368352,0.60512,-0.265472,0.737856,-0.4725,-0.30625,-1.79375,-6.520001,-10.144,26.576002,inter_set_rest,3,3.0,21885.0,153488.0,244587.0,292192.0,269590.0
2026-04-08 21:38:27.311722,112932,1609503479410908,1079377027,0.599264,-0.279136,0.651968,-0.63,-0.35,-1.12,-6.864,-10.160001,26.152,inter_set_rest,3,3.0,21885.0,153488.0,244587.0,292192.0,269590.0
2026-04-08 21:38:27.314234,112933,1609503479425347,1079391916,0.599264,-0.279136,0.651968,-1.74125,-0.2275,-0.9275,-6.864,-10.160001,26.152,inter_set_rest,3,3.0,21885.0,153488.0,244587.0,292192.0,269590.0
2026-04-08 21:38:27.316757,112934,1609503479434257,1079400608,0.581696,-0.26352,0.720288,-2.10875,-0.37625,-1.11125,-6.480001,-10.424001,26.512001,inter_set_rest,3,3.0,21885.0,153488.0,244587.0,292192.0,269590.0
2026-04-08 21:38:27.319229,112935,1609503479448846,1079415502,0.581696,-0.26352,0.720288,-2.5725,-0.525,-1.1375,-6.480001,-10.424001,26.512001,inter_set_rest,3,3.0,21885.0,153488.0,244587.0,292192.0,269590.0
2026-04-08 21:38:27.321816,112936,1609503479457844,1079424223,0.657824,-0.308416,0.679296,-2.52,-0.595,-1.07625,-6.920001,-10.360001,27.432001,inter_set_rest,3,3.0,21885.0,153488.0,244587.0,292192.0,269590.0
2026-04-08 21:38:27.325870,112937,1609503479472329,1079439110,0.622688,-0.296704,0.661728,-1.49625,-0.76125,-1.47,-6.816001,-10.088,26.376001,inter_set_rest,3,3.0,21885.0,153488.0,244587.0,292192.0,269590.0
2026-04-08 21:38:27.357095,112938,1609503479481240,1079447769,0.622688,-0.296704,0.661728,-0.4025,-0.63,-1.77625,-6.816001,-10.088,26.376001,inter_set_rest,3,3.0,21885.0,153488.0,244587.0,292192.0,269590.0
2026-04-08 21:38:27.360578,112939,1609503479490154,1079456424,0.587552,-0.294752,0.548512,-0.11375,-0.69125,-2.0125,-6.816001,-10.416,26.048,inter_set_rest,3,3.0,21885.0,153488.0,244587.0,292192.0,269590.0
2026-04-08 21:38:27.388012,112950,1609503479504714,1079471375,0.587552,-0.294752,0.548512,-0.595,-0.49875,-2.2925,-7.04,-10.416,26.048,inter_set_rest,3,3.0,21744.0,152827.0,243790.0,291597.0,269227.0
2026-04-08 21:38:27.390421,112951,1609503479513682,1079480150,0.579744,-0.296704,0.509472,-0.7175,0.0525,-2.205,-6.632,-10.424001,26.584002,inter_set_rest,3,3.0,21744.0,152827.0,243790.0,291597.0,269227.0
2026-04-08 21:38:27.393029,112952,1609503479528206,1079495098,0.579744,-0.296704,0.509472,-1.505,0.665,-2.70375,-6.632,-10.424001,26.584002,inter_set_rest,3,3.0,21744.0,152827.0,243790.0,291597.0,269227.0
2026-04-08 21:38:27.395469,112953,1609503479537198,1079503787,0.642208,-0.30256,0.612928,-2.5375,0.91875,-2.63375,-6.712,-10.232,28.128002,inter_set_rest,3,3.0,21744.0,152827.0,243790.0,291597.0,269227.0
