pc_time,serial_num,sensor_ts,host_ts,ax,ay,az,gx,gy,gz,mx,my,mz,phase,rpe,weight_kg,ppg_a,ppg_b,ppg_c,ppg_d,ppg_e
2026-04-09 22:09:47.273765,233211,1517287251,1517288699,-0.91744,-0.220576,-0.281088,-21.84875,-2.0125,28.13125,13.608001,-2.744,13.208,eccentric,6,5.0,41258.0,362379.0,105696.0,253.0,-148.0
2026-04-09 22:09:47.303333,233222,1517296147,1517297721,-0.91744,-0.220576,-0.281088,-13.72875,-8.155,28.7,13.608001,-2.744,13.208,eccentric,6,5.0,41609.0,362813.0,106352.0,279.0,-138.0
2026-04-09 22:09:47.304873,233223,1517305101,1517306429,-0.899872,-0.16592,-0.046848,-1.53125,-12.355001,33.145,14.712001,-3.352,12.736001,eccentric,6,5.0,41609.0,362813.0,106352.0,279.0,-138.0
2026-04-09 22:09:47.309087,233224,1517319650,1517321414,-0.977952,0.093696,-0.0488,8.9075,-15.085,39.8475,14.712001,-3.352,12.736001,eccentric,6,5.0,41609.0,362813.0,106352.0,279.0,-138.0
2026-04-09 22:09:47.312011,233225,1517328627,1517330240,-0.979904,0.093696,-0.0488,15.23375,-16.07375,43.54875,15.064001,-3.376,13.528001,eccentric,6,5.0,41609.0,362813.0,106352.0,279.0,-138.0
2026-04-09 22:09:47.316130,233226,1517337678,1517338959,-0.979904,0.093696,-0.0488,11.92625,-18.40125,43.085,15.064001,-3.376,13.528001,eccentric,6,5.0,41609.0,362813.0,106352.0,279.0,-138.0
2026-04-09 22:09:47.347288,233227,1517352194,1517353916,-0.938912,-0.109312,-0.23424,2.7825,-23.4675,40.1625,15.112,-3.512,13.448001,eccentric,6,5.0,41609.0,362813.0,106352.0,279.0,-138.0
2026-04-09 22:09:47.351692,233228,1517361186,1517362615,-0.962336,-0.115168,-0.005856,0.49,-25.71625,37.79125,15.840001,-3.768,14.632001,eccentric,6,5.0,41609.0,362813.0,106352.0,279.0,-138.0
2026-04-09 22:09:47.354446,233229,1517370100,1517371296,-0.962336,-0.115168,-0.005856,9.3975,-24.64875,40.7925,15.840001,-3.768,14.632001,eccentric,6,5.0,41609.0,362813.0,106352.0,279.0,-138.0
2026-04-09 22:09:47.387574,233230,1517379051,1517379995,-0.962336,-0.115168,-0.005856,19.88,-21.91,48.125,15.840001,-3.768,14.632001,eccentric,6,5.0,41609.0,362813.0,106352.0,279.0,-138.0
2026-04-09 22:09:47.390664,233231,1517393575,1517394945,-1.042368,0.150304,0.021472,15.7675,-21.37625,49.83125,16.176,-3.768,12.72,eccentric,6,5.0,41609.0,362813.0,106352.0,279.0,-138.0
2026-04-09 22:09:47.414919,233241,1517402642,1517403767,-1.056032,-0.080032,-0.275232,-2.205,-22.3125,50.3825,16.512001,-4.024,13.032001,eccentric,6,5.0,42204.0,359769.0,104437.0,123.0,-128.0
2026-04-09 22:09:47.418305,233242,1517411545,1517412520,-1.056032,-0.080032,-0.275232,-13.475,-25.235,46.2525,16.512001,-4.024,13.032001,eccentric,6,5.0,42204.0,359769.0,104437.0,123.0,-128.0
2026-04-09 22:09:47.419966,233243,1517426156,1517427460,-1.016992,-0.189344,-0.001952,-14.4375,-26.1275,43.77625,17.224,-4.456,13.400001,eccentric,6,5.0,42204.0,359769.0,104437.0,123.0,-128.0
2026-04-09 22:09:47.424202,233244,1517435162,1517436172,-1.016992,-0.189344,-0.001952,-2.695,-22.785,47.13625,17.224,-4.456,13.400001,eccentric,6,5.0,42204.0,359769.0,104437.0,123.0,-128.0
2026-04-09 22:09:47.425752,233245,1517444111,1517444901,-1.067744,0.206912,0.10736,9.9925,-18.235,53.87375,15.912001,-4.856,14.824,eccentric,6,5.0,42204.0,359769.0,104437.0,123.0,-128.0
2026-04-09 22:09:47.432233,233246,1517459242,1517459936,-1.067744,0.206912,0.10736,7.6825,-13.79,52.22875,15.912001,-4.856,14.824,eccentric,6,5.0,42204.0,359769.0,104437.0,123.0,-128.0
2026-04-09 22:09:47.461964,233247,1517468670,1517470786,-1.08336,0.042944,-0.247904,-9.14375,-10.31625,47.80125,16.536001,-4.872,14.528001,eccentric,6,5.0,42204.0,359769.0,104437.0,123.0,-128.0
2026-04-09 22:09:47.465735,233248,1517477587,1517479478,-1.08336,0.042944,-0.247904,-30.66,-11.68125,47.67875,16.536001,-4.872,14.528001,eccentric,6,5.0,42204.0,359769.0,104437.0,123.0,-128.0
2026-04-09 22:09:47.472910,233249,1517486586,1517488163,-1.085312,-0.21472,-0.005856,-35.70875,-11.2875,47.2675,17.52,-5.288,14.024001,eccentric,6,5.0,42204.0,359769.0,104437.0,123.0,-128.0
2026-04-09 22:09:47.497140,233259,1517501632,1517503073,-1.003328,0.22448,0.093696,-16.87,-8.2075,46.85625,16.448,-5.424,16.08,eccentric,6,5.0,42408.0,359236.0,104137.0,95.0,-134.0
2026-04-09 22:09:47.498826,233260,1517510657,1517511858,-1.003328,0.22448,0.093696,0.4725,-4.7075,51.47625,16.448,-5.424,16.08,eccentric,6,5.0,42408.0,359236.0,104137.0,95.0,-134.0
2026-04-09 22:09:47.502858,233261,1517519658,1517520568,-1.003328,0.22448,0.093696,-11.4975,-2.87,47.48625,16.448,-5.424,16.08,eccentric,6,5.0,42408.0,359236.0,104137.0,95.0,-134.0
2026-04-09 22:09:47.504490,233262,1517528731,1517529341,-1.009184,0.113216,-0.056608,-28.7525,-2.52875,42.8925,17.664001,-5.952,16.072,eccentric,6,5.0,42408.0,359236.0,104137.0,95.0,-134.0
2026-04-09 22:09:47.546018,233263,1517543538,1517544282,-1.06384,0.037088,-0.23424,-34.615,-3.4125,41.06375,18.216002,-5.968,14.280001,eccentric,6,5.0,42408.0,359236.0,104137.0,95.0,-134.0
2026-04-09 22:09:47.548254,233264,1517552915,1517555053,-1.06384,0.037088,-0.23424,-27.0375,-7.27125,38.15,18.216002,-5.968,14.280001,eccentric,6,5.0,42408.0,359236.0,104137.0,95.0,-134.0
2026-04-09 22:09:47.552877,233265,1517561842,1517563747,-1.075552,0.007808,-0.314272,-13.055,-13.85125,38.35125,18.136002,-6.144,14.096001,eccentric,6,5.0,42408.0,359236.0,104137.0,95.0,-134.0
2026-04-09 22:09:47.555389,233266,1517576341,1517576659,-1.075552,0.007808,-0.314272,-2.975,-21.1225,37.6425,18.136002,-6.144,14.096001,eccentric,6,5.0,42408.0,359236.0,104137.0,95.0,-134.0
2026-04-09 22:09:47.559537,233267,1517585555,1517587421,-0.979904,0.130784,-0.046848,9.21375,-29.11125,37.72125,18.464,-6.752,14.928,eccentric,6,5.0,42408.0,359236.0,104137.0,95.0,-134.0
2026-04-09 22:09:47.589750,233268,1517594545,1517596176,-0.979904,0.130784,-0.046848,23.9575,-35.14875,39.2875,18.464,-6.752,14.928,eccentric,6,5.0,42408.0,359236.0,104137.0,95.0,-134.0
2026-04-09 22:09:47.619020,233279,1517603575,1517604966,-0.938912,0.216672,0.130784,28.0,-37.45,37.826252,19.256,-6.672,15.096001,eccentric,6,5.0,42801.0,357695.0,103086.0,42.0,-140.0
2026-04-09 22:09:47.620935,233280,1517618081,1517619906,-0.938912,0.216672,0.130784,16.765,-37.45875,35.84875,19.256,-6.672,15.096001,eccentric,6,5.0,42801.0,357695.0,103086.0,42.0,-140.0
2026-04-09 22:09:47.624852,233281,1517627044,1517628660,-1.048224,0.226432,-0.08784,2.5375,-34.4575,34.1775,19.720001,-6.912,15.704,eccentric,6,5.0,42801.0,357695.0,103086.0,42.0,-140.0
2026-04-09 22:09:47.627428,233282,1517636046,1517637447,-1.048224,0.226432,-0.08784,-0.2275,-29.7675,35.77875,19.720001,-6.912,15.704,eccentric,6,5.0,42801.0,357695.0,103086.0,42.0,-140.0
2026-04-09 22:09:47.629814,233283,1517650594,1517652413,-1.071648,0.218624,-0.099552,2.87875,-28.035,35.58625,18.400002,-7.376,17.328001,eccentric,6,5.0,42801.0,357695.0,103086.0,42.0,-140.0
2026-04-09 22:09:47.632313,233284,1517659533,1517661122,-1.071648,0.218624,-0.099552,5.425,-28.9975,34.8425,18.400002,-7.376,17.328001,eccentric,6,5.0,42801.0,357695.0,103086.0,42.0,-140.0
2026-04-09 22:09:47.682550,233285,1517668460,1517669816,-1.075552,0.148352,-0.056608,5.80125,-31.185,34.982502,19.088001,-7.024,15.200001,eccentric,6,5.0,42801.0,357695.0,103086.0,42.0,-140.0
2026-04-09 22:09:47.686077,233286,1517677432,1517678534,-1.075552,0.148352,-0.056608,6.4925,-31.92,36.6625,19.088001,-7.024,15.200001,eccentric,6,5.0,42801.0,357695.0,103086.0,42.0,-140.0
2026-04-09 22:09:47.688615,233287,1517691943,1517693416,-1.059936,0.25376,0.046848,7.455,-31.40375,36.925,20.152,-7.376,16.176,eccentric,6,5.0,42801.0,357695.0,103086.0,42.0,-140.0
2026-04-09 22:09:47.713606,233297,1517701335,1517702198,-1.059936,0.25376,-0.035136,2.1525,-29.995,37.1,20.152,-7.376,16.752,eccentric,6,5.0,43019.0,355600.0,101978.0,2.0,-144.0
2026-04-09 22:09:47.716149,233298,1517710852,1517712995,-1.116544,0.257664,-0.035136,-1.4175,-28.44625,38.185,21.096,-7.416,16.752,eccentric,6,5.0,43019.0,355600.0,101978.0,2.0,-144.0
2026-04-09 22:09:47.721171,233299,1517725423,1517725853,-1.104832,0.167872,-0.025376,-1.00625,-26.53,38.99875,20.072,-8.200001,18.240002,eccentric,6,5.0,43019.0,355600.0,101978.0,2.0,-144.0
2026-04-09 22:09:47.723568,233300,1517734790,1517736710,-1.104832,0.167872,-0.025376,0.63875,-26.04,38.42125,20.072,-8.200001,18.240002,eccentric,6,5.0,43019.0,355600.0,101978.0,2.0,-144.0
2026-04-09 22:09:47.726104,233301,1517743748,1517745436,-1.159488,0.304512,0.025376,5.64375,-25.1825,39.71625,19.888,-8.496,18.328001,eccentric,6,5.0,43019.0,355600.0,101978.0,2.0,-144.0
2026-04-09 22:09:47.728599,233302,1517752688,1517754137,-1.159488,0.304512,0.025376,7.875,-24.19375,39.795002,19.888,-8.496,18.328001,eccentric,6,5.0,43019.0,355600.0,101978.0,2.0,-144.0
2026-04-09 22:09:47.758820,233303,1517767205,1517769114,-1.130208,0.269376,-0.035136,7.90125,-23.58125,38.5875,19.712002,-8.240001,18.496,eccentric,6,5.0,43019.0,355600.0,101978.0,2.0,-144.0
2026-04-09 22:09:47.762431,233304,1517776098,1517777810,-1.130208,0.269376,-0.035136,6.09,-23.8875,37.37125,19.712002,-8.240001,18.496,eccentric,6,5.0,43019.0,355600.0,101978.0,2.0,-144.0
2026-04-09 22:09:47.765018,233305,1517784992,1517786512,-1.149728,0.189344,0.054656,3.64,-23.94875,35.49,21.000002,-8.856,17.952002,eccentric,6,5.0,43019.0,355600.0,101978.0,2.0,-144.0
2026-04-09 22:09:47.793607,233315,1517799505,1517801512,-1.149728,0.189344,0.054656,6.44,-22.26,37.415,21.000002,-8.856,17.952002,eccentric,6,5.0,42914.0,357442.0,103332.0,61.0,-134.0
2026-04-09 22:09:47.796204,233316,1517809126,1517810439,-1.118496,0.306464,0.025376,7.63875,-20.44,39.576252,21.800001,-8.808001,18.488,eccentric,6,5.0,42914.0,357442.0,103332.0,61.0,-134.0
2026-04-09 22:09:47.798692,233317,1517818071,1517819164,-1.118496,0.306464,0.025376,5.4775,-18.62875,39.83875,21.800001,-8.808001,18.488,eccentric,6,5.0,42914.0,357442.0,103332.0,61.0,-134.0
2026-04-09 22:09:47.801168,233318,1517827093,1517827882,-1.143872,0.310368,0.021472,2.9225,-16.345,41.29125,20.632002,-9.528001,20.944,eccentric,6,5.0,42914.0,357442.0,103332.0,61.0,-134.0
2026-04-09 22:09:47.833940,233319,1517841573,1517842772,-1.143872,0.296704,0.015616,1.4175,-14.875,40.24125,20.632002,-9.528001,20.944,eccentric,6,5.0,42914.0,357442.0,103332.0,61.0,-134.0
2026-04-09 22:09:47.837461,233320,1517850477,1517851459,-1.163392,0.296704,0.015616,4.55,-14.105001,39.235,22.312,-9.408,18.784,eccentric,6,5.0,42914.0,357442.0,103332.0,61.0,-134.0
2026-04-09 22:09:47.839936,233321,1517859385,1517860172,-1.163392,0.296704,0.015616,9.35375,-13.011251,38.57,22.312,-9.408,18.784,eccentric,6,5.0,42914.0,357442.0,103332.0,61.0,-134.0
2026-04-09 22:09:47.846278,233322,1517874368,1517875100,-1.079456,0.281088,0.06832,6.78125,-12.5825,36.49625,22.192001,-9.88,18.808,eccentric,6,5.0,42914.0,357442.0,103332.0,61.0,-134.0
2026-04-09 22:09:47.877474,233323,1517883778,1517885868,-1.16144,0.339648,0.035136,3.73625,-11.97,36.04125,21.064001,-9.984,20.6,eccentric,6,5.0,42914.0,357442.0,103332.0,61.0,-134.0
2026-04-09 22:09:47.879952,233324,1517892710,1517894607,-1.16144,0.339648,0.035136,2.17,-10.71875,37.30125,21.064001,-9.984,20.6,eccentric,6,5.0,42914.0,357442.0,103332.0,61.0,-134.0
2026-04-09 22:09:47.907435,233335,1517901833,1517903350,-1.16144,0.2928,-0.031232,1.40875,-10.24625,38.7625,21.064001,-9.984,20.6,eccentric,6,5.0,42876.0,358508.0,104158.0,91.0,-122.0
2026-04-09 22:09:47.909950,233336,1517916416,1517918296,-1.108736,0.286944,-0.031232,-0.93625,-10.19375,38.675,22.656,-10.496,19.52,eccentric,6,5.0,42876.0,358508.0,104158.0,91.0,-122.0
2026-04-09 22:09:47.912433,233337,1517925413,1517927061,-1.085312,0.245952,0.037088,-2.1175,-11.06,37.695,22.736002,-10.432,19.312,eccentric,6,5.0,42876.0,358508.0,104158.0,91.0,-122.0
2026-04-09 22:09:47.914948,233338,1517934346,1517935790,-1.085312,0.245952,0.037088,6.545,-11.41,38.64875,22.736002,-10.432,19.312,eccentric,6,5.0,42876.0,358508.0,104158.0,91.0,-122.0
2026-04-09 22:09:47.921242,233339,1517948871,1517950729,-1.05408,0.40016,0.07808,14.805,-10.99875,39.235,22.824001,-11.128,20.584002,eccentric,6,5.0,42876.0,358508.0,104158.0,91.0,-122.0
2026-04-09 22:09:47.983965,233340,1517957789,1517959420,-1.05408,0.40016,0.07808,13.65,-10.815,39.8475,22.824001,-11.128,20.584002,eccentric,6,5.0,42876.0,358508.0,104158.0,91.0,-122.0
2026-04-09 22:09:47.987453,233341,1517966720,1517968145,-1.120448,0.396256,0.060512,7.28,-9.87875,39.85625,23.576,-10.784,20.728,eccentric,6,5.0,42876.0,358508.0,104158.0,91.0,-122.0
2026-04-09 22:09:47.989957,233342,1517975637,1517976854,-1.120448,0.396256,0.060512,2.8175,-8.65375,39.05125,23.576,-10.784,20.728,eccentric,6,5.0,42876.0,358508.0,104158.0,91.0,-122.0
2026-04-09 22:09:47.995010,233343,1517990102,1517991738,-1.095072,0.335744,0.035136,0.60375,-8.07625,37.31875,23.224,-11.240001,20.392,eccentric,6,5.0,42876.0,358508.0,104158.0,91.0,-122.0
2026-04-09 22:09:47.997450,233344,1517999045,1518000442,-1.095072,0.335744,0.035136,0.00875,-8.636251,35.0525,23.224,-11.240001,20.392,eccentric,6,5.0,42876.0,358508.0,104158.0,91.0,-122.0
2026-04-09 22:09:48.026449,233354,1518008049,1518009186,-1.071648,0.335744,0.054656,2.38,-9.40625,33.87125,23.784,-11.376,20.584002,eccentric,6,5.0,42779.0,360513.0,105633.0,178.0,-152.0
2026-04-09 22:09:48.028825,233355,1518022563,1518024080,-1.095072,0.374784,0.042944,4.75125,-10.045,32.96125,23.784,-11.376,21.368002,eccentric,6,5.0,42779.0,360513.0,105633.0,178.0,-152.0
2026-04-09 22:09:48.031182,233356,1518031495,1518032837,-1.095072,0.374784,0.042944,3.03625,-10.386251,34.0725,22.664001,-11.8,21.368002,eccentric,6,5.0,42779.0,360513.0,105633.0,178.0,-152.0
2026-04-09 22:09:48.033670,233357,1518040644,1518041581,-1.095072,0.374784,0.042944,1.28625,-10.167501,34.4925,22.664001,-11.8,21.368002,eccentric,6,5.0,42779.0,360513.0,105633.0,178.0,-152.0
2026-04-09 22:09:48.036221,233358,1518055174,1518056516,-1.110688,0.357216,0.023424,2.1525,-10.89375,34.85125,22.400002,-11.608001,22.336,eccentric,6,5.0,42779.0,360513.0,105633.0,178.0,-152.0
2026-04-09 22:09:48.038762,233359,1518064103,1518065225,-1.104832,0.339648,0.037088,2.94875,-11.5325,35.44625,23.880001,-12.8,21.960001,eccentric,6,5.0,42779.0,360513.0,105633.0,178.0,-152.0
2026-04-09 22:09:48.043704,233360,1518073072,1518073926,-1.104832,0.339648,0.037088,7.0875,-12.31125,35.7875,23.880001,-12.8,21.960001,eccentric,6,5.0,42779.0,360513.0,105633.0,178.0,-152.0
2026-04-09 22:09:48.073986,233361,1518082227,1518082650,-1.104832,0.339648,0.06832,10.15875,-13.1425,33.90625,23.880001,-12.8,21.960001,eccentric,6,5.0,42779.0,360513.0,105633.0,178.0,-152.0
2026-04-09 22:09:48.077525,233362,1518097078,1518097562,-1.079456,0.366976,0.076128,11.71625,-13.55375,34.2475,23.696001,-12.56,21.28,eccentric,6,5.0,42779.0,360513.0,105633.0,178.0,-152.0
2026-04-09 22:09:48.103580,233372,1518106544,1518108371,-1.085312,0.378688,0.05856,11.4975,-13.5625,33.97625,24.480001,-12.8,21.224,eccentric,6,5.0,42781.0,361396.0,106324.0,217.0,-135.0
2026-04-09 22:09:48.105354,233373,1518115652,1518117116,-1.085312,0.378688,0.05856,9.511251,-13.58875,32.50625,24.480001,-12.8,21.224,eccentric,6,5.0,42781.0,361396.0,106324.0,217.0,-135.0
2026-04-09 22:09:48.109110,233374,1518130183,1518132036,-1.145824,0.42944,0.085888,8.35625,-12.64375,32.48875,23.792002,-12.888001,24.568,eccentric,6,5.0,42781.0,361396.0,106324.0,217.0,-135.0
2026-04-09 22:09:48.111291,233375,1518139115,1518140756,-1.145824,0.42944,0.085888,10.185,-11.480001,32.05125,23.792002,-12.888001,24.568,eccentric,6,5.0,42781.0,361396.0,106324.0,217.0,-135.0
2026-04-09 22:09:48.141465,233376,1518148049,1518149459,-1.087264,0.353312,0.128832,9.0125,-10.01875,30.835001,23.296001,-12.736001,24.320002,eccentric,6,5.0,42781.0,361396.0,106324.0,217.0,-135.0
2026-04-09 22:09:48.145038,233377,1518156994,1518158188,-1.087264,0.353312,0.128832,5.48625,-9.835,28.735,23.296001,-12.736001,24.320002,eccentric,6,5.0,42781.0,361396.0,106324.0,217.0,-135.0
2026-04-09 22:09:48.147419,233378,1518171550,1518173089,-1.085312,0.353312,0.072224,6.79875,-8.53125,28.5775,24.744001,-13.872001,21.872002,eccentric,6,5.0,42781.0,361396.0,106324.0,217.0,-135.0
2026-04-09 22:09:48.152679,233379,1518180459,1518181798,-1.085312,0.353312,0.072224,6.37,-6.86875,28.595,24.744001,-13.872001,21.872002,eccentric,6,5.0,42781.0,361396.0,106324.0,217.0,-135.0
2026-04-09 22:09:48.183935,233380,1518189484,1518190509,-1.106784,0.38064,0.046848,5.04,-6.04625,29.04125,22.856,-13.792001,23.376001,eccentric,6,5.0,42781.0,361396.0,106324.0,217.0,-135.0
2026-04-09 22:09:48.211183,233391,1518204492,1518205584,-1.067744,0.386496,0.095648,5.83625,-5.15375,29.33,24.392002,-13.744,22.504002,eccentric,6,5.0,42902.0,363889.0,108424.0,327.0,-139.0
2026-04-09 22:09:48.213686,233392,1518213567,1518214317,-1.067744,0.386496,0.095648,5.22375,-4.71625,28.525,24.392002,-13.744,22.504002,eccentric,6,5.0,42902.0,363889.0,108424.0,327.0,-139.0
2026-04-09 22:09:48.216191,233393,1518222979,1518225096,-1.067744,0.386496,0.101504,4.66375,-3.92875,28.245,24.392002,-13.744,22.504002,eccentric,6,5.0,42902.0,363889.0,108424.0,327.0,-139.0
2026-04-09 22:09:48.218693,233394,1518231969,1518233836,-1.042368,0.382592,0.101504,4.92625,-2.75625,26.76625,24.864,-14.144001,22.704,eccentric,6,5.0,42902.0,363889.0,108424.0,327.0,-139.0
2026-04-09 22:09:48.221212,233395,1518246495,1518248823,-1.042368,0.38064,0.066368,4.515,-2.16125,25.97,25.264002,-14.792001,22.872002,eccentric,6,5.0,42902.0,363889.0,108424.0,327.0,-139.0
2026-04-09 22:09:48.227507,233396,1518255492,1518257608,-1.042368,0.38064,0.066368,4.69875,-1.53125,24.94625,25.264002,-14.792001,22.872002,eccentric,6,5.0,42902.0,363889.0,108424.0,327.0,-139.0
2026-04-09 22:09:48.282745,233397,1518264479,1518266325,-1.050176,0.376736,0.080032,5.1275,-1.89875,23.8,23.896002,-14.576001,21.44,eccentric,6,5.0,42902.0,363889.0,108424.0,327.0,-139.0
2026-04-09 22:09:48.286310,233398,1518279009,1518281217,-1.050176,0.376736,0.080032,5.53875,-1.435,22.741251,23.896002,-14.576001,21.44,eccentric,6,5.0,42902.0,363889.0,108424.0,327.0,-139.0
2026-04-09 22:09:48.288740,233399,1518287921,1518289914,-1.01504,0.368928,0.085888,5.27625,-1.51375,21.525,25.632002,-14.416,22.424002,eccentric,6,5.0,42902.0,363889.0,108424.0,327.0,-139.0
2026-04-09 22:09:48.291170,233400,1518296833,1518298661,-1.01504,0.368928,0.085888,4.7075,-0.42875,20.991251,25.632002,-14.416,22.424002,eccentric,6,5.0,42902.0,363889.0,108424.0,327.0,-139.0
2026-04-09 22:09:48.319981,233410,1518306267,1518307501,-1.003328,0.384544,0.105408,5.6175,0.13125,20.06375,24.880001,-15.224001,23.208,eccentric,6,5.0,43018.0,362635.0,107593.0,279.0,-148.0
2026-04-09 22:09:48.322495,233411,1518320757,1518322526,-1.003328,0.384544,0.105408,5.3725,0.56,18.7425,24.880001,-15.224001,23.208,eccentric,6,5.0,43018.0,362635.0,107593.0,279.0,-148.0
2026-04-09 22:09:48.325005,233412,1518329735,1518331288,-1.022848,0.423584,0.07808,3.9725,1.30375,17.08875,24.288002,-15.360001,24.992,eccentric,6,5.0,43018.0,362635.0,107593.0,279.0,-148.0
2026-04-09 22:09:48.327484,233413,1518338770,1518340031,-1.022848,0.423584,0.07808,3.35125,2.65125,14.4025,24.288002,-15.360001,24.992,eccentric,6,5.0,43018.0,362635.0,107593.0,279.0,-148.0
2026-04-09 22:09:48.330020,233414,1518353342,1518355018,-1.007232,0.423584,0.119072,3.36875,2.9925,11.19125,24.088001,-15.272,23.336,eccentric,6,5.0,43018.0,362635.0,107593.0,279.0,-148.0
2026-04-09 22:09:48.333657,233415,1518362382,1518363763,-1.007232,0.423584,0.119072,0.37625,3.54375,7.81375,24.088001,-15.272,23.336,eccentric,6,5.0,43018.0,362635.0,107593.0,279.0,-148.0
2026-04-09 22:09:48.366378,233416,1518371344,1518372467,-1.007232,0.333792,0.070272,-4.2,3.92875,6.4575,25.184002,-16.072,23.880001,eccentric,6,5.0,43018.0,362635.0,107593.0,279.0,-148.0
2026-04-09 22:09:48.370009,233417,1518385844,1518387358,-1.007232,0.386496,0.076128,-5.18875,3.5175,6.44875,24.976002,-15.944001,23.792002,eccentric,6,5.0,43018.0,362635.0,107593.0,279.0,-148.0
2026-04-09 22:09:48.372463,233418,1518394758,1518396093,-1.007232,0.386496,0.076128,-2.44125,3.5525,7.21875,24.976002,-15.944001,23.792002,eccentric,6,5.0,43018.0,362635.0,107593.0,279.0,-148.0
2026-04-09 22:09:48.397427,233428,1518403660,1518404704,-1.007232,0.386496,0.06832,0.23625,3.45625,6.15125,24.976002,-15.944001,23.792002,eccentric,6,5.0,42946.0,362660.0,107632.0,278.0,-120.0
2026-04-09 22:09:48.399986,233429,1518412658,1518413491,-1.013088,0.376736,0.06832,0.0875,3.08875,4.235,25.048,-15.400001,21.28,eccentric,6,5.0,42946.0,362660.0,107632.0,278.0,-120.0
2026-04-09 22:09:48.402450,233430,1518427192,1518428478,-1.011136,0.366976,0.081984,0.3675,2.73875,2.8875,25.272001,-15.592001,23.44,eccentric,6,5.0,42946.0,362660.0,107632.0,278.0,-120.0
2026-04-09 22:09:48.408723,233431,1518436123,1518437215,-1.011136,0.366976,0.081984,1.5925,2.44125,0.67375,25.272001,-15.592001,23.44,eccentric,6,5.0,42946.0,362660.0,107632.0,278.0,-120.0
2026-04-09 22:09:48.438952,233432,1518445041,1518445943,-1.011136,0.3904,0.121024,2.6075,3.43875,-0.32375,23.576,-15.728001,27.224,eccentric,6,5.0,42946.0,362660.0,107632.0,278.0,-120.0
2026-04-09 22:09:48.442502,233433,1518459549,1518460900,-1.011136,0.3904,0.121024,3.77125,4.40125,-2.555,23.576,-15.728001,27.224,eccentric,6,5.0,42946.0,362660.0,107632.0,278.0,-120.0
2026-04-09 22:09:48.444989,233434,1518468491,1518469594,-1.026752,0.38064,0.0976,3.465,4.87375,-4.73375,25.328001,-15.856001,23.304,eccentric,6,5.0,42946.0,362660.0,107632.0,278.0,-120.0
2026-04-09 22:09:48.448758,233435,1518477394,1518478281,-1.026752,0.38064,0.0976,2.0475,6.0375,-6.93875,25.328001,-15.856001,23.304,eccentric,6,5.0,42946.0,362660.0,107632.0,278.0,-120.0
2026-04-09 22:09:48.478875,233436,1518491919,1518493216,-1.038464,0.343552,0.070272,0.7875,6.83375,-8.505,23.728,-15.336,24.944,eccentric,6,5.0,42946.0,362660.0,107632.0,278.0,-120.0
2026-04-09 22:09:48.482531,233437,1518500861,1518501948,-1.038464,0.343552,0.070272,-0.63,6.8775,-9.56375,23.728,-15.336,24.944,eccentric,6,5.0,42946.0,362660.0,107632.0,278.0,-120.0
2026-04-09 22:09:48.510064,233448,1518509877,1518510708,-1.011136,0.382592,0.11712,0.69125,6.965,-10.605001,25.576002,-15.752001,23.208,eccentric,6,5.0,42951.0,362952.0,107840.0,299.0,-141.0
2026-04-09 22:09:48.512466,233449,1518519406,1518521504,-1.011136,0.382592,0.11712,0.04375,7.51625,-13.335,25.576002,-15.752001,23.208,eccentric,6,5.0,42951.0,362952.0,107840.0,299.0,-141.0
2026-04-09 22:09:48.515022,233450,1518534020,1518534355,-1.020896,0.3416,0.109312,-2.485,8.58375,-15.47,25.592001,-15.512001,23.392,eccentric,6,5.0,42951.0,362952.0,107840.0,299.0,-141.0
2026-04-09 22:09:48.517534,233451,1518543348,1518545131,-1.020896,0.3416,0.109312,-5.53875,9.58125,-16.8,25.592001,-15.512001,23.392,eccentric,6,5.0,42951.0,362952.0,107840.0,299.0,-141.0
2026-04-09 22:09:48.587788,233452,1518552274,1518553889,-1.028704,0.347456,0.121024,-4.68125,10.823751,-18.08625,25.36,-15.624001,22.992,concentric,6,5.0,42951.0,362952.0,107840.0,299.0,-141.0
2026-04-09 22:09:48.590106,233453,1518566765,1518568767,-1.046272,0.335744,0.089792,-3.63125,12.845,-18.69,25.784,-14.928,23.152,concentric,6,5.0,42951.0,362952.0,107840.0,299.0,-141.0
2026-04-09 22:09:48.592544,233454,1518575697,1518577539,-1.046272,0.335744,0.089792,-4.48,13.09875,-19.17125,25.784,-14.928,23.152,concentric,6,5.0,42951.0,362952.0,107840.0,299.0,-141.0
2026-04-09 22:09:48.595074,233455,1518584593,1518586274,-1.061888,0.318176,0.074176,-6.25625,12.78375,-19.69625,25.784,-14.928,23.152,concentric,6,5.0,42951.0,362952.0,107840.0,299.0,-141.0
2026-04-09 22:09:48.597473,233456,1518593501,1518594962,-1.05408,0.318176,0.074176,-5.7575,12.9325,-20.76375,25.248001,-14.840001,23.688002,concentric,6,5.0,42951.0,362952.0,107840.0,299.0,-141.0
2026-04-09 22:09:48.622458,233466,1518608107,1518609867,-1.057984,0.374784,0.085888,-2.91375,13.29125,-20.88625,25.384,-14.76,22.720001,concentric,6,5.0,42921.0,364422.0,108993.0,359.0,-132.0
2026-04-09 22:09:48.625075,233467,1518617057,1518618682,-1.057984,0.374784,0.085888,-1.9425,13.5975,-22.09375,25.384,-14.76,22.720001,concentric,6,5.0,42921.0,364422.0,108993.0,359.0,-132.0
2026-04-09 22:09:48.627570,233468,1518625987,1518627419,-1.0736,0.290848,0.052704,-3.50875,13.32625,-24.94625,24.328001,-14.72,23.848001,concentric,6,5.0,42921.0,364422.0,108993.0,359.0,-132.0
2026-04-09 22:09:48.630216,233469,1518640497,1518642397,-1.0736,0.290848,0.052704,-3.2725,12.36375,-26.5475,24.328001,-14.72,23.848001,concentric,6,5.0,42921.0,364422.0,108993.0,359.0,-132.0
2026-04-09 22:09:48.632505,233470,1518649426,1518651111,-1.087264,0.37088,0.113216,1.63625,11.865,-26.915,24.232,-14.6,23.464,concentric,6,5.0,42921.0,364422.0,108993.0,359.0,-132.0
2026-04-09 22:09:48.635008,233471,1518658356,1518659833,-1.087264,0.37088,0.113216,6.71125,12.2675,-28.02625,24.232,-14.6,23.464,concentric,6,5.0,42921.0,364422.0,108993.0,359.0,-132.0
2026-04-09 22:09:48.666351,233472,1518672939,1518674790,-1.05408,0.38064,0.111264,7.98,12.88,-31.17625,24.744001,-14.128,23.592001,concentric,6,5.0,42921.0,364422.0,108993.0,359.0,-132.0
2026-04-09 22:09:48.668802,233473,1518681846,1518683500,-1.05408,0.38064,0.111264,1.89875,14.28875,-34.57125,24.744001,-14.128,23.592001,concentric,6,5.0,42921.0,364422.0,108993.0,359.0,-132.0
2026-04-09 22:09:48.671295,233474,1518690762,1518692185,-1.08336,0.300608,0.060512,-1.855,15.575,-36.4525,25.288002,-14.304001,21.76,concentric,6,5.0,42921.0,364422.0,108993.0,359.0,-132.0
2026-04-09 22:09:48.701257,233484,1518705300,1518707873,-1.069696,0.335744,0.046848,-1.5925,16.10875,-36.4875,25.288002,-13.432001,21.36,concentric,6,5.0,42933.0,366417.0,110445.0,463.0,-142.0
2026-04-09 22:09:48.703758,233485,1518714330,1518716667,-1.069696,0.335744,0.046848,0.77875,15.575,-35.1225,25.024002,-13.432001,21.36,concentric,6,5.0,42933.0,366417.0,110445.0,463.0,-142.0
2026-04-09 22:09:48.706291,233486,1518723314,1518725371,-1.069696,0.335744,0.046848,1.63625,13.74625,-35.60375,25.024002,-13.432001,21.36,concentric,6,5.0,42933.0,366417.0,110445.0,463.0,-142.0
2026-04-09 22:09:48.708780,233487,1518732292,1518734081,-1.087264,0.347456,0.03904,1.40875,12.90625,-37.73,24.776001,-13.504001,20.424002,concentric,6,5.0,42933.0,366417.0,110445.0,463.0,-142.0
2026-04-09 22:09:48.742983,233488,1518746780,1518749092,-1.059936,0.398208,0.12688,3.5175,13.3875,-39.3225,25.016,-13.080001,23.168001,concentric,6,5.0,42933.0,366417.0,110445.0,463.0,-142.0
2026-04-09 22:09:48.746950,233489,1518755684,1518757784,-1.059936,0.398208,0.12688,6.51875,14.51625,-41.64125,25.016,-13.080001,23.168001,concentric,6,5.0,42933.0,366417.0,110445.0,463.0,-142.0
2026-04-09 22:09:48.748744,233490,1518764608,1518766488,-1.059936,0.398208,0.12688,6.65875,16.8,-44.5375,25.016,-13.080001,23.168001,concentric,6,5.0,42933.0,366417.0,110445.0,463.0,-142.0
2026-04-09 22:09:48.752489,233491,1518779084,1518781401,-1.065792,0.394304,0.095648,4.31375,18.0075,-48.195,25.28,-13.304001,20.088001,concentric,6,5.0,42933.0,366417.0,110445.0,463.0,-142.0
2026-04-09 22:09:48.782751,233492,1518788076,1518790166,-1.09312,0.339648,0.0488,-1.155,20.15125,-51.68625,24.648,-12.008,20.712002,concentric,6,5.0,42933.0,366417.0,110445.0,463.0,-142.0
2026-04-09 22:09:48.786261,233493,1518796993,1518798856,-1.09312,0.339648,0.0488,-1.89875,21.3675,-52.2375,24.648,-12.008,20.712002,concentric,6,5.0,42933.0,366417.0,110445.0,463.0,-142.0
2026-04-09 22:09:48.848818,233504,1518811568,1518812257,-1.104832,0.394304,0.062464,-0.09625,22.19875,-52.50875,24.544,-12.168,20.128,concentric,6,5.0,43074.0,366077.0,110142.0,432.0,-140.0
2026-04-09 22:09:48.851322,233505,1518821723,1518824043,-1.104832,0.394304,0.062464,-0.945,22.25125,-53.06875,24.544,-12.168,20.128,concentric,6,5.0,43074.0,366077.0,110142.0,432.0,-140.0
2026-04-09 22:09:48.891504,233506,1518831033,1518832854,-1.106784,0.363072,0.060512,-4.06,22.4525,-53.7775,21.920002,-12.032001,23.816002,concentric,6,5.0,43074.0,366077.0,110142.0,432.0,-140.0
2026-04-09 22:09:48.895154,233507,1518839986,1518841679,-1.106784,0.363072,0.060512,-5.31125,23.09125,-55.18625,21.920002,-12.032001,23.816002,concentric,6,5.0,43074.0,366077.0,110142.0,432.0,-140.0
2026-04-09 22:09:48.897600,233508,1518854450,1518856580,-1.108736,0.359168,0.042944,-3.675,23.70375,-56.28875,24.464,-11.080001,19.624,concentric,6,5.0,43074.0,366077.0,110142.0,432.0,-140.0
2026-04-09 22:09:48.900122,233509,1518863396,1518865328,-1.108736,0.359168,0.042944,-1.81125,24.7275,-57.86375,24.464,-11.080001,19.624,concentric,6,5.0,43074.0,366077.0,110142.0,432.0,-140.0
2026-04-09 22:09:48.903941,233510,1518872398,1518874101,-1.126304,0.368928,0.080032,-0.35875,25.87375,-58.89625,23.128,-10.496,20.296001,concentric,6,5.0,43074.0,366077.0,110142.0,432.0,-140.0
2026-04-09 22:09:48.905557,233511,1518881332,1518882810,-1.126304,0.368928,0.080032,1.0675,25.4625,-60.103752,23.128,-10.496,20.296001,concentric,6,5.0,43074.0,366077.0,110142.0,432.0,-140.0
2026-04-09 22:09:48.909178,233512,1518895818,1518897713,-1.136064,0.37088,0.06832,0.06125,26.04,-60.83,23.624,-10.352,19.032001,concentric,6,5.0,43074.0,366077.0,110142.0,432.0,-140.0
2026-04-09 22:09:48.942521,233522,1518904814,1518906498,-1.136064,0.37088,0.06832,-2.2225,27.0025,-60.585,23.624,-10.352,19.032001,concentric,6,5.0,42938.0,367933.0,111398.0,532.0,-144.0
2026-04-09 22:09:48.945096,233523,1518913799,1518915202,-1.177056,0.337696,-0.005856,-5.6,26.66125,-61.355,24.208002,-9.984,19.408,concentric,6,5.0,42938.0,367933.0,111398.0,532.0,-144.0
2026-04-09 22:09:48.947660,233524,1518928283,1518930248,-1.155584,0.33184,0.03904,-5.94125,26.5825,-60.515,23.624,-9.904,18.952002,concentric,6,5.0,42938.0,367933.0,111398.0,532.0,-144.0
2026-04-09 22:09:48.953880,233525,1518937221,1518938975,-1.155584,0.33184,0.03904,-3.2375,26.4075,-60.4625,23.624,-9.904,18.952002,concentric,6,5.0,42938.0,367933.0,111398.0,532.0,-144.0
2026-04-09 22:09:48.956341,233526,1518946187,1518947731,-1.16144,0.324032,0.052704,-1.58375,26.4425,-61.1275,23.624,-9.904,19.216002,concentric,6,5.0,42938.0,367933.0,111398.0,532.0,-144.0
2026-04-09 22:09:48.966408,233527,1518960703,1518962666,-1.16144,0.324032,0.052704,-1.1725,27.37875,-61.197502,21.704,-9.528001,19.216002,concentric,6,5.0,42938.0,367933.0,111398.0,532.0,-144.0
2026-04-09 22:09:48.968838,233528,1518969642,1518971388,-1.149728,0.300608,0.050752,-1.53125,28.0175,-60.26125,22.84,-9.832001,18.336,concentric,6,5.0,42938.0,367933.0,111398.0,532.0,-144.0
2026-04-09 22:09:48.971311,233529,1518978579,1518980155,-1.149728,0.300608,0.050752,-1.505,28.3325,-58.68625,22.84,-9.832001,18.336,concentric,6,5.0,42938.0,367933.0,111398.0,532.0,-144.0
2026-04-09 22:09:48.973876,233530,1518993085,1518995085,-1.165344,0.290848,-0.011712,-1.93375,27.72875,-56.84875,21.336,-8.816,16.888,concentric,6,5.0,42938.0,367933.0,111398.0,532.0,-144.0
2026-04-09 22:09:48.976382,233531,1519002052,1519003864,-1.165344,0.290848,-0.011712,-2.44125,26.95875,-55.23875,21.336,-8.816,16.888,concentric,6,5.0,42938.0,367933.0,111398.0,532.0,-144.0
2026-04-09 22:09:49.018842,233541,1519011162,1519012664,-1.145824,0.2928,-0.001952,-1.5575,26.69625,-53.52375,21.176,-8.56,18.992,concentric,6,5.0,42724.0,370330.0,112887.0,653.0,-145.0
2026-04-09 22:09:49.021345,233542,1519020317,1519021386,-1.145824,0.2928,-0.001952,-1.225,26.15375,-54.6175,21.176,-8.56,18.992,concentric,6,5.0,42724.0,370330.0,112887.0,653.0,-145.0
2026-04-09 22:09:49.023907,233543,1519034846,1519036266,-1.157536,0.271328,-0.005856,-0.28875,25.13875,-53.3225,21.888,-8.64,17.488,concentric,6,5.0,42724.0,370330.0,112887.0,653.0,-145.0
2026-04-09 22:09:49.026348,233544,1519043807,1519044983,-1.157536,0.271328,-0.005856,0.5425,23.82625,-51.4675,21.888,-8.64,17.488,concentric,6,5.0,42724.0,370330.0,112887.0,653.0,-145.0
2026-04-09 22:09:49.028810,233545,1519052759,1519053711,-1.139968,0.271328,-0.01952,0.77,22.645,-49.5775,21.312,-8.400001,18.28,concentric,6,5.0,42724.0,370330.0,112887.0,653.0,-145.0
2026-04-09 22:09:49.058998,233546,1519067307,1519068675,-1.124352,0.314272,0.015616,2.37125,22.40875,-48.25625,21.944,-8.048,17.976002,concentric,6,5.0,42724.0,370330.0,112887.0,653.0,-145.0
2026-04-09 22:09:49.063354,233547,1519076225,1519077376,-1.124352,0.314272,0.015616,3.605,22.5925,-48.11625,21.944,-8.048,17.976002,concentric,6,5.0,42724.0,370330.0,112887.0,653.0,-145.0
2026-04-09 22:09:49.065154,233548,1519085307,1519086082,-1.124352,0.314272,0.015616,2.30125,23.3625,-48.6325,21.944,-8.048,17.976002,concentric,6,5.0,42724.0,370330.0,112887.0,653.0,-145.0
2026-04-09 22:09:49.067632,233549,1519094698,1519096854,-1.108736,0.286944,0.021472,-0.21875,25.50625,-51.86125,21.36,-8.208,16.368,concentric,6,5.0,42724.0,370330.0,112887.0,653.0,-145.0
2026-04-09 22:09:49.130176,233560,1519109690,1519110104,-1.1224,0.27328,-0.044896,-2.07375,26.53,-53.33125,20.28,-7.624001,17.824001,concentric,6,5.0,42836.0,371774.0,114025.0,727.0,-145.0
2026-04-09 22:09:49.132561,233561,1519119032,1519120907,-1.1224,0.27328,-0.044896,-2.3275,25.10375,-52.66625,20.28,-7.624001,17.824001,concentric,6,5.0,42836.0,371774.0,114025.0,727.0,-145.0
2026-04-09 22:09:49.135112,233562,1519127956,1519129597,-1.081408,0.193248,-0.091744,-3.6925,21.70875,-52.9375,20.344002,-7.312,16.104,concentric,6,5.0,42836.0,371774.0,114025.0,727.0,-145.0
2026-04-09 22:09:49.138048,233563,1519136896,1519138282,-1.081408,0.193248,-0.091744,-4.4625,19.39875,-51.68625,20.344002,-7.312,16.104,concentric,6,5.0,42836.0,371774.0,114025.0,727.0,-145.0
2026-04-09 22:09:49.140128,233564,1519151450,1519153272,-1.04432,0.226432,0.001952,-1.365,18.6725,-49.0,20.952002,-6.656,16.04,concentric,6,5.0,42836.0,371774.0,114025.0,727.0,-145.0
2026-04-09 22:09:49.146733,233565,1519160509,1519161989,-1.04432,0.226432,0.001952,2.79125,18.33125,-47.95875,20.952002,-6.656,16.04,concentric,6,5.0,42836.0,371774.0,114025.0,727.0,-145.0
2026-04-09 22:09:49.148968,233566,1519169523,1519170695,-1.069696,0.228384,0.011712,4.0075,18.83,-47.565,20.344002,-6.752,15.936001,concentric,6,5.0,42836.0,371774.0,114025.0,727.0,-145.0
2026-04-09 22:09:49.186528,233567,1519184127,1519185603,-1.069696,0.228384,0.011712,1.8725,19.60875,-47.22375,20.344002,-6.752,15.936001,concentric,6,5.0,42836.0,371774.0,114025.0,727.0,-145.0
2026-04-09 22:09:49.188894,233568,1519193183,1519194311,-1.0736,0.167872,-0.070272,-1.3825,18.66375,-46.4625,20.080002,-6.696,15.912001,concentric,6,5.0,42836.0,371774.0,114025.0,727.0,-145.0
2026-04-09 22:09:49.191396,233569,1519202174,1519203001,-1.0736,0.167872,-0.070272,-0.8225,17.465,-45.045002,20.080002,-6.696,15.912001,concentric,6,5.0,42836.0,371774.0,114025.0,727.0,-145.0
2026-04-09 22:09:49.220476,233579,1519211581,1519213828,-1.095072,0.18544,-0.037088,2.84375,15.39125,-43.96875,20.144001,-6.768,15.312,concentric,6,5.0,43021.0,369135.0,112268.0,574.0,-146.0
2026-04-09 22:09:49.222861,233580,1519226265,1519226676,-1.095072,0.18544,-0.037088,7.56875,16.05625,-42.62125,20.144001,-6.768,15.312,concentric,6,5.0,43021.0,369135.0,112268.0,574.0,-146.0
2026-04-09 22:09:49.225777,233581,1519235597,1519237592,-1.0736,0.18544,0.033184,7.88375,17.3075,-42.0,18.776001,-6.224001,17.016,concentric,6,5.0,43021.0,369135.0,112268.0,574.0,-146.0
2026-04-09 22:09:49.227561,233582,1519244544,1519246302,-1.0736,0.18544,0.033184,3.255,18.78625,-41.79,18.776001,-6.224001,17.016,concentric,6,5.0,43021.0,369135.0,112268.0,574.0,-146.0
2026-04-09 22:09:49.232562,233583,1519259070,1519261292,-1.071648,0.152256,-0.011712,-0.245,19.6175,-41.9475,19.12,-6.64,16.064001,concentric,6,5.0,43021.0,369135.0,112268.0,574.0,-146.0
2026-04-09 22:09:49.242714,233584,1519268177,1519270027,-1.075552,0.160064,-0.072224,-2.14375,19.73125,-41.5275,18.720001,-6.440001,15.984001,concentric,6,5.0,43021.0,369135.0,112268.0,574.0,-146.0
2026-04-09 22:09:49.248943,233585,1519277128,1519278806,-1.075552,0.160064,-0.072224,-0.97125,19.22375,-40.4775,18.720001,-6.440001,15.984001,concentric,6,5.0,43021.0,369135.0,112268.0,574.0,-146.0
2026-04-09 22:09:49.278962,233586,1519286051,1519287538,-1.075552,0.160064,-0.072224,-0.95375,19.92375,-39.9875,18.720001,-6.440001,15.984001,concentric,6,5.0,43021.0,369135.0,112268.0,574.0,-146.0
2026-04-09 22:09:49.282628,233587,1519300507,1519302450,-1.104832,0.122976,-0.01952,-0.74375,21.0175,-38.815,18.672,-5.8,14.416,concentric,6,5.0,43021.0,369135.0,112268.0,574.0,-146.0
2026-04-09 22:09:49.307646,233597,1519309755,1519311210,-1.036512,0.119072,-0.011712,-0.11375,20.5975,-40.0925,18.696001,-6.064,15.288001,concentric,6,5.0,42993.0,368794.0,111939.0,535.0,-131.0
2026-04-09 22:09:49.312588,233598,1519318820,1519319988,-1.036512,0.119072,-0.011712,0.9275,19.39,-40.95,18.696001,-6.064,15.288001,concentric,6,5.0,42993.0,368794.0,111939.0,535.0,-131.0
2026-04-09 22:09:49.315117,233599,1519333424,1519334993,-1.05408,0.132736,-0.05856,-0.44625,17.99,-39.96125,17.632,-5.952,15.872001,concentric,6,5.0,42993.0,368794.0,111939.0,535.0,-131.0
2026-04-09 22:09:49.317597,233600,1519342413,1519343717,-1.05408,0.132736,-0.05856,-0.4025,16.72125,-39.31375,17.632,-5.952,15.872001,concentric,6,5.0,42993.0,368794.0,111939.0,535.0,-131.0
2026-04-09 22:09:49.322595,233601,1519351358,1519352517,-1.077504,0.128832,-0.12688,1.12,15.0675,-39.576252,17.2,-5.88,15.776001,concentric,6,5.0,42993.0,368794.0,111939.0,535.0,-131.0
2026-04-09 22:09:49.356614,233602,1519365870,1519367422,-1.077504,0.128832,-0.12688,-0.35875,13.81625,-39.26125,17.2,-5.88,15.776001,concentric,6,5.0,42993.0,368794.0,111939.0,535.0,-131.0
2026-04-09 22:09:49.360120,233603,1519374823,1519376141,-1.013088,-0.015616,-0.089792,-0.14,11.87375,-39.095,18.448,-5.304,16.68,concentric,6,5.0,42993.0,368794.0,111939.0,535.0,-131.0
2026-04-09 22:09:49.362591,233604,1519383744,1519384834,-1.013088,-0.015616,-0.089792,-0.84,11.3925,-37.96625,18.448,-5.304,16.68,concentric,6,5.0,42993.0,368794.0,111939.0,535.0,-131.0
2026-04-09 22:09:49.366357,233605,1519393953,1519396264,-1.007232,0.037088,-0.035136,4.06875,9.3275,-34.34375,18.384,-5.464,14.176001,concentric,6,5.0,42993.0,368794.0,111939.0,535.0,-131.0
2026-04-09 22:09:49.423887,233615,1519408494,1519409460,-1.042368,0.085888,-0.160064,9.8525,6.685,-31.66625,17.208,-5.512,15.488001,concentric,6,5.0,43176.0,365463.0,109614.0,359.0,-121.0
2026-04-09 22:09:49.426388,233616,1519418531,1519420333,-1.042368,0.085888,-0.160064,10.42125,3.31625,-30.82625,17.208,-5.512,15.488001,concentric,6,5.0,43176.0,365463.0,109614.0,359.0,-121.0
2026-04-09 22:09:49.428976,233617,1519427462,1519429028,-1.042368,0.085888,-0.220576,10.00125,-1.19875,-28.13125,17.208,-5.512,15.488001,concentric,6,5.0,43176.0,365463.0,109614.0,359.0,-121.0
2026-04-09 22:09:49.431304,233618,1519436393,1519437789,-1.081408,0.017568,-0.220576,11.5325,-6.65,-27.92125,18.344002,-5.08,13.952001,concentric,6,5.0,43176.0,365463.0,109614.0,359.0,-121.0
2026-04-09 22:09:49.433914,233619,1519450925,1519452729,-0.981856,-0.037088,-0.07808,14.6125,-11.22625,-28.525,16.68,-5.064,16.376001,concentric,6,5.0,43176.0,365463.0,109614.0,359.0,-121.0
2026-04-09 22:09:49.436387,233620,1519459869,1519461496,-0.981856,-0.037088,-0.07808,18.22625,-13.36125,-25.92625,16.68,-5.064,16.376001,concentric,6,5.0,43176.0,365463.0,109614.0,359.0,-121.0
2026-04-09 22:09:49.440353,233621,1519468801,1519470258,-0.977952,0.01952,0.003904,20.2125,-14.1925,-25.445,18.088001,-4.816001,13.984,concentric,6,5.0,43176.0,365463.0,109614.0,359.0,-121.0
2026-04-09 22:09:49.484148,233622,1519477720,1519478964,-0.977952,0.01952,0.003904,19.7925,-12.705,-23.4675,18.088001,-4.816001,13.984,concentric,6,5.0,43176.0,365463.0,109614.0,359.0,-121.0
2026-04-09 22:09:49.487700,233623,1519492180,1519493898,-1.001376,0.101504,-0.095648,19.705,-10.96375,-21.34125,18.192001,-4.824,14.272,concentric,6,5.0,43176.0,365463.0,109614.0,359.0,-121.0
2026-04-09 22:09:49.490137,233624,1519501095,1519502591,-1.001376,0.101504,-0.095648,19.5125,-9.1875,-21.88375,18.192001,-4.824,14.272,concentric,6,5.0,43176.0,365463.0,109614.0,359.0,-121.0
2026-04-09 22:09:49.524010,233635,1519510554,1519511382,-0.940864,-0.064416,-0.052704,14.7175,-6.23875,-25.235,17.880001,-4.464,14.504001,concentric,6,5.0,43363.0,362110.0,107278.0,193.0,-126.0
2026-04-09 22:09:49.526380,233636,1519525827,1519526293,-0.940864,-0.064416,-0.052704,7.06125,-4.1125,-27.685,17.880001,-4.464,14.504001,concentric,6,5.0,43363.0,362110.0,107278.0,193.0,-126.0
2026-04-09 22:09:49.528844,233637,1519535169,1519537062,-1.016992,0.066368,-0.033184,6.615,-0.28,-24.4475,16.752,-5.024,15.288001,concentric,6,5.0,43363.0,362110.0,107278.0,193.0,-126.0
2026-04-09 22:09:49.531462,233638,1519544106,1519545771,-1.016992,0.066368,-0.033184,9.905,2.16125,-21.37625,16.752,-5.024,15.288001,concentric,6,5.0,43363.0,362110.0,107278.0,193.0,-126.0
2026-04-09 22:09:49.533880,233639,1519553034,1519554508,-0.935008,0.044896,-0.095648,9.14375,2.58125,-22.44375,17.168001,-4.928001,15.936001,concentric,6,5.0,43363.0,362110.0,107278.0,193.0,-126.0
2026-04-09 22:09:49.540202,233640,1519567530,1519569426,-0.935008,0.044896,-0.095648,5.03125,3.325,-25.4975,17.168001,-4.928001,15.936001,concentric,6,5.0,43363.0,362110.0,107278.0,193.0,-126.0
2026-04-09 22:09:49.570439,233641,1519576440,1519578138,-0.94672,-0.091744,-0.099552,0.5075,4.78625,-27.81625,17.6,-4.048,14.832001,concentric,6,5.0,43363.0,362110.0,107278.0,193.0,-126.0
2026-04-09 22:09:49.574013,233642,1519585369,1519586823,-0.94672,-0.091744,-0.099552,1.8375,7.60375,-25.34,17.6,-4.048,14.832001,concentric,6,5.0,43363.0,362110.0,107278.0,193.0,-126.0
2026-04-09 22:09:49.576480,233643,1519599857,1519601732,-0.933056,0.003904,0.023424,5.76625,11.73375,-22.8725,17.720001,-4.24,13.76,concentric,6,5.0,43363.0,362110.0,107278.0,193.0,-126.0
2026-04-09 22:09:49.603871,233653,1519608803,1519610676,-0.940864,0.119072,-0.064416,6.93875,14.9975,-19.87125,17.720001,-4.512,15.248001,concentric,6,5.0,43373.0,361873.0,107264.0,214.0,-137.0
2026-04-09 22:09:49.606414,233654,1519617795,1519619391,-0.940864,0.119072,-0.064416,5.97625,15.505,-18.0775,16.08,-4.512,15.248001,concentric,6,5.0,43373.0,361873.0,107264.0,214.0,-137.0
2026-04-09 22:09:49.608905,233655,1519632303,1519634354,-0.905728,-0.095648,-0.099552,-0.35875,12.74,-20.72875,16.312,-4.424,15.56,concentric,6,5.0,43373.0,361873.0,107264.0,214.0,-137.0
2026-04-09 22:09:49.613930,233656,1519641232,1519643052,-0.905728,-0.095648,-0.099552,-9.33625,11.6725,-25.366251,16.312,-4.424,15.56,concentric,6,5.0,43373.0,361873.0,107264.0,214.0,-137.0
2026-04-09 22:09:49.644226,233657,1519650151,1519651744,-0.894016,-0.060512,-0.02928,-7.9625,12.9325,-24.7275,16.320002,-3.864,17.640001,concentric,6,5.0,43373.0,361873.0,107264.0,214.0,-137.0
2026-04-09 22:09:49.647740,233658,1519659134,1519660494,-0.894016,-0.060512,-0.02928,2.12625,15.25125,-19.53875,16.320002,-3.864,17.640001,concentric,6,5.0,43373.0,361873.0,107264.0,214.0,-137.0
2026-04-09 22:09:49.650209,233659,1519673628,1519675430,-0.935008,0.080032,-0.099552,7.315,16.91375,-15.7325,17.256,-4.056,13.568001,concentric,6,5.0,43373.0,361873.0,107264.0,214.0,-137.0
2026-04-09 22:09:49.655202,233660,1519682548,1519684122,-0.935008,0.080032,-0.099552,5.88875,15.3125,-13.83375,17.256,-4.056,13.568001,concentric,6,5.0,43373.0,361873.0,107264.0,214.0,-137.0
2026-04-09 22:09:49.685453,233661,1519691476,1519692837,-0.9272,-0.027328,-0.128832,-0.3325,10.92,-14.4375,16.76,-4.448,14.880001,concentric,6,5.0,43373.0,361873.0,107264.0,214.0,-137.0
2026-04-09 22:09:49.692760,233662,1519705943,1519707735,-0.9272,-0.027328,-0.128832,-4.75125,7.8575,-15.33,16.76,-4.448,14.880001,concentric,6,5.0,43373.0,361873.0,107264.0,214.0,-137.0
2026-04-09 22:09:49.717637,233672,1519714968,1519716532,-0.921344,-0.033184,-0.046848,0.56,5.8625,-14.25375,16.2,-3.84,13.872001,concentric,6,5.0,43500.0,359623.0,105782.0,143.0,-133.0
2026-04-09 22:09:49.720288,233673,1519723918,1519725317,-0.921344,-0.033184,-0.046848,6.23875,7.77,-12.635,16.2,-3.84,13.872001,concentric,6,5.0,43500.0,359623.0,105782.0,143.0,-133.0
2026-04-09 22:09:49.725228,233674,1519738548,1519740258,-0.892064,-0.054656,-0.023424,7.28875,8.12,-8.225,17.056002,-3.984,13.920001,concentric,6,5.0,43500.0,359623.0,105782.0,143.0,-133.0
2026-04-09 22:09:49.727643,233675,1519747477,1519748971,-0.892064,-0.054656,-0.023424,3.605,5.5475,-6.58,17.056002,-3.984,13.920001,concentric,6,5.0,43500.0,359623.0,105782.0,143.0,-133.0
2026-04-09 22:09:49.730207,233676,1519756469,1519757676,-1.009184,0.037088,-0.064416,1.4175,4.22625,-3.0975,16.864,-4.216,14.008,concentric,6,5.0,43500.0,359623.0,105782.0,143.0,-133.0
2026-04-09 22:09:49.736603,233677,1519765425,1519766418,-1.009184,0.037088,-0.064416,4.10375,3.36,-0.56875,16.864,-4.216,14.008,concentric,6,5.0,43500.0,359623.0,105782.0,143.0,-133.0
