pc_time,serial_num,sensor_ts,host_ts,ax,ay,az,gx,gy,gz,mx,my,mz,phase,rpe,weight_kg,ppg_a,ppg_b,ppg_c,ppg_d,ppg_e
2026-04-07 18:11:43.015999,475160,2573300662,2573302455,0.755424,-0.081984,-0.417728,-0.06125,-67.6025,10.3425,-5.768,-12.304001,13.024,none,5,3.0,56701.0,403431.0,403431.0,403431.0,403431.0
2026-04-07 18:11:43.020325,475161,2573309640,2573311179,0.876448,-0.11712,-0.44896,-3.70125,-65.93125,8.9425,-5.176,-11.992001,12.528001,none,5,3.0,56701.0,403431.0,403431.0,403431.0,403431.0
2026-04-07 18:11:43.021997,475162,2573318571,2573319908,0.876448,-0.11712,-0.44896,-11.33125,-64.35625,5.9675,-5.176,-11.992001,12.528001,none,5,3.0,56701.0,403431.0,403431.0,403431.0,403431.0
2026-04-07 18:11:43.024540,475163,2573333090,2573334920,0.88816,-0.103456,-0.411872,-21.945,-60.8475,0.41125,-4.992,-12.120001,12.696001,none,5,3.0,56701.0,403431.0,403431.0,403431.0,403431.0
2026-04-07 18:11:43.026074,475164,2573342029,2573343630,0.88816,-0.103456,-0.411872,-29.37375,-57.2775,-5.50375,-4.992,-12.120001,12.696001,none,5,3.0,56701.0,403431.0,403431.0,403431.0,403431.0
2026-04-07 18:11:43.034103,475165,2573350955,2573352343,0.821792,-0.163968,-0.427488,-31.745,-54.83625,-8.02375,-4.552,-12.336,11.904,none,5,3.0,56701.0,403431.0,403431.0,403431.0,403431.0
2026-04-07 18:11:43.035769,475166,2573365441,2573367223,0.821792,-0.163968,-0.427488,-28.14875,-54.8275,-8.417501,-4.552,-12.336,11.904,none,5,3.0,56701.0,403431.0,403431.0,403431.0,403431.0
2026-04-07 18:11:43.037292,475167,2573374359,2573375922,0.8296,-0.257664,-0.495808,-19.38125,-55.4225,-9.765,-4.36,-12.304001,13.512001,none,5,3.0,56701.0,403431.0,403431.0,403431.0,403431.0
2026-04-07 18:11:43.041390,475168,2573383299,2573384633,0.8296,-0.257664,-0.495808,-7.21,-55.86875,-11.55,-4.36,-12.304001,13.512001,none,5,3.0,56701.0,403431.0,403431.0,403431.0,403431.0
2026-04-07 18:11:43.074861,475179,2573398434,2573399910,0.817888,-0.22448,-0.548512,4.27,-55.2475,-12.88875,-4.248,-12.496,11.536,none,5,3.0,55725.0,403431.0,403431.0,403431.0,403431.0
2026-04-07 18:11:43.077324,475180,2573407645,2573408651,0.817888,-0.177632,-0.552416,12.01375,-54.81875,-13.15125,-4.248,-12.496,11.536,none,5,3.0,55725.0,403431.0,403431.0,403431.0,403431.0
2026-04-07 18:11:43.079844,475181,2573416570,2573417398,0.76128,-0.177632,-0.552416,11.62875,-54.04875,-14.55125,-3.968,-12.848001,11.264001,none,5,3.0,55725.0,403431.0,403431.0,403431.0,403431.0
2026-04-07 18:11:43.082302,475182,2573425501,2573426202,0.76128,-0.177632,-0.552416,4.41875,-53.31375,-16.205,-3.968,-12.848001,11.264001,none,5,3.0,55725.0,403431.0,403431.0,403431.0,403431.0
2026-04-07 18:11:43.088834,475183,2573440399,2573441143,0.687104,-0.160064,-0.544608,-1.4875,-51.6775,-18.366251,-3.848,-12.872001,11.544001,none,5,3.0,55725.0,403431.0,403431.0,403431.0,403431.0
2026-04-07 18:11:43.094826,475184,2573449762,2573451944,0.651968,-0.089792,-0.515328,-2.03,-50.8025,-19.36375,-3.152,-12.664001,12.408001,none,5,3.0,55725.0,403431.0,403431.0,403431.0,403431.0
2026-04-07 18:11:43.100956,475185,2573458734,2573460670,0.651968,-0.089792,-0.515328,2.54625,-50.26875,-18.15625,-3.152,-12.664001,12.408001,none,5,3.0,55725.0,403431.0,403431.0,403431.0,403431.0
2026-04-07 18:11:43.131197,475186,2573467740,2573469418,0.651968,-0.089792,-0.571936,8.07625,-48.65,-16.42375,-3.152,-12.664001,12.408001,none,5,3.0,55725.0,403431.0,403431.0,403431.0,403431.0
2026-04-07 18:11:43.134850,475187,2573482270,2573484324,0.628544,-0.06832,-0.571936,11.55875,-47.8625,-13.99125,-2.56,-12.816001,10.88,none,5,3.0,55725.0,403431.0,403431.0,403431.0,403431.0
2026-04-07 18:11:43.137268,475188,2573491202,2573493035,0.640256,-0.134688,-0.628544,11.34,-46.9525,-11.235,-2.032,-12.056001,9.656,none,5,3.0,55725.0,403431.0,403431.0,403431.0,403431.0
2026-04-07 18:11:43.168597,475198,2573500315,2573501856,0.640256,-0.134688,-0.628544,9.292501,-45.7275,-8.05,-2.032,-12.056001,9.656,none,5,3.0,54320.0,403431.0,403431.0,403431.0,403431.0
2026-04-07 18:11:43.170995,475199,2573514858,2573516839,0.669536,-0.230336,-0.648064,4.34875,-45.03625,-6.57125,-2.752,-12.528001,9.736,none,5,3.0,54320.0,403431.0,403431.0,403431.0,403431.0
2026-04-07 18:11:43.173552,475200,2573523919,2573525590,0.669536,-0.230336,-0.648064,-2.6075,-44.9225,-7.11375,-2.752,-12.528001,9.736,none,5,3.0,54320.0,403431.0,403431.0,403431.0,403431.0
2026-04-07 18:11:43.179757,475201,2573532941,2573534302,0.651968,-0.208864,-0.609024,-6.08125,-45.115,-6.86,-2.096,-12.648001,11.008,none,5,3.0,54320.0,403431.0,403431.0,403431.0,403431.0
2026-04-07 18:11:43.184804,475202,2573541849,2573542980,0.651968,-0.208864,-0.609024,-5.97625,-45.01,-6.29125,-2.096,-12.648001,11.008,none,5,3.0,54320.0,403431.0,403431.0,403431.0,403431.0
2026-04-07 18:11:43.217480,475203,2573556351,2573557934,0.638304,-0.179584,-0.591456,-3.71875,-45.35125,-4.515,-1.52,-11.984,10.048,none,5,3.0,54320.0,403431.0,403431.0,403431.0,403431.0
2026-04-07 18:11:43.221275,475204,2573565284,2573566636,0.638304,-0.179584,-0.591456,-4.095,-46.97,-2.135,-1.52,-11.984,10.048,none,5,3.0,54320.0,403431.0,403431.0,403431.0,403431.0
2026-04-07 18:11:43.225115,475205,2573574208,2573575320,0.648064,-0.187392,-0.62464,-6.1425,-48.265,-0.91,-1.016,-11.944,9.368,none,5,3.0,54320.0,403431.0,403431.0,403431.0,403431.0
2026-04-07 18:11:43.253718,475206,2573588737,2573590247,0.669536,-0.181536,-0.6832,-5.4775,-48.85125,-0.245,-1.016,-13.992001,11.920001,none,5,3.0,54320.0,403431.0,403431.0,403431.0,403431.0
2026-04-07 18:11:43.327839,475216,2573597747,2573599006,0.669536,-0.181536,-0.6832,-3.33375,-48.53625,0.0875,-1.44,-12.808001,11.920001,none,5,3.0,53363.0,403431.0,403431.0,403431.0,403431.0
2026-04-07 18:11:43.329549,475217,2573606759,2573607707,0.669536,-0.181536,-0.6832,-3.19375,-48.15125,-1.5575,-1.44,-12.808001,11.920001,none,5,3.0,53363.0,403431.0,403431.0,403431.0,403431.0
2026-04-07 18:11:43.331128,475218,2573621253,2573622632,0.698816,-0.11712,-0.661728,-2.4675,-45.8325,-3.885,-1.704,-12.920001,12.52,none,5,3.0,53363.0,403431.0,403431.0,403431.0,403431.0
2026-04-07 18:11:43.335270,475219,2573630274,2573631403,0.696864,-0.099552,-0.651968,-1.9425,-42.805,-5.4075,-0.28,-12.320001,9.064,none,5,3.0,53363.0,403431.0,403431.0,403431.0,403431.0
2026-04-07 18:11:43.341503,475220,2573639219,2573640172,0.696864,-0.099552,-0.651968,-2.625,-40.34625,-6.55375,-0.28,-12.320001,9.064,none,5,3.0,53363.0,403431.0,403431.0,403431.0,403431.0
2026-04-07 18:11:43.343229,475221,2573653734,2573655078,0.69296,-0.154208,-0.720288,-5.71375,-38.0975,-7.62125,0.728,-11.984,8.440001,none,5,3.0,53363.0,403431.0,403431.0,403431.0,403431.0
2026-04-07 18:11:43.344851,475222,2573662676,2573663747,0.69296,-0.154208,-0.720288,-10.465,-35.44625,-9.4325,0.728,-11.984,8.440001,none,5,3.0,53363.0,403431.0,403431.0,403431.0,403431.0
2026-04-07 18:11:43.349098,475223,2573671609,2573672397,0.677344,-0.191296,-0.728096,-10.99875,-33.60875,-11.725,0.216,-11.992001,8.872001,none,5,3.0,53363.0,403431.0,403431.0,403431.0,403431.0
2026-04-07 18:11:43.350751,475224,2573680515,2573681094,0.677344,-0.191296,-0.728096,-7.5075,-31.4825,-13.11625,0.216,-11.992001,8.872001,none,5,3.0,53363.0,403431.0,403431.0,403431.0,403431.0
2026-04-07 18:11:43.352308,475225,2573695455,2573696076,0.657824,-0.158112,-0.728096,-4.445,-29.9775,-14.315001,1.32,-12.552001,8.848001,none,5,3.0,53363.0,403431.0,403431.0,403431.0,403431.0
2026-04-07 18:11:43.384912,475236,2573704836,2573706952,0.657824,-0.158112,-0.728096,-3.5,-27.46625,-15.74125,1.32,-12.552001,8.848001,none,5,3.0,52205.0,403431.0,403431.0,403431.0,403431.0
2026-04-07 18:11:43.385773,475237,2573713813,2573715648,0.642208,-0.15616,-0.735904,-4.9,-25.445,-16.35375,0.832,-12.480001,9.744,none,5,3.0,52205.0,403431.0,403431.0,403431.0,403431.0
2026-04-07 18:11:43.389031,475238,2573728579,2573730693,0.642208,-0.15616,-0.735904,-9.33625,-23.19625,-16.40625,0.832,-12.480001,9.744,none,5,3.0,52205.0,403431.0,403431.0,403431.0,403431.0
2026-04-07 18:11:43.390747,475239,2573737644,2573739515,0.62464,-0.187392,-0.755424,-13.9825,-21.48125,-17.0975,0.624,-12.936001,7.856,none,5,3.0,52205.0,403431.0,403431.0,403431.0,403431.0
2026-04-07 18:11:43.392303,475240,2573746690,2573748288,0.62464,-0.187392,-0.755424,-17.10625,-20.16875,-17.91125,0.624,-12.936001,7.856,none,5,3.0,52205.0,403431.0,403431.0,403431.0,403431.0
2026-04-07 18:11:43.398114,475241,2573755630,2573757018,0.59536,-0.158112,-0.759328,-18.05125,-19.43375,-18.9875,0.656,-13.152,9.64,none,5,3.0,52205.0,403431.0,403431.0,403431.0,403431.0
2026-04-07 18:11:43.428366,475242,2573770106,2573771929,0.581696,-0.113216,-0.765184,-16.9575,-18.27,-20.18625,1.576,-13.080001,8.272,none,5,3.0,52205.0,403431.0,403431.0,403431.0,403431.0
2026-04-07 18:11:43.432822,475243,2573779033,2573780615,0.581696,-0.113216,-0.765184,-12.81875,-17.36,-20.475,1.576,-13.080001,8.272,none,5,3.0,52205.0,403431.0,403431.0,403431.0,403431.0
2026-04-07 18:11:43.434355,475244,2573787944,2573789347,0.581696,-0.113216,-0.765184,-10.21125,-15.417501,-19.6,1.576,-13.080001,8.272,none,5,3.0,52205.0,403431.0,403431.0,403431.0,403431.0
2026-04-07 18:11:43.462272,475254,2573802690,2573804360,0.577792,-0.142496,-0.77104,-10.605001,-14.175,-18.366251,1.616,-12.848001,5.392,none,5,3.0,50905.0,403431.0,403431.0,403431.0,403431.0
2026-04-07 18:11:43.469099,475255,2573811781,2573813106,0.581696,-0.183488,-0.759328,-13.0375,-14.105001,-17.928751,2.2,-13.528001,7.976,none,5,3.0,50905.0,403431.0,403431.0,403431.0,403431.0
2026-04-07 18:11:43.470784,475256,2573820712,2573821802,0.581696,-0.183488,-0.759328,-16.28375,-13.7725,-16.79125,2.2,-13.528001,7.976,none,5,3.0,50905.0,403431.0,403431.0,403431.0,403431.0
2026-04-07 18:11:43.472282,475257,2573829619,2573830513,0.581696,-0.187392,-0.74176,-18.48,-13.0725,-16.05625,2.2,-13.528001,7.976,none,5,3.0,50905.0,403431.0,403431.0,403431.0,403431.0
2026-04-07 18:11:43.504624,475258,2573844117,2573845487,0.564128,-0.187392,-0.74176,-19.355,-12.3375,-13.74625,1.496,-13.792001,10.552,none,5,3.0,50905.0,403431.0,403431.0,403431.0,403431.0
2026-04-07 18:11:43.509143,475259,2573853029,2573854177,0.55632,-0.177632,-0.714432,-20.74625,-13.5275,-11.55875,1.68,-13.6,8.032001,none,5,3.0,50905.0,403431.0,403431.0,403431.0,403431.0
2026-04-07 18:11:43.510599,475260,2573861947,2573862879,0.55632,-0.177632,-0.714432,-22.6275,-13.755,-9.905,1.68,-13.6,8.032001,none,5,3.0,50905.0,403431.0,403431.0,403431.0,403431.0
2026-04-07 18:11:43.542578,475261,2573876455,2573877795,0.56608,-0.154208,-0.700768,-24.0275,-14.2975,-8.225,0.808,-14.328001,9.576,none,5,3.0,50905.0,403431.0,403431.0,403431.0,403431.0
2026-04-07 18:11:43.546074,475262,2573885362,2573886534,0.56608,-0.154208,-0.700768,-25.83875,-13.965,-7.1225,0.808,-14.328001,9.576,none,5,3.0,50905.0,403431.0,403431.0,403431.0,403431.0
2026-04-07 18:11:43.547006,475263,2573894267,2573895238,0.59536,-0.130784,-0.69296,-26.7225,-13.79,-7.9625,2.288,-14.048,7.936,none,5,3.0,50905.0,403431.0,403431.0,403431.0,403431.0
2026-04-07 18:11:43.575409,475273,2573908927,2573910208,0.59536,-0.130784,-0.69296,-27.5625,-13.4225,-10.22875,2.288,-14.048,7.936,none,5,3.0,49834.0,403431.0,403431.0,403431.0,403431.0
2026-04-07 18:11:43.610847,475274,2573917889,2573918981,0.59536,-0.064416,-0.67344,-25.75125,-13.9125,-12.97625,2.192,-14.328001,8.480001,none,5,3.0,49834.0,403431.0,403431.0,403431.0,403431.0
2026-04-07 18:11:43.615339,475275,2573926893,2573927784,0.59536,-0.064416,-0.67344,-23.14375,-13.58,-14.23625,2.192,-14.328001,8.480001,none,5,3.0,49834.0,403431.0,403431.0,403431.0,403431.0
2026-04-07 18:11:43.617126,475276,2573941389,2573942726,0.569984,-0.021472,-0.689056,-19.4425,-14.46375,-15.5225,2.456,-14.248001,7.440001,none,5,3.0,49834.0,403431.0,403431.0,403431.0,403431.0
2026-04-07 18:11:43.619469,475277,2573950318,2573951450,0.5856,-0.037088,-0.724192,-15.47,-15.5575,-17.00125,2.456,-14.248001,9.856001,none,5,3.0,49834.0,403431.0,403431.0,403431.0,403431.0
2026-04-07 18:11:43.621029,475278,2573959227,2573960167,0.577792,-0.037088,-0.724192,-14.0175,-15.88125,-17.66625,2.32,-14.592001,9.856001,none,5,3.0,49834.0,403431.0,403431.0,403431.0,403431.0
2026-04-07 18:11:43.625384,475279,2573968142,2573968884,0.577792,-0.037088,-0.724192,-13.51875,-16.625,-18.0425,2.32,-14.592001,9.856001,none,5,3.0,49834.0,403431.0,403431.0,403431.0,403431.0
2026-04-07 18:11:43.626982,475280,2573983171,2573983809,0.57584,-0.0976,-0.737856,-13.5275,-17.00125,-17.64875,3.072,-14.68,8.168,none,5,3.0,49834.0,403431.0,403431.0,403431.0,403431.0
2026-04-07 18:11:43.660972,475281,2573992498,2573994613,0.573888,-0.12688,-0.763232,-13.755,-17.91125,-16.59875,2.424,-14.712001,11.712001,none,5,3.0,49834.0,403431.0,403431.0,403431.0,403431.0
2026-04-07 18:11:43.691036,475292,2574002081,2574003381,0.573888,-0.12688,-0.763232,-12.7225,-18.97875,-16.30125,2.424,-14.712001,11.712001,none,5,3.0,48892.0,403431.0,403431.0,403431.0,403431.0
2026-04-07 18:11:43.695297,475293,2574011046,2574012077,0.54656,-0.06832,-0.77104,-10.3775,-18.55875,-15.89,2.408,-14.960001,9.320001,none,5,3.0,48892.0,403431.0,403431.0,403431.0,403431.0
2026-04-07 18:11:43.697067,475294,2574025492,2574026990,0.54656,-0.06832,-0.77104,-8.2775,-17.78875,-15.505,2.408,-14.960001,9.320001,none,5,3.0,48892.0,403431.0,403431.0,403431.0,403431.0
2026-04-07 18:11:43.698544,475295,2574034401,2574035703,0.552416,-0.042944,-0.786656,-5.83625,-17.1675,-13.92125,2.552,-14.936001,9.192,none,5,3.0,48892.0,403431.0,403431.0,403431.0,403431.0
2026-04-07 18:11:43.703003,475296,2574043519,2574044472,0.552416,-0.042944,-0.786656,-5.57375,-16.03,-12.59125,2.552,-14.936001,9.192,none,5,3.0,48892.0,403431.0,403431.0,403431.0,403431.0
2026-04-07 18:11:43.704568,475297,2574057993,2574059421,0.552416,-0.091744,-0.804224,-6.69375,-14.27125,-11.41,2.72,-15.128,8.64,none,5,3.0,48892.0,403431.0,403431.0,403431.0,403431.0
2026-04-07 18:11:43.709337,475298,2574066927,2574068152,0.552416,-0.091744,-0.804224,-7.37625,-13.30875,-9.87875,2.72,-15.128,8.64,none,5,3.0,48892.0,403431.0,403431.0,403431.0,403431.0
2026-04-07 18:11:43.738617,475299,2574075929,2574076837,0.54656,-0.095648,-0.786656,-6.71125,-13.25625,-8.82,3.008,-15.048,8.016001,none,5,3.0,48892.0,403431.0,403431.0,403431.0,403431.0
2026-04-07 18:11:43.742283,475300,2574090384,2574091759,0.54656,-0.095648,-0.786656,-5.46,-12.88,-8.0675,3.008,-15.048,8.016001,none,5,3.0,48892.0,403431.0,403431.0,403431.0,403431.0
2026-04-07 18:11:43.769035,475310,2574099357,2574100505,0.523136,-0.085888,-0.778848,-4.6725,-12.6525,-7.21875,3.096,-14.712001,7.32,none,5,3.0,48600.0,403431.0,403431.0,403431.0,403431.0
2026-04-07 18:11:43.772182,475311,2574108351,2574109262,0.523136,-0.085888,-0.778848,-5.46,-13.20375,-6.5975,3.096,-14.712001,7.32,none,5,3.0,48600.0,403431.0,403431.0,403431.0,403431.0
2026-04-07 18:11:43.777792,475312,2574117281,2574118029,0.51728,-0.076128,-0.757376,-6.51,-14.35,-6.62375,3.376,-15.480001,8.120001,none,5,3.0,48600.0,403431.0,403431.0,403431.0,403431.0
2026-04-07 18:11:43.780239,475313,2574132218,2574132943,0.511424,-0.054656,-0.755424,-6.79875,-15.61,-6.0375,3.112,-14.864,7.672,none,5,3.0,48600.0,403431.0,403431.0,403431.0,403431.0
2026-04-07 18:11:43.783620,475314,2574141563,2574143726,0.511424,-0.054656,-0.755424,-5.69625,-16.73,-5.6175,3.112,-14.864,7.672,none,5,3.0,48600.0,403431.0,403431.0,403431.0,403431.0
2026-04-07 18:11:43.814664,475315,2574150508,2574152430,0.511424,-0.054656,-0.755424,-4.34875,-16.94,-5.88875,3.112,-14.864,7.672,none,5,3.0,48600.0,403431.0,403431.0,403431.0,403431.0
2026-04-07 18:11:43.816956,475316,2574164967,2574165274,0.521184,-0.03904,-0.759328,-3.36875,-18.06875,-6.27375,3.168,-14.848001,7.56,none,5,3.0,48600.0,403431.0,403431.0,403431.0,403431.0
2026-04-07 18:11:43.821465,475317,2574174127,2574176042,0.542656,-0.023424,-0.755424,-2.1175,-18.69875,-7.805,3.56,-15.040001,7.792,none,5,3.0,48600.0,403431.0,403431.0,403431.0,403431.0
2026-04-07 18:11:43.825642,475318,2574183076,2574184769,0.542656,-0.023424,-0.755424,1.4,-19.66125,-9.975,3.56,-15.040001,7.792,none,5,3.0,48600.0,403431.0,403431.0,403431.0,403431.0
2026-04-07 18:11:43.855934,475319,2574191994,2574193466,0.558272,0.003904,-0.749568,5.4775,-19.5825,-10.605001,4.136,-15.224001,7.688,none,5,3.0,48600.0,403431.0,403431.0,403431.0,403431.0
2026-04-07 18:11:43.943530,475329,2574206577,2574208388,0.558272,0.003904,-0.749568,7.67375,-19.06625,-11.6725,4.136,-15.224001,7.688,none,5,3.0,48526.0,403431.0,403431.0,403431.0,403431.0
2026-04-07 18:11:43.950453,475330,2574215508,2574217059,0.544608,-0.072224,-0.757376,5.1625,-18.29625,-12.4425,4.16,-15.368001,7.168,none,5,3.0,48526.0,403431.0,403431.0,403431.0,403431.0
2026-04-07 18:11:43.952009,475331,2574224581,2574225821,0.544608,-0.072224,-0.757376,0.88375,-18.90875,-12.7575,4.16,-15.368001,7.168,none,5,3.0,48526.0,403431.0,403431.0,403431.0,403431.0
2026-04-07 18:11:43.953217,475332,2574239029,2574240884,0.525088,-0.111264,-0.757376,-0.41125,-19.495,-13.58,4.384,-15.064001,8.752001,none,5,3.0,48526.0,403431.0,403431.0,403431.0,403431.0
2026-04-07 18:11:43.961596,475333,2574248107,2574249577,0.525088,-0.111264,-0.757376,1.09375,-19.94125,-14.6125,4.384,-15.064001,8.752001,none,5,3.0,48526.0,403431.0,403431.0,403431.0,403431.0
2026-04-07 18:11:43.963317,475334,2574257050,2574258261,0.515328,-0.05856,-0.757376,3.64875,-20.772501,-16.485,4.928001,-14.504001,6.824,none,5,3.0,48526.0,403431.0,403431.0,403431.0,403431.0
2026-04-07 18:11:43.964902,475335,2574271559,2574273105,0.515328,-0.042944,-0.772992,4.9875,-20.755,-17.7275,4.928001,-14.504001,6.824,none,5,3.0,48526.0,403431.0,403431.0,403431.0,403431.0
2026-04-07 18:11:43.970354,475336,2574280511,2574281796,0.513376,-0.03904,-0.772992,4.7425,-20.7375,-18.5325,4.56,-15.240001,7.552001,none,5,3.0,48526.0,403431.0,403431.0,403431.0,403431.0
2026-04-07 18:11:43.970390,475337,2574289428,2574290504,0.513376,-0.03904,-0.772992,3.7275,-20.86875,-19.678751,4.56,-15.240001,7.552001,none,5,3.0,48526.0,403431.0,403431.0,403431.0,403431.0
2026-04-07 18:11:43.974068,475338,2574298361,2574299189,0.493856,-0.056608,-0.784704,2.1,-20.60625,-20.57125,4.584,-15.120001,7.088,none,5,3.0,48526.0,403431.0,403431.0,403431.0,403431.0
2026-04-07 18:11:43.999716,475349,2574312899,2574314169,0.462624,-0.031232,-0.796416,0.77875,-21.02625,-21.2275,4.824,-15.040001,9.928,none,5,3.0,48426.0,403431.0,403431.0,403431.0,403431.0
2026-04-07 18:11:44.002271,475350,2574322010,2574322954,0.462624,-0.031232,-0.796416,-0.49,-21.30625,-22.35625,4.824,-15.040001,9.928,none,5,3.0,48426.0,403431.0,403431.0,403431.0,403431.0
2026-04-07 18:11:44.004778,475351,2574331093,2574331876,0.462624,-0.031232,-0.796416,0.1925,-22.00625,-23.1525,4.824,-15.040001,9.928,none,5,3.0,48426.0,403431.0,403431.0,403431.0,403431.0
2026-04-07 18:11:44.007303,475352,2574346304,2574346865,0.454816,-0.017568,-0.798368,1.3475,-22.295,-23.1,4.56,-15.288001,8.032001,none,5,3.0,48426.0,403431.0,403431.0,403431.0,403431.0
2026-04-07 18:11:44.009722,475353,2574355883,2574357679,0.447008,-0.03904,-0.813984,1.855,-23.10875,-22.23375,4.824,-15.496,8.416,none,5,3.0,48426.0,403431.0,403431.0,403431.0,403431.0
2026-04-07 18:11:44.012232,475354,2574364869,2574366402,0.447008,-0.03904,-0.813984,-0.0525,-23.1525,-22.2075,4.824,-15.496,8.416,none,5,3.0,48426.0,403431.0,403431.0,403431.0,403431.0
2026-04-07 18:11:44.014703,475355,2574373853,2574375149,0.466528,-0.042944,-0.833504,-2.485,-23.80875,-23.1175,4.816001,-15.360001,11.248,none,5,3.0,48426.0,403431.0,403431.0,403431.0,403431.0
2026-04-07 18:11:44.045030,475356,2574388364,2574390122,0.466528,-0.042944,-0.833504,-3.85,-24.43,-23.4675,4.816001,-15.360001,11.248,none,5,3.0,48426.0,403431.0,403431.0,403431.0,403431.0
2026-04-07 18:11:44.048531,475357,2574397294,2574398823,0.44896,-0.023424,-0.815936,-2.6775,-24.15,-23.1525,5.728,-15.024001,6.064,none,5,3.0,48426.0,403431.0,403431.0,403431.0,403431.0
2026-04-07 18:11:44.078451,475367,2574406282,2574407561,0.44896,-0.023424,-0.815936,-1.155,-23.7825,-22.82,5.728,-15.024001,6.064,none,5,3.0,48275.0,403431.0,403431.0,403431.0,403431.0
2026-04-07 18:11:44.081004,475368,2574421017,2574422560,0.4392,0.0,-0.835456,-0.4025,-24.43,-22.37375,5.536,-15.416,6.992,none,5,3.0,48275.0,403431.0,403431.0,403431.0,403431.0
2026-04-07 18:11:44.083481,475369,2574430068,2574431325,0.4392,0.0,-0.835456,-1.35625,-23.8175,-21.58625,5.536,-15.416,6.992,none,5,3.0,48275.0,403431.0,403431.0,403431.0,403431.0
2026-04-07 18:11:44.085981,475370,2574439067,2574440071,0.431392,0.013664,-0.853024,-2.16125,-23.52875,-21.385,6.416,-15.192,6.576,none,5,3.0,48275.0,403431.0,403431.0,403431.0,403431.0
2026-04-07 18:11:44.089713,475371,2574448099,2574448776,0.431392,0.013664,-0.853024,-2.51125,-24.0275,-21.3675,6.416,-15.192,6.576,none,5,3.0,48275.0,403431.0,403431.0,403431.0,403431.0
2026-04-07 18:11:44.121052,475372,2574462958,2574463703,0.437248,0.011712,-0.85888,-3.29,-24.38625,-21.42,5.960001,-15.656001,6.672,none,5,3.0,48275.0,403431.0,403431.0,403431.0,403431.0
2026-04-07 18:11:44.123545,475373,2574472294,2574474464,0.437248,0.011712,-0.85888,-2.94,-24.01,-21.27125,5.960001,-15.656001,6.672,none,5,3.0,48275.0,403431.0,403431.0,403431.0,403431.0
2026-04-07 18:11:44.125975,475374,2574481257,2574483171,0.431392,0.025376,-0.856928,-2.905,-23.73,-21.34125,6.536,-15.880001,6.896,none,5,3.0,48275.0,403431.0,403431.0,403431.0,403431.0
2026-04-07 18:11:44.156152,475375,2574490211,2574491847,0.431392,0.025376,-0.856928,-2.44125,-23.51125,-21.48125,6.536,-15.880001,6.896,none,5,3.0,48275.0,403431.0,403431.0,403431.0,403431.0
2026-04-07 18:11:44.225804,475385,2574505143,2574506904,0.406016,0.03904,-0.872544,-2.8875,-23.75625,-21.35875,6.344,-15.584001,7.696001,none,5,3.0,47743.0,403431.0,403431.0,403431.0,403431.0
2026-04-07 18:11:44.227392,475386,2574514095,2574515596,0.407968,0.052704,-0.854976,-3.0975,-24.5,-20.74625,6.024,-15.744,6.888001,none,5,3.0,47743.0,403431.0,403431.0,403431.0,403431.0
2026-04-07 18:11:44.231615,475387,2574523061,2574524313,0.407968,0.052704,-0.854976,-1.91625,-25.5325,-20.4225,6.024,-15.744,6.888001,none,5,3.0,47743.0,403431.0,403431.0,403431.0,403431.0
2026-04-07 18:11:44.233204,475388,2574537603,2574539261,0.396256,0.080032,-0.886208,-0.93625,-25.43625,-19.678751,6.656,-16.232,7.400001,none,5,3.0,47743.0,403431.0,403431.0,403431.0,403431.0
2026-04-07 18:11:44.234785,475389,2574546581,2574547975,0.396256,0.080032,-0.886208,-0.42,-24.7625,-19.6525,6.656,-16.232,7.400001,none,5,3.0,47743.0,403431.0,403431.0,403431.0,403431.0
2026-04-07 18:11:44.239047,475390,2574555595,2574556669,0.40016,0.040992,-0.890112,-0.35,-24.29,-19.8275,7.376,-15.512001,6.576,none,5,3.0,47743.0,403431.0,403431.0,403431.0,403431.0
2026-04-07 18:11:44.240723,475391,2574570071,2574571577,0.40016,0.040992,-0.890112,-0.42875,-24.6575,-19.29375,7.376,-15.512001,6.576,none,5,3.0,47743.0,403431.0,403431.0,403431.0,403431.0
2026-04-07 18:11:44.242337,475392,2574579008,2574580290,0.398208,0.011712,-0.88816,1.09375,-25.585001,-18.235,7.512001,-15.872001,6.456,none,5,3.0,47743.0,403431.0,403431.0,403431.0,403431.0
2026-04-07 18:11:44.246818,475393,2574587955,2574589028,0.398208,0.011712,-0.88816,1.96,-25.90875,-17.1325,7.512001,-15.872001,6.456,none,5,3.0,47743.0,403431.0,403431.0,403431.0,403431.0
2026-04-07 18:11:44.250477,475394,2574596969,2574597732,0.357216,0.00976,-0.884256,0.735,-25.375,-15.95125,6.76,-15.728001,6.736001,none,5,3.0,47743.0,403431.0,403431.0,403431.0,403431.0
2026-04-07 18:11:44.279005,475405,2574612019,2574613003,0.357216,0.00976,-0.884256,-2.3625,-25.0775,-14.83125,6.76,-15.728001,6.736001,none,5,3.0,47204.0,403431.0,403431.0,403431.0,403431.0
2026-04-07 18:11:44.280734,475406,2574621074,2574621731,0.355264,0.056608,-0.8784,-4.36625,-26.9675,-14.77875,7.520001,-16.088001,6.352,none,5,3.0,47204.0,403431.0,403431.0,403431.0,403431.0
2026-04-07 18:11:44.282439,475407,2574630566,2574632576,0.355264,0.056608,-0.8784,-4.59375,-28.315,-14.46375,7.520001,-16.088001,6.352,none,5,3.0,47204.0,403431.0,403431.0,403431.0,403431.0
2026-04-07 18:11:44.286418,475408,2574639518,2574641305,0.357216,0.124928,-0.876448,-2.8,-28.2975,-14.18375,7.992001,-15.816001,6.352,none,5,3.0,47204.0,403431.0,403431.0,403431.0,403431.0
2026-04-07 18:11:44.314951,475409,2574654038,2574656247,0.349408,0.072224,-0.903776,0.23625,-28.56,-13.125,7.568,-16.16,9.128,none,5,3.0,47204.0,403431.0,403431.0,403431.0,403431.0
2026-04-07 18:11:44.318734,475410,2574663049,2574664940,0.349408,0.072224,-0.903776,1.365,-28.56875,-12.005,7.568,-16.16,9.128,none,5,3.0,47204.0,403431.0,403431.0,403431.0,403431.0
2026-04-07 18:11:44.321077,475411,2574671985,2574673665,0.349408,0.072224,-0.903776,-0.245,-28.20125,-11.235,7.568,-16.16,9.128,none,5,3.0,47204.0,403431.0,403431.0,403431.0,403431.0
2026-04-07 18:11:44.352238,475412,2574686538,2574688573,0.339648,0.021472,-0.921344,-2.37125,-27.95625,-11.55,8.440001,-15.880001,6.920001,none,5,3.0,47204.0,403431.0,403431.0,403431.0,403431.0
2026-04-07 18:11:44.356699,475413,2574695479,2574697272,0.318176,0.072224,-0.929152,-4.0075,-28.72625,-11.6025,8.568001,-15.824,6.248,none,5,3.0,47204.0,403431.0,403431.0,403431.0,403431.0
2026-04-07 18:11:44.380757,475423,2574704764,2574706103,0.318176,0.072224,-0.929152,-4.76875,-29.09375,-12.005,8.568001,-15.824,6.248,none,5,3.0,47032.0,403431.0,403431.0,403431.0,403431.0
2026-04-07 18:11:44.382542,475424,2574713710,2574714828,0.318176,0.142496,-0.977952,-3.4825,-29.6275,-11.29625,8.568001,-15.824,6.248,none,5,3.0,47032.0,403431.0,403431.0,403431.0,403431.0
2026-04-07 18:11:44.390293,475425,2574728517,2574729756,0.318176,0.142496,-0.977952,-1.2425,-29.33,-10.3075,7.808001,-16.136002,6.352,none,5,3.0,47032.0,403431.0,403431.0,403431.0,403431.0
2026-04-07 18:11:44.391992,475426,2574737492,2574738539,0.333792,0.115168,-0.979904,0.79625,-29.46125,-9.45,8.504001,-16.416,5.968,none,5,3.0,47032.0,403431.0,403431.0,403431.0,403431.0
2026-04-07 18:11:44.393767,475427,2574746469,2574747256,0.333792,0.115168,-0.979904,0.60375,-29.02375,-8.47,8.504001,-16.416,5.968,none,5,3.0,47032.0,403431.0,403431.0,403431.0,403431.0
2026-04-07 18:11:44.425866,475428,2574761010,2574762173,0.333792,0.054656,-0.962336,-0.42,-27.51875,-6.46625,8.304001,-16.36,7.696001,none,5,3.0,47032.0,403431.0,403431.0,403431.0,403431.0
2026-04-07 18:11:44.430318,475429,2574769909,2574770860,0.333792,0.054656,-0.962336,-1.42625,-25.27875,-5.03125,8.304001,-16.36,7.696001,none,5,3.0,47032.0,403431.0,403431.0,403431.0,403431.0
2026-04-07 18:11:44.431851,475430,2574778825,2574779569,0.320128,0.052704,-0.962336,-2.19625,-24.52625,-4.2,9.280001,-16.056002,5.896,none,5,3.0,47032.0,403431.0,403431.0,403431.0,403431.0
2026-04-07 18:11:44.436368,475431,2574793809,2574794493,0.320128,0.052704,-0.977952,-0.81375,-23.616251,-3.6225,9.280001,-16.056002,5.896,none,5,3.0,47032.0,403431.0,403431.0,403431.0,403431.0
2026-04-07 18:11:44.524815,475441,2574803441,2574805744,0.304512,0.121024,-0.974048,1.07625,-23.87875,-3.82375,8.712001,-15.936001,5.56,none,5,3.0,47392.0,403431.0,403431.0,403431.0,403431.0
2026-04-07 18:11:44.528228,475442,2574812402,2574814452,0.304512,0.121024,-0.974048,3.01,-23.397501,-3.84125,8.712001,-15.936001,5.56,none,5,3.0,47392.0,403431.0,403431.0,403431.0,403431.0
2026-04-07 18:11:44.529708,475443,2574821350,2574823264,0.288896,0.150304,-0.98576,4.7425,-22.575,-3.63125,9.224,-15.768001,5.72,none,5,3.0,47392.0,403431.0,403431.0,403431.0,403431.0
2026-04-07 18:11:44.534058,475444,2574835914,2574838191,0.286944,0.089792,-0.970144,6.4225,-21.7175,-3.2375,10.256001,-15.56,3.76,none,5,3.0,47392.0,403431.0,403431.0,403431.0,403431.0
2026-04-07 18:11:44.536355,475445,2574844835,2574846883,0.286944,0.089792,-0.970144,8.5575,-21.805,-2.6075,10.256001,-15.56,3.76,none,5,3.0,47392.0,403431.0,403431.0,403431.0,403431.0
2026-04-07 18:11:44.544039,475446,2574853757,2574855566,0.286944,0.089792,-0.970144,10.31625,-22.365,-2.23125,10.256001,-15.56,3.76,none,5,3.0,47392.0,403431.0,403431.0,403431.0,403431.0
2026-04-07 18:11:44.545740,475447,2574868300,2574870455,0.267424,0.056608,-0.94672,10.955,-21.8925,-1.925,10.0,-15.768001,5.512,none,5,3.0,47392.0,403431.0,403431.0,403431.0,403431.0
2026-04-07 18:11:44.547274,475448,2574877216,2574879230,0.25376,0.054656,-0.944768,11.305,-21.8925,-1.61,9.448001,-15.880001,7.952,none,5,3.0,47392.0,403431.0,403431.0,403431.0,403431.0
2026-04-07 18:11:44.551523,475449,2574886177,2574887982,0.25376,0.054656,-0.944768,11.90875,-22.04125,-0.74375,9.448001,-15.880001,7.952,none,5,3.0,47392.0,403431.0,403431.0,403431.0,403431.0
2026-04-07 18:11:44.553273,475450,2574895196,2574896724,0.247904,0.054656,-0.950624,12.43375,-21.8575,0.18375,9.072001,-16.44,8.784,none,5,3.0,47392.0,403431.0,403431.0,403431.0,403431.0
2026-04-07 18:11:44.580835,475461,2574909763,2574911697,0.247904,0.054656,-0.950624,13.011251,-22.26,0.6125,9.072001,-16.44,8.784,none,5,3.0,47547.0,403431.0,403431.0,403431.0,403431.0
2026-04-07 18:11:44.582494,475462,2574918770,2574920487,0.25376,0.072224,-0.94672,13.29125,-22.6275,1.07625,9.632001,-15.824,8.288,none,5,3.0,47547.0,403431.0,403431.0,403431.0,403431.0
2026-04-07 18:11:44.586606,475463,2574927850,2574929210,0.25376,0.072224,-0.94672,14.175,-22.91625,0.97125,9.632001,-15.824,8.288,none,5,3.0,47547.0,403431.0,403431.0,403431.0,403431.0
2026-04-07 18:11:44.588963,475464,2574942404,2574944165,0.23424,0.056608,-0.933056,14.096251,-22.7675,1.68,9.768001,-15.608001,7.976,none,5,3.0,47547.0,403431.0,403431.0,403431.0,403431.0
2026-04-07 18:11:44.617425,475465,2574951355,2574952905,0.23424,0.056608,-0.933056,13.2475,-22.07625,1.70625,9.768001,-15.608001,7.976,none,5,3.0,47547.0,403431.0,403431.0,403431.0,403431.0
2026-04-07 18:11:44.621964,475466,2574960282,2574961631,0.206912,0.025376,-0.899872,12.4425,-22.61,1.54875,10.072001,-15.528001,5.248,none,5,3.0,47547.0,403431.0,403431.0,403431.0,403431.0
2026-04-07 18:11:44.623610,475467,2574974752,2574976552,0.206912,0.025376,-0.905728,13.2125,-23.5375,1.60125,10.072001,-15.528001,5.248,none,5,3.0,47547.0,403431.0,403431.0,403431.0,403431.0
2026-04-07 18:11:44.628627,475468,2574983656,2574985236,0.208864,0.005856,-0.905728,15.28625,-23.975,2.19625,10.824,-14.976001,5.6,none,5,3.0,47547.0,403431.0,403431.0,403431.0,403431.0
2026-04-07 18:11:44.659645,475469,2574992681,2574993922,0.208864,0.005856,-0.905728,16.03875,-25.12125,2.8525,10.824,-14.976001,5.6,none,5,3.0,47547.0,403431.0,403431.0,403431.0,403431.0
2026-04-07 18:11:44.662184,475470,2575001691,2575002652,0.208864,0.00976,-0.940864,14.62125,-26.76625,2.625,11.000001,-15.624001,5.36,none,5,3.0,47547.0,403431.0,403431.0,403431.0,403431.0
2026-04-07 18:11:44.689003,475480,2575016300,2575017585,0.203008,0.01952,-0.960384,11.9875,-27.72,1.645,11.256001,-15.184001,6.32,none,5,3.0,47412.0,403431.0,403431.0,403431.0,403431.0
2026-04-07 18:11:44.691492,475481,2575025209,2575026289,0.203008,0.01952,-0.960384,8.5225,-27.27375,1.19875,11.256001,-15.184001,6.32,none,5,3.0,47412.0,403431.0,403431.0,403431.0,403431.0
2026-04-07 18:11:44.694477,475482,2575034147,2575035036,0.203008,0.01952,-0.960384,5.4075,-27.098751,1.4175,11.256001,-15.184001,6.32,none,5,3.0,47412.0,403431.0,403431.0,403431.0,403431.0
2026-04-07 18:11:44.700312,475483,2575048707,2575050044,0.167872,0.003904,-0.950624,3.75375,-27.1775,1.32125,11.104,-15.528001,6.496,none,5,3.0,47412.0,403431.0,403431.0,403431.0,403431.0
2026-04-07 18:11:44.702768,475484,2575057643,2575058758,0.163968,-0.00976,-0.958432,2.82625,-27.72,2.05625,11.304001,-16.176,5.928001,none,5,3.0,47412.0,403431.0,403431.0,403431.0,403431.0
2026-04-07 18:11:44.731299,475485,2575066620,2575067457,0.163968,-0.00976,-0.958432,2.0475,-28.23625,2.17,11.304001,-16.176,5.928001,none,5,3.0,47412.0,403431.0,403431.0,403431.0,403431.0
2026-04-07 18:11:44.735740,475486,2575081116,2575082340,0.152256,-0.011712,-0.987712,1.435,-28.83125,1.6275,11.912001,-15.52,5.448,none,5,3.0,47412.0,403431.0,403431.0,403431.0,403431.0
2026-04-07 18:11:44.738159,475487,2575089982,2575091050,0.152256,-0.011712,-0.987712,2.30125,-29.942501,1.60125,11.912001,-15.52,5.448,none,5,3.0,47412.0,403431.0,403431.0,403431.0,403431.0
2026-04-07 18:11:44.741806,475488,2575098922,2575099748,0.158112,0.003904,-1.032608,3.19375,-29.8725,1.00625,11.920001,-15.008,5.576,none,5,3.0,47412.0,403431.0,403431.0,403431.0,403431.0
2026-04-07 18:11:44.769008,475498,2575108298,2575110571,0.158112,0.003904,-1.032608,3.29875,-29.82,0.21875,11.920001,-15.008,5.576,none,5,3.0,47427.0,403431.0,403431.0,403431.0,403431.0
2026-04-07 18:11:44.771472,475499,2575122817,2575123418,0.132736,0.025376,-1.048224,4.095,-28.6825,0.0525,12.352,-14.952001,5.056,none,5,3.0,47427.0,403431.0,403431.0,403431.0,403431.0
2026-04-07 18:11:44.775542,475500,2575132041,2575134275,0.132736,0.025376,-1.048224,3.815,-27.4925,0.14,12.352,-14.952001,5.056,none,5,3.0,47427.0,403431.0,403431.0,403431.0,403431.0
2026-04-07 18:11:44.812116,475501,2575140959,2575142999,0.115168,-0.007808,-1.046272,1.32125,-26.08375,0.95375,12.864,-15.256001,5.264,none,5,3.0,47427.0,403431.0,403431.0,403431.0,403431.0
2026-04-07 18:11:44.816570,475502,2575155467,2575155837,0.115168,-0.007808,-1.056032,-0.7525,-24.57875,0.93625,12.864,-15.256001,5.264,none,5,3.0,47427.0,403431.0,403431.0,403431.0,403431.0
2026-04-07 18:11:44.818301,475503,2575164685,2575166594,0.101504,-0.02928,-1.056032,-1.30375,-24.00125,0.7175,12.56,-15.64,5.344,none,5,3.0,47427.0,403431.0,403431.0,403431.0,403431.0
2026-04-07 18:11:44.820641,475504,2575173611,2575175279,0.101504,-0.02928,-1.056032,0.4725,-24.24625,0.72625,12.56,-15.64,5.344,none,5,3.0,47427.0,403431.0,403431.0,403431.0,403431.0
2026-04-07 18:11:44.826749,475505,2575182558,2575184020,0.115168,-0.011712,-1.067744,3.84125,-24.4475,1.19875,12.56,-15.032001,5.224001,none,5,3.0,47427.0,403431.0,403431.0,403431.0,403431.0
2026-04-07 18:11:44.854952,475506,2575197122,2575198906,0.08784,-0.005856,-1.0736,6.46625,-22.9775,1.63625,12.048,-15.456,5.528,none,5,3.0,47427.0,403431.0,403431.0,403431.0,403431.0
2026-04-07 18:11:44.887239,475517,2575206391,2575208001,0.08784,-0.005856,-1.0736,7.77875,-21.665,1.93375,12.048,-15.456,5.528,none,5,3.0,47590.0,403431.0,403431.0,403431.0,403431.0
2026-04-07 18:11:44.889725,475518,2575215349,2575216758,0.08784,-0.005856,-1.0736,7.25375,-20.9125,1.5925,12.048,-15.456,5.528,none,5,3.0,47590.0,403431.0,403431.0,403431.0,403431.0
2026-04-07 18:11:44.892223,475519,2575230030,2575231742,0.099552,-0.02928,-1.077504,6.48375,-20.44,1.155,12.944,-15.040001,5.696,none,5,3.0,47590.0,403431.0,403431.0,403431.0,403431.0
2026-04-07 18:11:44.894705,475520,2575239141,2575240482,0.089792,-0.011712,-1.077504,7.4025,-19.25,1.2425,12.152,-15.672001,6.688,none,5,3.0,47590.0,403431.0,403431.0,403431.0,403431.0
2026-04-07 18:11:44.897181,475521,2575248089,2575249227,0.089792,-0.011712,-1.077504,7.5775,-17.64875,0.7525,12.152,-15.672001,6.688,none,5,3.0,47590.0,403431.0,403431.0,403431.0,403431.0
2026-04-07 18:11:44.899698,475522,2575257047,2575257909,0.081984,-0.015616,-1.085312,6.86875,-16.87,0.09625,13.200001,-14.552001,4.904,none,5,3.0,47590.0,403431.0,403431.0,403431.0,403431.0
2026-04-07 18:11:44.929924,475523,2575271568,2575272879,0.081984,-0.015616,-1.085312,7.5775,-16.10875,-0.2975,13.200001,-14.552001,4.904,none,5,3.0,47590.0,403431.0,403431.0,403431.0,403431.0
2026-04-07 18:11:44.933484,475524,2575280488,2575281562,0.076128,-0.021472,-1.050176,10.6225,-15.86375,-0.13125,13.728001,-14.240001,4.584,none,5,3.0,47590.0,403431.0,403431.0,403431.0,403431.0
2026-04-07 18:11:44.936035,475525,2575289410,2575290233,0.076128,-0.021472,-1.050176,13.9125,-15.12875,0.14,13.728001,-14.240001,4.584,none,5,3.0,47590.0,403431.0,403431.0,403431.0,403431.0
2026-04-07 18:11:44.966215,475526,2575303921,2575305132,0.0488,-0.02928,-1.038464,13.37875,-13.3875,-0.07,13.368001,-14.896001,6.008,none,5,3.0,47590.0,403431.0,403431.0,403431.0,403431.0
2026-04-07 18:11:44.998477,475536,2575312910,2575313921,0.0488,-0.02928,-1.038464,12.5475,-13.23875,-0.5075,13.368001,-14.896001,6.008,none,5,3.0,47659.0,403431.0,403431.0,403431.0,403431.0
2026-04-07 18:11:45.000946,475537,2575321970,2575322627,0.06832,-0.054656,-1.032608,13.195,-12.985,-0.81375,13.280001,-14.768001,5.184,none,5,3.0,47659.0,403431.0,403431.0,403431.0,403431.0
2026-04-07 18:11:45.003451,475538,2575336990,2575337599,0.056608,-0.054656,-1.018944,14.28,-12.573751,-0.175,13.280001,-15.152,7.312,none,5,3.0,47659.0,403431.0,403431.0,403431.0,403431.0
2026-04-07 18:11:45.006433,475539,2575346221,2575348497,0.056608,-0.054656,-1.018944,15.3475,-11.85625,0.06125,13.664001,-15.152,7.312,none,5,3.0,47659.0,403431.0,403431.0,403431.0,403431.0
2026-04-07 18:11:45.008563,475540,2575355228,2575357203,0.056608,-0.054656,-1.018944,14.1925,-11.3575,0.2275,13.664001,-15.152,7.312,none,5,3.0,47659.0,403431.0,403431.0,403431.0,403431.0
2026-04-07 18:11:45.010954,475541,2575364239,2575365924,0.037088,-0.056608,-0.993568,12.15375,-11.2875,-0.525,13.776001,-14.568001,5.016,none,5,3.0,47659.0,403431.0,403431.0,403431.0,403431.0
2026-04-07 18:11:45.041261,475542,2575378759,2575380815,0.052704,-0.0488,-0.977952,12.41625,-12.34625,-1.12875,13.76,-14.768001,6.32,none,5,3.0,47659.0,403431.0,403431.0,403431.0,403431.0
2026-04-07 18:11:45.044857,475543,2575387745,2575389548,0.052704,-0.0488,-0.977952,14.4025,-12.4075,-1.05,13.76,-14.768001,6.32,none,5,3.0,47659.0,403431.0,403431.0,403431.0,403431.0
2026-04-07 18:11:45.048050,475544,2575396721,2575398257,0.052704,-0.0488,-0.974048,15.96,-11.7775,-2.09125,13.76,-14.768001,6.32,none,5,3.0,47659.0,403431.0,403431.0,403431.0,403431.0
2026-04-07 18:11:45.117900,475554,2575411345,2575413332,0.044896,-0.03904,-0.974048,15.4,-11.99625,-2.75625,14.368001,-14.536,5.344,none,5,3.0,47769.0,403431.0,403431.0,403431.0,403431.0
2026-04-07 18:11:45.119499,475555,2575420514,2575422091,0.037088,-0.062464,-0.993568,14.00875,-13.5275,-3.115,13.896001,-14.320001,6.568,none,5,3.0,47769.0,403431.0,403431.0,403431.0,403431.0
2026-04-07 18:11:45.121926,475556,2575429496,2575430848,0.037088,-0.062464,-0.993568,12.3025,-13.9475,-3.80625,13.896001,-14.320001,6.568,none,5,3.0,47769.0,403431.0,403431.0,403431.0,403431.0
2026-04-07 18:11:45.123481,475557,2575438432,2575439541,0.031232,-0.06832,-0.997472,11.41,-14.6125,-4.83,14.136001,-14.512001,4.688,none,5,3.0,47769.0,403431.0,403431.0,403431.0,403431.0
2026-04-07 18:11:45.127768,475558,2575452922,2575454424,0.031232,-0.06832,-0.997472,10.5525,-15.12875,-6.3175,14.136001,-14.512001,4.688,none,5,3.0,47769.0,403431.0,403431.0,403431.0,403431.0
2026-04-07 18:11:45.129419,475559,2575461864,2575463140,0.037088,-0.06832,-1.003328,10.42125,-15.225,-7.595,14.568001,-14.368001,4.792,none,5,3.0,47769.0,403431.0,403431.0,403431.0,403431.0
2026-04-07 18:11:45.130967,475560,2575470770,2575471892,0.037088,-0.06832,-1.003328,10.28125,-14.752501,-8.53125,14.568001,-14.368001,4.792,none,5,3.0,47769.0,403431.0,403431.0,403431.0,403431.0
2026-04-07 18:11:45.135261,475561,2575485277,2575486791,0.02928,-0.099552,-0.99552,9.4675,-14.90125,-8.82,14.128,-14.368001,5.088,none,5,3.0,47769.0,403431.0,403431.0,403431.0,403431.0
2026-04-07 18:11:45.136903,475562,2575494229,2575495518,0.02928,-0.099552,-0.99552,8.33,-15.3475,-8.995,14.128,-14.368001,5.088,none,5,3.0,47769.0,403431.0,403431.0,403431.0,403431.0
2026-04-07 18:11:45.168405,475563,2575503165,2575504250,0.005856,-0.076128,-1.0248,8.30375,-15.085,-9.073751,14.440001,-14.704,4.936,none,5,3.0,47769.0,403431.0,403431.0,403431.0,403431.0
2026-04-07 18:11:45.220712,475574,2575517710,2575519207,-0.00976,-0.040992,-1.04432,8.58375,-13.97375,-8.84625,14.440001,-12.656,3.392,none,5,3.0,48014.0,403431.0,403431.0,403431.0,403431.0
2026-04-07 18:11:45.222508,475575,2575526625,2575527881,-0.00976,-0.040992,-1.04432,7.83125,-13.93875,-9.33625,14.424001,-14.024001,3.392,none,5,3.0,48014.0,403431.0,403431.0,403431.0,403431.0
2026-04-07 18:11:45.226594,475576,2575535725,2575536602,-0.00976,-0.040992,-1.04432,6.965,-13.74625,-8.84625,14.424001,-14.024001,3.392,none,5,3.0,48014.0,403431.0,403431.0,403431.0,403431.0
2026-04-07 18:11:45.228253,475577,2575544777,2575545413,0.013664,-0.052704,-1.030656,5.92375,-14.0875,-8.35625,14.848001,-14.496,3.104,none,5,3.0,48014.0,403431.0,403431.0,403431.0,403431.0
2026-04-07 18:11:45.229786,475578,2575559555,2575560304,-0.00976,-0.074176,-1.028704,5.29375,-14.07875,-7.51625,15.072001,-14.224001,4.792,none,5,3.0,48014.0,403431.0,403431.0,403431.0,403431.0
2026-04-07 18:11:45.234048,475579,2575568942,2575571069,-0.00976,-0.074176,-1.028704,5.43375,-13.20375,-6.95625,15.072001,-14.224001,4.792,none,5,3.0,48014.0,403431.0,403431.0,403431.0,403431.0
2026-04-07 18:11:45.235865,475580,2575577900,2575579791,0.0,-0.062464,-1.028704,6.50125,-13.71125,-7.6125,15.072001,-14.224001,6.12,none,5,3.0,48014.0,403431.0,403431.0,403431.0,403431.0
2026-04-07 18:11:45.237253,475581,2575592402,2575592723,0.0,-0.062464,-1.028704,8.67125,-14.37625,-8.14625,14.76,-14.032001,6.12,none,5,3.0,48014.0,403431.0,403431.0,403431.0,403431.0
2026-04-07 18:11:45.244311,475582,2575601758,2575603569,0.017568,-0.021472,-1.013088,11.261251,-14.5775,-8.25125,14.68,-14.080001,6.408001,none,5,3.0,48014.0,403431.0,403431.0,403431.0,403431.0
2026-04-07 18:11:45.276598,475592,2575611171,2575612386,0.017568,-0.021472,-1.013088,13.195,-13.58,-8.56625,14.68,-14.080001,6.408001,none,5,3.0,48117.0,403431.0,403431.0,403431.0,403431.0
2026-04-07 18:11:45.278292,475593,2575620085,2575621173,-0.007808,-0.02928,-1.009184,12.52125,-13.32625,-8.4525,14.576001,-14.512001,5.36,none,5,3.0,48117.0,403431.0,403431.0,403431.0,403431.0
2026-04-07 18:11:45.280083,475594,2575634652,2575636095,-0.007808,-0.02928,-1.009184,11.3925,-12.43375,-8.26,14.576001,-14.512001,5.36,none,5,3.0,48117.0,403431.0,403431.0,403431.0,403431.0
2026-04-07 18:11:45.286441,475595,2575643598,2575644852,-0.046848,-0.054656,-0.99552,10.40375,-12.215,-8.23375,14.792001,-13.960001,4.696,none,5,3.0,48117.0,403431.0,403431.0,403431.0,403431.0
2026-04-07 18:11:45.314910,475596,2575652509,2575653583,-0.046848,-0.054656,-0.99552,9.33625,-13.195,-8.53125,14.792001,-13.960001,4.696,none,5,3.0,48117.0,403431.0,403431.0,403431.0,403431.0
2026-04-07 18:11:45.319458,475597,2575666982,2575668492,-0.025376,-0.070272,-0.999424,8.44375,-14.00875,-8.6625,15.344001,-13.72,4.696,none,5,3.0,48117.0,403431.0,403431.0,403431.0,403431.0
2026-04-07 18:11:45.325285,475598,2575675886,2575677158,-0.025376,-0.070272,-0.999424,9.98375,-15.4525,-8.37375,15.344001,-13.72,4.696,none,5,3.0,48117.0,403431.0,403431.0,403431.0,403431.0
2026-04-07 18:11:45.327831,475599,2575684802,2575685913,-0.013664,-0.066368,-1.013088,11.5325,-15.8025,-8.40875,14.920001,-13.936001,4.36,none,5,3.0,48117.0,403431.0,403431.0,403431.0,403431.0
2026-04-07 18:11:45.362153,475600,2575699283,2575700826,-0.023424,-0.05856,-1.013088,12.52125,-15.96875,-8.33,15.656001,-13.200001,4.64,none,5,3.0,48117.0,403431.0,403431.0,403431.0,403431.0
2026-04-07 18:11:45.424023,475610,2575708588,2575709569,-0.023424,-0.05856,-1.013088,12.36375,-16.26625,-7.2275,15.656001,-13.200001,4.64,none,5,3.0,48128.0,403431.0,403431.0,403431.0,403431.0
2026-04-07 18:11:45.426515,475611,2575717635,2575718289,-0.023424,-0.05856,-1.013088,11.80375,-15.505,-7.0875,15.656001,-13.200001,4.64,none,5,3.0,48128.0,403431.0,403431.0,403431.0,403431.0
2026-04-07 18:11:45.428999,475612,2575726874,2575729061,-0.035136,-0.06832,-1.013088,10.05375,-15.636251,-7.805,15.712001,-13.272,3.72,none,5,3.0,48128.0,403431.0,403431.0,403431.0,403431.0
2026-04-07 18:11:45.430673,475613,2575741435,2575741897,-0.046848,-0.054656,-1.016992,9.89625,-15.95125,-7.81375,15.672001,-12.808001,4.616,none,5,3.0,48128.0,403431.0,403431.0,403431.0,403431.0
2026-04-07 18:11:45.433151,475614,2575750768,2575752626,-0.046848,-0.054656,-1.016992,11.76,-16.05625,-7.83125,15.672001,-12.808001,4.616,none,5,3.0,48128.0,403431.0,403431.0,403431.0,403431.0
2026-04-07 18:11:45.434667,475615,2575759684,2575761314,-0.02928,-0.066368,-1.03456,13.32625,-16.7125,-6.95625,16.072,-13.400001,4.68,none,5,3.0,48128.0,403431.0,403431.0,403431.0,403431.0
2026-04-07 18:11:45.439070,475616,2575768599,2575769996,-0.02928,-0.066368,-1.03456,12.425,-16.616251,-6.44,16.072,-13.400001,4.68,none,5,3.0,48128.0,403431.0,403431.0,403431.0,403431.0
2026-04-07 18:11:45.441959,475617,2575783128,2575785030,-0.064416,-0.081984,-1.042368,9.5725,-16.5025,-6.34375,16.152,-13.208,4.032,none,5,3.0,48128.0,403431.0,403431.0,403431.0,403431.0
2026-04-07 18:11:45.446005,475618,2575792053,2575793740,-0.064416,-0.081984,-1.042368,8.04125,-16.2575,-6.74625,16.152,-13.208,4.032,none,5,3.0,48128.0,403431.0,403431.0,403431.0,403431.0
2026-04-07 18:11:45.448495,475619,2575801028,2575802441,-0.074176,-0.062464,-1.036512,7.175,-16.17,-7.315,16.36,-13.568001,4.6,none,5,3.0,48128.0,403431.0,403431.0,403431.0,403431.0
2026-04-07 18:11:45.476019,475630,2575815708,2575817668,-0.074176,-0.062464,-1.036512,7.60375,-15.61,-7.77,16.36,-13.568001,4.6,none,5,3.0,48032.0,403431.0,403431.0,403431.0,403431.0
2026-04-07 18:11:45.480267,475631,2575824739,2575826409,-0.083936,-0.05856,-1.052128,10.19375,-14.9975,-7.20125,15.840001,-13.104001,6.048,none,5,3.0,48032.0,403431.0,403431.0,403431.0,403431.0
2026-04-07 18:11:45.482802,475632,2575833754,2575835180,-0.083936,-0.05856,-1.052128,11.06875,-14.9975,-6.64125,15.840001,-13.104001,6.048,none,5,3.0,48032.0,403431.0,403431.0,403431.0,403431.0
2026-04-07 18:11:45.511067,475633,2575848290,2575850147,-0.05856,-0.101504,-1.065792,8.855001,-14.58625,-5.565,16.264,-13.320001,5.712,none,5,3.0,48032.0,403431.0,403431.0,403431.0,403431.0
2026-04-07 18:11:45.515661,475634,2575857232,2575858813,-0.05856,-0.101504,-1.065792,5.8975,-13.4575,-4.935,16.264,-13.320001,5.712,none,5,3.0,48032.0,403431.0,403431.0,403431.0,403431.0
2026-04-07 18:11:45.517687,475635,2575866142,2575867505,-0.103456,-0.081984,-1.065792,3.885,-12.60875,-4.66375,16.192001,-12.488001,4.128,none,5,3.0,48032.0,403431.0,403431.0,403431.0,403431.0
2026-04-07 18:11:45.521658,475636,2575875058,2575876202,-0.103456,-0.081984,-1.065792,1.98625,-11.7775,-5.3375,16.192001,-12.488001,4.128,none,5,3.0,48032.0,403431.0,403431.0,403431.0,403431.0
2026-04-07 18:11:45.553440,475637,2575889565,2575891120,-0.089792,-0.03904,-1.075552,2.1525,-12.04875,-5.53875,15.728001,-13.472001,5.696,none,5,3.0,48032.0,403431.0,403431.0,403431.0,403431.0
2026-04-07 18:11:45.555623,475638,2575898475,2575899810,-0.089792,-0.03904,-1.075552,3.73625,-11.585,-5.2325,15.728001,-13.472001,5.696,none,5,3.0,48032.0,403431.0,403431.0,403431.0,403431.0
2026-04-07 18:11:45.560329,475639,2575907380,2575908487,-0.081984,-0.05856,-1.06384,4.6725,-10.115,-4.9175,16.192001,-12.712001,4.12,none,5,3.0,48032.0,403431.0,403431.0,403431.0,403431.0
2026-04-07 18:11:45.586948,475649,2575921981,2575923510,-0.080032,-0.085888,-1.052128,1.8025,-9.21375,-5.145,16.736,-13.016001,4.664,none,5,3.0,48082.0,403431.0,403431.0,403431.0,403431.0
2026-04-07 18:11:45.588477,475650,2575930975,2575932255,-0.080032,-0.085888,-1.052128,-2.695,-8.60125,-5.67875,16.736,-13.016001,4.664,none,5,3.0,48082.0,403431.0,403431.0,403431.0,403431.0
2026-04-07 18:11:45.592659,475651,2575940046,2575941068,-0.093696,-0.06832,-1.061888,-4.3575,-8.44375,-6.3175,16.92,-12.976001,3.6,none,5,3.0,48082.0,403431.0,403431.0,403431.0,403431.0
2026-04-07 18:11:45.597596,475652,2575954597,2575956100,-0.093696,-0.06832,-1.061888,-2.59,-7.32375,-6.50125,16.92,-12.976001,3.6,none,5,3.0,48082.0,403431.0,403431.0,403431.0,403431.0
2026-04-07 18:11:45.626276,475653,2575963596,2575964815,-0.089792,-0.062464,-1.061888,-1.07625,-6.25625,-6.60625,16.992,-13.192,5.504,none,5,3.0,48082.0,403431.0,403431.0,403431.0,403431.0
2026-04-07 18:11:45.630755,475654,2575972473,2575973542,-0.089792,-0.062464,-1.061888,-1.3475,-5.11875,-5.705,16.992,-13.192,5.504,none,5,3.0,48082.0,403431.0,403431.0,403431.0,403431.0
2026-04-07 18:11:45.633082,475655,2575986934,2575988459,-0.115168,-0.074176,-1.03456,-3.73625,-4.235,-5.22375,16.832,-12.984,5.624,none,5,3.0,48082.0,403431.0,403431.0,403431.0,403431.0
2026-04-07 18:11:45.640098,475656,2575995859,2575997192,-0.115168,-0.074176,-1.03456,-5.6525,-3.5875,-4.54125,16.832,-12.984,5.624,none,5,3.0,48082.0,403431.0,403431.0,403431.0,403431.0
2026-04-07 18:11:45.668720,475657,2576004797,2576005895,-0.124928,-0.074176,-1.032608,-6.965,-3.0275,-4.03375,16.656,-13.168,5.208,none,5,3.0,48082.0,403431.0,403431.0,403431.0,403431.0
2026-04-07 18:11:45.733209,475667,2576013826,2576014698,-0.124928,-0.074176,-1.032608,-6.85125,-3.9025,-4.1825,16.656,-13.168,5.208,none,5,3.0,48049.0,403431.0,403431.0,403431.0,403431.0
2026-04-07 18:11:45.734815,475668,2576028323,2576029631,-0.070272,-0.054656,-1.028704,-5.29375,-4.27,-4.55,17.416,-13.552001,4.344,none,5,3.0,48049.0,403431.0,403431.0,403431.0,403431.0
2026-04-07 18:11:45.738994,475669,2576037238,2576038305,-0.070272,-0.054656,-1.028704,-4.36625,-3.7975,-4.445,17.416,-13.552001,4.344,none,5,3.0,48049.0,403431.0,403431.0,403431.0,403431.0
2026-04-07 18:11:45.740818,475670,2576046151,2576047021,-0.111264,-0.0488,-1.03456,-6.76375,-2.625,-5.1275,16.12,-14.080001,5.384,none,5,3.0,48049.0,403431.0,403431.0,403431.0,403431.0
2026-04-07 18:11:45.742429,475671,2576060644,2576061903,-0.105408,-0.035136,-1.0248,-9.49375,-3.43875,-6.545,17.112001,-13.632001,4.448,none,5,3.0,48049.0,403431.0,403431.0,403431.0,403431.0
2026-04-07 18:11:45.746568,475672,2576069543,2576070630,-0.105408,-0.035136,-1.0248,-7.46375,-3.99,-6.74625,17.112001,-13.632001,4.448,none,5,3.0,48049.0,403431.0,403431.0,403431.0,403431.0
2026-04-07 18:11:45.748222,475673,2576078459,2576079335,-0.105408,-0.035136,-1.0248,-3.85875,-4.03375,-6.67625,17.112001,-13.632001,4.448,none,5,3.0,48049.0,403431.0,403431.0,403431.0,403431.0
2026-04-07 18:11:45.749835,475674,2576092949,2576094255,-0.11712,-0.015616,-1.036512,-1.82875,-3.12375,-6.64125,16.744001,-13.52,4.344,none,5,3.0,48049.0,403431.0,403431.0,403431.0,403431.0
2026-04-07 18:11:45.754793,475675,2576101981,2576102982,-0.113216,-0.054656,-1.032608,-3.59625,-3.59625,-6.16,16.800001,-13.960001,5.92,none,5,3.0,48049.0,403431.0,403431.0,403431.0,403431.0
2026-04-07 18:11:45.785217,475685,2576111590,2576113808,-0.113216,-0.054656,-1.032608,-5.6,-4.3925,-5.64375,16.800001,-13.960001,5.92,none,5,3.0,47895.0,403431.0,403431.0,403431.0,403431.0
2026-04-07 18:11:45.786109,475686,2576120584,2576122532,-0.122976,-0.074176,-1.0248,-4.36625,-4.19125,-4.76875,16.800001,-13.960001,5.44,none,5,3.0,47895.0,403431.0,403431.0,403431.0,403431.0
2026-04-07 18:11:45.786160,475687,2576135193,2576137473,-0.122976,-0.074176,-1.0248,-1.93375,-3.3425,-4.41,16.568,-14.192,5.44,none,5,3.0,47895.0,403431.0,403431.0,403431.0,403431.0
2026-04-07 18:11:45.788891,475688,2576144123,2576146206,-0.12688,-0.06832,-1.016992,-1.68875,-2.59875,-4.17375,16.408,-13.864,5.048,none,5,3.0,47895.0,403431.0,403431.0,403431.0,403431.0
2026-04-07 18:11:45.817426,475689,2576153021,2576154910,-0.12688,-0.06832,-1.016992,-2.625,-3.0625,-3.29,16.408,-13.864,5.048,none,5,3.0,47895.0,403431.0,403431.0,403431.0,403431.0
2026-04-07 18:11:45.821923,475690,2576167670,2576169783,-0.134688,-0.0488,-1.032608,-3.0275,-3.36875,-3.7975,17.800001,-13.976001,4.672,none,5,3.0,47895.0,403431.0,403431.0,403431.0,403431.0
2026-04-07 18:11:45.824349,475691,2576176600,2576178519,-0.134688,-0.0488,-1.032608,-2.1175,-4.01625,-4.6375,17.800001,-13.976001,4.672,none,5,3.0,47895.0,403431.0,403431.0,403431.0,403431.0
2026-04-07 18:11:45.828094,475692,2576185595,2576187225,-0.0976,-0.017568,-1.038464,-0.385,-4.27,-5.38125,16.848001,-14.584001,4.424,none,5,3.0,47895.0,403431.0,403431.0,403431.0,403431.0
2026-04-07 18:11:45.857453,475693,2576194637,2576195926,-0.0976,-0.017568,-1.038464,1.7675,-4.3225,-5.7225,16.848001,-14.584001,4.424,none,5,3.0,47895.0,403431.0,403431.0,403431.0,403431.0
2026-04-07 18:11:45.862337,475694,2576209150,2576210862,-0.115168,-0.02928,-1.022848,1.505,-3.84125,-5.38125,17.096,-13.888001,4.28,none,5,3.0,47895.0,403431.0,403431.0,403431.0,403431.0
2026-04-07 18:11:45.888868,475705,2576218113,2576219585,-0.115168,-0.02928,-1.022848,-0.525,-3.78875,-5.5475,17.096,-13.888001,4.28,none,5,3.0,48314.0,403431.0,403431.0,403431.0,403431.0
2026-04-07 18:11:45.892783,475706,2576227078,2576228301,-0.144448,-0.052704,-1.01504,-2.5375,-3.35125,-6.195,17.128,-13.704,4.208,none,5,3.0,48314.0,403431.0,403431.0,403431.0,403431.0
2026-04-07 18:11:45.894522,475707,2576241593,2576243293,-0.140544,-0.031232,-1.016992,-1.81125,-3.78875,-6.76375,16.736,-13.976001,6.368001,none,5,3.0,48314.0,403431.0,403431.0,403431.0,403431.0
2026-04-07 18:11:45.895975,475708,2576250702,2576252056,-0.140544,-0.031232,-1.016992,0.46375,-4.445,-7.49875,16.736,-13.976001,6.368001,none,5,3.0,48314.0,403431.0,403431.0,403431.0,403431.0
2026-04-07 18:11:45.902685,475709,2576259693,2576260805,-0.140544,-0.031232,-1.016992,2.68625,-4.97875,-7.39375,16.736,-13.976001,6.368001,none,5,3.0,48314.0,403431.0,403431.0,403431.0,403431.0
2026-04-07 18:11:45.931186,475710,2576274197,2576275711,-0.113216,-0.044896,-1.030656,3.73625,-5.3375,-7.39375,16.312,-14.448001,6.912,none,5,3.0,48314.0,403431.0,403431.0,403431.0,403431.0
2026-04-07 18:11:45.935741,475711,2576283081,2576284448,-0.150304,-0.064416,-1.01504,3.0275,-4.8825,-6.9475,17.704,-14.064001,4.56,none,5,3.0,48314.0,403431.0,403431.0,403431.0,403431.0
2026-04-07 18:11:45.937262,475712,2576292038,2576293189,-0.150304,-0.064416,-1.01504,1.9075,-4.4625,-6.58,17.704,-14.064001,4.56,none,5,3.0,48314.0,403431.0,403431.0,403431.0,403431.0
2026-04-07 18:11:45.969780,475713,2576306530,2576308100,-0.158112,-0.037088,-1.026752,0.7525,-4.9525,-6.22125,18.064001,-13.536,4.008,none,5,3.0,48314.0,403431.0,403431.0,403431.0,403431.0
2026-04-07 18:11:46.036097,475723,2576315617,2576316885,-0.158112,-0.037088,-1.026752,-0.14,-5.075,-6.23,18.064001,-13.536,4.008,none,5,3.0,48424.0,403431.0,403431.0,403431.0,403431.0
2026-04-07 18:11:46.038471,475724,2576324584,2576325669,-0.140544,-0.027328,-1.028704,-0.21,-5.03125,-6.01125,17.776001,-13.880001,4.344,none,5,3.0,48424.0,403431.0,403431.0,403431.0,403431.0
2026-04-07 18:11:46.041052,475725,2576333501,2576334352,-0.140544,-0.027328,-1.028704,-0.67375,-4.40125,-5.285,17.776001,-13.880001,4.344,none,5,3.0,48424.0,403431.0,403431.0,403431.0,403431.0
2026-04-07 18:11:46.043442,475726,2576347978,2576349244,-0.142496,-0.064416,-1.01504,-1.30375,-3.68375,-4.92625,17.504002,-13.872001,4.464,none,5,3.0,48424.0,403431.0,403431.0,403431.0,403431.0
2026-04-07 18:11:46.045907,475727,2576356911,2576357970,-0.142496,-0.064416,-1.01504,-2.975,-3.38625,-4.52375,17.504002,-13.872001,4.464,none,5,3.0,48424.0,403431.0,403431.0,403431.0,403431.0
2026-04-07 18:11:46.048545,475728,2576365822,2576366643,-0.154208,-0.081984,-1.020896,-4.445,-3.61375,-4.36625,17.432001,-14.192,4.64,none,5,3.0,48424.0,403431.0,403431.0,403431.0,403431.0
2026-04-07 18:11:46.051106,475729,2576380334,2576381561,-0.154208,-0.081984,-1.020896,-4.27875,-4.69875,-5.145,17.432001,-14.192,4.64,none,5,3.0,48424.0,403431.0,403431.0,403431.0,403431.0
2026-04-07 18:11:46.053452,475730,2576389268,2576390309,-0.142496,-0.035136,-1.028704,-2.82625,-4.4275,-6.06375,17.696001,-14.072001,4.496,none,5,3.0,48424.0,403431.0,403431.0,403431.0,403431.0
2026-04-07 18:11:46.055959,475731,2576398183,2576399060,-0.142496,-0.035136,-1.028704,-1.855,-4.01625,-6.85125,17.696001,-14.072001,4.496,none,5,3.0,48424.0,403431.0,403431.0,403431.0,403431.0
2026-04-07 18:11:46.084662,475741,2576412724,2576413998,-0.130784,-0.013664,-1.030656,-2.80875,-3.96375,-7.72625,17.296001,-14.784,4.368,none,5,3.0,48356.0,403431.0,403431.0,403431.0,403431.0
2026-04-07 18:11:46.087229,475742,2576421800,2576422866,-0.130784,-0.033184,-1.01504,-3.2025,-4.2,-8.12,17.296001,-14.784,6.416,none,5,3.0,48356.0,403431.0,403431.0,403431.0,403431.0
2026-04-07 18:11:46.089712,475743,2576430810,2576431648,-0.171776,-0.033184,-1.01504,-2.72125,-3.08875,-7.44625,17.480001,-14.208001,6.520001,none,5,3.0,48356.0,403431.0,403431.0,403431.0,403431.0
2026-04-07 18:11:46.092202,475744,2576439731,2576440426,-0.171776,-0.033184,-1.01504,-2.7475,-2.79125,-6.72,17.480001,-14.208001,6.520001,none,5,3.0,48356.0,403431.0,403431.0,403431.0,403431.0
2026-04-07 18:11:46.095986,475745,2576454616,2576455445,-0.18544,-0.05856,-1.026752,-4.3225,-4.27875,-6.93,17.944,-14.136001,5.536,none,5,3.0,48356.0,403431.0,403431.0,403431.0,403431.0
2026-04-07 18:11:46.128733,475746,2576463576,2576464162,-0.15616,-0.037088,-1.046272,-4.64625,-4.34,-6.8075,18.36,-13.960001,4.552,none,5,3.0,48356.0,403431.0,403431.0,403431.0,403431.0
2026-04-07 18:11:46.132304,475747,2576472768,2576474935,-0.15616,-0.037088,-1.046272,-4.29625,-4.71625,-7.1575,18.36,-13.960001,4.552,none,5,3.0,48356.0,403431.0,403431.0,403431.0,403431.0
2026-04-07 18:11:46.134751,475748,2576487241,2576487726,-0.154208,-0.013664,-1.03456,-3.24625,-4.7775,-7.13125,17.608002,-14.288001,4.624,none,5,3.0,48356.0,403431.0,403431.0,403431.0,403431.0
2026-04-07 18:11:46.139739,475749,2576496730,2576498497,-0.154208,-0.013664,-1.03456,-1.81125,-3.395,-5.87125,17.608002,-14.288001,4.624,none,5,3.0,48356.0,403431.0,403431.0,403431.0,403431.0
2026-04-07 18:11:46.169954,475750,2576505664,2576507197,-0.173728,-0.027328,-1.030656,-2.07375,-3.3075,-5.29375,18.144001,-14.712001,5.56,none,5,3.0,48356.0,403431.0,403431.0,403431.0,403431.0
2026-04-07 18:11:46.198643,475761,2576515104,2576515937,-0.173728,-0.027328,-1.030656,-3.1325,-2.765,-5.60875,18.144001,-14.712001,5.56,none,5,3.0,48312.0,403431.0,403431.0,403431.0,403431.0
2026-04-07 18:11:46.200960,475762,2576529603,2576530891,-0.181536,-0.025376,-1.048224,-3.07125,-2.345,-4.99625,18.136002,-14.464001,4.656,none,5,3.0,48312.0,403431.0,403431.0,403431.0,403431.0
2026-04-07 18:11:46.203563,475763,2576538543,2576539620,-0.181536,-0.025376,-1.048224,-2.12625,-1.995,-4.71625,18.136002,-14.464001,4.656,none,5,3.0,48312.0,403431.0,403431.0,403431.0,403431.0
2026-04-07 18:11:46.206030,475764,2576547484,2576548400,-0.173728,-0.015616,-1.057984,-1.9775,-2.3975,-5.53,17.888,-14.480001,4.456,none,5,3.0,48312.0,403431.0,403431.0,403431.0,403431.0
2026-04-07 18:11:46.225258,475765,2576562095,2576563334,-0.173728,-0.015616,-1.061888,0.00875,-3.45625,-6.3,17.888,-14.480001,4.456,none,5,3.0,48312.0,403431.0,403431.0,403431.0,403431.0
2026-04-07 18:11:46.227094,475766,2576571020,2576572072,-0.152256,-0.003904,-1.061888,2.51125,-3.33375,-6.4575,17.584002,-14.312,3.704,none,5,3.0,48312.0,403431.0,403431.0,403431.0,403431.0
2026-04-07 18:11:46.228711,475767,2576579918,2576580749,-0.152256,-0.003904,-1.061888,3.5,-1.6975,-6.0025,17.584002,-14.312,3.704,none,5,3.0,48312.0,403431.0,403431.0,403431.0,403431.0
2026-04-07 18:11:46.232631,475768,2576588849,2576589515,-0.181536,-0.046848,-1.052128,1.89,-0.76125,-5.43375,18.864,-14.704,4.152,none,5,3.0,48312.0,403431.0,403431.0,403431.0,403431.0
2026-04-07 18:11:46.261817,475769,2576603665,2576604427,-0.189344,-0.056608,-1.057984,-0.09625,-0.30625,-5.2675,18.184,-14.152,4.4,none,5,3.0,48312.0,403431.0,403431.0,403431.0,403431.0
2026-04-07 18:11:46.332015,475779,2576613028,2576615204,-0.189344,-0.056608,-1.057984,-0.48125,0.25375,-5.215,18.184,-14.152,4.4,none,5,3.0,48182.0,403431.0,403431.0,403431.0,403431.0
2026-04-07 18:11:46.333526,475780,2576622416,2576623895,-0.189344,-0.025376,-1.057984,0.90125,0.55125,-5.565,18.184,-14.152,4.4,none,5,3.0,48182.0,403431.0,403431.0,403431.0,403431.0
2026-04-07 18:11:46.337736,475781,2576631359,2576632650,-0.173728,-0.017568,-1.057984,2.7125,0.62125,-5.705,18.128,-14.448001,4.816001,none,5,3.0,48182.0,403431.0,403431.0,403431.0,403431.0
2026-04-07 18:11:46.339455,475782,2576645842,2576647592,-0.173728,-0.013664,-1.048224,2.7475,0.93625,-6.0375,18.368,-14.52,4.504,none,5,3.0,48182.0,403431.0,403431.0,403431.0,403431.0
2026-04-07 18:11:46.345896,475783,2576654762,2576656272,-0.173728,-0.013664,-1.048224,2.2225,0.83125,-5.74875,18.368,-14.52,4.504,none,5,3.0,48182.0,403431.0,403431.0,403431.0,403431.0
2026-04-07 18:11:46.346117,475784,2576663688,2576664945,-0.183488,-0.025376,-1.048224,2.03875,1.32125,-5.60875,17.992,-14.376,4.136,none,5,3.0,48182.0,403431.0,403431.0,403431.0,403431.0
2026-04-07 18:11:46.346991,475785,2576678160,2576679873,-0.183488,-0.025376,-1.048224,1.93375,1.75875,-5.67,17.992,-14.376,4.136,none,5,3.0,48182.0,403431.0,403431.0,403431.0,403431.0
2026-04-07 18:11:46.348544,475786,2576687203,2576688645,-0.179584,-0.025376,-1.048224,1.33,2.10875,-6.0025,17.2,-14.888001,5.896,none,5,3.0,48182.0,403431.0,403431.0,403431.0,403431.0
2026-04-07 18:11:46.356545,475787,2576696266,2576697373,-0.179584,-0.025376,-1.048224,0.5775,2.6775,-5.85375,17.2,-14.888001,5.896,none,5,3.0,48182.0,403431.0,403431.0,403431.0,403431.0
2026-04-07 18:11:46.358364,475788,2576710789,2576712285,-0.18544,-0.027328,-1.05408,-0.00875,3.4125,-5.53875,17.76,-14.800001,5.584,none,5,3.0,48182.0,403431.0,403431.0,403431.0,403431.0
2026-04-07 18:11:46.385694,475799,2576719800,2576721421,-0.18544,-0.027328,-1.05408,0.09625,3.8675,-5.285,17.76,-14.800001,5.584,none,5,3.0,48079.0,403431.0,403431.0,403431.0,403431.0
2026-04-07 18:11:46.387252,475800,2576728735,2576730194,-0.169824,-0.037088,-1.052128,-0.04375,3.4825,-5.39,18.368,-14.448001,4.408,none,5,3.0,48079.0,403431.0,403431.0,403431.0,403431.0
2026-04-07 18:11:46.391374,475801,2576743321,2576745152,-0.171776,-0.013664,-1.05408,-0.525,4.31375,-6.23875,18.368,-14.448001,3.352,none,5,3.0,48079.0,403431.0,403431.0,403431.0,403431.0
2026-04-07 18:11:46.396464,475802,2576752278,2576753907,-0.171776,-0.013664,-1.05408,0.84,4.7775,-6.50125,18.28,-14.264001,3.352,none,5,3.0,48079.0,403431.0,403431.0,403431.0,403431.0
2026-04-07 18:11:46.425563,475803,2576761206,2576762607,-0.171776,-0.013664,-1.05408,1.575,5.57375,-6.44,18.28,-14.264001,3.352,none,5,3.0,48079.0,403431.0,403431.0,403431.0,403431.0
2026-04-07 18:11:46.429562,475804,2576770157,2576771301,-0.177632,-0.00976,-1.052128,0.9275,6.615,-6.62375,18.6,-14.816001,4.144,none,5,3.0,48079.0,403431.0,403431.0,403431.0,403431.0
2026-04-07 18:11:46.431842,475805,2576784638,2576786214,-0.177632,-0.031232,-1.057984,0.49875,6.57125,-6.44875,17.872002,-14.824,2.928,none,5,3.0,48079.0,403431.0,403431.0,403431.0,403431.0
2026-04-07 18:11:46.435557,475806,2576793571,2576794931,-0.177632,-0.031232,-1.057984,0.805,6.7025,-6.15125,17.872002,-14.824,2.928,none,5,3.0,48079.0,403431.0,403431.0,403431.0,403431.0
2026-04-07 18:11:46.480832,475807,2576802577,2576803634,-0.177632,-0.031232,-1.057984,0.4375,7.105,-5.9325,17.872002,-14.824,2.928,none,5,3.0,48079.0,403431.0,403431.0,403431.0,403431.0
2026-04-07 18:11:46.509924,475817,2576817474,2576818626,-0.16592,-0.037088,-1.052128,-0.21,7.23625,-5.95875,17.856,-14.856001,5.496,none,5,3.0,47981.0,403431.0,403431.0,403431.0,403431.0
2026-04-07 18:11:46.511057,475818,2576826392,2576827291,-0.162016,-0.025376,-1.038464,0.105,7.44625,-6.30875,18.240002,-15.048,4.336,none,5,3.0,47981.0,403431.0,403431.0,403431.0,403431.0
2026-04-07 18:11:46.515297,475819,2576835342,2576836003,-0.162016,-0.025376,-1.038464,0.07,8.05,-5.78375,18.240002,-15.048,4.336,none,5,3.0,47981.0,403431.0,403431.0,403431.0,403431.0
2026-04-07 18:11:46.517105,475820,2576844613,2576846769,-0.169824,-0.023424,-1.020896,-0.51625,9.24,-5.55625,17.92,-14.896001,5.056,none,5,3.0,47981.0,403431.0,403431.0,403431.0,403431.0
2026-04-07 18:11:46.518628,475821,2576859097,2576859624,-0.169824,-0.023424,-1.020896,-1.63625,10.35125,-5.3375,17.92,-14.896001,5.056,none,5,3.0,47981.0,403431.0,403431.0,403431.0,403431.0
2026-04-07 18:11:46.522737,475822,2576868519,2576870412,-0.177632,-0.017568,-1.0248,-2.70375,10.8675,-5.67,17.624,-15.000001,5.848,none,5,3.0,47981.0,403431.0,403431.0,403431.0,403431.0
2026-04-07 18:11:46.525189,475823,2576877458,2576879127,-0.177632,-0.017568,-1.0248,-3.92875,10.4125,-6.25625,17.624,-15.000001,5.848,none,5,3.0,47981.0,403431.0,403431.0,403431.0,403431.0
2026-04-07 18:11:46.554018,475824,2576892033,2576894061,-0.160064,-0.007808,-1.028704,-4.41,10.325,-6.755,17.856,-14.808001,5.272,none,5,3.0,47981.0,403431.0,403431.0,403431.0,403431.0
2026-04-07 18:11:46.558218,475825,2576900932,2576902745,-0.160064,-0.007808,-1.028704,-4.585,10.045,-7.56875,17.856,-14.808001,5.272,none,5,3.0,47981.0,403431.0,403431.0,403431.0,403431.0
2026-04-07 18:11:46.559704,475826,2576909920,2576911458,-0.15616,0.005856,-1.026752,-4.4275,9.79125,-8.1375,17.92,-14.72,4.792,none,5,3.0,47981.0,403431.0,403431.0,403431.0,403431.0
2026-04-07 18:11:46.620992,475836,2576919412,2576920548,-0.15616,0.005856,-1.026752,-3.4125,9.70375,-8.11125,17.92,-14.72,4.792,none,5,3.0,47975.0,403431.0,403431.0,403431.0,403431.0
2026-04-07 18:11:46.625601,475837,2576933961,2576935575,-0.169824,-0.005856,-1.007232,-1.82,10.08875,-7.77875,17.904001,-14.816001,5.72,none,5,3.0,47975.0,403431.0,403431.0,403431.0,403431.0
2026-04-07 18:11:46.631565,475838,2576942927,2576944278,-0.169824,-0.005856,-1.007232,-0.7875,10.22,-7.58625,17.904001,-14.816001,5.72,none,5,3.0,47975.0,403431.0,403431.0,403431.0,403431.0
2026-04-07 18:11:46.633238,475839,2576951854,2576952969,-0.162016,-0.00976,-1.026752,-1.33875,10.0275,-7.6475,17.512001,-15.120001,4.488,none,5,3.0,47975.0,403431.0,403431.0,403431.0,403431.0
2026-04-07 18:11:46.634780,475840,2576966325,2576967830,-0.158112,-0.005856,-1.030656,-2.7475,9.63375,-7.735,17.792002,-15.160001,4.408,none,5,3.0,47975.0,403431.0,403431.0,403431.0,403431.0
2026-04-07 18:11:46.639031,475841,2576975372,2576976573,-0.158112,-0.005856,-1.030656,-3.5175,9.3625,-7.6125,17.792002,-15.160001,4.408,none,5,3.0,47975.0,403431.0,403431.0,403431.0,403431.0
2026-04-07 18:11:46.640714,475842,2576984279,2576985338,-0.158112,-0.005856,-1.042368,-3.745,9.135,-7.28,17.792002,-15.160001,4.408,none,5,3.0,47975.0,403431.0,403431.0,403431.0,403431.0
2026-04-07 18:11:46.642512,475843,2576998798,2577000287,-0.16592,-0.005856,-1.042368,-3.61375,8.7675,-7.02625,17.28,-15.288001,3.784,none,5,3.0,47975.0,403431.0,403431.0,403431.0,403431.0
2026-04-07 18:11:46.651443,475844,2577007738,2577008980,-0.142496,-0.005856,-1.036512,-3.33375,8.12,-6.93875,17.192001,-15.296001,5.984,none,5,3.0,47975.0,403431.0,403431.0,403431.0,403431.0
2026-04-07 18:11:46.708706,475855,2577016654,2577017747,-0.142496,-0.005856,-1.036512,-2.8175,8.7325,-6.74625,17.192001,-15.296001,5.984,none,5,3.0,47804.0,403431.0,403431.0,403431.0,403431.0
2026-04-07 18:11:46.712766,475856,2577025665,2577026557,-0.144448,-0.001952,-1.040416,-2.63375,9.28375,-7.07,17.856,-14.960001,4.84,none,5,3.0,47804.0,403431.0,403431.0,403431.0,403431.0
2026-04-07 18:11:46.714509,475857,2577040228,2577041429,-0.144448,-0.001952,-1.040416,-2.70375,10.05375,-7.0525,17.856,-14.960001,4.84,none,5,3.0,47804.0,403431.0,403431.0,403431.0,403431.0
2026-04-07 18:11:46.716091,475858,2577049180,2577050187,-0.160064,-0.011712,-1.05408,-2.91375,10.5175,-6.58875,17.776001,-15.048,4.352,none,5,3.0,47804.0,403431.0,403431.0,403431.0,403431.0
2026-04-07 18:11:46.720590,475859,2577058110,2577058901,-0.160064,-0.011712,-1.05408,-2.625,10.7275,-6.15125,17.776001,-15.048,4.352,none,5,3.0,47804.0,403431.0,403431.0,403431.0,403431.0
2026-04-07 18:11:46.724416,475860,2577073238,2577073881,-0.150304,-0.003904,-1.065792,-2.695,10.99,-6.55375,17.544,-15.296001,4.768,none,5,3.0,47804.0,403431.0,403431.0,403431.0,403431.0
2026-04-07 18:11:46.726022,475861,2577082496,2577084699,-0.150304,-0.003904,-1.065792,-1.925,11.55875,-6.58875,17.544,-15.296001,4.768,none,5,3.0,47804.0,403431.0,403431.0,403431.0,403431.0
2026-04-07 18:11:46.757174,475862,2577091604,2577093424,-0.144448,0.013664,-1.069696,-0.4725,12.1275,-6.39625,17.336,-14.824,4.8,none,5,3.0,47804.0,403431.0,403431.0,403431.0,403431.0
2026-04-07 18:11:46.761658,475863,2577100603,2577102125,-0.144448,0.013664,-1.069696,0.4375,12.3375,-5.88875,17.336,-14.824,4.8,none,5,3.0,47804.0,403431.0,403431.0,403431.0,403431.0
2026-04-07 18:11:46.786562,475873,2577115098,2577117378,-0.140544,-0.005856,-1.077504,1.14625,13.230001,-5.57375,17.768002,-15.448001,4.608,none,5,3.0,47535.0,403431.0,403431.0,403431.0,403431.0
2026-04-07 18:11:46.788210,475874,2577124163,2577126108,-0.140544,-0.005856,-1.077504,2.31875,13.25625,-4.71625,17.768002,-15.448001,4.608,none,5,3.0,47535.0,403431.0,403431.0,403431.0,403431.0
2026-04-07 18:11:46.789924,475875,2577133497,2577134889,-0.130784,-0.011712,-1.085312,3.5525,14.105001,-4.54125,17.2,-15.120001,5.448,none,5,3.0,47535.0,403431.0,403431.0,403431.0,403431.0
2026-04-07 18:11:46.793918,475876,2577148117,2577149900,-0.130784,0.007808,-1.091168,2.765,15.35625,-5.27625,17.136002,-15.736001,5.92,none,5,3.0,47535.0,403431.0,403431.0,403431.0,403431.0
2026-04-07 18:11:46.825838,475877,2577157243,2577158670,-0.130784,0.007808,-1.091168,1.6975,16.3625,-6.55375,17.136002,-15.736001,5.92,none,5,3.0,47535.0,403431.0,403431.0,403431.0,403431.0
2026-04-07 18:11:46.839041,475878,2577166214,2577167360,-0.12688,0.017568,-1.08336,2.38,17.61375,-7.09625,17.184,-15.096001,3.552,none,5,3.0,47535.0,403431.0,403431.0,403431.0,403431.0
2026-04-07 18:11:46.840852,475879,2577175120,2577176028,-0.12688,0.017568,-1.08336,4.8475,18.40125,-7.00875,17.184,-15.096001,3.552,none,5,3.0,47535.0,403431.0,403431.0,403431.0,403431.0
2026-04-07 18:11:46.842275,475880,2577189619,2577190965,-0.121024,-0.011712,-1.06384,6.685,19.45125,-6.67625,17.272001,-14.984001,5.112001,none,5,3.0,47535.0,403431.0,403431.0,403431.0,403431.0
2026-04-07 18:11:46.846354,475881,2577198534,2577199674,-0.121024,-0.011712,-1.06384,8.6975,19.71375,-6.65,17.272001,-14.984001,5.112001,none,5,3.0,47535.0,403431.0,403431.0,403431.0,403431.0
2026-04-07 18:11:46.851410,475882,2577207504,2577208359,-0.122976,-0.00976,-1.056032,9.75625,20.04625,-6.965,16.488,-15.136001,5.104,none,5,3.0,47535.0,403431.0,403431.0,403431.0,403431.0
2026-04-07 18:11:46.934708,475892,2577222153,2577223349,-0.122976,-0.00976,-1.056032,10.75375,20.53625,-7.60375,16.488,-15.136001,5.104,none,5,3.0,47527.0,403431.0,403431.0,403431.0,403431.0
2026-04-07 18:11:46.937195,475893,2577231155,2577232147,-0.113216,0.00976,-1.04432,11.698751,20.991251,-7.7175,16.44,-14.656001,4.664,none,5,3.0,47527.0,403431.0,403431.0,403431.0,403431.0
2026-04-07 18:11:46.939701,475894,2577240156,2577240831,-0.113216,0.00976,-1.04432,11.90875,21.2975,-7.84875,16.44,-14.656001,4.664,none,5,3.0,47527.0,403431.0,403431.0,403431.0,403431.0
2026-04-07 18:11:46.942263,475895,2577249424,2577251577,-0.11712,-0.011712,-1.028704,10.5525,21.0875,-7.6825,16.856,-14.76,4.528,none,5,3.0,47527.0,403431.0,403431.0,403431.0,403431.0
2026-04-07 18:11:46.944744,475896,2577263965,2577264408,-0.11712,-0.011712,-1.028704,8.365,21.74375,-7.98875,16.856,-14.76,4.528,none,5,3.0,47527.0,403431.0,403431.0,403431.0,403431.0
2026-04-07 18:11:46.947193,475897,2577273326,2577275162,-0.111264,-0.011712,-1.011136,7.74375,21.7175,-7.91875,16.512001,-14.528001,4.12,none,5,3.0,47527.0,403431.0,403431.0,403431.0,403431.0
2026-04-07 18:11:46.949711,475898,2577282326,2577283863,-0.111264,-0.011712,-1.011136,9.00375,21.35,-7.7175,16.512001,-14.528001,4.12,none,5,3.0,47527.0,403431.0,403431.0,403431.0,403431.0
2026-04-07 18:11:46.952295,475899,2577296876,2577298783,-0.099552,-0.017568,-1.028704,9.5375,21.30625,-7.665,16.36,-14.704,4.496,none,5,3.0,47527.0,403431.0,403431.0,403431.0,403431.0
2026-04-07 18:11:46.954641,475900,2577305985,2577307492,-0.06832,0.003904,-1.01504,8.9075,20.81625,-7.945,16.36,-14.704,4.76,none,5,3.0,47527.0,403431.0,403431.0,403431.0,403431.0
2026-04-07 18:11:46.957235,475901,2577314960,2577316266,-0.07808,0.003904,-1.01504,8.2075,20.95625,-8.11125,16.096,-14.920001,4.76,none,5,3.0,47527.0,403431.0,403431.0,403431.0,403431.0
2026-04-07 18:11:46.983643,475911,2577323979,2577325037,-0.07808,0.003904,-1.01504,10.01,20.78125,-8.3125,16.096,-14.920001,4.76,none,5,3.0,47436.0,403431.0,403431.0,403431.0,403431.0
2026-04-07 18:11:46.985902,475912,2577338521,2577340043,-0.06832,-0.007808,-1.009184,11.515,21.30625,-7.6125,16.240002,-14.352,4.256,none,5,3.0,47436.0,403431.0,403431.0,403431.0,403431.0
2026-04-07 18:11:46.991035,475913,2577347471,2577348755,-0.076128,-0.052704,-0.999424,9.8525,21.428751,-7.4375,16.008001,-14.272,4.608,none,5,3.0,47436.0,403431.0,403431.0,403431.0,403431.0
2026-04-07 18:11:46.997297,475914,2577356389,2577357489,-0.076128,-0.052704,-0.999424,7.665,21.41125,-7.11375,16.008001,-14.272,4.608,none,5,3.0,47436.0,403431.0,403431.0,403431.0,403431.0
2026-04-07 18:11:47.027459,475915,2577370879,2577372432,-0.074176,-0.007808,-1.016992,6.86,20.8775,-7.735,15.360001,-14.040001,4.728,none,5,3.0,47436.0,403431.0,403431.0,403431.0,403431.0
2026-04-07 18:11:47.031037,475916,2577379803,2577381128,-0.074176,-0.007808,-1.016992,6.27375,20.71125,-8.198751,15.360001,-14.040001,4.728,none,5,3.0,47436.0,403431.0,403431.0,403431.0,403431.0
2026-04-07 18:11:47.033501,475917,2577388723,2577389802,-0.037088,0.01952,-1.028704,5.4075,19.85375,-9.625,15.776001,-14.568001,4.48,none,5,3.0,47436.0,403431.0,403431.0,403431.0,403431.0
2026-04-07 18:11:47.064284,475918,2577403218,2577404766,-0.037088,0.01952,-1.028704,5.005,20.08125,-10.84125,15.776001,-14.568001,4.48,none,5,3.0,47436.0,403431.0,403431.0,403431.0,403431.0
2026-04-07 18:11:47.067345,475919,2577412139,2577413465,-0.040992,-0.017568,-1.013088,4.45375,20.8425,-11.52375,15.928,-14.256001,5.096,none,5,3.0,47436.0,403431.0,403431.0,403431.0,403431.0
2026-04-07 18:11:47.094815,475930,2577421557,2577422251,-0.040992,-0.017568,-1.013088,3.85,21.18375,-11.36625,15.928,-14.256001,5.096,none,5,3.0,47390.0,403431.0,403431.0,403431.0,403431.0
2026-04-07 18:11:47.097249,475931,2577430949,2577433024,-0.066368,-0.033184,-0.997472,4.5325,20.46625,-11.042501,15.56,-14.112,4.72,none,5,3.0,47390.0,403431.0,403431.0,403431.0,403431.0
2026-04-07 18:11:47.099848,475932,2577445468,2577445952,-0.066368,-0.033184,-0.997472,5.9675,19.78375,-10.75375,15.56,-14.112,4.72,none,5,3.0,47390.0,403431.0,403431.0,403431.0,403431.0
2026-04-07 18:11:47.106016,475933,2577454875,2577456765,-0.054656,0.003904,-1.01504,8.11125,19.215,-10.4125,15.048,-14.136001,7.152,none,5,3.0,47390.0,403431.0,403431.0,403431.0,403431.0
2026-04-07 18:11:47.108445,475934,2577463823,2577465488,-0.054656,0.003904,-1.01504,9.58125,18.24375,-9.37125,15.048,-14.136001,7.152,none,5,3.0,47390.0,403431.0,403431.0,403431.0,403431.0
2026-04-07 18:11:47.139641,475935,2577478324,2577480364,-0.040992,-0.001952,-1.016992,9.47625,17.68375,-8.925,15.888001,-14.384001,5.728,none,5,3.0,47390.0,403431.0,403431.0,403431.0,403431.0
2026-04-07 18:11:47.144353,475936,2577487259,2577489058,-0.033184,-0.05856,-1.011136,8.39125,17.675,-7.91875,15.272,-13.952001,5.64,none,5,3.0,47390.0,403431.0,403431.0,403431.0,403431.0
2026-04-07 18:11:47.145759,475937,2577496208,2577497752,-0.033184,-0.05856,-1.011136,6.3875,17.9375,-6.09,15.272,-13.952001,5.64,none,5,3.0,47390.0,403431.0,403431.0,403431.0,403431.0
2026-04-07 18:11:47.149306,475938,2577505115,2577506445,-0.033184,-0.05856,-1.011136,3.22,17.77125,-6.46625,15.272,-13.952001,5.64,none,5,3.0,47390.0,403431.0,403431.0,403431.0,403431.0
2026-04-07 18:11:47.235252,475948,2577519607,2577521949,-0.033184,-0.040992,-0.977952,1.6275,18.025,-6.85125,14.976001,-14.232,5.672,none,5,3.0,47394.0,403431.0,403431.0,403431.0,403431.0
2026-04-07 18:11:47.236923,475949,2577528527,2577530685,-0.044896,0.001952,-0.974048,1.8025,18.26125,-6.02,15.440001,-14.216001,4.992,none,5,3.0,47394.0,403431.0,403431.0,403431.0,403431.0
2026-04-07 18:11:47.238529,475950,2577537422,2577539362,-0.044896,0.001952,-0.974048,1.86375,18.29625,-5.62625,15.440001,-14.216001,4.992,none,5,3.0,47394.0,403431.0,403431.0,403431.0,403431.0
2026-04-07 18:11:47.242809,475951,2577551923,2577552243,-0.011712,-0.007808,-0.979904,0.7525,17.57875,-5.71375,15.392001,-13.752001,4.704,none,5,3.0,47394.0,403431.0,403431.0,403431.0,403431.0
2026-04-07 18:11:47.244467,475952,2577561120,2577562945,-0.011712,-0.007808,-0.979904,1.07625,15.54875,-5.18875,15.392001,-13.752001,4.704,none,5,3.0,47394.0,403431.0,403431.0,403431.0,403431.0
2026-04-07 18:11:47.246029,475953,2577570041,2577571654,-0.007808,-0.03904,-0.96624,1.12875,14.8925,-5.11,14.576001,-14.64,5.008,none,5,3.0,47394.0,403431.0,403431.0,403431.0,403431.0
2026-04-07 18:11:47.252723,475954,2577584580,2577586620,-0.007808,-0.03904,-0.96624,-1.435,14.6125,-5.97625,14.576001,-14.64,5.008,none,5,3.0,47394.0,403431.0,403431.0,403431.0,403431.0
2026-04-07 18:11:47.254494,475955,2577593648,2577595380,-0.013664,-0.015616,-0.90768,-2.79125,13.86,-6.685,15.200001,-14.152,4.976,none,5,3.0,47394.0,403431.0,403431.0,403431.0,403431.0
2026-04-07 18:11:47.256001,475956,2577602595,2577604111,-0.013664,-0.015616,-0.90768,-1.79375,13.405,-6.32625,15.200001,-14.152,4.976,none,5,3.0,47394.0,403431.0,403431.0,403431.0,403431.0
2026-04-07 18:11:47.260122,475957,2577611624,2577612858,-0.042944,0.0,-0.95648,-1.6275,12.565,-6.02875,15.072001,-13.848001,4.8,none,5,3.0,47394.0,403431.0,403431.0,403431.0,403431.0
2026-04-07 18:11:47.284420,475967,2577626205,2577627942,-0.042944,0.0,-0.95648,-1.70625,9.93125,-6.90375,15.072001,-13.848001,4.8,none,5,3.0,47402.0,403431.0,403431.0,403431.0,403431.0
2026-04-07 18:11:47.286937,475968,2577635165,2577636655,0.023424,-0.003904,-0.977952,-1.2425,8.33875,-7.74375,14.936001,-14.016001,2.28,none,5,3.0,47402.0,403431.0,403431.0,403431.0,403431.0
2026-04-07 18:11:47.288445,475969,2577644222,2577645362,0.023424,-0.003904,-0.977952,-2.73,8.12,-8.9775,14.936001,-14.016001,2.28,none,5,3.0,47402.0,403431.0,403431.0,403431.0,403431.0
2026-04-07 18:11:47.319577,475970,2577658717,2577660309,-0.011712,0.021472,-0.933056,-2.6425,8.18125,-8.5575,14.944,-14.592001,4.696,none,5,3.0,47402.0,403431.0,403431.0,403431.0,403431.0
2026-04-07 18:11:47.324097,475971,2577667625,2577669027,-0.027328,-0.060512,-0.935008,-3.29875,7.8225,-7.56875,14.944,-14.592001,4.0,none,5,3.0,47402.0,403431.0,403431.0,403431.0,403431.0
2026-04-07 18:11:47.325608,475972,2577676605,2577677722,-0.027328,-0.060512,-0.935008,-5.4075,6.02875,-6.545,14.68,-14.768001,4.0,none,5,3.0,47402.0,403431.0,403431.0,403431.0,403431.0
2026-04-07 18:11:47.355792,475973,2577691138,2577692635,0.0,-0.052704,-0.954528,-6.93875,3.56125,-5.88875,14.552001,-14.464001,6.464,none,5,3.0,47402.0,403431.0,403431.0,403431.0,403431.0
2026-04-07 18:11:47.360250,475974,2577700057,2577701314,0.0,-0.052704,-0.954528,-5.74875,1.5225,-4.9875,14.552001,-14.464001,6.464,none,5,3.0,47402.0,403431.0,403431.0,403431.0,403431.0
2026-04-07 18:11:47.361950,475975,2577709009,2577710115,0.00976,0.00976,-0.960384,-4.47125,0.5775,-4.20875,14.800001,-14.480001,4.72,none,5,3.0,47402.0,403431.0,403431.0,403431.0,403431.0
2026-04-07 18:11:47.392340,475986,2577724007,2577725077,0.00976,0.00976,-0.960384,-5.10125,0.79625,-4.45375,14.800001,-14.480001,4.72,none,5,3.0,47375.0,403431.0,403431.0,403431.0,403431.0
2026-04-07 18:11:47.395668,475987,2577733026,2577733817,0.0,0.007808,-0.915488,-8.155,0.98,-5.0575,14.384001,-15.024001,5.824,none,5,3.0,47375.0,403431.0,403431.0,403431.0,403431.0
2026-04-07 18:11:47.397232,475988,2577742448,2577744642,0.0,0.007808,-0.915488,-10.9025,1.19875,-4.82125,14.384001,-15.024001,5.824,none,5,3.0,47375.0,403431.0,403431.0,403431.0,403431.0
2026-04-07 18:11:47.401392,475989,2577751400,2577753364,-0.011712,-0.02928,-0.923296,-12.08375,-0.28875,-5.18875,14.144001,-15.160001,5.656,none,5,3.0,47375.0,403431.0,403431.0,403431.0,403431.0
2026-04-07 18:11:47.429881,475990,2577765988,2577768293,-0.011712,-0.02928,-0.923296,-11.8475,-2.59875,-5.31125,14.144001,-15.160001,5.656,none,5,3.0,47375.0,403431.0,403431.0,403431.0,403431.0
2026-04-07 18:11:47.434396,475991,2577774886,2577776969,-0.005856,0.011712,-0.938912,-9.0475,-4.725,-5.8275,14.472001,-14.872001,4.128,none,5,3.0,47375.0,403431.0,403431.0,403431.0,403431.0
2026-04-07 18:11:47.435874,475992,2577783831,2577785671,-0.005856,0.011712,-0.938912,-4.48875,-6.13375,-6.71125,14.472001,-14.872001,4.128,none,5,3.0,47375.0,403431.0,403431.0,403431.0,403431.0
2026-04-07 18:11:47.440425,475993,2577792787,2577794392,-0.037088,0.046848,-0.960384,-2.9925,-6.7375,-6.72,15.528001,-15.008,4.952,none,5,3.0,47375.0,403431.0,403431.0,403431.0,403431.0
2026-04-07 18:11:47.470821,475994,2577807293,2577809293,-0.037088,0.046848,-0.960384,-4.15625,-7.9275,-7.7875,15.528001,-15.008,4.952,none,5,3.0,47375.0,403431.0,403431.0,403431.0,403431.0
2026-04-07 18:11:47.475796,475995,2577816158,2577817970,-0.027328,0.015616,-0.989664,-4.76,-9.61625,-8.085,15.64,-15.040001,5.992,none,5,3.0,47375.0,403431.0,403431.0,403431.0,403431.0
2026-04-07 18:11:47.534046,476005,2577825198,2577826742,-0.027328,0.015616,-0.989664,-3.8325,-11.34875,-7.56875,15.64,-15.040001,5.992,none,5,3.0,47354.0,403431.0,403431.0,403431.0,403431.0
2026-04-07 18:11:47.535692,476006,2577839721,2577841657,-0.031232,-0.015616,-0.989664,-2.3975,-11.06,-7.0175,15.376,-15.328001,4.744,none,5,3.0,47354.0,403431.0,403431.0,403431.0,403431.0
2026-04-07 18:11:47.537269,476007,2577848658,2577850327,-0.060512,-0.02928,-1.013088,-1.21625,-11.5325,-5.5125,15.376,-15.592001,5.712,none,5,3.0,47354.0,403431.0,403431.0,403431.0,403431.0
2026-04-07 18:11:47.541673,476008,2577857557,2577859041,-0.060512,-0.02928,-1.013088,-1.68,-12.43375,-4.9175,15.624001,-15.592001,5.712,none,5,3.0,47354.0,403431.0,403431.0,403431.0,403431.0
2026-04-07 18:11:47.545480,476009,2577872057,2577873907,-0.01952,0.00976,-1.056032,-1.98625,-12.97625,-5.34625,15.64,-15.360001,4.792,none,5,3.0,47354.0,403431.0,403431.0,403431.0,403431.0
2026-04-07 18:11:47.545710,476010,2577881013,2577882618,-0.01952,0.00976,-1.056032,-1.26875,-13.25625,-5.7225,15.64,-15.360001,4.792,none,5,3.0,47354.0,403431.0,403431.0,403431.0,403431.0
2026-04-07 18:11:47.549055,476011,2577890117,2577891393,-0.0488,0.031232,-1.057984,0.9975,-12.80125,-5.85375,16.152,-15.648001,4.912,none,5,3.0,47354.0,403431.0,403431.0,403431.0,403431.0
2026-04-07 18:11:47.551585,476012,2577904637,2577906365,-0.0488,0.031232,-1.057984,2.8875,-11.57625,-4.7425,16.152,-15.648001,4.912,none,5,3.0,47354.0,403431.0,403431.0,403431.0,403431.0
2026-04-07 18:11:47.557843,476013,2577913649,2577915091,-0.046848,-0.037088,-1.061888,3.12375,-11.725,-3.7625,16.136002,-15.048,5.112001,none,5,3.0,47354.0,403431.0,403431.0,403431.0,403431.0
2026-04-07 18:11:47.610748,476023,2577922784,2577923975,-0.046848,-0.037088,-1.061888,3.3425,-12.136251,-3.42125,16.136002,-15.048,5.112001,none,5,3.0,47547.0,403431.0,403431.0,403431.0,403431.0
2026-04-07 18:11:47.612424,476024,2577931755,2577932763,-0.040992,-0.015616,-1.091168,5.81,-11.480001,-3.03625,16.568,-15.264001,4.736,none,5,3.0,47547.0,403431.0,403431.0,403431.0,403431.0
2026-04-07 18:11:47.616578,476025,2577946254,2577947677,-0.040992,-0.015616,-1.091168,9.09125,-10.6575,-3.57875,16.568,-15.264001,4.736,none,5,3.0,47547.0,403431.0,403431.0,403431.0,403431.0
2026-04-07 18:11:47.618286,476026,2577955267,2577956387,-0.066368,0.027328,-1.10288,10.57875,-9.38875,-4.08625,15.912001,-15.096001,4.872,none,5,3.0,47547.0,403431.0,403431.0,403431.0,403431.0
2026-04-07 18:11:47.619744,476027,2577964311,2577965183,-0.066368,0.027328,-1.10288,10.96375,-8.2075,-3.465,15.912001,-15.096001,4.872,none,5,3.0,47547.0,403431.0,403431.0,403431.0,403431.0
2026-04-07 18:11:47.625195,476028,2577973847,2577975971,-0.080032,0.0,-1.071648,12.6875,-7.81375,-2.695,16.168001,-15.224001,5.6,none,5,3.0,47547.0,403431.0,403431.0,403431.0,403431.0
2026-04-07 18:11:47.630197,476029,2577988377,2577988776,-0.080032,0.0,-1.071648,11.698751,-7.02625,-2.555,16.168001,-15.224001,5.6,none,5,3.0,47547.0,403431.0,403431.0,403431.0,403431.0
2026-04-07 18:11:47.658706,476030,2577997692,2577999533,-0.060512,-0.025376,-1.104832,10.0275,-5.94125,-3.29,16.304,-14.920001,5.568,none,5,3.0,47547.0,403431.0,403431.0,403431.0,403431.0
2026-04-07 18:11:47.663350,476031,2578006621,2578008218,-0.060512,-0.025376,-1.104832,9.073751,-4.38375,-3.45625,16.304,-14.920001,5.568,none,5,3.0,47547.0,403431.0,403431.0,403431.0,403431.0
2026-04-07 18:11:47.691517,476042,2578021113,2578023116,-0.05856,-0.01952,-1.100928,8.58375,-3.03625,-3.36,16.04,-14.904,4.816001,none,5,3.0,47653.0,403431.0,403431.0,403431.0,403431.0
2026-04-07 18:11:47.695715,476043,2578030410,2578032083,-0.072224,-0.007808,-1.077504,9.6075,-1.88125,-3.08875,15.632001,-14.968,8.328,none,5,3.0,47653.0,403431.0,403431.0,403431.0,403431.0
2026-04-07 18:11:47.697256,476044,2578039372,2578040804,-0.072224,-0.007808,-1.077504,10.28125,-0.32375,-2.59,15.632001,-14.968,8.328,none,5,3.0,47653.0,403431.0,403431.0,403431.0,403431.0
2026-04-07 18:11:47.699762,476045,2578048413,2578049496,-0.072224,-0.007808,-1.077504,9.5025,0.2975,-1.995,15.632001,-14.968,8.328,none,5,3.0,47653.0,403431.0,403431.0,403431.0,403431.0
2026-04-07 18:11:47.712926,476046,2578062935,2578064412,-0.074176,-0.023424,-1.081408,8.0675,0.60375,-2.905,15.888001,-14.72,5.488,none,5,3.0,47653.0,403431.0,403431.0,403431.0,403431.0
2026-04-07 18:11:47.714366,476047,2578071865,2578073136,-0.054656,-0.007808,-1.08336,8.30375,0.9625,-3.82375,15.928,-14.912001,4.528,none,5,3.0,47653.0,403431.0,403431.0,403431.0,403431.0
2026-04-07 18:11:47.760879,476048,2578080831,2578081860,-0.054656,-0.007808,-1.08336,10.03625,1.91625,-4.85625,15.928,-14.912001,4.528,none,5,3.0,47653.0,403431.0,403431.0,403431.0,403431.0
2026-04-07 18:11:47.763134,476049,2578095326,2578096753,-0.081984,-0.021472,-1.06384,11.19125,3.35125,-4.68125,16.496,-14.552001,4.616,none,5,3.0,47653.0,403431.0,403431.0,403431.0,403431.0
2026-04-07 18:11:47.767833,476050,2578104244,2578105448,-0.081984,-0.021472,-1.06384,9.03875,5.04,-3.9375,16.496,-14.552001,4.616,none,5,3.0,47653.0,403431.0,403431.0,403431.0,403431.0
2026-04-07 18:11:47.770179,476051,2578113156,2578114124,-0.072224,-0.062464,-1.056032,6.23,5.6,-4.445,16.232,-14.464001,4.664,none,5,3.0,47653.0,403431.0,403431.0,403431.0,403431.0
2026-04-07 18:11:47.834827,476061,2578127727,2578129244,-0.072224,-0.062464,-1.056032,4.1475,5.43375,-4.82125,16.232,-14.464001,4.664,none,5,3.0,47569.0,403431.0,403431.0,403431.0,403431.0
2026-04-07 18:11:47.839043,476062,2578136748,2578137976,-0.05856,-0.02928,-1.061888,4.06,6.18625,-5.43375,16.384,-14.784,5.056,none,5,3.0,47569.0,403431.0,403431.0,403431.0,403431.0
2026-04-07 18:11:47.840715,476063,2578145772,2578146685,-0.05856,-0.02928,-1.061888,4.19125,7.0525,-5.7925,16.384,-14.784,5.056,none,5,3.0,47569.0,403431.0,403431.0,403431.0,403431.0
2026-04-07 18:11:47.842313,476064,2578160284,2578161577,-0.070272,-0.015616,-1.057984,3.07125,7.7175,-5.90625,15.736001,-14.432001,4.408,none,5,3.0,47569.0,403431.0,403431.0,403431.0,403431.0
2026-04-07 18:11:47.846566,476065,2578169199,2578170292,-0.070272,-0.015616,-1.057984,2.485,8.4,-5.145,15.736001,-14.432001,4.408,none,5,3.0,47569.0,403431.0,403431.0,403431.0,403431.0
2026-04-07 18:11:47.848274,476066,2578178114,2578178958,-0.07808,-0.0488,-1.05408,0.595,8.84625,-4.40125,15.856001,-14.736001,4.288,none,5,3.0,47569.0,403431.0,403431.0,403431.0,403431.0
2026-04-07 18:11:47.849811,476067,2578187104,2578187739,-0.07808,-0.0488,-1.05408,-1.37375,9.730001,-4.655,15.856001,-14.736001,4.288,none,5,3.0,47569.0,403431.0,403431.0,403431.0,403431.0
2026-04-07 18:11:47.854093,476068,2578202100,2578202696,-0.060512,-0.033184,-1.052128,-2.37125,9.730001,-5.6,15.232,-15.152,6.208,none,5,3.0,47569.0,403431.0,403431.0,403431.0,403431.0
2026-04-07 18:11:47.856452,476069,2578211347,2578213479,-0.064416,0.001952,-1.057984,-2.6425,10.35125,-5.66125,15.544001,-14.552001,7.608,none,5,3.0,47569.0,403431.0,403431.0,403431.0,403431.0
2026-04-07 18:11:47.884966,476070,2578220305,2578222168,-0.064416,0.001952,-1.057984,-2.28375,10.68375,-6.125,15.544001,-14.552001,7.608,none,5,3.0,47569.0,403431.0,403431.0,403431.0,403431.0
2026-04-07 18:11:47.912810,476080,2578234848,2578237078,-0.062464,-0.003904,-1.061888,-1.84625,11.375,-6.3175,15.648001,-14.76,4.792,none,5,3.0,47563.0,403431.0,403431.0,403431.0,403431.0
2026-04-07 18:11:47.914842,476081,2578243785,2578245761,-0.062464,-0.003904,-1.061888,-1.81125,11.9,-5.34625,15.648001,-14.76,4.792,none,5,3.0,47563.0,403431.0,403431.0,403431.0,403431.0
2026-04-07 18:11:47.916479,476082,2578252728,2578254507,-0.056608,-0.003904,-1.087264,-2.625,12.31125,-5.5825,15.616001,-15.072001,6.424,none,5,3.0,47563.0,403431.0,403431.0,403431.0,403431.0
2026-04-07 18:11:47.924106,476083,2578261745,2578263255,-0.056608,-0.003904,-1.087264,-2.49375,12.573751,-6.69375,15.616001,-15.072001,6.424,none,5,3.0,47563.0,403431.0,403431.0,403431.0,403431.0
2026-04-07 18:11:47.927029,476084,2578276285,2578278234,-0.033184,0.017568,-1.097024,-1.93375,13.16,-6.86,15.624001,-15.144001,5.856,none,5,3.0,47563.0,403431.0,403431.0,403431.0,403431.0
2026-04-07 18:11:47.932689,476085,2578285252,2578286969,-0.033184,0.017568,-1.097024,0.6475,14.27125,-6.4575,15.624001,-15.144001,5.856,none,5,3.0,47563.0,403431.0,403431.0,403431.0,403431.0
2026-04-07 18:11:47.938904,476086,2578294175,2578295692,-0.046848,-0.02928,-1.087264,1.855,15.9425,-5.5475,15.384001,-15.216001,4.944,none,5,3.0,47563.0,403431.0,403431.0,403431.0,403431.0
2026-04-07 18:11:47.967447,476087,2578308667,2578310686,-0.046848,-0.02928,-1.087264,1.715,16.1525,-4.6025,15.384001,-15.216001,4.944,none,5,3.0,47563.0,403431.0,403431.0,403431.0,403431.0
2026-04-07 18:11:47.971988,476088,2578317599,2578319369,-0.066368,-0.056608,-1.089216,1.155,17.08875,-3.78875,15.896001,-15.128,4.952,none,5,3.0,47563.0,403431.0,403431.0,403431.0,403431.0
2026-04-07 18:11:48.000472,476099,2578326958,2578328243,-0.066368,-0.056608,-1.089216,1.295,17.43875,-3.73625,15.896001,-15.128,4.952,none,5,3.0,47288.0,403431.0,403431.0,403431.0,403431.0
2026-04-07 18:11:48.006137,476100,2578335900,2578336984,-0.042944,0.00976,-1.097024,3.43,17.395,-3.57,15.576001,-15.008,5.12,none,5,3.0,47288.0,403431.0,403431.0,403431.0,403431.0
2026-04-07 18:11:48.009459,476101,2578350526,2578351982,-0.042944,0.00976,-1.10288,6.48375,18.06875,-3.325,15.576001,-15.008,5.12,none,5,3.0,47288.0,403431.0,403431.0,403431.0,403431.0
2026-04-07 18:11:48.011020,476102,2578359465,2578360713,-0.033184,0.021472,-1.10288,9.3275,19.32,-2.75625,15.256001,-14.616001,6.048,none,5,3.0,47288.0,403431.0,403431.0,403431.0,403431.0
2026-04-07 18:11:48.015172,476103,2578368394,2578369470,-0.033184,0.021472,-1.10288,10.33375,20.991251,-1.98625,15.256001,-14.616001,6.048,none,5,3.0,47288.0,403431.0,403431.0,403431.0,403431.0
2026-04-07 18:11:48.043812,476104,2578382973,2578384390,-0.01952,-0.044896,-1.09312,9.205,21.665,-1.23375,15.152,-14.576001,6.664001,none,5,3.0,47288.0,403431.0,403431.0,403431.0,403431.0
2026-04-07 18:11:48.048341,476105,2578391913,2578393160,-0.03904,-0.027328,-1.075552,8.4525,22.88125,-1.47,15.320001,-14.440001,5.336,none,5,3.0,47288.0,403431.0,403431.0,403431.0,403431.0
2026-04-07 18:11:48.049698,476106,2578400804,2578401881,-0.03904,-0.027328,-1.075552,11.06875,23.7475,-1.26875,15.320001,-14.440001,5.336,none,5,3.0,47288.0,403431.0,403431.0,403431.0,403431.0
2026-04-07 18:11:48.107183,476107,2578415307,2578416781,-0.023424,-0.015616,-1.06384,15.408751,23.38875,-0.2975,14.872001,-14.240001,4.968,none,5,3.0,47288.0,403431.0,403431.0,403431.0,403431.0
2026-04-07 18:11:48.134110,476117,2578424298,2578425447,-0.023424,-0.015616,-1.06384,18.795,22.68875,0.7525,14.872001,-14.240001,4.968,none,5,3.0,46884.0,403431.0,403431.0,403431.0,403431.0
2026-04-07 18:11:48.135737,476118,2578433264,2578434179,-0.005856,-0.031232,-1.059936,20.6675,22.25125,1.61,14.584001,-14.160001,4.616,none,5,3.0,46884.0,403431.0,403431.0,403431.0,403431.0
2026-04-07 18:11:48.137250,476119,2578447730,2578449079,-0.005856,-0.031232,-1.059936,22.65375,23.2575,2.56375,14.584001,-14.160001,4.616,none,5,3.0,46884.0,403431.0,403431.0,403431.0,403431.0
2026-04-07 18:11:48.141486,476120,2578456646,2578457759,-0.027328,-0.033184,-1.028704,24.29,23.44125,2.79125,15.112,-13.768001,4.264,none,5,3.0,46884.0,403431.0,403431.0,403431.0,403431.0
2026-04-07 18:11:48.143277,476121,2578465541,2578466469,-0.027328,-0.033184,-1.028704,25.5675,23.40625,3.22,15.112,-13.768001,4.264,none,5,3.0,46884.0,403431.0,403431.0,403431.0,403431.0
2026-04-07 18:11:48.145698,476122,2578474497,2578475165,-0.033184,-0.070272,-1.03456,27.545,23.24875,4.5675,15.368001,-13.712001,4.984,none,5,3.0,46884.0,403431.0,403431.0,403431.0,403431.0
2026-04-07 18:11:48.148197,476123,2578489350,2578490202,-0.033184,-0.070272,-1.03456,29.35625,22.00625,5.915,15.368001,-13.712001,4.984,none,5,3.0,46884.0,403431.0,403431.0,403431.0,403431.0
2026-04-07 18:11:48.149718,476124,2578498869,2578501014,0.013664,-0.093696,-1.038464,32.80375,20.39625,7.18375,14.592001,-13.232,4.616,none,5,3.0,46884.0,403431.0,403431.0,403431.0,403431.0
2026-04-07 18:11:48.153908,476125,2578507798,2578509707,0.013664,-0.093696,-1.038464,35.5775,19.4425,7.9975,14.592001,-13.232,4.616,none,5,3.0,46884.0,403431.0,403431.0,403431.0,403431.0
2026-04-07 18:11:48.182739,476126,2578522301,2578522634,0.003904,-0.052704,-1.046272,37.625,19.32,9.03,14.632001,-13.064001,5.576,none,5,3.0,46884.0,403431.0,403431.0,403431.0,403431.0
2026-04-07 18:11:48.215691,476136,2578531575,2578533450,0.003904,-0.042944,-1.040416,38.29875,19.87125,9.0125,14.632001,-13.064001,5.576,none,5,3.0,46518.0,403431.0,403431.0,403431.0,403431.0
2026-04-07 18:11:48.217269,476137,2578540490,2578542139,-0.011712,-0.042944,-1.040416,37.87,19.6,8.8375,14.104001,-12.664001,4.632,none,5,3.0,46518.0,403431.0,403431.0,403431.0,403431.0
2026-04-07 18:11:48.221473,476138,2578549411,2578550874,-0.011712,-0.042944,-1.040416,38.05375,19.5125,9.9925,14.104001,-12.664001,4.632,none,5,3.0,46518.0,403431.0,403431.0,403431.0,403431.0
2026-04-07 18:11:48.223279,476139,2578563951,2578565828,0.007808,-0.085888,-1.048224,41.39625,17.96375,11.50625,13.688001,-12.608001,5.248,none,5,3.0,46518.0,403431.0,403431.0,403431.0,403431.0
2026-04-07 18:11:48.224884,476140,2578572903,2578574574,0.040992,-0.0976,-1.05408,45.0625,17.5525,12.635,13.784,-12.080001,5.248,none,5,3.0,46518.0,403431.0,403431.0,403431.0,403431.0
2026-04-07 18:11:48.228892,476141,2578581910,2578583298,0.040992,-0.0976,-1.05408,46.795002,18.12125,13.8075,13.784,-12.080001,5.248,none,5,3.0,46518.0,403431.0,403431.0,403431.0,403431.0
2026-04-07 18:11:48.257471,476142,2578596411,2578598232,-0.005856,-0.0976,-1.03456,47.38125,18.9525,15.1725,13.512001,-11.864,5.768,none,5,3.0,46518.0,403431.0,403431.0,403431.0,403431.0
2026-04-07 18:11:48.262193,476143,2578605327,2578606919,-0.005856,-0.0976,-1.03456,45.03625,19.22375,16.75625,13.512001,-11.864,5.768,none,5,3.0,46518.0,403431.0,403431.0,403431.0,403431.0
2026-04-07 18:11:48.263726,476144,2578614347,2578615592,-0.040992,-0.111264,-1.057984,43.00625,18.34875,17.82375,13.880001,-11.376,4.856,none,5,3.0,46518.0,403431.0,403431.0,403431.0,403431.0
2026-04-07 18:11:48.296563,476155,2578628988,2578630586,-0.040992,-0.111264,-1.057984,47.15375,15.47875,19.90625,13.880001,-11.376,4.856,none,5,3.0,46375.0,403431.0,403431.0,403431.0,403431.0
2026-04-07 18:11:48.298286,476156,2578638015,2578639373,0.042944,-0.1464,-1.065792,53.5675,13.0025,22.015,14.128,-10.92,4.648,none,5,3.0,46375.0,403431.0,403431.0,403431.0,403431.0
2026-04-07 18:11:48.299780,476157,2578646945,2578648095,0.042944,-0.1464,-1.065792,57.8725,11.9875,22.51375,14.128,-10.92,4.648,none,5,3.0,46375.0,403431.0,403431.0,403431.0,403431.0
2026-04-07 18:11:48.303909,476158,2578655910,2578656863,0.074176,-0.150304,-0.99552,59.07125,12.88875,23.5375,13.624001,-10.728001,6.808,none,5,3.0,46375.0,403431.0,403431.0,403431.0,403431.0
2026-04-07 18:11:48.332460,476159,2578670420,2578671788,0.074176,-0.150304,-0.99552,56.2625,14.7175,24.22,13.624001,-10.728001,6.808,none,5,3.0,46375.0,403431.0,403431.0,403431.0,403431.0
2026-04-07 18:11:48.336983,476160,2578679331,2578680474,0.017568,-0.191296,-0.977952,49.5775,16.37125,22.1725,13.512001,-10.032001,5.264,none,5,3.0,46375.0,403431.0,403431.0,403431.0,403431.0
2026-04-07 18:11:48.338417,476161,2578688243,2578689184,0.017568,-0.191296,-0.977952,41.5625,15.05875,19.635,13.512001,-10.032001,5.264,none,5,3.0,46375.0,403431.0,403431.0,403431.0,403431.0
2026-04-07 18:11:48.346481,476162,2578702761,2578704083,0.01952,-0.150304,-0.981856,41.11625,12.48625,18.3225,14.072001,-9.648001,4.672,none,5,3.0,46375.0,403431.0,403431.0,403431.0,403431.0
2026-04-07 18:11:48.408363,476163,2578711722,2578712787,0.01952,-0.150304,-0.981856,49.9625,11.025,19.145,14.072001,-9.648001,4.672,none,5,3.0,46375.0,403431.0,403431.0,403431.0,403431.0
2026-04-07 18:11:48.416120,476164,2578720654,2578721481,0.052704,-0.148352,-0.991616,58.80875,11.5325,19.95875,14.088,-9.264001,3.736,none,5,3.0,46375.0,403431.0,403431.0,403431.0,403431.0
2026-04-07 18:11:48.445769,476174,2578735906,2578736561,0.113216,-0.267424,-0.979904,59.07125,12.87125,19.88,14.416,-9.352,4.76,none,5,3.0,46768.0,403431.0,403431.0,403431.0,403431.0
2026-04-07 18:11:48.447322,476175,2578745164,2578747308,0.113216,-0.267424,-0.979904,46.45375,14.25375,16.80875,14.416,-9.352,4.76,none,5,3.0,46768.0,403431.0,403431.0,403431.0,403431.0
2026-04-07 18:11:48.451548,476176,2578754116,2578756017,0.103456,-0.212768,-0.903776,29.8025,15.88125,10.955,14.272,-9.080001,5.36,none,5,3.0,46768.0,403431.0,403431.0,403431.0,403431.0
2026-04-07 18:11:48.453163,476177,2578763070,2578764706,0.103456,-0.212768,-0.903776,22.23375,16.5375,7.3325,14.272,-9.080001,5.36,none,5,3.0,46768.0,403431.0,403431.0,403431.0,403431.0
2026-04-07 18:11:48.454736,476178,2578777511,2578779574,0.01952,-0.181536,-0.944768,26.635,17.955,6.02,14.208001,-9.112,6.384,none,5,3.0,46768.0,403431.0,403431.0,403431.0,403431.0
2026-04-07 18:11:48.459082,476179,2578786523,2578788323,0.01952,-0.181536,-0.944768,36.11125,18.305,5.81,14.208001,-9.112,6.384,none,5,3.0,46768.0,403431.0,403431.0,403431.0,403431.0
2026-04-07 18:11:48.460777,476180,2578795458,2578797099,0.085888,-0.245952,-0.974048,41.11625,16.42375,6.01125,12.992001,-8.688001,8.84,none,5,3.0,46768.0,403431.0,403431.0,403431.0,403431.0
2026-04-07 18:11:48.462264,476181,2578809998,2578812071,0.085888,-0.245952,-0.974048,41.39625,14.9975,5.25,12.992001,-8.688001,8.84,none,5,3.0,46768.0,403431.0,403431.0,403431.0,403431.0
2026-04-07 18:11:48.470315,476182,2578818960,2578820776,0.095648,-0.25376,-0.921344,37.8525,15.54875,4.935,13.672001,-7.608,4.88,none,5,3.0,46768.0,403431.0,403431.0,403431.0,403431.0
2026-04-07 18:11:48.509772,476192,2578828529,2578829481,0.095648,-0.25376,-0.921344,32.4625,18.62875,4.795,13.672001,-7.608,4.88,none,5,3.0,47050.0,403431.0,403431.0,403431.0,403431.0
2026-04-07 18:11:48.512201,476193,2578837543,2578838302,0.083936,-0.296704,-0.903776,22.995,20.20375,2.9225,13.536,-7.84,6.168,none,5,3.0,47050.0,403431.0,403431.0,403431.0,403431.0
2026-04-07 18:11:48.514756,476194,2578852710,2578853271,0.083936,-0.296704,-0.925248,13.5975,19.897501,1.33,13.536,-7.84,6.168,none,5,3.0,47050.0,403431.0,403431.0,403431.0,403431.0
2026-04-07 18:11:48.517216,476195,2578861988,2578864087,0.062464,-0.26352,-0.925248,7.34125,19.005,-0.595,14.152,-7.848001,4.872,none,5,3.0,47050.0,403431.0,403431.0,403431.0,403431.0
2026-04-07 18:11:48.519765,476196,2578870913,2578872782,0.062464,-0.26352,-0.925248,10.31625,18.27,-0.25375,14.152,-7.848001,4.872,none,5,3.0,47050.0,403431.0,403431.0,403431.0,403431.0
2026-04-07 18:11:48.522181,476197,2578879938,2578881550,0.05856,-0.236192,-0.899872,23.275,18.13875,3.21125,13.68,-7.520001,5.32,none,5,3.0,47050.0,403431.0,403431.0,403431.0,403431.0
2026-04-07 18:11:48.552424,476198,2578894435,2578896520,0.074176,-0.325984,-0.923296,25.83,18.12125,5.3725,13.944,-7.864,5.576,none,5,3.0,47050.0,403431.0,403431.0,403431.0,403431.0
2026-04-07 18:11:48.555981,476199,2578903366,2578905220,0.074176,-0.325984,-0.923296,18.7775,16.9925,4.97875,13.944,-7.864,5.576,none,5,3.0,47050.0,403431.0,403431.0,403431.0,403431.0
2026-04-07 18:11:48.558568,476200,2578912317,2578913920,0.074176,-0.325984,-0.923296,11.03375,15.33,3.96375,13.944,-7.864,5.576,none,5,3.0,47050.0,403431.0,403431.0,403431.0,403431.0
2026-04-07 18:11:48.604690,476211,2578927041,2578929375,0.171776,-0.349408,-0.88816,4.05125,15.14625,2.17,13.536,-7.416,5.192,none,5,3.0,47385.0,403431.0,403431.0,403431.0,403431.0
2026-04-07 18:11:48.607281,476212,2578936136,2578938111,0.093696,-0.267424,-0.862784,-3.59625,17.68375,-1.96,12.856001,-8.6,8.64,none,5,3.0,47385.0,403431.0,403431.0,403431.0,403431.0
2026-04-07 18:11:48.609789,476213,2578945080,2578946834,0.093696,-0.267424,-0.862784,-7.14875,21.385,-3.56125,12.856001,-8.6,8.64,none,5,3.0,47385.0,403431.0,403431.0,403431.0,403431.0
2026-04-07 18:11:48.612296,476214,2578954023,2578955559,0.02928,-0.304512,-0.895968,-6.83375,22.89,-2.59875,13.968,-7.656,4.488,none,5,3.0,47385.0,403431.0,403431.0,403431.0,403431.0
2026-04-07 18:11:48.614729,476215,2578968599,2578970513,0.02928,-0.304512,-0.895968,-0.525,19.18875,-1.46125,13.968,-7.656,4.488,none,5,3.0,47385.0,403431.0,403431.0,403431.0,403431.0
2026-04-07 18:11:48.619800,476216,2578977529,2578979254,0.148352,-0.324032,-0.944768,5.80125,15.155,-2.555,13.576,-7.728,5.128,none,5,3.0,47385.0,403431.0,403431.0,403431.0,403431.0
2026-04-07 18:11:48.649922,476217,2578986657,2578987989,0.148352,-0.324032,-0.944768,9.205,15.12,-5.46875,13.576,-7.728,5.128,none,5,3.0,47385.0,403431.0,403431.0,403431.0,403431.0
2026-04-07 18:11:48.653455,476218,2579001142,2579002883,0.138592,-0.294752,-0.958432,8.2425,17.15,-7.1925,13.440001,-7.648,5.168,none,5,3.0,47385.0,403431.0,403431.0,403431.0,403431.0
2026-04-07 18:11:48.655956,476219,2579010060,2579011611,0.138592,-0.294752,-0.958432,1.79375,19.27625,-8.225,13.440001,-7.648,5.168,none,5,3.0,47385.0,403431.0,403431.0,403431.0,403431.0
2026-04-07 18:11:48.662394,476220,2579019015,2579020331,0.083936,-0.296704,-0.933056,-5.0575,19.17125,-8.00625,13.608001,-7.936,4.696,none,5,3.0,47385.0,403431.0,403431.0,403431.0,403431.0
2026-04-07 18:11:48.727808,476230,2579033604,2579035346,0.083936,-0.296704,-0.979904,-7.49875,19.15375,-7.07875,13.608001,-7.936,4.696,none,5,3.0,47120.0,403431.0,403431.0,403431.0,403431.0
2026-04-07 18:11:48.736095,476231,2579042635,2579044070,0.003904,-0.339648,-0.979904,-6.81625,19.5825,-7.1575,12.976001,-8.128,6.288,none,5,3.0,47120.0,403431.0,403431.0,403431.0,403431.0
2026-04-07 18:11:48.738405,476232,2579051631,2579052705,0.003904,-0.339648,-0.979904,-2.1525,18.75125,-5.64375,12.976001,-8.128,6.288,none,5,3.0,47120.0,403431.0,403431.0,403431.0,403431.0
2026-04-07 18:11:48.747880,476233,2579060533,2579061393,0.074176,-0.333792,-1.0248,6.44875,15.0325,-1.98625,13.152,-7.896,5.144,none,5,3.0,47120.0,403431.0,403431.0,403431.0,403431.0
2026-04-07 18:11:48.749663,476234,2579074990,2579076288,0.154208,-0.271328,-0.989664,14.2625,12.81,1.79375,13.096001,-7.896,5.968,none,5,3.0,47120.0,403431.0,403431.0,403431.0,403431.0
2026-04-07 18:11:48.762304,476235,2579083922,2579085041,0.154208,-0.271328,-0.989664,12.6525,14.6475,2.9225,13.096001,-7.896,5.968,none,5,3.0,47120.0,403431.0,403431.0,403431.0,403431.0
2026-04-07 18:11:48.785330,476236,2579092996,2579093801,0.154208,-0.271328,-0.989664,3.40375,18.41875,0.9625,13.096001,-7.896,5.968,none,5,3.0,47120.0,403431.0,403431.0,403431.0,403431.0
2026-04-07 18:11:48.786944,476237,2579107595,2579108729,0.083936,-0.314272,-0.96624,-7.6475,22.00625,-1.5925,12.432,-8.056001,6.696,none,5,3.0,47120.0,403431.0,403431.0,403431.0,403431.0
2026-04-07 18:11:48.788462,476238,2579116605,2579117424,0.080032,-0.320128,-0.974048,-8.70625,22.47875,-2.94875,13.016001,-7.8,5.344,none,5,3.0,47120.0,403431.0,403431.0,403431.0,403431.0
2026-04-07 18:11:48.792816,476239,2579125510,2579126127,0.080032,-0.320128,-0.974048,2.26625,19.87125,-2.37125,13.016001,-7.8,5.344,none,5,3.0,47120.0,403431.0,403431.0,403431.0,403431.0
2026-04-07 18:11:48.815948,476249,2579140385,2579141076,0.101504,-0.335744,-1.030656,16.485,17.255,0.39375,12.672001,-7.664001,5.480001,none,5,3.0,46980.0,403431.0,403431.0,403431.0,403431.0
2026-04-07 18:11:48.820254,476250,2579149738,2579151870,0.101504,-0.335744,-1.030656,27.973751,15.3825,3.70125,12.672001,-7.664001,5.480001,none,5,3.0,46980.0,403431.0,403431.0,403431.0,403431.0
2026-04-07 18:11:48.823662,476251,2579158705,2579160603,0.193248,-0.329888,-0.942816,23.93125,15.42625,3.85875,13.160001,-7.904,5.088,none,5,3.0,46980.0,403431.0,403431.0,403431.0,403431.0
2026-04-07 18:11:48.825591,476252,2579167631,2579169306,0.193248,-0.329888,-0.942816,8.435,18.27875,-0.0875,13.160001,-7.904,5.088,none,5,3.0,46980.0,403431.0,403431.0,403431.0,403431.0
2026-04-07 18:11:48.826042,476253,2579182288,2579184276,0.124928,-0.3416,-0.905728,-3.64875,22.32125,-2.3275,12.320001,-7.920001,4.952,none,5,3.0,46980.0,403431.0,403431.0,403431.0,403431.0
2026-04-07 18:11:48.857120,476254,2579191246,2579192996,0.124928,-0.3416,-0.905728,-5.48625,25.0075,-3.08875,12.320001,-7.920001,4.952,none,5,3.0,46980.0,403431.0,403431.0,403431.0,403431.0
2026-04-07 18:11:48.859395,476255,2579200183,2579201704,0.089792,-0.374784,-0.915488,-0.37625,24.47375,-4.5325,11.480001,-8.384001,5.984,none,5,3.0,46980.0,403431.0,403431.0,403431.0,403431.0
2026-04-07 18:11:48.864048,476256,2579214663,2579216651,0.089792,-0.308416,-0.931104,9.135,22.61875,-5.17125,11.480001,-8.384001,5.984,none,5,3.0,46980.0,403431.0,403431.0,403431.0,403431.0
2026-04-07 18:11:48.867796,476257,2579223595,2579225323,0.128832,-0.308416,-0.931104,24.36,20.125,-3.05375,11.344001,-8.016001,8.808001,none,5,3.0,46980.0,403431.0,403431.0,403431.0,403431.0
2026-04-07 18:11:48.901686,476268,2579232681,2579234152,0.128832,-0.308416,-0.931104,36.54875,18.61125,0.2975,11.344001,-8.016001,8.808001,none,5,3.0,46886.0,403431.0,403431.0,403431.0,403431.0
2026-04-07 18:11:48.904020,476269,2579241696,2579242921,0.179584,-0.335744,-0.976,33.29375,18.8475,-0.44625,11.472,-7.832,6.848001,none,5,3.0,46886.0,403431.0,403431.0,403431.0,403431.0
2026-04-07 18:11:48.905787,476270,2579256267,2579257965,0.1952,-0.333792,-0.880352,21.55125,19.6,-4.62875,11.864,-6.776001,6.264,none,5,3.0,46886.0,403431.0,403431.0,403431.0,403431.0
2026-04-07 18:11:48.908942,476271,2579265201,2579266728,0.1952,-0.333792,-0.880352,9.58125,22.07625,-8.25125,11.864,-6.776001,6.264,none,5,3.0,46886.0,403431.0,403431.0,403431.0,403431.0
2026-04-07 18:11:48.937416,476272,2579274166,2579275447,0.1952,-0.333792,-0.880352,5.6,24.68375,-8.32125,11.864,-6.776001,6.264,none,5,3.0,46886.0,403431.0,403431.0,403431.0,403431.0
2026-04-07 18:11:48.942038,476273,2579288690,2579290374,0.07808,-0.366976,-0.84912,10.63125,25.34875,-5.85375,11.192,-7.8,3.456,none,5,3.0,46886.0,403431.0,403431.0,403431.0,403431.0
2026-04-07 18:11:48.943512,476274,2579297597,2579299099,0.12688,-0.4392,-0.93696,15.636251,22.58375,-3.92875,11.304001,-7.72,7.216001,none,5,3.0,46886.0,403431.0,403431.0,403431.0,403431.0
2026-04-07 18:11:48.952649,476275,2579308061,2579310340,0.12688,-0.4392,-0.93696,18.9175,17.1325,-5.39,11.304001,-7.72,7.216001,none,5,3.0,46886.0,403431.0,403431.0,403431.0,403431.0
2026-04-07 18:11:49.007178,476276,2579317049,2579319033,0.267424,-0.27328,-0.954528,28.95375,14.2975,-6.825,11.824,-7.224001,6.312,none,5,3.0,46886.0,403431.0,403431.0,403431.0,403431.0
2026-04-07 18:11:49.067750,476286,2579332106,2579333998,0.267424,-0.27328,-0.954528,38.71,17.10625,-8.19,11.824,-7.224001,6.312,none,5,3.0,46620.0,403431.0,403431.0,403431.0,403431.0
2026-04-07 18:11:49.069580,476287,2579341097,2579342698,0.10736,-0.33184,-0.958432,40.8625,22.91625,-8.82875,11.984,-6.776001,5.048,none,5,3.0,46620.0,403431.0,403431.0,403431.0,403431.0
2026-04-07 18:11:49.071130,476288,2579350039,2579351375,0.10736,-0.33184,-0.958432,31.2375,25.41875,-9.05625,11.984,-6.776001,5.048,none,5,3.0,46620.0,403431.0,403431.0,403431.0,403431.0
2026-04-07 18:11:49.075316,476289,2579358953,2579360095,0.115168,-0.466528,-0.94672,22.9075,22.65375,-8.58375,12.152,-6.664001,5.456,none,5,3.0,46620.0,403431.0,403431.0,403431.0,403431.0
2026-04-07 18:11:49.077022,476290,2579373419,2579375069,0.115168,-0.466528,-0.94672,29.58375,17.75375,-7.455,12.152,-6.664001,5.456,none,5,3.0,46620.0,403431.0,403431.0,403431.0,403431.0
2026-04-07 18:11:49.079462,476291,2579382430,2579383845,0.23424,-0.394304,-0.962336,41.9475,15.505,-5.67875,12.304001,-6.376,5.896,none,5,3.0,46620.0,403431.0,403431.0,403431.0,403431.0
2026-04-07 18:11:49.080986,476292,2579391343,2579392536,0.23424,-0.394304,-0.962336,48.16875,17.928751,-6.23,12.304001,-6.376,5.896,none,5,3.0,46620.0,403431.0,403431.0,403431.0,403431.0
2026-04-07 18:11:49.085280,476293,2579405808,2579407421,0.171776,-0.36112,-0.970144,46.24375,20.30875,-6.58,12.144001,-5.448,5.136,none,5,3.0,46620.0,403431.0,403431.0,403431.0,403431.0
2026-04-07 18:11:49.086980,476294,2579414728,2579416124,0.171776,-0.36112,-0.970144,39.375,20.72875,-7.4725,12.144001,-5.448,5.136,none,5,3.0,46620.0,403431.0,403431.0,403431.0,403431.0
2026-04-07 18:11:49.088618,476295,2579423683,2579424903,0.173728,-0.407968,-0.895968,34.15125,21.28,-10.21125,12.224001,-5.512,3.784,none,5,3.0,46620.0,403431.0,403431.0,403431.0,403431.0
2026-04-07 18:11:49.117373,476305,2579438672,2579440398,0.144448,-0.460672,-0.919392,35.49875,22.88125,-10.50875,11.224001,-6.096,8.104,none,5,3.0,46506.0,403431.0,403431.0,403431.0,403431.0
2026-04-07 18:11:49.121481,476306,2579447612,2579449150,0.144448,-0.460672,-0.919392,43.505,22.07625,-9.3275,11.224001,-6.096,8.104,none,5,3.0,46506.0,403431.0,403431.0,403431.0,403431.0
2026-04-07 18:11:49.123188,476307,2579456643,2579457846,0.267424,-0.460672,-0.948672,53.13,20.13375,-8.56625,10.632001,-4.984,8.784,none,5,3.0,46506.0,403431.0,403431.0,403431.0,403431.0
2026-04-07 18:11:49.125703,476308,2579465591,2579466611,0.267424,-0.460672,-0.948672,56.90125,20.08125,-10.36,10.632001,-4.984,8.784,none,5,3.0,46506.0,403431.0,403431.0,403431.0,403431.0
2026-04-07 18:11:49.128034,476309,2579480144,2579481561,0.300608,-0.421632,-0.882304,52.6225,23.44125,-13.57125,11.400001,-4.552,5.504,none,5,3.0,46506.0,403431.0,403431.0,403431.0,403431.0
2026-04-07 18:11:49.131003,476310,2579489060,2579490296,0.300608,-0.421632,-0.882304,43.715,28.79625,-16.73,11.400001,-4.552,5.504,none,5,3.0,46506.0,403431.0,403431.0,403431.0,403431.0
2026-04-07 18:11:49.162092,476311,2579497951,2579499022,0.16592,-0.460672,-0.85888,36.26875,34.48375,-18.78625,11.112,-4.608,7.352,none,5,3.0,46506.0,403431.0,403431.0,403431.0,403431.0
2026-04-07 18:11:49.166622,476312,2579512419,2579513890,0.16592,-0.460672,-0.85888,34.23,36.70625,-19.9675,11.112,-4.608,7.352,none,5,3.0,46506.0,403431.0,403431.0,403431.0,403431.0
2026-04-07 18:11:49.168333,476313,2579521330,2579522575,0.22448,-0.51728,-0.894016,38.49125,33.915,-20.4925,11.320001,-4.632,5.984,none,5,3.0,46506.0,403431.0,403431.0,403431.0,403431.0
2026-04-07 18:11:49.196565,476324,2579530303,2579531347,0.22448,-0.51728,-0.894016,45.920002,30.56375,-21.63,11.320001,-4.632,5.984,none,5,3.0,46138.0,403431.0,403431.0,403431.0,403431.0
2026-04-07 18:11:49.198237,476325,2579544923,2579546368,0.279136,-0.452864,-0.876448,54.87125,29.88125,-23.0475,11.432,-3.408,6.784,none,5,3.0,46138.0,403431.0,403431.0,403431.0,403431.0
2026-04-07 18:11:49.200087,476326,2579553846,2579555074,0.279136,-0.452864,-0.876448,58.72125,32.31375,-23.397501,11.432,-3.408,6.784,none,5,3.0,46138.0,403431.0,403431.0,403431.0,403431.0
2026-04-07 18:11:49.206386,476327,2579562897,2579563769,0.261568,-0.460672,-0.827648,54.8625,34.36125,-22.89875,10.424001,-3.336,7.312,none,5,3.0,46138.0,403431.0,403431.0,403431.0,403431.0
2026-04-07 18:11:49.234968,476328,2579571945,2579572531,0.261568,-0.460672,-0.827648,47.1275,36.295002,-23.625,10.424001,-3.336,7.312,none,5,3.0,46138.0,403431.0,403431.0,403431.0,403431.0
2026-04-07 18:11:49.238454,476329,2579586693,2579587432,0.21472,-0.52704,-0.794464,39.08625,37.42375,-25.64625,10.584001,-2.904,6.496,none,5,3.0,46138.0,403431.0,403431.0,403431.0,403431.0
2026-04-07 18:11:49.241916,476330,2579596070,2579598182,0.21472,-0.52704,-0.794464,37.17875,36.925,-26.1625,10.584001,-2.904,6.496,none,5,3.0,46138.0,403431.0,403431.0,403431.0,403431.0
2026-04-07 18:11:49.250209,476331,2579604991,2579606899,0.22448,-0.542656,-0.804224,39.19125,36.44375,-26.95,9.8,-2.752,6.592001,none,5,3.0,46138.0,403431.0,403431.0,403431.0,403431.0
2026-04-07 18:11:49.307112,476332,2579619515,2579621808,0.2928,-0.489952,-0.765184,44.65125,35.44625,-26.18875,9.512,-2.584,6.432,none,5,3.0,46138.0,403431.0,403431.0,403431.0,403431.0
2026-04-07 18:11:49.309382,476333,2579628438,2579630543,0.2928,-0.489952,-0.765184,49.35875,35.32375,-23.91375,9.512,-2.584,6.432,none,5,3.0,46138.0,403431.0,403431.0,403431.0,403431.0
2026-04-07 18:11:49.342794,476343,2579637563,2579639283,0.240096,-0.523136,-0.733952,45.99875,36.68,-24.325,9.504001,-2.664,7.208,none,5,3.0,44702.0,403431.0,403431.0,403431.0,403431.0
2026-04-07 18:11:49.344469,476344,2579646683,2579647984,0.240096,-0.523136,-0.733952,36.33875,37.275,-26.241251,9.504001,-2.664,7.208,none,5,3.0,44702.0,403431.0,403431.0,403431.0,403431.0
2026-04-07 18:11:49.346969,476345,2579661181,2579662899,0.259616,-0.571936,-0.724192,29.26,35.53375,-26.39,9.432,-2.28,6.76,none,5,3.0,44702.0,403431.0,403431.0,403431.0,403431.0
2026-04-07 18:11:49.348533,476346,2579670105,2579671582,0.259616,-0.571936,-0.724192,28.428751,32.87375,-25.9,9.432,-2.28,6.76,none,5,3.0,44702.0,403431.0,403431.0,403431.0,403431.0
2026-04-07 18:11:49.352787,476347,2579679070,2579680309,0.286944,-0.534848,-0.706624,32.90875,32.138752,-23.8,8.976001,-2.248,8.832001,none,5,3.0,44702.0,403431.0,403431.0,403431.0,403431.0
2026-04-07 18:11:49.354467,476348,2579693686,2579695309,0.286944,-0.534848,-0.706624,34.0725,33.85375,-21.4025,8.976001,-2.248,8.832001,none,5,3.0,44702.0,403431.0,403431.0,403431.0,403431.0
2026-04-07 18:11:49.355978,476349,2579702642,2579704063,0.28304,-0.5368,-0.675392,27.615,34.982502,-21.2275,9.488001,-1.856,6.672,none,5,3.0,44702.0,403431.0,403431.0,403431.0,403431.0
2026-04-07 18:11:49.360150,476350,2579711690,2579712782,0.28304,-0.5368,-0.675392,18.13,34.65875,-21.04375,9.488001,-1.856,6.672,none,5,3.0,44702.0,403431.0,403431.0,403431.0,403431.0
2026-04-07 18:11:49.390936,476351,2579726249,2579727723,0.269376,-0.542656,-0.728096,12.6525,33.55625,-21.53375,8.360001,-1.816,7.520001,none,5,3.0,44702.0,403431.0,403431.0,403431.0,403431.0
2026-04-07 18:11:49.416003,476361,2579735298,2579736542,0.269376,-0.542656,-0.728096,14.74375,29.942501,-21.81375,8.360001,-1.816,7.520001,none,5,3.0,43458.0,403431.0,403431.0,403431.0,403431.0
2026-04-07 18:11:49.420231,476362,2579744175,2579745266,0.386496,-0.540704,-0.733952,21.0175,27.44875,-20.3175,8.728001,-1.768,6.672,none,5,3.0,43458.0,403431.0,403431.0,403431.0,403431.0
2026-04-07 18:11:49.421942,476363,2579753127,2579753978,0.386496,-0.540704,-0.733952,23.178751,28.84,-20.545,8.728001,-1.768,6.672,none,5,3.0,43458.0,403431.0,403431.0,403431.0,403431.0
2026-04-07 18:11:49.423551,476364,2579767629,2579768930,0.386496,-0.47824,-0.667584,21.76125,32.76,-21.4725,8.184,-2.16,7.088,none,5,3.0,43458.0,403431.0,403431.0,403431.0,403431.0
2026-04-07 18:11:49.427754,476365,2579776649,2579777607,0.386496,-0.47824,-0.667584,17.1675,34.79,-20.8075,8.184,-2.16,7.088,none,5,3.0,43458.0,403431.0,403431.0,403431.0,403431.0
2026-04-07 18:11:49.430175,476366,2579785601,2579786322,0.337696,-0.55632,-0.700768,8.74125,35.2625,-20.01125,7.584001,-1.544,5.344,none,5,3.0,43458.0,403431.0,403431.0,403431.0,403431.0
2026-04-07 18:11:49.458680,476367,2579800634,2579801245,0.386496,-0.548512,-0.72224,3.535,33.17125,-21.48125,7.904,-2.096,8.416,none,5,3.0,43458.0,403431.0,403431.0,403431.0,403431.0
2026-04-07 18:11:49.472829,476368,2579809855,2579812003,0.386496,-0.548512,-0.72224,9.1875,30.555,-22.96875,7.904,-2.096,8.416,none,5,3.0,43458.0,403431.0,403431.0,403431.0,403431.0
2026-04-07 18:11:49.474403,476369,2579818801,2579820744,0.374784,-0.486048,-0.743712,20.04625,30.0475,-22.19875,7.624001,-1.728,10.256001,none,5,3.0,43458.0,403431.0,403431.0,403431.0,403431.0
2026-04-07 18:11:49.476003,476370,2579827779,2579829445,0.374784,-0.486048,-0.743712,26.565,30.6425,-21.455,7.624001,-1.728,10.256001,none,5,3.0,43458.0,403431.0,403431.0,403431.0,403431.0
2026-04-07 18:11:49.504446,476381,2579842412,2579844444,0.407968,-0.519232,-0.716384,26.18875,30.397501,-19.38125,7.344,-1.568,8.56,none,5,3.0,43043.0,403431.0,403431.0,403431.0,402903.0
2026-04-07 18:11:49.505987,476382,2579851522,2579853186,0.407968,-0.519232,-0.716384,18.9525,30.835001,-19.0925,7.344,-1.568,8.56,none,5,3.0,43043.0,403431.0,403431.0,403431.0,402903.0
2026-04-07 18:11:49.510122,476383,2579860596,2579861943,0.392352,-0.521184,-0.675392,13.02,31.92,-21.07875,6.976,-1.064,8.76,none,5,3.0,43043.0,403431.0,403431.0,403431.0,402903.0
2026-04-07 18:11:49.538751,476384,2579875124,2579876884,0.392352,-0.521184,-0.675392,12.55625,33.64375,-22.9425,6.976,-1.064,8.76,none,6,3.0,43043.0,403431.0,403431.0,403431.0,402903.0
2026-04-07 18:11:49.542791,476385,2579884040,2579885573,0.374784,-0.532896,-0.710528,20.32625,34.02,-21.5425,7.512001,-1.504,8.04,none,6,3.0,43043.0,403431.0,403431.0,403431.0,402903.0
2026-04-07 18:11:49.545781,476386,2579893050,2579894263,0.374784,-0.532896,-0.710528,26.69625,33.005,-18.76,7.512001,-1.504,8.04,none,6,3.0,43043.0,403431.0,403431.0,403431.0,402903.0
2026-04-07 18:11:49.548023,476387,2579901988,2579902969,0.423584,-0.577792,-0.735904,25.97,30.9925,-16.96625,6.856,-1.264,8.008,none,6,3.0,43043.0,403431.0,403431.0,403431.0,402903.0
2026-04-07 18:11:49.610827,476388,2579916473,2579917875,0.423584,-0.577792,-0.735904,24.64,29.95125,-17.40375,6.856,-1.264,8.008,none,6,3.0,43043.0,403431.0,403431.0,403431.0,402903.0
2026-04-07 18:11:49.615355,476389,2579925404,2579926579,0.447008,-0.480192,-0.677344,26.78375,31.14125,-16.905,6.76,-1.168,8.544001,none,6,3.0,43043.0,403431.0,403431.0,403431.0,402903.0
2026-04-07 18:11:49.639457,476399,2579934691,2579935360,0.447008,-0.480192,-0.677344,32.50625,32.2175,-15.7675,6.76,-1.168,8.544001,none,6,3.0,43214.0,403431.0,403431.0,403431.0,403286.0
2026-04-07 18:11:49.640953,476400,2579949535,2579950274,0.376736,-0.544608,-0.71248,34.55375,32.47125,-15.3825,6.04,-0.736,8.368,none,6,3.0,43214.0,403431.0,403431.0,403431.0,403286.0
2026-04-07 18:11:49.644441,476401,2579958929,2579961038,0.472384,-0.571936,-0.667584,30.72125,29.995,-15.89875,6.048,-0.88,10.432,none,6,3.0,43214.0,403431.0,403431.0,403431.0,403286.0
2026-04-07 18:11:49.646028,476402,2579967946,2579969721,0.472384,-0.571936,-0.667584,31.31625,29.98625,-16.66,6.048,-0.88,10.432,none,6,3.0,43214.0,403431.0,403431.0,403431.0,403286.0
2026-04-07 18:11:49.650316,476403,2579976879,2579978452,0.472384,-0.571936,-0.667584,34.58,31.710001,-17.14125,6.048,-0.88,10.432,none,6,3.0,43214.0,403431.0,403431.0,403431.0,403286.0
2026-04-07 18:11:49.652019,476404,2579991448,2579993440,0.445056,-0.573888,-0.657824,36.96875,33.74875,-16.8875,5.44,-0.936,9.248,none,6,3.0,43214.0,403431.0,403431.0,403431.0,403286.0
2026-04-07 18:11:49.654449,476405,2580000469,2580002209,0.480192,-0.548512,-0.628544,35.7,34.7375,-17.40375,5.544,-0.448,11.008,none,6,3.0,43214.0,403431.0,403431.0,403431.0,403286.0
2026-04-07 18:11:49.656885,476406,2580009404,2580010937,0.480192,-0.548512,-0.628544,33.74875,33.97625,-20.195,5.544,-0.448,11.008,none,6,3.0,43214.0,403431.0,403431.0,403431.0,403286.0
2026-04-07 18:11:49.690900,476407,2580024001,2580026181,0.476288,-0.540704,-0.61488,38.38625,34.15125,-21.7875,5.024,-0.36,10.120001,none,6,3.0,43214.0,403431.0,403431.0,403431.0,403286.0
2026-04-07 18:11:49.725031,476417,2580033283,2580035059,0.476288,-0.540704,-0.61488,42.6125,36.72375,-22.8375,5.024,-0.36,10.120001,none,6,3.0,43320.0,403431.0,403431.0,403431.0,403424.0
2026-04-07 18:11:49.725102,476418,2580042293,2580043862,0.4392,-0.618784,-0.628544,41.11625,37.44125,-23.73,5.512,-0.84,9.128,none,6,3.0,43320.0,403431.0,403431.0,403431.0,403424.0
