pc_time,serial_num,sensor_ts,host_ts,ax,ay,az,gx,gy,gz,mx,my,mz,phase,rpe,weight_kg,ppg_a,ppg_b,ppg_c,ppg_d,ppg_e
2026-04-08 21:51:27.177616,259597,1609504259388350,1859355267,1.167296,0.091744,-0.134688,-3.68375,7.32375,-0.245,-26.352001,14.048,10.464001,eccentric,4,3.0,20867.0,144681.0,232453.0,282346.0,265451.0
2026-04-08 21:51:27.181069,259598,1609504259397292,1859363939,1.081408,0.189344,-0.232288,0.11375,7.83125,0.595,-26.352001,14.168,12.432,eccentric,4,3.0,20867.0,144681.0,232453.0,282346.0,265451.0
2026-04-08 21:51:27.183536,259599,1609504259411774,1859378782,1.081408,0.189344,-0.232288,4.71625,7.91875,1.91625,-26.2,14.168,12.432,eccentric,4,3.0,20867.0,144681.0,232453.0,282346.0,265451.0
2026-04-08 21:51:27.189855,259600,1609504259420758,1859387518,1.071648,0.183488,-0.222528,5.915,7.98,4.06,-26.320002,14.200001,12.696001,eccentric,4,3.0,20867.0,144681.0,232453.0,282346.0,265451.0
2026-04-08 21:51:27.220047,259601,1609504259429673,1859396201,1.071648,0.183488,-0.222528,0.44625,7.62125,5.46,-26.320002,14.200001,12.696001,eccentric,4,3.0,20867.0,144681.0,232453.0,282346.0,265451.0
2026-04-08 21:51:27.257325,259612,1609504259444234,1859411167,1.079456,0.111264,-0.191296,-2.4325,6.55375,6.125,-26.192001,14.408001,11.064,eccentric,4,3.0,20916.0,144601.0,232176.0,282009.0,265188.0
2026-04-08 21:51:27.259870,259613,1609504259453141,1859419810,1.079456,0.111264,-0.191296,-3.47375,5.27625,6.755,-26.192001,14.408001,11.064,eccentric,4,3.0,20916.0,144601.0,232176.0,282009.0,265188.0
2026-04-08 21:51:27.262385,259614,1609504259467647,1859434666,1.159488,0.103456,-0.173728,-0.6825,4.935,7.4025,-26.008001,14.608001,10.896001,eccentric,4,3.0,20916.0,144601.0,232176.0,282009.0,265188.0
2026-04-08 21:51:27.268518,259615,1609504259476588,1859443395,1.159488,0.103456,-0.173728,6.4575,5.775,6.79,-26.008001,14.608001,10.896001,eccentric,4,3.0,20916.0,144601.0,232176.0,282009.0,265188.0
2026-04-08 21:51:27.271064,259616,1609504259491154,1859458306,1.177056,0.150304,-0.121024,9.5725,6.04625,6.72,-25.68,14.696001,10.464001,eccentric,4,3.0,20916.0,144601.0,232176.0,282009.0,265188.0
2026-04-08 21:51:27.273532,259617,1609504259500071,1859466990,1.134112,0.142496,-0.23424,7.385,6.09875,7.35,-25.488,14.432001,12.392,eccentric,4,3.0,20916.0,144601.0,232176.0,282009.0,265188.0
2026-04-08 21:51:27.278562,259618,1609504259509072,1859475660,1.134112,0.142496,-0.23424,2.45,5.705,7.8575,-25.488,14.432001,12.392,eccentric,4,3.0,20916.0,144601.0,232176.0,282009.0,265188.0
2026-04-08 21:51:27.309159,259619,1609504259523574,1859490549,1.15168,0.0976,-0.076128,-4.0425,4.8825,8.60125,-25.416,14.376,11.152,eccentric,4,3.0,20916.0,144601.0,232176.0,282009.0,265188.0
2026-04-08 21:51:27.312645,259620,1609504259532462,1859499209,1.15168,0.0976,-0.076128,-7.2625,4.29625,9.4675,-25.416,14.376,11.152,eccentric,4,3.0,20916.0,144601.0,232176.0,282009.0,265188.0
2026-04-08 21:51:27.339818,259631,1609504259547316,1859514340,1.095072,0.111264,0.027328,-4.62,3.7275,9.8525,-25.168001,14.696001,11.088,eccentric,4,3.0,20920.0,144559.0,232059.0,281947.0,265128.0
2026-04-08 21:51:27.342334,259632,1609504259556315,1859523070,1.095072,0.111264,0.027328,1.00625,3.38625,10.2375,-25.168001,14.696001,11.088,eccentric,4,3.0,20920.0,144559.0,232059.0,281947.0,265128.0
2026-04-08 21:51:27.344771,259633,1609504259565360,1859531750,1.08336,0.121024,-0.27328,3.59625,3.07125,9.77375,-25.240002,14.960001,12.272,eccentric,4,3.0,20920.0,144559.0,232059.0,281947.0,265128.0
2026-04-08 21:51:27.348646,259634,1609504259579886,1859546670,1.048224,0.17568,-0.0488,3.80625,2.86125,9.905,-24.672,14.944,12.920001,eccentric,4,3.0,20920.0,144559.0,232059.0,281947.0,265128.0
2026-04-08 21:51:27.398763,259635,1609504259588921,1859555357,1.048224,0.17568,-0.0488,3.115,3.5175,9.54625,-24.672,14.944,12.920001,eccentric,4,3.0,20920.0,144559.0,232059.0,281947.0,265128.0
2026-04-08 21:51:27.402296,259636,1609504259603433,1859570228,1.097024,0.08784,-0.03904,-1.12,3.5525,10.01,-24.656002,14.984001,11.312,eccentric,4,3.0,20920.0,144559.0,232059.0,281947.0,265128.0
2026-04-08 21:51:27.404841,259637,1609504259612357,1859578879,1.097024,0.08784,-0.03904,-8.54875,3.64875,10.45625,-24.656002,14.984001,11.312,eccentric,4,3.0,20920.0,144559.0,232059.0,281947.0,265128.0
2026-04-08 21:51:27.407287,259638,1609504259626914,1859593710,1.009184,0.101504,-0.144448,-12.74875,2.59,10.43875,-24.408,15.112,11.472,eccentric,4,3.0,20920.0,144559.0,232059.0,281947.0,265128.0
2026-04-08 21:51:27.409802,259639,1609504259635829,1859602440,1.009184,0.101504,-0.144448,-10.7975,2.905,9.5375,-24.408,15.112,11.472,eccentric,4,3.0,20920.0,144559.0,232059.0,281947.0,265128.0
2026-04-08 21:51:27.437250,259650,1609504259644867,1859611173,1.030656,0.095648,-0.187392,-6.4225,2.6425,8.58375,-24.376001,15.144001,12.352,eccentric,4,3.0,20985.0,144858.0,232336.0,282153.0,265258.0
2026-04-08 21:51:27.439757,259651,1609504259659494,1859626062,1.001376,0.05856,-0.1952,-0.95375,2.4325,6.81625,-24.232,15.344001,12.696001,eccentric,4,3.0,20985.0,144858.0,232336.0,282153.0,265258.0
2026-04-08 21:51:27.442298,259652,1609504259668517,1859634847,1.001376,0.05856,-0.1952,-3.535,1.5925,5.8275,-24.232,15.344001,12.696001,eccentric,4,3.0,20985.0,144858.0,232336.0,282153.0,265258.0
2026-04-08 21:51:27.472693,259653,1609504259683034,1859649768,1.0248,0.074176,0.02928,-12.1975,-0.02625,5.10125,-23.776001,15.472001,12.408001,eccentric,4,3.0,20985.0,144858.0,232336.0,282153.0,265258.0
2026-04-08 21:51:27.476047,259654,1609504259691933,1859658437,1.0248,0.074176,0.02928,-12.48625,-0.20125,4.10375,-23.776001,15.472001,12.408001,eccentric,4,3.0,20985.0,144858.0,232336.0,282153.0,265258.0
2026-04-08 21:51:27.478595,259655,1609504259706454,1859673281,0.952576,0.070272,-0.173728,-8.67125,0.28875,4.0425,-23.592001,15.352001,10.296001,eccentric,4,3.0,20985.0,144858.0,232336.0,282153.0,265258.0
2026-04-08 21:51:27.508822,259656,1609504259715426,1859681976,0.952576,0.070272,-0.173728,-6.36125,0.77,5.31125,-23.592001,15.352001,10.296001,eccentric,4,3.0,20985.0,144858.0,232336.0,282153.0,265258.0
2026-04-08 21:51:27.512335,259657,1609504259724336,1859690646,0.976,0.109312,-0.011712,-2.94875,0.65625,5.74875,-23.544,15.496,11.472,eccentric,4,3.0,20985.0,144858.0,232336.0,282153.0,265258.0
2026-04-08 21:51:27.539882,259668,1609504259738802,1859705455,0.976,0.109312,-0.00976,-2.6425,0.98875,5.0575,-23.544,15.496,11.472,eccentric,4,3.0,20998.0,144919.0,232431.0,282285.0,265355.0
2026-04-08 21:51:27.547649,259669,1609504259747820,1859714148,0.954528,0.091744,-0.00976,-7.97125,0.77875,4.2525,-23.216002,15.392001,12.472,eccentric,4,3.0,20998.0,144919.0,232431.0,282285.0,265355.0
2026-04-08 21:51:27.549540,259670,1609504259762346,1859729102,0.847168,0.06832,-0.169824,-13.39625,0.5775,5.7575,-22.904001,15.504001,11.104,eccentric,4,3.0,20998.0,144919.0,232431.0,282285.0,265355.0
2026-04-08 21:51:27.551408,259671,1609504259771325,1859737818,0.847168,0.06832,-0.169824,-15.4,1.81125,7.83125,-22.904001,15.504001,11.104,eccentric,4,3.0,20998.0,144919.0,232431.0,282285.0,265355.0
2026-04-08 21:51:27.554723,259672,1609504259785804,1859752717,0.735904,0.076128,-0.080032,-11.61125,1.6275,8.54875,-22.616001,15.312,11.440001,eccentric,4,3.0,20998.0,144919.0,232431.0,282285.0,265355.0
2026-04-08 21:51:27.585078,259673,1609504259794711,1859761385,0.735904,0.076128,-0.080032,-6.615,1.88125,8.95125,-22.616001,15.312,11.440001,eccentric,4,3.0,20998.0,144919.0,232431.0,282285.0,265355.0
2026-04-08 21:51:27.588570,259674,1609504259803634,1859770098,0.825696,0.06832,0.031232,-7.035,0.4375,9.205,-22.6,15.688001,12.400001,eccentric,4,3.0,20998.0,144919.0,232431.0,282285.0,265355.0
2026-04-08 21:51:27.591044,259675,1609504259818105,1859784955,0.825696,0.06832,0.031232,-6.4225,-0.49,7.595,-22.6,15.688001,12.400001,eccentric,4,3.0,20998.0,144919.0,232431.0,282285.0,265355.0
2026-04-08 21:51:27.597355,259676,1609504259827028,1859793621,0.825696,0.01952,-0.191296,-8.39125,-1.40875,5.18875,-22.44,16.024,11.304001,eccentric,4,3.0,20998.0,144919.0,232431.0,282285.0,265355.0
2026-04-08 21:51:27.653524,259687,1609504259841570,1859808555,0.778848,0.03904,-0.189344,-14.42875,-1.82,3.12375,-22.28,16.136002,10.912001,eccentric,4,3.0,21027.0,145146.0,232781.0,282559.0,265530.0
2026-04-08 21:51:27.656049,259688,1609504259850535,1859817218,0.778848,0.03904,-0.189344,-14.69125,-0.97125,1.70625,-22.28,16.136002,10.912001,eccentric,4,3.0,21027.0,145146.0,232781.0,282559.0,265530.0
2026-04-08 21:51:27.658518,259689,1609504259865009,1859832081,0.77104,0.080032,0.06832,-10.0625,-0.42,0.7525,-22.112001,15.896001,10.704,eccentric,4,3.0,21027.0,145146.0,232781.0,282559.0,265530.0
2026-04-08 21:51:27.661133,259690,1609504259873911,1859840816,0.77104,0.080032,0.06832,-5.9675,-0.455,-0.13125,-22.112001,15.896001,10.704,eccentric,4,3.0,21027.0,145146.0,232781.0,282559.0,265530.0
2026-04-08 21:51:27.663536,259691,1609504259882890,1859849535,0.769088,0.085888,0.08784,-6.88625,-1.3125,-0.53375,-22.096,15.704,12.072001,eccentric,4,3.0,21027.0,145146.0,232781.0,282559.0,265530.0
2026-04-08 21:51:27.666073,259692,1609504259897398,1859864510,0.769088,0.085888,0.08784,-11.5675,-2.7125,-0.63875,-22.096,15.704,12.072001,eccentric,4,3.0,21027.0,145146.0,232781.0,282559.0,265530.0
2026-04-08 21:51:27.701263,259693,1609504259906378,1859873216,0.743712,0.070272,-0.163968,-13.09,-2.37125,-0.13125,-22.312,15.968,12.144001,eccentric,4,3.0,21027.0,145146.0,232781.0,282559.0,265530.0
2026-04-08 21:51:27.704842,259694,1609504259920852,1859886012,0.83936,0.040992,-0.091744,-10.4475,-2.21375,0.245,-21.928001,16.008001,11.512,eccentric,4,3.0,21027.0,145146.0,232781.0,282559.0,265530.0
2026-04-08 21:51:27.708113,259695,1609504259929991,1859896718,0.83936,0.040992,-0.091744,-10.07125,-1.4175,1.1725,-21.928001,16.008001,11.512,eccentric,4,3.0,21027.0,145146.0,232781.0,282559.0,265530.0
2026-04-08 21:51:27.710059,259696,1609504259938936,1859905426,0.83936,0.040992,-0.091744,-12.39875,-1.47,2.38875,-21.928001,16.008001,11.512,eccentric,4,3.0,21027.0,145146.0,232781.0,282559.0,265530.0
2026-04-08 21:51:27.737328,259707,1609504259953533,1859920392,0.83936,0.060512,0.02928,-11.87375,-1.53125,3.4475,-21.648,16.16,14.032001,eccentric,4,3.0,21305.0,145808.0,233100.0,282702.0,265541.0
2026-04-08 21:51:27.739859,259708,1609504259962458,1859929114,0.735904,0.064416,-0.121024,-9.82625,-1.3825,4.52375,-22.048,16.464,10.776001,eccentric,4,3.0,21305.0,145808.0,233100.0,282702.0,265541.0
2026-04-08 21:51:27.770048,259709,1609504259977074,1859944038,0.735904,0.064416,-0.121024,-9.275,-1.54,3.4475,-22.048,16.464,10.776001,eccentric,4,3.0,21305.0,145808.0,233100.0,282702.0,265541.0
2026-04-08 21:51:27.773806,259710,1609504259985994,1859952725,0.745664,0.066368,-0.113216,-10.85,-2.16125,2.16125,-21.704,16.264,11.960001,eccentric,4,3.0,21305.0,145808.0,233100.0,282702.0,265541.0
2026-04-08 21:51:27.776285,259711,1609504260000464,1859967616,0.745664,0.066368,-0.152256,-12.1625,-2.87875,3.36,-21.704,16.264,11.960001,eccentric,4,3.0,21305.0,145808.0,233100.0,282702.0,265541.0
2026-04-08 21:51:27.779405,259712,1609504260009384,1859976280,0.757376,0.054656,-0.152256,-9.73875,-2.7125,4.7425,-21.456001,16.344,8.752001,eccentric,4,3.0,21305.0,145808.0,233100.0,282702.0,265541.0
2026-04-08 21:51:27.809731,259713,1609504260018342,1859984989,0.757376,0.054656,-0.152256,-7.37625,-1.67125,5.1975,-21.456001,16.344,8.752001,eccentric,4,3.0,21305.0,145808.0,233100.0,282702.0,265541.0
2026-04-08 21:51:27.814550,259714,1609504260032822,1859999872,0.870592,-0.005856,-0.035136,-6.5625,-2.065,5.85375,-21.488,16.328001,11.040001,eccentric,4,3.0,21305.0,145808.0,233100.0,282702.0,265541.0
2026-04-08 21:51:27.851706,259726,1609504260041754,1860008884,0.802272,0.031232,-0.056608,-9.8875,-2.58125,5.36375,-21.080002,16.736,10.76,eccentric,4,3.0,21417.0,146040.0,233245.0,282719.0,265571.0
2026-04-08 21:51:27.853332,259727,1609504260056262,1860021729,0.802272,0.031232,-0.056608,-16.12625,-3.115,1.12875,-21.080002,16.736,10.76,eccentric,4,3.0,21417.0,146040.0,233245.0,282719.0,265571.0
2026-04-08 21:51:27.854877,259728,1609504260065506,1860032531,0.76128,0.021472,-0.167872,-14.6475,-3.07125,-5.53,-20.896002,16.696001,10.56,eccentric,4,3.0,21417.0,146040.0,233245.0,282719.0,265571.0
2026-04-08 21:51:27.859175,259729,1609504260080002,1860045375,0.76128,0.021472,-0.167872,-8.3475,-2.0825,-7.20125,-20.896002,16.696001,10.56,eccentric,4,3.0,21417.0,146040.0,233245.0,282719.0,265571.0
2026-04-08 21:51:27.861499,259730,1609504260089495,1860056138,0.749568,0.062464,-0.197152,-2.84375,-1.46125,-4.095,-21.232,16.816,11.000001,eccentric,4,3.0,21417.0,146040.0,233245.0,282719.0,265571.0
2026-04-08 21:51:27.890020,259731,1609504260098499,1860064847,0.749568,0.062464,-0.197152,-0.58625,-1.75,-1.86375,-21.232,16.816,11.000001,eccentric,4,3.0,21417.0,146040.0,233245.0,282719.0,265571.0
2026-04-08 21:51:27.894510,259732,1609504260112963,1860079695,0.815936,0.03904,-0.132736,-2.695,-2.5025,-1.19875,-21.2,16.52,11.424001,eccentric,4,3.0,21417.0,146040.0,233245.0,282719.0,265571.0
2026-04-08 21:51:27.896127,259733,1609504260121863,1860088362,0.767136,0.054656,-0.15616,-5.99375,-2.2925,-0.0175,-21.2,17.056002,8.568001,eccentric,4,3.0,21417.0,146040.0,233245.0,282719.0,265571.0
2026-04-08 21:51:27.927129,259734,1609504260136377,1860103253,0.767136,0.054656,-0.15616,-9.6775,-2.2925,1.2775,-21.224,17.056002,8.568001,eccentric,4,3.0,21417.0,146040.0,233245.0,282719.0,265571.0
2026-04-08 21:51:27.955836,259745,1609504260145708,1860111994,0.759328,0.060512,-0.0976,-10.5175,-2.63375,1.4525,-21.216002,16.784,10.472,eccentric,4,3.0,21374.0,145959.0,233231.0,282789.0,265664.0
2026-04-08 21:51:27.957356,259746,1609504260154630,1860120665,0.759328,0.060512,-0.0976,-8.6625,-2.51125,1.7675,-21.216002,16.784,10.472,eccentric,4,3.0,21374.0,145959.0,233231.0,282789.0,265664.0
2026-04-08 21:51:27.961644,259747,1609504260169086,1860135575,0.735904,0.02928,-0.056608,-6.755,-2.2575,1.79375,-21.136002,16.952002,10.176001,eccentric,4,3.0,21374.0,145959.0,233231.0,282789.0,265664.0
2026-04-08 21:51:27.963286,259748,1609504260178071,1860144248,0.735904,0.02928,-0.056608,-6.37,-2.73875,1.05875,-21.136002,16.952002,10.176001,eccentric,4,3.0,21374.0,145959.0,233231.0,282789.0,265664.0
2026-04-08 21:51:27.964824,259749,1609504260192524,1860159195,0.730048,0.01952,0.031232,-8.05,-2.9575,0.79625,-20.84,16.688002,10.352,eccentric,4,3.0,21374.0,145959.0,233231.0,282789.0,265664.0
2026-04-08 21:51:27.999648,259750,1609504260201464,1860167922,0.730048,0.01952,0.031232,-6.81625,-3.38625,0.49875,-20.84,16.688002,10.352,eccentric,4,3.0,21374.0,145959.0,233231.0,282789.0,265664.0
2026-04-08 21:51:28.001921,259751,1609504260215959,1860182801,0.743712,0.025376,-0.122976,-1.09375,-3.745,-0.28875,-21.184002,16.752,7.736001,eccentric,4,3.0,21374.0,145959.0,233231.0,282789.0,265664.0
2026-04-08 21:51:28.006566,259752,1609504260224872,1860191456,0.86864,0.056608,0.023424,5.22375,-3.78,0.44625,-20.792002,16.688002,10.320001,eccentric,4,3.0,21374.0,145959.0,233231.0,282789.0,265664.0
2026-04-08 21:51:28.008371,259753,1609504260233792,1860200152,0.86864,0.056608,0.023424,9.7825,-3.115,0.8575,-20.792002,16.688002,10.320001,eccentric,4,3.0,21374.0,145959.0,233231.0,282789.0,265664.0
2026-04-08 21:51:28.042810,259764,1609504260248508,1860215079,0.767136,0.050752,0.101504,10.99875,-2.45875,-0.7175,-21.248001,16.328001,10.224001,eccentric,4,3.0,20863.0,144633.0,232420.0,282540.0,265668.0
2026-04-08 21:51:28.044570,259765,1609504260257551,1860223794,0.767136,0.050752,0.101504,6.8425,-1.89,-4.36625,-21.248001,16.328001,10.224001,eccentric,4,3.0,20863.0,144633.0,232420.0,282540.0,265668.0
2026-04-08 21:51:28.047054,259766,1609504260272194,1860238709,0.794464,0.011712,0.037088,2.31875,-2.93125,-4.375,-21.2,16.544,11.208,eccentric,4,3.0,20863.0,144633.0,232420.0,282540.0,265668.0
2026-04-08 21:51:28.048533,259767,1609504260281143,1860247398,0.794464,0.011712,0.037088,1.23375,-3.675,-2.835,-21.2,16.544,11.208,eccentric,4,3.0,20863.0,144633.0,232420.0,282540.0,265668.0
2026-04-08 21:51:28.082107,259768,1609504260290083,1860256061,0.845216,0.017568,-0.201056,0.69125,-4.34,-8.56625,-21.048,16.584002,11.408001,eccentric,4,3.0,20863.0,144633.0,232420.0,282540.0,265668.0
2026-04-08 21:51:28.087015,259769,1609504260304535,1860270910,0.90768,0.035136,0.007808,5.60875,-2.9925,-11.41,-21.336,16.392,10.008,eccentric,4,3.0,20863.0,144633.0,232420.0,282540.0,265668.0
2026-04-08 21:51:28.091938,259770,1609504260313453,1860279588,0.90768,0.035136,0.007808,15.8375,-1.09375,-4.76,-21.336,16.392,10.008,eccentric,4,3.0,20863.0,144633.0,232420.0,282540.0,265668.0
2026-04-08 21:51:28.098943,259771,1609504260327918,1860294489,0.794464,0.076128,0.025376,10.52625,-1.05875,-4.45375,-21.168001,16.304,11.824,eccentric,4,3.0,20863.0,144633.0,232420.0,282540.0,265668.0
2026-04-08 21:51:28.127546,259772,1609504260336869,1860303194,0.794464,0.076128,0.025376,4.96125,-1.05875,-4.87375,-21.168001,16.304,11.824,eccentric,4,3.0,20863.0,144633.0,232420.0,282540.0,265668.0
2026-04-08 21:51:28.157063,259783,1609504260351713,1860318101,0.83936,0.060512,-0.093696,2.79125,-1.9075,-2.68625,-21.168001,16.592001,10.76,eccentric,4,3.0,20616.0,144073.0,231999.0,282314.0,265576.0
2026-04-08 21:51:28.158575,259784,1609504260360657,1860326759,0.83936,0.060512,-0.093696,-1.0325,-3.1675,-3.07125,-21.168001,16.592001,10.76,eccentric,4,3.0,20616.0,144073.0,231999.0,282314.0,265576.0
2026-04-08 21:51:28.162848,259785,1609504260369607,1860335416,0.90768,0.064416,0.005856,-5.97625,-3.99,-6.2825,-21.2,16.272001,10.568001,eccentric,4,3.0,20616.0,144073.0,231999.0,282314.0,265576.0
2026-04-08 21:51:28.164594,259786,1609504260384155,1860350351,0.843264,0.035136,-0.11712,-7.65625,-4.45375,-9.31875,-21.328001,16.032001,10.792001,eccentric,4,3.0,20616.0,144073.0,231999.0,282314.0,265576.0
2026-04-08 21:51:28.166149,259787,1609504260393078,1860359118,0.843264,0.035136,-0.11712,-4.45375,-4.025,-8.9775,-21.328001,16.032001,10.792001,eccentric,4,3.0,20616.0,144073.0,231999.0,282314.0,265576.0
2026-04-08 21:51:28.196283,259788,1609504260407557,1860374065,0.9272,0.02928,0.011712,-0.91875,-3.6575,-6.72875,-21.432001,16.432001,10.240001,eccentric,4,3.0,20616.0,144073.0,231999.0,282314.0,265576.0
2026-04-08 21:51:28.199830,259789,1609504260416457,1860382718,0.9272,0.02928,0.011712,0.595,-3.71875,-6.195,-21.432001,16.432001,10.240001,eccentric,4,3.0,20616.0,144073.0,231999.0,282314.0,265576.0
2026-04-08 21:51:28.202330,259790,1609504260430920,1860397569,0.872544,0.046848,-0.228384,-0.2975,-4.8125,-6.64125,-21.424002,15.960001,12.072001,eccentric,4,3.0,20616.0,144073.0,231999.0,282314.0,265576.0
2026-04-08 21:51:28.232525,259791,1609504260439869,1860406275,0.872544,0.046848,-0.228384,-2.24,-5.69625,-6.3175,-21.424002,15.960001,12.072001,concentric,4,3.0,20616.0,144073.0,231999.0,282314.0,265576.0
2026-04-08 21:51:28.331156,259802,1609504260448917,1860415204,0.884256,0.042944,-0.22448,-4.585,-6.15125,-5.92375,-21.432001,15.904,10.360001,concentric,4,3.0,20669.0,144228.0,232094.0,282316.0,265514.0
2026-04-08 21:51:28.333580,259803,1609504260463389,1860430083,0.884256,0.042944,-0.169824,-5.1625,-6.23,-6.25625,-21.432001,15.904,10.360001,concentric,4,3.0,20669.0,144228.0,232094.0,282316.0,265514.0
2026-04-08 21:51:28.336036,259804,1609504260472291,1860438756,0.950624,0.027328,-0.169824,-4.6025,-6.23875,-5.3375,-21.904001,15.936001,9.280001,concentric,4,3.0,20669.0,144228.0,232094.0,282316.0,265514.0
2026-04-08 21:51:28.338555,259805,1609504260486918,1860453699,0.958432,0.042944,-0.042944,-4.62,-5.6175,-3.70125,-21.904001,16.248001,10.864,concentric,4,3.0,20669.0,144228.0,232094.0,282316.0,265514.0
2026-04-08 21:51:28.341064,259806,1609504260496002,1860462436,0.958432,0.042944,-0.042944,-5.59125,-5.81,-3.19375,-21.904001,16.248001,10.864,concentric,4,3.0,20669.0,144228.0,232094.0,282316.0,265514.0
2026-04-08 21:51:28.343598,259807,1609504260504909,1860471089,0.88816,0.023424,-0.18544,-8.79375,-6.27375,-2.77375,-21.664001,16.384,11.056001,concentric,4,3.0,20669.0,144228.0,232094.0,282316.0,265514.0
2026-04-08 21:51:28.348575,259808,1609504260519396,1860485990,0.88816,0.023424,-0.18544,-11.1125,-7.42875,-2.555,-21.664001,16.384,11.056001,concentric,4,3.0,20669.0,144228.0,232094.0,282316.0,265514.0
2026-04-08 21:51:28.351437,259809,1609504260528319,1860494645,0.899872,0.052704,0.023424,-10.94625,-8.16375,-2.6425,-22.008001,16.416,9.76,concentric,4,3.0,20669.0,144228.0,232094.0,282316.0,265514.0
2026-04-08 21:51:28.383504,259820,1609504260542862,1860509602,0.899872,0.052704,0.023424,-10.9025,-8.0325,-1.995,-22.008001,16.416,9.76,concentric,4,3.0,20561.0,143999.0,232154.0,282501.0,265474.0
2026-04-08 21:51:28.386058,259821,1609504260551799,1860518309,0.915488,0.046848,-0.015616,-7.0175,-7.81375,-1.75875,-21.936,16.648,9.032001,concentric,4,3.0,20561.0,143999.0,232154.0,282501.0,265474.0
2026-04-08 21:51:28.388582,259822,1609504260566270,1860533148,0.81008,0.072224,-0.080032,-2.555,-7.42875,-2.2925,-22.104002,16.880001,10.696,concentric,4,3.0,20561.0,143999.0,232154.0,282501.0,265474.0
2026-04-08 21:51:28.391063,259823,1609504260575324,1860541875,0.81008,0.072224,-0.080032,-2.6425,-7.60375,-3.12375,-22.104002,16.880001,10.696,concentric,4,3.0,20561.0,143999.0,232154.0,282501.0,265474.0
2026-04-08 21:51:28.393587,259824,1609504260584253,1860550598,0.81008,0.072224,-0.244,-5.95,-8.26875,-3.15875,-22.104002,16.880001,10.696,concentric,4,3.0,20561.0,143999.0,232154.0,282501.0,265474.0
2026-04-08 21:51:28.396089,259825,1609504260598808,1860565535,0.821792,0.06832,-0.244,-5.8975,-8.33875,-4.71625,-22.264002,16.528,10.72,concentric,4,3.0,20561.0,143999.0,232154.0,282501.0,265474.0
2026-04-08 21:51:28.402256,259826,1609504260607813,1860574213,0.929152,0.046848,-0.10736,-6.57125,-8.51375,-7.49875,-22.424002,16.376001,9.696,concentric,4,3.0,20561.0,143999.0,232154.0,282501.0,265474.0
2026-04-08 21:51:28.404782,259827,1609504260622332,1860589116,0.929152,0.046848,-0.10736,-5.59125,-8.02375,-6.67625,-22.424002,16.376001,9.696,concentric,4,3.0,20561.0,143999.0,232154.0,282501.0,265474.0
2026-04-08 21:51:28.407254,259828,1609504260631262,1860597863,0.895968,0.052704,-0.052704,-3.21125,-7.455,-4.66375,-22.6,16.432001,10.52,concentric,4,3.0,20561.0,143999.0,232154.0,282501.0,265474.0
2026-04-08 21:51:28.441052,259839,1609504260645991,1860612802,0.860832,0.042944,-0.152256,-2.24,-6.78125,-4.9,-22.528002,16.584002,8.232,concentric,4,3.0,20509.0,144044.0,232293.0,282623.0,265546.0
2026-04-08 21:51:28.443561,259840,1609504260655099,1860621500,0.860832,0.042944,-0.152256,-1.7675,-6.3175,-4.68125,-22.528002,16.584002,8.232,concentric,4,3.0,20509.0,144044.0,232293.0,282623.0,265546.0
2026-04-08 21:51:28.446130,259841,1609504260664172,1860630223,0.860832,0.042944,-0.152256,-3.43875,-6.1075,-3.87625,-22.528002,16.584002,8.232,concentric,4,3.0,20509.0,144044.0,232293.0,282623.0,265546.0
2026-04-08 21:51:28.448593,259842,1609504260678630,1860645124,0.901824,0.072224,-0.103456,-6.4925,-6.51,-4.12125,-22.736002,16.416,8.904,concentric,4,3.0,20509.0,144044.0,232293.0,282623.0,265546.0
2026-04-08 21:51:28.478787,259843,1609504260687548,1860653789,0.808128,0.091744,-0.150304,-8.2075,-6.88625,-5.4775,-22.552002,16.560001,10.216001,concentric,4,3.0,20509.0,144044.0,232293.0,282623.0,265546.0
2026-04-08 21:51:28.482320,259844,1609504260702033,1860668655,0.808128,0.091744,-0.150304,-8.54,-6.85125,-6.9475,-22.552002,16.560001,10.216001,concentric,4,3.0,20509.0,144044.0,232293.0,282623.0,265546.0
2026-04-08 21:51:28.484784,259845,1609504260710948,1860677311,0.854976,0.0488,-0.056608,-7.55125,-6.60625,-9.1,-22.288,16.536001,8.992001,concentric,4,3.0,20509.0,144044.0,232293.0,282623.0,265546.0
2026-04-08 21:51:28.516193,259846,1609504260725458,1860692211,0.854976,0.076128,-0.140544,-6.0025,-6.23,-9.7825,-22.288,16.536001,10.504001,concentric,4,3.0,20509.0,144044.0,232293.0,282623.0,265546.0
2026-04-08 21:51:28.518570,259847,1609504260734372,1860700899,0.853024,0.076128,-0.140544,-2.8,-5.6175,-10.0975,-22.68,16.584002,10.504001,concentric,4,3.0,20509.0,144044.0,232293.0,282623.0,265546.0
2026-04-08 21:51:28.521133,259848,1609504260743276,1860709548,0.853024,0.076128,-0.140544,0.81375,-5.18,-11.94375,-22.68,16.584002,10.504001,concentric,4,3.0,20509.0,144044.0,232293.0,282623.0,265546.0
2026-04-08 21:51:28.548540,259859,1609504260757856,1860724508,0.905728,0.083936,-0.265472,0.11375,-4.80375,-14.37625,-22.816002,16.16,8.952001,concentric,4,3.0,20657.0,144388.0,232477.0,282602.0,265462.0
2026-04-08 21:51:28.551046,259860,1609504260766837,1860733222,0.99552,0.062464,-0.128832,-2.205,-5.10125,-16.275,-23.064001,16.104,9.664001,concentric,4,3.0,20657.0,144388.0,232477.0,282602.0,265462.0
2026-04-08 21:51:28.553614,259861,1609504260781376,1860748091,0.99552,0.062464,-0.128832,-3.28125,-4.76875,-15.855001,-23.064001,16.104,9.664001,concentric,4,3.0,20657.0,144388.0,232477.0,282602.0,265462.0
2026-04-08 21:51:28.558702,259862,1609504260790402,1860756842,0.866688,0.124928,-0.070272,-2.23125,-3.2375,-14.8575,-23.096,16.184,8.824,concentric,4,3.0,20657.0,144388.0,232477.0,282602.0,265462.0
2026-04-08 21:51:28.598809,259863,1609504260799323,1860765506,0.866688,0.124928,-0.070272,-0.42875,-3.0275,-13.64125,-23.096,16.184,8.824,concentric,4,3.0,20657.0,144388.0,232477.0,282602.0,265462.0
2026-04-08 21:51:28.602359,259864,1609504260813836,1860780358,0.942816,0.113216,-0.021472,0.97125,-3.22,-11.3925,-23.256,15.976001,8.928,concentric,4,3.0,20657.0,144388.0,232477.0,282602.0,265462.0
2026-04-08 21:51:28.604868,259865,1609504260822879,1860789025,0.942816,0.113216,-0.021472,-0.5775,-3.59625,-8.72375,-23.256,15.976001,8.928,concentric,4,3.0,20657.0,144388.0,232477.0,282602.0,265462.0
2026-04-08 21:51:28.607245,259866,1609504260837359,1860803932,0.983808,0.089792,-0.122976,-5.50375,-3.71875,-7.0875,-23.480001,16.072,8.872001,concentric,4,3.0,20657.0,144388.0,232477.0,282602.0,265462.0
2026-04-08 21:51:28.645071,259877,1609504260846696,1860813161,0.935008,0.101504,-0.01952,-8.8025,-3.05375,-6.615,-23.480001,16.072,10.016001,concentric,4,3.0,20551.0,144029.0,232202.0,282464.0,265421.0
2026-04-08 21:51:28.647352,259878,1609504260861219,1860828050,0.935008,0.101504,-0.01952,-6.0025,-1.96875,-5.0225,-23.864,15.816001,10.016001,concentric,4,3.0,20551.0,144029.0,232202.0,282464.0,265421.0
2026-04-08 21:51:28.649759,259879,1609504260870260,1860836741,0.903776,0.095648,0.052704,-1.33875,-1.715,-2.61625,-23.688002,15.808001,9.864,concentric,4,3.0,20551.0,144029.0,232202.0,282464.0,265421.0
2026-04-08 21:51:28.652278,259880,1609504260879214,1860845427,0.903776,0.095648,0.052704,-1.19,-2.1875,-1.40875,-23.688002,15.808001,9.864,concentric,4,3.0,20551.0,144029.0,232202.0,282464.0,265421.0
2026-04-08 21:51:28.682530,259881,1609504260893710,1860860284,0.817888,0.128832,-0.0488,-3.535,-2.3625,-0.6825,-23.952002,16.264,8.76,concentric,4,3.0,20551.0,144029.0,232202.0,282464.0,265421.0
2026-04-08 21:51:28.686091,259882,1609504260902646,1860868939,0.817888,0.128832,-0.0488,-5.355,-2.03,-0.98875,-23.952002,16.264,8.76,concentric,4,3.0,20551.0,144029.0,232202.0,282464.0,265421.0
2026-04-08 21:51:28.688535,259883,1609504260917116,1860883803,0.88816,0.0976,-0.00976,-8.9425,-2.7475,-3.5,-23.648,16.048,8.712001,concentric,4,3.0,20551.0,144029.0,232202.0,282464.0,265421.0
2026-04-08 21:51:28.694968,259884,1609504260926060,1860892481,0.88816,0.0976,-0.00976,-15.07625,-3.24625,-7.8575,-23.648,16.048,8.712001,concentric,4,3.0,20551.0,144029.0,232202.0,282464.0,265421.0
2026-04-08 21:51:28.725056,259885,1609504260940544,1860907379,0.827648,0.083936,-0.115168,-14.79625,-2.79125,-5.845,-23.76,16.008001,10.184,concentric,4,3.0,20551.0,144029.0,232202.0,282464.0,265421.0
2026-04-08 21:51:28.753613,259896,1609504260949978,1860916063,0.853024,0.085888,-0.015616,-15.4875,-2.03875,-5.145,-23.920002,16.296001,8.296001,concentric,4,3.0,20678.0,144486.0,232652.0,282729.0,265527.0
2026-04-08 21:51:28.756091,259897,1609504260958895,1860924837,0.853024,0.085888,-0.015616,-13.0375,-1.2425,-6.055,-23.920002,16.296001,8.296001,concentric,4,3.0,20678.0,144486.0,232652.0,282729.0,265527.0
2026-04-08 21:51:28.758583,259898,1609504260973451,1860939752,0.794464,0.095648,-0.210816,-12.0575,-0.25375,-6.72875,-23.848001,15.976001,10.592001,concentric,4,3.0,20678.0,144486.0,232652.0,282729.0,265527.0
2026-04-08 21:51:28.761061,259899,1609504260982515,1860948513,0.794464,0.095648,-0.210816,-9.765,0.735,-6.01125,-23.848001,15.976001,10.592001,concentric,4,3.0,20678.0,144486.0,232652.0,282729.0,265527.0
2026-04-08 21:51:28.766103,259900,1609504260997077,1860963378,0.905728,0.113216,-0.001952,-6.09,0.46375,-6.23,-23.880001,15.992001,10.080001,concentric,4,3.0,20678.0,144486.0,232652.0,282729.0,265527.0
2026-04-08 21:51:28.798793,259901,1609504261006021,1860972057,0.905728,0.113216,-0.001952,-6.37,0.07,-6.76375,-23.880001,15.992001,10.080001,concentric,4,3.0,20678.0,144486.0,232652.0,282729.0,265527.0
2026-04-08 21:51:28.802309,259902,1609504261014922,1860980726,0.856928,0.142496,-0.060512,-9.82625,0.48125,-5.775,-24.128,16.128,8.776,concentric,4,3.0,20678.0,144486.0,232652.0,282729.0,265527.0
2026-04-08 21:51:28.804841,259903,1609504261029388,1860995580,0.880352,0.093696,-0.245952,-15.1025,0.88375,-4.6725,-23.840002,16.288,10.120001,concentric,4,3.0,20678.0,144486.0,232652.0,282729.0,265527.0
2026-04-08 21:51:28.807347,259904,1609504261038281,1861004244,0.880352,0.093696,-0.245952,-16.75625,1.365,-5.18,-23.840002,16.288,10.120001,concentric,4,3.0,20678.0,144486.0,232652.0,282729.0,265527.0
2026-04-08 21:51:28.863560,259915,1609504261052811,1861019176,0.866688,0.093696,-0.1464,-17.5,2.2225,-6.18625,-24.024002,16.192001,8.64,concentric,4,3.0,21013.0,145340.0,233267.0,282989.0,265560.0
2026-04-08 21:51:28.866124,259916,1609504261061735,1861027849,0.866688,0.093696,-0.1464,-18.935,3.15875,-6.4225,-24.024002,16.192001,8.64,concentric,4,3.0,21013.0,145340.0,233267.0,282989.0,265560.0
2026-04-08 21:51:28.899998,259917,1609504261076166,1861042719,0.837408,0.095648,-0.0488,-15.9425,3.64,-6.85125,-24.320002,16.272001,8.208,concentric,4,3.0,21013.0,145340.0,233267.0,282989.0,265560.0
2026-04-08 21:51:28.904364,259918,1609504261085120,1861051425,0.837408,0.095648,-0.0488,-13.0725,3.78,-7.8575,-24.320002,16.272001,8.208,concentric,4,3.0,21013.0,145340.0,233267.0,282989.0,265560.0
2026-04-08 21:51:28.906052,259919,1609504261094154,1861060150,0.870592,0.0976,-0.257664,-12.10125,3.28125,-8.12875,-24.232,16.472,8.616,concentric,4,3.0,21013.0,145340.0,233267.0,282989.0,265560.0
2026-04-08 21:51:28.910261,259920,1609504261108651,1861074999,0.977952,0.076128,-0.150304,-10.9375,2.30125,-7.84875,-24.496,16.448,8.128,concentric,4,3.0,21013.0,145340.0,233267.0,282989.0,265560.0
2026-04-08 21:51:28.913983,259921,1609504261117602,1861083710,0.977952,0.076128,-0.150304,-10.465,2.30125,-8.53125,-24.496,16.448,8.128,concentric,4,3.0,21013.0,145340.0,233267.0,282989.0,265560.0
2026-04-08 21:51:28.917348,259922,1609504261132044,1861098616,0.860832,0.101504,-0.206912,-12.50375,2.9575,-9.98375,-24.6,16.544,7.712,concentric,4,3.0,21013.0,145340.0,233267.0,282989.0,265560.0
2026-04-08 21:51:28.924892,259923,1609504261140959,1861107281,0.860832,0.101504,-0.206912,-14.44625,3.96375,-10.115,-24.6,16.544,7.712,concentric,4,3.0,21013.0,145340.0,233267.0,282989.0,265560.0
2026-04-08 21:51:28.956031,259934,1609504261156037,1861122246,0.909632,0.0976,0.013664,-12.15375,4.34,-10.15,-24.768002,16.368,8.384001,concentric,4,3.0,21277.0,145904.0,233553.0,283066.0,265543.0
2026-04-08 21:51:28.958561,259935,1609504261164925,1861130937,0.909632,0.0976,0.013664,-7.00875,4.27,-10.1325,-24.768002,16.368,8.384001,concentric,4,3.0,21277.0,145904.0,233553.0,283066.0,265543.0
2026-04-08 21:51:28.961106,259936,1609504261174005,1861139652,0.88816,0.160064,-0.013664,-5.3725,4.2,-9.38,-24.824001,16.184,9.68,concentric,4,3.0,21277.0,145904.0,233553.0,283066.0,265543.0
2026-04-08 21:51:28.963568,259937,1609504261188523,1861154533,0.851072,0.140544,-0.218624,-1.925,4.57625,-8.60125,-24.824001,16.184,9.792001,concentric,4,3.0,21277.0,145904.0,233553.0,283066.0,265543.0
2026-04-08 21:51:28.966040,259938,1609504261197464,1861163233,0.851072,0.140544,-0.218624,0.07875,5.145,-8.995,-25.288002,16.104,9.792001,concentric,4,3.0,21277.0,145904.0,233553.0,283066.0,265543.0
2026-04-08 21:51:28.996263,259939,1609504261211937,1861178117,0.997472,0.105408,-0.074176,-3.00125,5.6175,-10.03625,-25.136002,16.12,8.024,concentric,4,3.0,21277.0,145904.0,233553.0,283066.0,265543.0
2026-04-08 21:51:28.999821,259940,1609504261220854,1861186787,0.997472,0.105408,-0.074176,-7.7525,5.6875,-10.52625,-25.136002,16.12,8.024,concentric,4,3.0,21277.0,145904.0,233553.0,283066.0,265543.0
2026-04-08 21:51:29.002300,259941,1609504261229771,1861195440,0.905728,0.113216,-0.134688,-8.60125,7.035,-11.85625,-25.240002,15.936001,7.8,concentric,4,3.0,21277.0,145904.0,233553.0,283066.0,265543.0
2026-04-08 21:51:29.032646,259942,1609504261244300,1861210273,0.905728,0.113216,-0.134688,-7.02625,7.5775,-12.97625,-25.240002,15.936001,7.8,concentric,4,3.0,21277.0,145904.0,233553.0,283066.0,265543.0
2026-04-08 21:51:29.061075,259953,1609504261253332,1861219403,0.954528,0.08784,0.001952,-1.32125,8.25125,-13.13375,-25.288002,16.216002,8.496,concentric,4,3.0,21593.0,146637.0,233996.0,283302.0,265633.0
2026-04-08 21:51:29.063512,259954,1609504261267795,1861234417,0.954528,0.08784,0.001952,7.28,8.32125,-11.68125,-25.288002,16.216002,8.496,concentric,4,3.0,21593.0,146637.0,233996.0,283302.0,265633.0
2026-04-08 21:51:29.066046,259955,1609504261276778,1861243118,0.880352,0.142496,-0.226432,16.37125,7.67375,-10.94625,-25.168001,15.664001,8.504001,concentric,4,3.0,21593.0,146637.0,233996.0,283302.0,265633.0
2026-04-08 21:51:29.069096,259956,1609504261291267,1861258007,0.931104,0.160064,-0.03904,22.16375,7.4025,-11.34875,-25.664001,15.880001,9.448001,concentric,4,3.0,21593.0,146637.0,233996.0,283302.0,265633.0
2026-04-08 21:51:29.072238,259957,1609504261300172,1861266686,0.931104,0.160064,-0.03904,20.195,6.545,-10.535,-25.664001,15.880001,9.448001,concentric,4,3.0,21593.0,146637.0,233996.0,283302.0,265633.0
2026-04-08 21:51:29.101342,259958,1609504261309090,1861275359,0.884256,0.148352,-0.169824,13.685,5.32,-9.35375,-25.664001,15.880001,9.448001,concentric,4,3.0,21593.0,146637.0,233996.0,283302.0,265633.0
2026-04-08 21:51:29.104842,259959,1609504261323573,1861290281,0.884256,0.148352,-0.169824,9.0475,4.235,-7.77875,-25.656002,16.136002,9.248,concentric,4,3.0,21593.0,146637.0,233996.0,283302.0,265633.0
2026-04-08 21:51:29.107304,259960,1609504261332517,1861298966,0.958432,0.142496,-0.080032,9.24875,3.68375,-7.97125,-25.512001,15.808001,8.832001,concentric,4,3.0,21593.0,146637.0,233996.0,283302.0,265633.0
2026-04-08 21:51:29.163513,259971,1609504261347024,1861313784,0.958432,0.142496,-0.080032,12.9325,3.75375,-8.89,-25.512001,15.808001,8.832001,concentric,4,3.0,21641.0,146747.0,234126.0,283382.0,265704.0
2026-04-08 21:51:29.166066,259972,1609504261356042,1861322516,0.938912,0.0976,-0.23424,16.275,4.13,-10.2725,-25.912,15.320001,9.704,concentric,4,3.0,21641.0,146747.0,234126.0,283382.0,265704.0
2026-04-08 21:51:29.203788,259973,1609504261370516,1861337362,0.872544,0.160064,-0.042944,14.74375,5.20625,-11.1825,-25.576002,15.432001,7.768001,concentric,4,3.0,21641.0,146747.0,234126.0,283382.0,265704.0
2026-04-08 21:51:29.209859,259974,1609504261379444,1861346058,0.872544,0.160064,-0.042944,11.78625,4.50625,-10.3775,-25.576002,15.432001,7.768001,concentric,4,3.0,21641.0,146747.0,234126.0,283382.0,265704.0
2026-04-08 21:51:29.212344,259975,1609504261388437,1861354777,0.872544,0.160064,-0.042944,10.75375,2.835,-8.67125,-25.576002,15.432001,7.768001,concentric,4,3.0,21641.0,146747.0,234126.0,283382.0,265704.0
2026-04-08 21:51:29.214815,259976,1609504261403054,1861369743,0.968192,0.101504,-0.150304,9.8175,1.70625,-6.51875,-26.12,15.480001,9.832001,concentric,4,3.0,21641.0,146747.0,234126.0,283382.0,265704.0
2026-04-08 21:51:29.217316,259977,1609504261411987,1861378409,1.00528,0.074176,-0.187392,10.01,1.0325,-5.145,-26.080002,15.072001,9.072001,concentric,4,3.0,21641.0,146747.0,234126.0,283382.0,265704.0
2026-04-08 21:51:29.219896,259978,1609504261426524,1861393251,1.00528,0.074176,-0.187392,11.61125,0.665,-6.86,-26.080002,15.072001,9.072001,concentric,4,3.0,21641.0,146747.0,234126.0,283382.0,265704.0
2026-04-08 21:51:29.223438,259979,1609504261435436,1861401899,0.987712,0.07808,-0.138592,11.45375,0.98875,-7.98875,-26.192001,15.080001,8.984,concentric,4,3.0,21641.0,146747.0,234126.0,283382.0,265704.0
2026-04-08 21:51:29.255372,259990,1609504261450135,1861416826,0.987712,0.124928,0.031232,11.585,1.015,-7.81375,-26.192001,15.080001,8.984,concentric,4,3.0,21296.0,145869.0,233627.0,283223.0,265742.0
2026-04-08 21:51:29.257058,259991,1609504261459142,1861425556,0.923296,0.124928,0.031232,14.735,1.42625,-7.90125,-25.920002,14.920001,10.016001,concentric,4,3.0,21296.0,145869.0,233627.0,283223.0,265742.0
2026-04-08 21:51:29.258615,259992,1609504261468144,1861434266,0.923296,0.124928,0.031232,16.80875,1.085,-6.95625,-25.920002,14.920001,10.016001,concentric,4,3.0,21296.0,145869.0,233627.0,283223.0,265742.0
2026-04-08 21:51:29.262874,259993,1609504261482720,1861449333,0.960384,0.134688,-0.037088,16.07375,-0.27125,-5.25,-26.216002,14.568001,7.152,concentric,4,3.0,21296.0,145869.0,233627.0,283223.0,265742.0
2026-04-08 21:51:29.265325,259994,1609504261491655,1861458076,1.01504,0.1464,-0.03904,16.5375,-1.085,-4.375,-26.384,14.672001,10.224001,concentric,4,3.0,21296.0,145869.0,233627.0,283223.0,265742.0
2026-04-08 21:51:29.293844,259995,1609504261506216,1861472976,1.01504,0.1464,-0.03904,17.75375,-0.86625,-4.33125,-26.384,14.672001,10.224001,concentric,4,3.0,21296.0,145869.0,233627.0,283223.0,265742.0
2026-04-08 21:51:29.298326,259996,1609504261515190,1861481632,1.040416,0.130784,0.003904,18.48,-0.28875,-5.1275,-26.608002,14.552001,9.504001,concentric,4,3.0,21296.0,145869.0,233627.0,283223.0,265742.0
2026-04-08 21:51:29.299836,259997,1609504261524128,1861490327,1.040416,0.130784,0.003904,18.22625,0.70875,-5.31125,-26.608002,14.552001,9.504001,concentric,4,3.0,21296.0,145869.0,233627.0,283223.0,265742.0
2026-04-08 21:51:29.330913,259998,1609504261538642,1861505215,0.954528,0.099552,-0.206912,15.0325,2.03875,-2.82625,-26.824001,14.384001,9.848001,concentric,4,3.0,21296.0,145869.0,233627.0,283223.0,265742.0
2026-04-08 21:51:29.335611,259999,1609504261547552,1861513871,0.954528,0.099552,-0.206912,10.01,2.17875,-0.245,-26.824001,14.384001,9.848001,concentric,4,3.0,21296.0,145869.0,233627.0,283223.0,265742.0
2026-04-08 21:51:29.372382,260010,1609504261562049,1861528739,0.925248,0.0976,-0.226432,10.07125,1.54,0.595,-26.488,14.104001,9.816001,concentric,4,3.0,21161.0,145503.0,233337.0,283041.0,265630.0
2026-04-08 21:51:29.376588,260011,1609504261570957,1861537443,0.99552,0.13664,-0.035136,15.3125,1.39125,0.42875,-26.488,16.152,9.832001,concentric,4,3.0,21161.0,145503.0,233337.0,283041.0,265630.0
2026-04-08 21:51:29.378229,260012,1609504261585569,1861552415,0.99552,0.13664,-0.035136,18.025,1.295,-0.665,-26.272001,14.368001,9.832001,concentric,4,3.0,21161.0,145503.0,233337.0,283041.0,265630.0
2026-04-08 21:51:29.379806,260013,1609504261594512,1861561109,1.016992,0.162016,-0.00976,18.55875,1.8375,-1.575,-26.632002,14.472001,9.72,concentric,4,3.0,21161.0,145503.0,233337.0,283041.0,265630.0
2026-04-08 21:51:29.383915,260014,1609504261603541,1861569810,1.016992,0.162016,-0.00976,16.80875,3.08875,-0.97125,-26.632002,14.472001,9.72,concentric,4,3.0,21161.0,145503.0,233337.0,283041.0,265630.0
2026-04-08 21:51:29.389449,260015,1609504261618075,1861584673,1.028704,0.0976,-0.095648,13.0725,3.3075,0.72625,-26.912,14.312,12.400001,concentric,4,3.0,21161.0,145503.0,233337.0,283041.0,265630.0
2026-04-08 21:51:29.417499,260016,1609504261627003,1861593437,1.028704,0.0976,-0.095648,14.90125,2.52875,1.645,-26.912,14.312,12.400001,concentric,4,3.0,21161.0,145503.0,233337.0,283041.0,265630.0
2026-04-08 21:51:29.421047,260017,1609504261641406,1861608290,0.96624,0.046848,-0.037088,23.35375,1.2775,-0.4025,-26.584002,14.048,10.824,concentric,4,3.0,21161.0,145503.0,233337.0,283041.0,265630.0
2026-04-08 21:51:29.449556,260028,1609504261650332,1861617482,0.96624,0.046848,-0.037088,34.43125,0.9275,-3.57,-26.584002,14.048,10.824,concentric,4,3.0,21323.0,145870.0,233549.0,283057.0,265535.0
2026-04-08 21:51:29.452059,260029,1609504261664996,1861630370,1.036512,0.052704,-0.187392,46.08625,1.54875,-7.02625,-26.704,13.528001,8.672001,concentric,4,3.0,21323.0,145870.0,233549.0,283057.0,265535.0
2026-04-08 21:51:29.453692,260030,1609504261674435,1861641157,0.979904,0.247904,-0.163968,51.40625,2.38,-9.7825,-26.728,13.360001,11.832001,concentric,4,3.0,21323.0,145870.0,233549.0,283057.0,265535.0
2026-04-08 21:51:29.457702,260031,1609504261683386,1861649865,0.979904,0.247904,-0.163968,47.495,2.5725,-8.4875,-26.728,13.360001,11.832001,concentric,4,3.0,21323.0,145870.0,233549.0,283057.0,265535.0
2026-04-08 21:51:29.502204,260032,1609504261697958,1861664827,0.999424,0.259616,-0.284992,38.96375,3.10625,-4.9,-26.664001,13.288001,12.216001,concentric,4,3.0,21323.0,145870.0,233549.0,283057.0,265535.0
2026-04-08 21:51:29.504869,260033,1609504261706879,1861673520,0.999424,0.259616,-0.284992,26.99375,3.15875,-2.31875,-26.664001,13.288001,12.216001,concentric,4,3.0,21323.0,145870.0,233549.0,283057.0,265535.0
2026-04-08 21:51:29.512922,260034,1609504261721339,1861688404,1.038464,0.191296,-0.035136,15.4525,3.4475,-0.525,-26.640001,13.296001,10.968,concentric,4,3.0,21323.0,145870.0,233549.0,283057.0,265535.0
2026-04-08 21:51:29.514601,260035,1609504261730222,1861697053,1.038464,0.191296,-0.035136,8.89875,3.99,1.3125,-26.640001,13.296001,10.968,concentric,4,3.0,21323.0,145870.0,233549.0,283057.0,265535.0
2026-04-08 21:51:29.516124,260036,1609504261739127,1861705725,1.081408,0.1464,-0.017568,8.96,3.71875,3.73625,-26.416,13.280001,11.472,concentric,4,3.0,21323.0,145870.0,233549.0,283057.0,265535.0
2026-04-08 21:51:29.569121,260047,1609504261754252,1861720747,1.110688,0.169824,-0.148352,12.705,3.99875,5.39875,-26.6,13.208,12.168,concentric,4,3.0,21741.0,146931.0,234238.0,283385.0,265671.0
2026-04-08 21:51:29.570808,260048,1609504261763246,1861729431,1.110688,0.169824,-0.148352,16.397501,4.62,6.0725,-26.6,13.208,12.168,concentric,4,3.0,21741.0,146931.0,234238.0,283385.0,265671.0
2026-04-08 21:51:29.573630,260049,1609504261777766,1861744366,1.134112,0.140544,-0.070272,16.2925,4.73375,6.86875,-26.560001,13.048,13.152,concentric,4,3.0,21741.0,146931.0,234238.0,283385.0,265671.0
2026-04-08 21:51:29.575079,260050,1609504261786676,1861753022,1.134112,0.140544,-0.070272,12.46,4.06,8.42625,-26.560001,13.048,13.152,concentric,4,3.0,21741.0,146931.0,234238.0,283385.0,265671.0
2026-04-08 21:51:29.579078,260051,1609504261795613,1861761675,1.139968,0.091744,-0.128832,9.1175,3.4825,8.47875,-26.384,13.272,11.440001,concentric,4,3.0,21741.0,146931.0,234238.0,283385.0,265671.0
2026-04-08 21:51:29.581551,260052,1609504261810103,1861776618,1.139968,0.091744,-0.128832,10.15,3.73625,6.55375,-26.384,13.272,11.440001,concentric,4,3.0,21741.0,146931.0,234238.0,283385.0,265671.0
2026-04-08 21:51:29.610030,260053,1609504261819015,1861785286,1.177056,0.13664,-0.095648,12.0925,3.22,4.375,-26.184002,13.128,11.504001,concentric,4,3.0,21741.0,146931.0,234238.0,283385.0,265671.0
2026-04-08 21:51:29.614588,260054,1609504261833460,1861800231,1.057984,0.181536,-0.183488,14.65625,3.50875,4.3925,-25.976002,12.728001,10.904,concentric,4,3.0,21741.0,146931.0,234238.0,283385.0,265671.0
2026-04-08 21:51:29.616131,260055,1609504261842360,1861808911,1.057984,0.181536,-0.183488,15.37375,5.425,4.725,-25.976002,12.728001,10.904,concentric,4,3.0,21741.0,146931.0,234238.0,283385.0,265671.0
2026-04-08 21:51:29.648288,260066,1609504261856973,1861823925,1.155584,0.121024,-0.011712,14.9625,6.2125,5.0225,-26.096,13.176001,13.256001,concentric,4,3.0,21445.0,145989.0,233504.0,282960.0,265517.0
2026-04-08 21:51:29.649864,260067,1609504261865967,1861832661,1.155584,0.121024,-0.011712,15.1725,5.46,5.18875,-26.096,13.176001,13.256001,concentric,4,3.0,21445.0,145989.0,233504.0,282960.0,265517.0
2026-04-08 21:51:29.653934,260068,1609504261874916,1861841346,1.159488,0.103456,-0.144448,17.78,5.29375,5.48625,-25.760002,13.496,11.76,concentric,4,3.0,21445.0,145989.0,233504.0,282960.0,265517.0
