pc_time,serial_num,sensor_ts,host_ts,ax,ay,az,gx,gy,gz,mx,my,mz,phase,rpe,weight_kg,ppg_a,ppg_b,ppg_c,ppg_d,ppg_e
2026-04-08 21:51:24.933585,259178,1609504257133227,1857100029,1.15168,0.099552,-0.033184,-1.58375,-0.93625,0.58625,-26.056002,15.032001,10.416,eccentric,4,3.0,21360.0,145582.0,232993.0,282649.0,265374.0
2026-04-08 21:51:24.937829,259179,1609504257147754,1857114880,1.138016,0.138592,-0.023424,1.26875,-0.39375,0.1925,-26.104002,15.504001,11.744,eccentric,4,3.0,21360.0,145582.0,232993.0,282649.0,265374.0
2026-04-08 21:51:24.939579,259180,1609504257156814,1857123659,1.138016,0.138592,-0.023424,1.785,-0.175,-1.00625,-26.104002,15.504001,11.744,eccentric,4,3.0,21360.0,145582.0,232993.0,282649.0,265374.0
2026-04-08 21:51:24.941041,259181,1609504257165827,1857132384,1.136064,0.11712,0.011712,0.11375,-0.16625,-1.225,-26.296001,15.432001,11.512,eccentric,4,3.0,21360.0,145582.0,232993.0,282649.0,265374.0
2026-04-08 21:51:24.998422,259182,1609504257180340,1857147312,1.136064,0.11712,0.011712,-1.21625,1.085,-0.88375,-26.296001,15.432001,11.512,eccentric,4,3.0,21360.0,145582.0,232993.0,282649.0,265374.0
2026-04-08 21:51:25.000677,259183,1609504257189253,1857155971,1.071648,0.089792,-0.206912,-1.0675,2.26625,0.28,-26.192001,15.344001,11.688001,eccentric,4,3.0,21360.0,145582.0,232993.0,282649.0,265374.0
2026-04-08 21:51:25.005419,259184,1609504257203730,1857170814,1.077504,0.150304,-0.130784,-0.7525,2.19625,1.2075,-25.752,15.112,8.656,eccentric,4,3.0,21360.0,145582.0,232993.0,282649.0,265374.0
2026-04-08 21:51:25.007090,259185,1609504257212638,1857179474,1.077504,0.150304,-0.130784,-0.9275,1.785,2.1525,-25.752,15.112,8.656,eccentric,4,3.0,21360.0,145582.0,232993.0,282649.0,265374.0
2026-04-08 21:51:25.033588,259196,1609504257227594,1857194449,1.026752,0.113216,-0.23424,-2.3625,1.54,3.3075,-25.872002,15.280001,10.776001,eccentric,4,3.0,21282.0,145380.0,232869.0,282583.0,265350.0
2026-04-08 21:51:25.037798,259197,1609504257236536,1857203118,1.026752,0.113216,-0.23424,-5.74,2.47625,3.675,-25.872002,15.280001,10.776001,eccentric,4,3.0,21282.0,145380.0,232869.0,282583.0,265350.0
2026-04-08 21:51:25.039576,259198,1609504257245475,1857211830,1.097024,0.052704,-0.15616,-7.07,3.2375,3.9375,-25.336,15.208001,10.728001,eccentric,4,3.0,21282.0,145380.0,232869.0,282583.0,265350.0
2026-04-08 21:51:25.041123,259199,1609504257259965,1857226842,1.097024,0.052704,-0.15616,-7.72625,3.61375,4.48,-25.336,15.208001,10.728001,eccentric,4,3.0,21282.0,145380.0,232869.0,282583.0,265350.0
2026-04-08 21:51:25.045094,259200,1609504257268906,1857235568,1.11264,0.10736,0.0,-8.33,3.8325,4.795,-25.400002,15.112,10.592001,eccentric,4,3.0,21282.0,145380.0,232869.0,282583.0,265350.0
2026-04-08 21:51:25.088398,259201,1609504257283426,1857250454,1.081408,0.06832,-0.124928,-8.9425,4.89125,4.83875,-25.400002,15.112,12.528001,eccentric,4,3.0,21282.0,145380.0,232869.0,282583.0,265350.0
2026-04-08 21:51:25.090721,259202,1609504257292433,1857259117,1.091168,0.06832,-0.124928,-10.70125,5.06625,3.36875,-25.216002,15.400001,12.528001,eccentric,4,3.0,21282.0,145380.0,232869.0,282583.0,265350.0
2026-04-08 21:51:25.095287,259203,1609504257301386,1857267803,1.091168,0.06832,-0.124928,-12.74,4.6025,3.21125,-25.216002,15.400001,12.528001,eccentric,4,3.0,21282.0,145380.0,232869.0,282583.0,265350.0
2026-04-08 21:51:25.097044,259204,1609504257315847,1857282656,1.03456,0.089792,-0.013664,-13.43125,4.4275,3.47375,-25.28,15.464001,10.480001,eccentric,4,3.0,21282.0,145380.0,232869.0,282583.0,265350.0
2026-04-08 21:51:25.098621,259205,1609504257324774,1857291400,1.0248,0.081984,-0.148352,-11.97875,5.53,3.59625,-24.840002,15.944001,10.472,eccentric,4,3.0,21282.0,145380.0,232869.0,282583.0,265350.0
2026-04-08 21:51:25.126986,259216,1609504257339278,1857306346,1.0248,0.081984,-0.148352,-9.7825,6.09,3.66625,-24.840002,15.944001,10.472,eccentric,4,3.0,21280.0,145362.0,232845.0,282562.0,265323.0
2026-04-08 21:51:25.128596,259217,1609504257348309,1857315085,1.028704,0.099552,-0.105408,-8.5925,5.67875,4.69,-24.488,15.800001,11.192,eccentric,4,3.0,21280.0,145362.0,232845.0,282562.0,265323.0
2026-04-08 21:51:25.133920,259218,1609504257362926,1857329976,1.028704,0.099552,-0.105408,-10.99,5.215,4.7775,-24.488,15.800001,11.192,eccentric,4,3.0,21280.0,145362.0,232845.0,282562.0,265323.0
2026-04-08 21:51:25.162596,259219,1609504257371868,1857338680,1.003328,0.074176,-0.046848,-14.761251,5.005,4.69875,-24.352001,15.968,10.864,eccentric,4,3.0,21280.0,145362.0,232845.0,282562.0,265323.0
2026-04-08 21:51:25.167009,259220,1609504257380847,1857347379,1.003328,0.074176,-0.046848,-16.07375,4.89125,4.73375,-24.352001,15.968,10.864,eccentric,4,3.0,21280.0,145362.0,232845.0,282562.0,265323.0
2026-04-08 21:51:25.168537,259221,1609504257395335,1857362231,1.003328,0.0488,-0.062464,-16.94,4.76875,3.9025,-24.136002,15.792001,10.952001,eccentric,4,3.0,21280.0,145362.0,232845.0,282562.0,265323.0
2026-04-08 21:51:25.175164,259222,1609504257404239,1857370918,0.909632,0.105408,-0.101504,-15.89875,4.52375,3.14125,-24.136002,15.792001,13.000001,eccentric,4,3.0,21280.0,145362.0,232845.0,282562.0,265323.0
2026-04-08 21:51:25.203753,259223,1609504257418725,1857385772,0.91744,0.105408,-0.101504,-13.335,4.655,3.64875,-24.264002,15.880001,12.672001,eccentric,4,3.0,21280.0,145362.0,232845.0,282562.0,265323.0
2026-04-08 21:51:25.233312,259234,1609504257427696,1857394956,0.95648,0.113216,0.025376,-11.29625,4.99625,3.33375,-23.920002,16.128,10.472,eccentric,4,3.0,21350.0,145640.0,233105.0,282738.0,265422.0
2026-04-08 21:51:25.234936,259235,1609504257442281,1857407754,0.95648,0.113216,0.025376,-11.261251,4.62875,2.82625,-23.920002,16.128,10.472,eccentric,4,3.0,21350.0,145640.0,233105.0,282738.0,265422.0
2026-04-08 21:51:25.239103,259236,1609504257451513,1857418522,0.866688,0.134688,-0.085888,-14.25375,4.0425,3.36875,-23.648,16.224,12.360001,eccentric,4,3.0,21350.0,145640.0,233105.0,282738.0,265422.0
2026-04-08 21:51:25.240684,259237,1609504257460579,1857427229,0.866688,0.134688,-0.085888,-16.30125,3.5,4.0425,-23.648,16.224,12.360001,eccentric,4,3.0,21350.0,145640.0,233105.0,282738.0,265422.0
2026-04-08 21:51:25.244422,259238,1609504257475130,1857442146,0.929152,0.076128,-0.0488,-17.29875,3.29875,4.57625,-23.536001,16.088001,10.744,eccentric,4,3.0,21350.0,145640.0,233105.0,282738.0,265422.0
2026-04-08 21:51:25.302198,259239,1609504257484089,1857450823,0.929152,0.076128,-0.0488,-17.43875,2.80875,5.46,-23.536001,16.088001,10.744,eccentric,4,3.0,21350.0,145640.0,233105.0,282738.0,265422.0
2026-04-08 21:51:25.305174,259240,1609504257498589,1857465672,0.866688,0.089792,-0.021472,-14.58625,2.26625,5.59125,-23.784,16.36,8.152,eccentric,4,3.0,21350.0,145640.0,233105.0,282738.0,265422.0
2026-04-08 21:51:25.309069,259241,1609504257507489,1857474320,0.91744,0.070272,-0.017568,-10.7275,1.89875,5.08375,-23.304,16.368,10.64,eccentric,4,3.0,21350.0,145640.0,233105.0,282738.0,265422.0
2026-04-08 21:51:25.310811,259242,1609504257516408,1857482958,0.91744,0.070272,-0.017568,-9.72125,1.6625,5.01375,-23.304,16.368,10.64,eccentric,4,3.0,21350.0,145640.0,233105.0,282738.0,265422.0
2026-04-08 21:51:25.341065,259253,1609504257531368,1857497855,0.847168,0.05856,-0.216672,-8.12,0.945,5.25,-23.048,16.488,10.192,eccentric,4,3.0,21326.0,145629.0,233197.0,282821.0,265507.0
2026-04-08 21:51:25.345718,259254,1609504257540327,1857506493,0.847168,0.05856,-0.216672,-7.88375,0.62125,5.4775,-23.048,16.488,10.192,eccentric,4,3.0,21326.0,145629.0,233197.0,282821.0,265507.0
2026-04-08 21:51:25.348591,259255,1609504257554837,1857521448,0.872544,0.085888,-0.072224,-10.7275,-0.0875,5.83625,-22.816002,16.44,10.976001,eccentric,4,3.0,21326.0,145629.0,233197.0,282821.0,265507.0
2026-04-08 21:51:25.348694,259256,1609504257563851,1857530225,0.872544,0.085888,-0.072224,-10.92875,-0.28,5.775,-22.816002,16.44,10.976001,eccentric,4,3.0,21326.0,145629.0,233197.0,282821.0,265507.0
2026-04-08 21:51:25.356636,259257,1609504257578357,1857545126,0.876448,0.05856,-0.011712,-10.57875,-1.085,5.39875,-22.712002,16.744001,11.064,eccentric,4,3.0,21326.0,145629.0,233197.0,282821.0,265507.0
2026-04-08 21:51:25.358263,259258,1609504257587309,1857553808,0.864736,0.03904,-0.06832,-11.8125,-2.03,4.90875,-22.808,16.816,10.112,eccentric,4,3.0,21326.0,145629.0,233197.0,282821.0,265507.0
2026-04-08 21:51:25.389533,259259,1609504257596277,1857562541,0.864736,0.03904,-0.06832,-10.71,-2.23125,4.22625,-22.808,16.816,10.112,eccentric,4,3.0,21326.0,145629.0,233197.0,282821.0,265507.0
2026-04-08 21:51:25.393881,259260,1609504257610749,1857577464,0.86864,0.064416,-0.042944,-9.35375,-2.2925,3.955,-22.952002,16.752,10.072001,eccentric,4,3.0,21326.0,145629.0,233197.0,282821.0,265507.0
2026-04-08 21:51:25.395640,259261,1609504257619638,1857586125,0.86864,0.064416,-0.042944,-9.42375,-3.1675,3.6925,-22.952002,16.752,10.072001,eccentric,4,3.0,21326.0,145629.0,233197.0,282821.0,265507.0
2026-04-08 21:51:25.421229,259272,1609504257634299,1857601045,0.782752,0.074176,-0.203008,-8.33875,-3.9375,2.68625,-22.176,16.888,10.064,eccentric,4,3.0,21303.0,145622.0,233250.0,282915.0,265557.0
2026-04-08 21:51:25.425324,259273,1609504257643316,1857609752,0.782752,0.074176,-0.203008,-8.5925,-4.3575,1.05,-22.176,16.888,10.064,eccentric,4,3.0,21303.0,145622.0,233250.0,282915.0,265557.0
2026-04-08 21:51:25.426908,259274,1609504257652336,1857618450,0.823744,0.089792,-0.005856,-10.115,-4.1475,0.07875,-22.592001,16.68,9.808001,eccentric,4,3.0,21303.0,145622.0,233250.0,282915.0,265557.0
2026-04-08 21:51:25.457539,259275,1609504257666850,1857633396,0.831552,0.037088,-0.203008,-11.05125,-3.9725,0.27125,-22.296001,16.960001,10.960001,eccentric,4,3.0,21303.0,145622.0,233250.0,282915.0,265557.0
2026-04-08 21:51:25.461048,259276,1609504257675771,1857642055,0.831552,0.037088,-0.203008,-10.823751,-4.38375,0.07,-22.296001,16.960001,10.960001,eccentric,4,3.0,21303.0,145622.0,233250.0,282915.0,265557.0
2026-04-08 21:51:25.463584,259277,1609504257690218,1857656912,0.794464,0.07808,-0.037088,-8.16375,-5.08375,-0.5425,-22.576,16.792002,10.152,eccentric,4,3.0,21303.0,145622.0,233250.0,282915.0,265557.0
2026-04-08 21:51:25.471284,259278,1609504257699205,1857665580,0.794464,0.07808,-0.037088,-8.23375,-5.915,-1.70625,-22.576,16.792002,10.152,eccentric,4,3.0,21303.0,145622.0,233250.0,282915.0,265557.0
2026-04-08 21:51:25.498737,259279,1609504257713714,1857680522,0.83936,0.033184,-0.1952,-9.09125,-5.88,-2.70375,-22.488,16.776001,9.504001,eccentric,4,3.0,21303.0,145622.0,233250.0,282915.0,265557.0
2026-04-08 21:51:25.502304,259280,1609504257722638,1857689208,0.83936,0.033184,-0.1952,-8.6625,-6.22125,-3.2375,-22.488,16.776001,9.504001,eccentric,4,3.0,21303.0,145622.0,233250.0,282915.0,265557.0
2026-04-08 21:51:25.529770,259291,1609504257731955,1857697876,0.856928,0.046848,-0.119072,-10.19375,-7.81375,-3.12375,-22.104002,17.032001,9.92,eccentric,4,3.0,21283.0,145596.0,233277.0,283002.0,265824.0
2026-04-08 21:51:25.532309,259292,1609504257746505,1857712818,0.778848,0.070272,-0.103456,-9.87875,-8.58375,-3.78,-22.104002,17.032001,12.608001,eccentric,4,3.0,21283.0,145596.0,233277.0,283002.0,265824.0
2026-04-08 21:51:25.534815,259293,1609504257755518,1857721525,0.765184,0.070272,-0.103456,-7.1575,-8.2075,-4.445,-22.592001,17.0,12.608001,eccentric,4,3.0,21283.0,145596.0,233277.0,283002.0,265824.0
2026-04-08 21:51:25.538595,259294,1609504257769984,1857736429,0.80032,0.052704,-0.244,-4.52375,-7.42,-4.55875,-22.264002,16.584002,10.064,eccentric,4,3.0,21283.0,145596.0,233277.0,283002.0,265824.0
2026-04-08 21:51:25.598851,259295,1609504257778961,1857745113,0.80032,0.052704,-0.244,-4.17375,-8.155,-3.96375,-22.264002,16.584002,10.064,eccentric,4,3.0,21283.0,145596.0,233277.0,283002.0,265824.0
2026-04-08 21:51:25.602430,259296,1609504257787884,1857753793,0.843264,0.08784,0.023424,-5.67875,-9.1525,-3.28125,-22.456001,16.880001,9.024,eccentric,4,3.0,21283.0,145596.0,233277.0,283002.0,265824.0
2026-04-08 21:51:25.608689,259297,1609504257802344,1857768615,0.843264,0.08784,0.023424,-10.1325,-9.49375,-3.5175,-22.456001,16.880001,9.024,eccentric,4,3.0,21283.0,145596.0,233277.0,283002.0,265824.0
2026-04-08 21:51:25.611105,259298,1609504257811247,1857777273,0.743712,0.042944,-0.173728,-11.4625,-9.4675,-4.41875,-22.152,16.800001,9.368,eccentric,4,3.0,21283.0,145596.0,233277.0,283002.0,265824.0
2026-04-08 21:51:25.613538,259299,1609504257825743,1857792111,0.743712,0.042944,-0.173728,-7.28,-9.23125,-4.1825,-22.152,16.800001,9.368,eccentric,4,3.0,21283.0,145596.0,233277.0,283002.0,265824.0
2026-04-08 21:51:25.647295,259310,1609504257834802,1857801129,0.737856,0.046848,-0.193248,-3.2025,-8.93375,-2.42375,-22.512001,17.160002,7.592001,eccentric,4,3.0,21178.0,145385.0,233168.0,282977.0,265840.0
2026-04-08 21:51:25.649826,259311,1609504257849424,1857816000,0.759328,0.054656,-0.1952,-1.81125,-9.05625,-2.345,-22.296001,16.68,10.936001,eccentric,4,3.0,21178.0,145385.0,233168.0,282977.0,265840.0
2026-04-08 21:51:25.654838,259312,1609504257858355,1857824781,0.759328,0.054656,-0.1952,-2.28375,-8.84625,-3.5,-22.296001,16.68,10.936001,eccentric,4,3.0,21178.0,145385.0,233168.0,282977.0,265840.0
2026-04-08 21:51:25.657337,259313,1609504257867356,1857833479,0.806176,0.095648,-0.124928,-7.14875,-8.8725,-4.6025,-22.296001,16.68,10.704,eccentric,4,3.0,21178.0,145385.0,233168.0,282977.0,265840.0
2026-04-08 21:51:25.659807,259314,1609504257881815,1857848338,0.806176,0.095648,-0.124928,-10.78875,-8.46125,-5.83625,-22.656,16.736,10.704,eccentric,4,3.0,21178.0,145385.0,233168.0,282977.0,265840.0
2026-04-08 21:51:25.662303,259315,1609504257890781,1857857070,0.847168,0.03904,-0.044896,-8.715,-8.26,-6.09875,-22.256,16.880001,8.84,eccentric,4,3.0,21178.0,145385.0,233168.0,282977.0,265840.0
2026-04-08 21:51:25.692533,259316,1609504257905404,1857871945,0.847168,0.03904,-0.044896,-5.81875,-7.63875,-4.24375,-22.256,16.880001,8.84,eccentric,4,3.0,21178.0,145385.0,233168.0,282977.0,265840.0
2026-04-08 21:51:25.728773,259317,1609504257914341,1857880640,0.815936,0.0488,-0.062464,-4.55,-7.18375,-2.8,-22.464,16.744001,7.8,eccentric,4,3.0,21178.0,145385.0,233168.0,282977.0,265840.0
2026-04-08 21:51:25.757360,259328,1609504257928795,1857895451,0.872544,0.02928,-0.203008,-4.08625,-7.56875,-1.96875,-22.512001,17.216002,10.704,eccentric,4,3.0,21247.0,145609.0,233261.0,282995.0,265837.0
2026-04-08 21:51:25.760040,259329,1609504257937770,1857904116,0.872544,0.02928,-0.203008,-5.495,-8.81125,-2.4325,-22.512001,17.216002,10.704,eccentric,4,3.0,21247.0,145609.0,233261.0,282995.0,265837.0
2026-04-08 21:51:25.762380,259330,1609504257946695,1857912776,0.872544,0.02928,-0.203008,-11.480001,-9.47625,-3.64875,-22.512001,17.216002,10.704,eccentric,4,3.0,21247.0,145609.0,233261.0,282995.0,265837.0
2026-04-08 21:51:25.764864,259331,1609504257961141,1857927629,0.821792,0.027328,-0.210816,-14.95375,-9.2575,-7.02625,-22.216002,16.936,7.152,eccentric,4,3.0,21247.0,145609.0,233261.0,282995.0,265837.0
2026-04-08 21:51:25.767315,259332,1609504257970056,1857936334,0.851072,-0.001952,0.062464,-15.23375,-8.6975,-8.60125,-22.456001,16.544,9.440001,eccentric,4,3.0,21247.0,145609.0,233261.0,282995.0,265837.0
2026-04-08 21:51:25.769877,259333,1609504257984771,1857951290,0.851072,-0.001952,0.062464,-10.68375,-8.2075,-8.33875,-22.456001,16.544,9.440001,eccentric,4,3.0,21247.0,145609.0,233261.0,282995.0,265837.0
2026-04-08 21:51:25.772334,259334,1609504257993754,1857960067,0.7808,0.072224,0.00976,-1.23375,-8.61,-7.11375,-22.640001,16.792002,9.392,eccentric,4,3.0,21247.0,145609.0,233261.0,282995.0,265837.0
2026-04-08 21:51:25.777376,259335,1609504258008279,1857974997,0.933056,0.046848,-0.099552,6.895,-10.0275,-7.1925,-22.640001,16.792002,8.688001,eccentric,4,3.0,21247.0,145609.0,233261.0,282995.0,265837.0
2026-04-08 21:51:25.808571,259336,1609504258017201,1857983693,0.933056,0.046848,-0.099552,7.49,-10.80625,-8.1025,-22.720001,16.568,8.688001,eccentric,4,3.0,21247.0,145609.0,233261.0,282995.0,265837.0
2026-04-08 21:51:25.811091,259337,1609504258026130,1857992361,0.933056,0.046848,-0.099552,-0.6825,-10.85875,-8.155,-22.720001,16.568,8.688001,eccentric,4,3.0,21247.0,145609.0,233261.0,282995.0,265837.0
2026-04-08 21:51:25.841037,259348,1609504258040623,1858007303,0.921344,0.07808,-0.023424,-7.18375,-10.24625,-7.88375,-22.776001,16.36,10.248,eccentric,4,3.0,21307.0,145695.0,233234.0,282908.0,265759.0
2026-04-08 21:51:25.843558,259349,1609504258049534,1858015967,0.890112,0.005856,-0.064416,-7.84,-9.03875,-8.42625,-22.76,16.624,6.296001,eccentric,4,3.0,21307.0,145695.0,233234.0,282908.0,265759.0
2026-04-08 21:51:25.846127,259350,1609504258064139,1858030880,0.890112,0.005856,-0.064416,-5.94125,-7.9275,-7.4375,-22.76,16.624,6.296001,eccentric,4,3.0,21307.0,145695.0,233234.0,282908.0,265759.0
2026-04-08 21:51:25.848692,259351,1609504258073070,1858039558,0.806176,0.066368,-0.013664,-1.0325,-7.63,-4.97875,-22.68,16.04,8.184,eccentric,4,3.0,21307.0,145695.0,233234.0,282908.0,265759.0
2026-04-08 21:51:25.901337,259352,1609504258087596,1858054480,0.806176,0.066368,-0.013664,6.09875,-7.56,-3.325,-22.68,16.04,8.184,eccentric,4,3.0,21307.0,145695.0,233234.0,282908.0,265759.0
2026-04-08 21:51:25.904892,259353,1609504258096544,1858063145,0.827648,0.066368,-0.281088,5.17125,-7.86625,-2.23125,-23.152,16.728,5.832,eccentric,4,3.0,21307.0,145695.0,233234.0,282908.0,265759.0
2026-04-08 21:51:25.911080,259354,1609504258105442,1858071810,0.827648,0.066368,-0.281088,0.86625,-8.56625,-1.1725,-23.152,16.728,5.832,eccentric,4,3.0,21307.0,145695.0,233234.0,282908.0,265759.0
2026-04-08 21:51:25.913523,259355,1609504258119933,1858086683,0.894016,0.035136,-0.275232,-2.87,-9.073751,-1.00625,-22.896002,16.800001,8.136001,eccentric,4,3.0,21307.0,145695.0,233234.0,282908.0,265759.0
2026-04-08 21:51:25.916038,259356,1609504258128813,1858095337,0.894016,0.025376,-0.134688,-6.30875,-7.95375,-1.58375,-22.896002,16.800001,8.136001,eccentric,4,3.0,21307.0,145695.0,233234.0,282908.0,265759.0
2026-04-08 21:51:25.943497,259367,1609504258143376,1858110333,0.806176,0.025376,-0.134688,-7.84875,-6.825,-1.14625,-23.264002,16.448,7.624001,eccentric,4,3.0,21006.0,144843.0,232683.0,282685.0,265734.0
2026-04-08 21:51:25.947079,259368,1609504258152376,1858119100,0.80032,0.040992,-0.216672,-2.80875,-6.44,0.30625,-23.112001,16.672,8.280001,eccentric,4,3.0,21006.0,144843.0,232683.0,282685.0,265734.0
2026-04-08 21:51:25.948669,259369,1609504258166975,1858134066,0.80032,0.040992,-0.216672,3.75375,-7.25375,0.595,-23.112001,16.672,8.280001,eccentric,4,3.0,21006.0,144843.0,232683.0,282685.0,265734.0
2026-04-08 21:51:25.951424,259370,1609504258175901,1858142739,0.874496,0.089792,-0.171776,6.51875,-7.56,-0.77,-23.216002,16.84,9.144,eccentric,4,3.0,21006.0,144843.0,232683.0,282685.0,265734.0
2026-04-08 21:51:25.953450,259371,1609504258184849,1858151455,0.874496,0.089792,-0.171776,4.13875,-7.63,-1.11125,-23.216002,16.84,9.144,eccentric,4,3.0,21006.0,144843.0,232683.0,282685.0,265734.0
2026-04-08 21:51:25.983744,259372,1609504258199342,1858166323,0.919392,0.062464,-0.240096,0.1925,-7.04375,-0.20125,-23.152,16.544,8.744,concentric,4,3.0,21006.0,144843.0,232683.0,282685.0,265734.0
2026-04-08 21:51:25.987309,259373,1609504258208274,1858174989,0.919392,0.062464,-0.240096,-0.67375,-6.37,0.385,-23.152,16.544,8.744,concentric,4,3.0,21006.0,144843.0,232683.0,282685.0,265734.0
2026-04-08 21:51:25.992370,259374,1609504258222803,1858189868,0.866688,0.007808,-0.226432,0.2975,-5.985,0.1925,-22.880001,16.648,8.04,concentric,4,3.0,21006.0,144843.0,232683.0,282685.0,265734.0
2026-04-08 21:51:26.027874,259385,1609504258231869,1858198994,0.90768,0.05856,-0.013664,2.10875,-6.1425,0.70875,-23.176,16.392,8.736,concentric,4,3.0,20738.0,144248.0,232353.0,282570.0,265705.0
2026-04-08 21:51:26.029426,259386,1609504258240939,1858207733,0.90768,0.05856,-0.013664,3.71,-6.5975,0.28,-23.176,16.392,8.736,concentric,4,3.0,20738.0,144248.0,232353.0,282570.0,265705.0
2026-04-08 21:51:26.031180,259387,1609504258255545,1858222592,0.89792,0.080032,-0.269376,3.45625,-7.76125,-1.26875,-23.312,16.576,9.656,concentric,4,3.0,20738.0,144248.0,232353.0,282570.0,265705.0
2026-04-08 21:51:26.033509,259388,1609504258264508,1858231283,0.89792,0.080032,-0.269376,3.5875,-7.98875,-1.84625,-23.312,16.576,9.656,concentric,4,3.0,20738.0,144248.0,232353.0,282570.0,265705.0
2026-04-08 21:51:26.063789,259389,1609504258278981,1858244150,0.905728,0.099552,0.011712,4.03375,-7.4725,-0.76125,-23.168001,16.648,8.592,concentric,4,3.0,20738.0,144248.0,232353.0,282570.0,265705.0
2026-04-08 21:51:26.067328,259390,1609504258288141,1858254870,0.905728,0.099552,0.011712,3.40375,-6.895,0.70875,-23.168001,16.648,8.592,concentric,4,3.0,20738.0,144248.0,232353.0,282570.0,265705.0
2026-04-08 21:51:26.072283,259391,1609504258302610,1858269742,0.892064,0.076128,-0.02928,3.17625,-7.105,2.66875,-23.232,16.44,7.544,concentric,4,3.0,20738.0,144248.0,232353.0,282570.0,265705.0
2026-04-08 21:51:26.102973,259392,1609504258311506,1858278390,0.90768,0.074176,-0.03904,2.70375,-7.23625,4.52375,-22.984001,16.824001,8.68,concentric,4,3.0,20738.0,144248.0,232353.0,282570.0,265705.0
2026-04-08 21:51:26.109094,259393,1609504258320415,1858287114,0.90768,0.074176,-0.03904,0.34125,-7.7875,4.47125,-22.984001,16.824001,8.68,concentric,4,3.0,20738.0,144248.0,232353.0,282570.0,265705.0
2026-04-08 21:51:26.133538,259404,1609504258335304,1858302024,0.91744,0.054656,-0.119072,-1.68,-7.7525,2.72125,-23.368002,16.528,7.664001,concentric,4,3.0,20590.0,144024.0,232279.0,282602.0,265769.0
2026-04-08 21:51:26.136041,259405,1609504258344387,1858310744,0.91744,0.054656,-0.119072,-2.52,-7.4025,0.0875,-23.368002,16.528,7.664001,concentric,4,3.0,20590.0,144024.0,232279.0,282602.0,265769.0
2026-04-08 21:51:26.138595,259406,1609504258358918,1858325646,0.8784,0.050752,-0.021472,-1.40875,-6.88625,-0.6475,-23.624,16.544,7.24,concentric,4,3.0,20590.0,144024.0,232279.0,282602.0,265769.0
2026-04-08 21:51:26.141041,259407,1609504258367840,1858334338,0.8784,0.050752,-0.021472,-1.435,-6.0375,-0.02625,-23.624,16.544,7.24,concentric,4,3.0,20590.0,144024.0,232279.0,282602.0,265769.0
2026-04-08 21:51:26.146073,259408,1609504258376752,1858343003,0.872544,0.031232,-0.171776,-1.11125,-5.6175,-0.39375,-23.720001,16.664001,7.472,concentric,4,3.0,20590.0,144024.0,232279.0,282602.0,265769.0
2026-04-08 21:51:26.203626,259409,1609504258391240,1858357859,0.909632,0.062464,-0.031232,0.6475,-6.335,-1.4525,-23.392,16.808,7.928001,concentric,4,3.0,20590.0,144024.0,232279.0,282602.0,265769.0
2026-04-08 21:51:26.206000,259410,1609504258400137,1858366559,0.909632,0.062464,-0.031232,2.14375,-6.2125,-3.6575,-23.392,16.808,7.928001,concentric,4,3.0,20590.0,144024.0,232279.0,282602.0,265769.0
2026-04-08 21:51:26.208532,259411,1609504258414609,1858381416,0.909632,0.083936,-0.132736,0.49875,-6.6675,-6.02,-23.504002,16.68,7.208,concentric,4,3.0,20590.0,144024.0,232279.0,282602.0,265769.0
2026-04-08 21:51:26.211047,259412,1609504258423534,1858390113,0.909632,0.083936,-0.132736,-2.38,-5.6525,-6.51875,-23.504002,16.68,7.208,concentric,4,3.0,20590.0,144024.0,232279.0,282602.0,265769.0
2026-04-08 21:51:26.238522,259423,1609504258438110,1858405007,0.856928,0.083936,-0.244,-0.63,-4.935,-5.76625,-23.736002,16.376001,7.328001,concentric,4,3.0,20476.0,143827.0,232124.0,282511.0,265728.0
2026-04-08 21:51:26.241017,259424,1609504258447088,1858413721,0.856928,0.083936,-0.244,5.46875,-4.0775,-4.4275,-23.736002,16.376001,7.328001,concentric,4,3.0,20476.0,143827.0,232124.0,282511.0,265728.0
2026-04-08 21:51:26.243545,259425,1609504258456070,1858422485,0.884256,0.089792,-0.023424,7.14875,-4.27875,-2.70375,-23.552002,16.512001,7.520001,concentric,4,3.0,20476.0,143827.0,232124.0,282511.0,265728.0
2026-04-08 21:51:26.246082,259426,1609504258470593,1858437371,0.884256,0.089792,-0.023424,2.73875,-4.78625,-0.91,-23.552002,16.512001,7.520001,concentric,4,3.0,20476.0,143827.0,232124.0,282511.0,265728.0
2026-04-08 21:51:26.248530,259427,1609504258479514,1858446057,0.854976,0.05856,-0.277184,-0.98875,-5.3025,-0.35875,-23.496,16.736,7.944,concentric,4,3.0,20476.0,143827.0,232124.0,282511.0,265728.0
2026-04-08 21:51:26.278789,259428,1609504258494012,1858460965,0.796416,0.056608,-0.189344,-0.9975,-5.285,-1.51375,-23.688002,17.064001,7.784,concentric,4,3.0,20476.0,143827.0,232124.0,282511.0,265728.0
2026-04-08 21:51:26.282283,259429,1609504258502938,1858469641,0.796416,0.056608,-0.189344,-2.51125,-4.45375,-3.465,-23.688002,17.064001,7.784,concentric,4,3.0,20476.0,143827.0,232124.0,282511.0,265728.0
2026-04-08 21:51:26.287284,259430,1609504258517428,1858484487,0.759328,0.05856,-0.197152,-4.655,-3.00125,-4.97,-24.024002,16.496,7.272,concentric,4,3.0,20476.0,143827.0,232124.0,282511.0,265728.0
2026-04-08 21:51:26.317541,259431,1609504258526371,1858493162,0.759328,0.05856,-0.197152,-2.19625,-2.70375,-6.58,-24.024002,16.496,7.272,concentric,4,3.0,20476.0,143827.0,232124.0,282511.0,265728.0
2026-04-08 21:51:26.349068,259442,1609504258535422,1858501922,0.856928,0.035136,-0.279136,1.68875,-3.17625,-9.345,-23.696001,16.664001,7.216001,concentric,4,3.0,20459.0,143830.0,232183.0,282557.0,265743.0
2026-04-08 21:51:26.352271,259443,1609504258549973,1858516790,0.856928,0.035136,-0.279136,0.44625,-3.6225,-11.8475,-23.696001,16.664001,7.216001,concentric,4,3.0,20459.0,143830.0,232183.0,282557.0,265743.0
2026-04-08 21:51:26.352872,259444,1609504258558894,1858525459,0.919392,0.103456,-0.10736,-3.59625,-4.0425,-12.92375,-24.152,16.304,5.4,concentric,4,3.0,20459.0,143830.0,232183.0,282557.0,265743.0
2026-04-08 21:51:26.353933,259445,1609504258573382,1858540380,0.886208,0.122976,0.031232,-2.065,-3.2025,-12.29375,-24.448002,16.44,7.256001,concentric,4,3.0,20459.0,143830.0,232183.0,282557.0,265743.0
2026-04-08 21:51:26.357673,259446,1609504258582306,1858549090,0.886208,0.122976,0.031232,5.36375,-1.3125,-10.57875,-24.448002,16.44,7.256001,concentric,4,3.0,20459.0,143830.0,232183.0,282557.0,265743.0
2026-04-08 21:51:26.386375,259447,1609504258596818,1858563958,0.853024,0.080032,-0.261568,15.1725,0.28875,-8.32125,-24.624,16.088001,8.672001,concentric,4,3.0,20459.0,143830.0,232183.0,282557.0,265743.0
2026-04-08 21:51:26.390826,259448,1609504258605811,1858572633,0.853024,0.080032,-0.261568,16.30125,0.16625,-5.2675,-24.624,16.088001,8.672001,concentric,4,3.0,20459.0,143830.0,232183.0,282557.0,265743.0
2026-04-08 21:51:26.392349,259449,1609504258614734,1858581286,0.862784,0.13664,-0.28304,9.31,-2.49375,-2.52,-24.28,16.288,7.344,concentric,4,3.0,20459.0,143830.0,232183.0,282557.0,265743.0
2026-04-08 21:51:26.400167,259450,1609504258629257,1858596188,0.862784,0.13664,-0.28304,5.87125,-3.91125,-0.245,-24.28,16.288,7.344,concentric,4,3.0,20459.0,143830.0,232183.0,282557.0,265743.0
2026-04-08 21:51:26.426073,259461,1609504258638365,1858605279,0.91744,0.00976,-0.304512,3.33375,-3.9375,-1.12875,-24.376001,16.344,6.672,concentric,4,3.0,20564.0,144039.0,232207.0,282414.0,265586.0
2026-04-08 21:51:26.430080,259462,1609504258652899,1858618181,0.895968,0.044896,-0.05856,-4.515,-2.695,-3.28125,-24.776001,16.296001,8.024,concentric,4,3.0,20564.0,144039.0,232207.0,282414.0,265586.0
2026-04-08 21:51:26.432712,259463,1609504258662277,1858628956,0.895968,0.044896,-0.05856,-5.6175,-1.435,-4.33125,-24.776001,16.296001,8.024,concentric,4,3.0,20564.0,144039.0,232207.0,282414.0,265586.0
2026-04-08 21:51:26.439835,259464,1609504258671192,1858637662,0.895968,0.044896,-0.05856,1.2775,0.42,-5.90625,-24.776001,16.296001,8.024,concentric,4,3.0,20564.0,144039.0,232207.0,282414.0,265586.0
2026-04-08 21:51:26.498900,259465,1609504258685702,1858652588,0.909632,0.08784,-0.074176,7.21875,1.12875,-6.93,-24.648,15.952001,6.84,concentric,4,3.0,20564.0,144039.0,232207.0,282414.0,265586.0
2026-04-08 21:51:26.502392,259466,1609504258694648,1858661269,0.81984,0.148352,-0.169824,8.77625,1.28625,-6.71125,-24.584002,16.216002,6.856,concentric,4,3.0,20564.0,144039.0,232207.0,282414.0,265586.0
2026-04-08 21:51:26.504830,259467,1609504258709133,1858676112,0.81984,0.148352,-0.169824,7.8575,0.27125,-6.29125,-24.584002,16.216002,6.856,concentric,4,3.0,20564.0,144039.0,232207.0,282414.0,265586.0
2026-04-08 21:51:26.509470,259468,1609504258718040,1858684872,0.847168,0.0976,-0.261568,2.45875,-0.5075,-6.055,-24.840002,15.992001,7.32,concentric,4,3.0,20564.0,144039.0,232207.0,282414.0,265586.0
2026-04-08 21:51:26.510918,259469,1609504258732486,1858697748,0.847168,0.0976,-0.046848,-2.6075,-0.5075,-6.72,-24.840002,15.992001,7.32,concentric,4,3.0,20564.0,144039.0,232207.0,282414.0,265586.0
2026-04-08 21:51:26.537287,259480,1609504258741760,1858708580,0.91744,0.072224,-0.046848,-5.45125,0.9625,-6.85125,-24.656002,16.168001,7.008,concentric,4,3.0,20580.0,144118.0,232290.0,282484.0,265616.0
2026-04-08 21:51:26.539818,259481,1609504258750735,1858717320,0.91744,0.072224,-0.046848,-3.0625,2.52,-6.74625,-24.656002,16.168001,7.008,concentric,4,3.0,20580.0,144118.0,232290.0,282484.0,265616.0
2026-04-08 21:51:26.542288,259482,1609504258765277,1858732264,0.911584,0.093696,0.003904,2.77375,3.22,-7.1225,-24.792002,16.144001,9.552,concentric,4,3.0,20580.0,144118.0,232290.0,282484.0,265616.0
2026-04-08 21:51:26.545230,259483,1609504258774263,1858740949,0.9272,0.10736,-0.095648,7.76125,3.78875,-9.065,-25.512001,16.256,7.624001,concentric,4,3.0,20580.0,144118.0,232290.0,282484.0,265616.0
2026-04-08 21:51:26.575001,259484,1609504258788754,1858755807,0.9272,0.10736,-0.095648,13.06375,3.99875,-11.19125,-25.512001,16.256,7.624001,concentric,4,3.0,20580.0,144118.0,232290.0,282484.0,265616.0
2026-04-08 21:51:26.578577,259485,1609504258797660,1858764483,0.862784,0.130784,-0.171776,14.105001,4.515,-13.09875,-24.864,15.528001,7.568,concentric,4,3.0,20580.0,144118.0,232290.0,282484.0,265616.0
2026-04-08 21:51:26.581104,259486,1609504258812187,1858777331,0.862784,0.130784,-0.171776,11.01625,4.96125,-14.7175,-24.864,15.528001,7.568,concentric,4,3.0,20580.0,144118.0,232290.0,282484.0,265616.0
2026-04-08 21:51:26.611275,259487,1609504258821312,1858788077,0.860832,0.093696,-0.111264,6.755,6.16875,-16.1875,-25.168001,15.536001,7.936,concentric,4,3.0,20580.0,144118.0,232290.0,282484.0,265616.0
2026-04-08 21:51:26.614805,259488,1609504258830218,1858796724,0.860832,0.093696,-0.111264,4.15625,8.02375,-15.95125,-25.168001,15.536001,7.936,concentric,4,3.0,20580.0,144118.0,232290.0,282484.0,265616.0
2026-04-08 21:51:26.644157,259499,1609504258844885,1858811654,0.895968,0.095648,-0.081984,5.9675,9.345,-16.3275,-25.072,15.6,7.512001,concentric,4,3.0,20688.0,144345.0,232333.0,282433.0,265549.0
2026-04-08 21:51:26.645916,259500,1609504258853866,1858820355,0.91744,0.169824,-0.070272,12.22375,10.6225,-16.0125,-25.072,15.192,10.744,concentric,4,3.0,20688.0,144345.0,232333.0,282433.0,265549.0
2026-04-08 21:51:26.648274,259501,1609504258868571,1858835321,0.91744,0.169824,-0.070272,16.63375,11.2175,-14.4375,-25.6,15.192,10.744,concentric,4,3.0,20688.0,144345.0,232333.0,282433.0,265549.0
2026-04-08 21:51:26.649879,259502,1609504258877516,1858843999,0.929152,0.1464,-0.189344,16.8525,10.5875,-13.658751,-25.944002,15.464001,9.136001,concentric,4,3.0,20688.0,144345.0,232333.0,282433.0,265549.0
2026-04-08 21:51:26.657710,259503,1609504258886492,1858852720,0.929152,0.1464,-0.189344,16.21375,10.5,-12.76625,-25.944002,15.464001,9.136001,concentric,4,3.0,20688.0,144345.0,232333.0,282433.0,265549.0
2026-04-08 21:51:26.686347,259504,1609504258900979,1858867585,0.981856,0.091744,-0.064416,8.95125,10.57875,-11.13,-25.536001,15.512001,9.936001,concentric,4,3.0,20688.0,144345.0,232333.0,282433.0,265549.0
2026-04-08 21:51:26.690790,259505,1609504258909915,1858876278,0.981856,0.091744,-0.064416,-4.69,9.31875,-8.61,-25.536001,15.512001,9.936001,concentric,4,3.0,20688.0,144345.0,232333.0,282433.0,265549.0
2026-04-08 21:51:26.693632,259506,1609504258924374,1858891159,0.950624,0.035136,-0.197152,-8.198751,8.225,-7.91,-25.744001,15.312,8.568001,concentric,4,3.0,20688.0,144345.0,232333.0,282433.0,265549.0
2026-04-08 21:51:26.723830,259507,1609504258933287,1858899822,0.950624,0.035136,-0.197152,-0.72625,8.89875,-9.45,-25.744001,15.312,8.568001,concentric,4,3.0,20688.0,144345.0,232333.0,282433.0,265549.0
2026-04-08 21:51:26.758573,259518,1609504258947825,1858914685,0.856928,0.074176,-0.015616,9.96625,7.9975,-10.33375,-25.976002,15.360001,8.304001,concentric,4,3.0,20675.0,144295.0,232295.0,282431.0,265566.0
2026-04-08 21:51:26.761046,259519,1609504258956853,1858923348,0.950624,0.10736,-0.056608,17.928751,6.85125,-11.1475,-25.672,15.224001,8.416,concentric,4,3.0,20675.0,144295.0,232295.0,282431.0,265566.0
2026-04-08 21:51:26.763494,259520,1609504258965792,1858932030,0.950624,0.10736,-0.056608,20.57125,6.23,-11.54125,-25.672,15.224001,8.416,concentric,4,3.0,20675.0,144295.0,232295.0,282431.0,265566.0
2026-04-08 21:51:26.766133,259521,1609504258980294,1858946951,1.026752,0.091744,-0.187392,19.6875,5.2675,-12.08375,-26.160002,14.576001,8.792001,concentric,4,3.0,20675.0,144295.0,232295.0,282431.0,265566.0
2026-04-08 21:51:26.800011,259522,1609504258989221,1858955690,1.026752,0.091744,-0.187392,15.49625,5.01375,-12.3725,-26.160002,14.576001,8.792001,concentric,4,3.0,20675.0,144295.0,232295.0,282431.0,265566.0
2026-04-08 21:51:26.803556,259523,1609504259003694,1858970572,0.974048,0.06832,-0.236192,6.3525,5.7225,-11.6025,-26.072,14.880001,10.304001,concentric,4,3.0,20675.0,144295.0,232295.0,282431.0,265566.0
2026-04-08 21:51:26.806077,259524,1609504259012619,1858979258,0.974048,0.06832,-0.236192,-0.84,6.78125,-10.57875,-26.072,14.880001,10.304001,concentric,4,3.0,20675.0,144295.0,232295.0,282431.0,265566.0
2026-04-08 21:51:26.808527,259525,1609504259027111,1858994138,0.88816,0.095648,-0.052704,-2.8175,7.5075,-9.45875,-26.144001,14.856001,9.408,concentric,4,3.0,20675.0,144295.0,232295.0,282431.0,265566.0
2026-04-08 21:51:26.835946,259536,1609504259036208,1859002868,0.870592,0.103456,-0.300608,-3.38625,8.09375,-8.47875,-26.144001,14.408001,7.408001,concentric,4,3.0,20727.0,144379.0,232287.0,282331.0,265475.0
2026-04-08 21:51:26.838532,259537,1609504259045228,1859011578,0.870592,0.103456,-0.300608,0.58625,7.67375,-8.4,-26.144001,14.408001,7.408001,concentric,4,3.0,20727.0,144379.0,232287.0,282331.0,265475.0
2026-04-08 21:51:26.841018,259538,1609504259059807,1859026463,0.960384,0.121024,-0.142496,4.01625,7.8225,-8.68,-26.960001,14.616001,9.848001,concentric,4,3.0,20727.0,144379.0,232287.0,282331.0,265475.0
2026-04-08 21:51:26.843506,259539,1609504259068755,1859035149,0.960384,0.121024,-0.142496,-1.54,7.79625,-7.2975,-26.960001,14.616001,9.848001,concentric,4,3.0,20727.0,144379.0,232287.0,282331.0,265475.0
2026-04-08 21:51:26.873904,259540,1609504259083319,1859050120,0.93696,0.0976,-0.318176,-6.92125,7.8575,-4.9875,-26.552002,14.448001,9.808001,concentric,4,3.0,20727.0,144379.0,232287.0,282331.0,265475.0
2026-04-08 21:51:26.877376,259541,1609504259092213,1859058768,0.93696,0.0976,-0.318176,-6.32625,9.10875,-3.96375,-26.552002,14.448001,9.808001,concentric,4,3.0,20727.0,144379.0,232287.0,282331.0,265475.0
2026-04-08 21:51:26.879835,259542,1609504259101125,1859067443,1.032608,0.074176,-0.203008,-5.285,10.167501,-3.01875,-26.552002,14.408001,9.104,concentric,4,3.0,20727.0,144379.0,232287.0,282331.0,265475.0
2026-04-08 21:51:26.884912,259543,1609504259115672,1859082354,1.036512,0.089792,-0.267424,-3.24625,10.2725,-2.835,-26.784,14.696001,12.76,concentric,4,3.0,20727.0,144379.0,232287.0,282331.0,265475.0
2026-04-08 21:51:26.914977,259544,1609504259124591,1859091033,1.036512,0.089792,-0.267424,-2.35375,9.91375,-2.87,-26.784,14.696001,12.76,concentric,4,3.0,20727.0,144379.0,232287.0,282331.0,265475.0
2026-04-08 21:51:26.946030,259555,1609504259139684,1859105980,1.036512,0.124928,-0.031232,-2.24,8.86375,-3.6575,-26.736002,14.608001,9.232,concentric,4,3.0,20736.0,144354.0,232213.0,282215.0,265387.0
2026-04-08 21:51:26.948518,259556,1609504259148650,1859114620,1.036512,0.124928,-0.031232,-1.42625,9.02125,-4.13875,-26.736002,14.608001,9.232,concentric,4,3.0,20736.0,144354.0,232213.0,282215.0,265387.0
2026-04-08 21:51:26.951053,259557,1609504259163253,1859129542,1.003328,0.111264,-0.28304,-0.56,9.23125,-3.50875,-26.6,14.672001,9.264001,concentric,4,3.0,20736.0,144354.0,232213.0,282215.0,265387.0
2026-04-08 21:51:26.953517,259558,1609504259172307,1859138249,1.003328,0.111264,-0.28304,1.60125,9.58125,-2.5025,-26.6,14.672001,9.264001,concentric,4,3.0,20736.0,144354.0,232213.0,282215.0,265387.0
2026-04-08 21:51:26.956088,259559,1609504259181204,1859146923,0.99552,0.121024,-0.277184,5.64375,9.6775,-1.75,-26.584002,14.696001,9.584001,concentric,4,3.0,20736.0,144354.0,232213.0,282215.0,265387.0
2026-04-08 21:51:26.997515,259560,1609504259195706,1859161775,1.089216,0.111264,-0.160064,5.62625,9.45875,-1.86375,-26.584002,14.696001,10.024,concentric,4,3.0,20736.0,144354.0,232213.0,282215.0,265387.0
2026-04-08 21:51:27.001052,259561,1609504259204620,1859170585,1.079456,0.111264,-0.160064,3.8325,8.86375,-1.74125,-26.760002,14.592001,10.024,concentric,4,3.0,20736.0,144354.0,232213.0,282215.0,265387.0
2026-04-08 21:51:27.003545,259562,1609504259219081,1859185438,1.056032,0.105408,-0.13664,2.59875,8.61,-1.3475,-26.480001,14.472001,9.888001,concentric,4,3.0,20736.0,144354.0,232213.0,282215.0,265387.0
2026-04-08 21:51:27.006027,259563,1609504259228018,1859194092,1.056032,0.105408,-0.13664,2.44125,8.75,-0.93625,-26.480001,14.472001,9.888001,concentric,4,3.0,20736.0,144354.0,232213.0,282215.0,265387.0
2026-04-08 21:51:27.037316,259574,1609504259237285,1859202774,1.071648,0.099552,-0.062464,2.485,8.575,-0.84,-26.512001,14.688001,9.384001,concentric,4,3.0,20729.0,144379.0,232274.0,282331.0,265475.0
2026-04-08 21:51:27.039811,259575,1609504259252298,1859217733,1.071648,0.099552,-0.062464,3.675,8.14625,-1.28625,-26.512001,14.688001,9.384001,concentric,4,3.0,20729.0,144379.0,232274.0,282331.0,265475.0
2026-04-08 21:51:27.042294,259576,1609504259261403,1859228545,1.013088,0.154208,-0.05856,0.83125,7.6475,-1.47875,-26.560001,14.712001,10.120001,concentric,4,3.0,20729.0,144379.0,232274.0,282331.0,265475.0
2026-04-08 21:51:27.044924,259577,1609504259275915,1859241416,1.013088,0.154208,-0.189344,-0.58625,7.0,-2.98375,-26.560001,14.712001,10.120001,concentric,4,3.0,20729.0,144379.0,232274.0,282331.0,265475.0
2026-04-08 21:51:27.098740,259578,1609504259285240,1859252148,1.0248,0.060512,-0.189344,1.96,7.69125,-4.71625,-26.552002,14.608001,13.648001,concentric,4,3.0,20729.0,144379.0,232274.0,282331.0,265475.0
2026-04-08 21:51:27.102361,259579,1609504259294187,1859260817,1.0248,0.060512,-0.189344,1.3475,7.7,-5.46,-26.552002,14.608001,13.648001,concentric,4,3.0,20729.0,144379.0,232274.0,282331.0,265475.0
2026-04-08 21:51:27.104808,259580,1609504259308660,1859275709,0.970144,0.13664,-0.13664,1.16375,7.32375,-5.80125,-26.52,14.408001,10.52,concentric,4,3.0,20729.0,144379.0,232274.0,282331.0,265475.0
2026-04-08 21:51:27.107295,259581,1609504259317574,1859284406,0.989664,0.163968,-0.230336,3.4825,7.805,-7.315,-26.472002,13.936001,10.432,concentric,4,3.0,20729.0,144379.0,232274.0,282331.0,265475.0
2026-04-08 21:51:27.109821,259582,1609504259332060,1859297219,0.989664,0.163968,-0.230336,5.46875,9.0125,-8.417501,-26.472002,13.936001,10.432,concentric,4,3.0,20729.0,144379.0,232274.0,282331.0,265475.0
2026-04-08 21:51:27.139838,259593,1609504259341356,1859308027,0.991616,0.208864,-0.142496,3.7625,9.19625,-6.69375,-26.224,14.056001,10.336,concentric,4,3.0,20867.0,144681.0,232453.0,282346.0,265451.0
2026-04-08 21:51:27.142373,259594,1609504259350359,1859316796,0.991616,0.208864,-0.142496,1.2075,9.35375,-5.6525,-26.224,14.056001,10.336,concentric,4,3.0,20867.0,144681.0,232453.0,282346.0,265451.0
2026-04-08 21:51:27.145037,259595,1609504259364854,1859331650,1.08336,0.111264,-0.222528,-2.54625,8.98625,-4.05125,-26.192001,14.032001,10.552,concentric,4,3.0,20867.0,144681.0,232453.0,282346.0,265451.0
2026-04-08 21:51:27.149054,259596,1609504259373771,1859340370,1.08336,0.111264,-0.222528,-5.78375,7.98,-1.53125,-26.192001,14.032001,10.552,concentric,4,3.0,20867.0,144681.0,232453.0,282346.0,265451.0
