pc_time,serial_num,sensor_ts,host_ts,ax,ay,az,gx,gy,gz,mx,my,mz,phase,rpe,weight_kg,ppg_a,ppg_b,ppg_c,ppg_d,ppg_e
2026-04-08 21:36:42.915496,93309,1609503375047499,975013677,-1.03456,-0.060512,0.06832,7.3675,-2.765,3.22,28.592001,-13.080001,3.832,inter_set_rest,0,3.0,22091.0,152431.0,243046.0,291975.0,269596.0
2026-04-08 21:36:42.919728,93310,1609503375062205,975028665,-1.018944,-0.07808,0.042944,14.02625,-6.13375,6.92125,28.424002,-13.864,3.792,inter_set_rest,0,3.0,22091.0,152431.0,243046.0,291975.0,269596.0
2026-04-08 21:36:42.921244,93311,1609503375071223,975037344,-0.91744,-0.072224,0.115168,16.7825,-7.5425,11.52375,28.240002,-13.68,3.952,inter_set_rest,0,3.0,22091.0,152431.0,243046.0,291975.0,269596.0
2026-04-08 21:36:42.928731,93312,1609503375080125,975046066,-0.91744,-0.072224,0.115168,14.0875,-6.30875,17.99875,28.240002,-13.68,3.952,inter_set_rest,0,3.0,22091.0,152431.0,243046.0,291975.0,269596.0
2026-04-08 21:36:42.956838,93313,1609503375094645,975060924,-0.958432,-0.140544,0.054656,6.02875,-6.23,22.8025,27.976002,-13.808001,4.704,inter_set_rest,0,3.0,22091.0,152431.0,243046.0,291975.0,269596.0
2026-04-08 21:36:42.960385,93314,1609503375103542,975069566,-0.958432,-0.140544,0.054656,-2.7825,-8.225,26.565,27.976002,-13.808001,4.704,inter_set_rest,0,3.0,22091.0,152431.0,243046.0,291975.0,269596.0
2026-04-08 21:36:42.964115,93315,1609503375118032,975084479,-0.999424,-0.109312,0.10736,-3.84125,-9.84375,28.63875,27.976002,-14.496,3.84,inter_set_rest,0,3.0,22091.0,152431.0,243046.0,291975.0,269596.0
2026-04-08 21:36:42.994301,93316,1609503375126965,975093164,-0.999424,-0.109312,0.10736,4.3575,-11.2175,30.51125,27.976002,-14.496,3.84,inter_set_rest,0,3.0,22091.0,152431.0,243046.0,291975.0,269596.0
2026-04-08 21:36:43.022838,93327,1609503375141426,975108035,-0.950624,-0.072224,0.115168,14.35,-12.99375,34.78125,27.512001,-15.208001,3.888,inter_set_rest,0,3.0,22146.0,152734.0,243411.0,292232.0,269723.0
2026-04-08 21:36:43.025337,93328,1609503375150813,975116794,-0.7808,-0.037088,0.089792,20.195,-14.63,40.635,27.304,-15.472001,4.008,inter_set_rest,0,3.0,22146.0,152734.0,243411.0,292232.0,269723.0
2026-04-08 21:36:43.027917,93329,1609503375159792,975125537,-0.7808,-0.037088,0.089792,19.27625,-16.54625,48.09,27.304,-15.472001,4.008,inter_set_rest,0,3.0,22146.0,152734.0,243411.0,292232.0,269723.0
2026-04-08 21:36:43.030417,93330,1609503375174296,975140417,-0.821792,0.011712,0.042944,10.4825,-19.39875,56.5075,26.624,-15.976001,5.68,inter_set_rest,0,3.0,22146.0,152734.0,243411.0,292232.0,269723.0
2026-04-08 21:36:43.032900,93331,1609503375183205,975149113,-0.821792,0.011712,0.042944,-0.32375,-24.10625,65.45,26.624,-15.976001,5.68,inter_set_rest,0,3.0,22146.0,152734.0,243411.0,292232.0,269723.0
2026-04-08 21:36:43.063048,93332,1609503375197680,975164002,-0.694912,-0.062464,0.242048,-6.615,-29.81125,73.4825,26.024002,-16.720001,6.096,inter_set_rest,0,3.0,22146.0,152734.0,243411.0,292232.0,269723.0
2026-04-08 21:36:43.066633,93333,1609503375206635,975172692,-0.694912,-0.062464,0.242048,-3.3775,-31.7975,77.74375,26.024002,-16.720001,6.096,inter_set_rest,0,3.0,22146.0,152734.0,243411.0,292232.0,269723.0
2026-04-08 21:36:43.069193,93334,1609503375221126,975187571,-0.698816,-0.148352,0.208864,8.995,-29.286251,77.6125,25.768002,-17.872002,4.376,inter_set_rest,0,3.0,22146.0,152734.0,243411.0,292232.0,269723.0
2026-04-08 21:36:43.099367,93335,1609503375230060,975196245,-0.698816,-0.148352,0.208864,17.19375,-25.83875,77.4725,25.768002,-17.872002,4.376,inter_set_rest,0,3.0,22146.0,152734.0,243411.0,292232.0,269723.0
2026-04-08 21:36:43.135627,93336,1609503375239066,975204917,-0.765184,-0.046848,0.070272,16.87,-22.81125,80.77125,25.224,-18.376001,3.336,inter_set_rest,0,3.0,22146.0,152734.0,243411.0,292232.0,269723.0
2026-04-08 21:36:43.167884,93347,1609503375253626,975219827,-0.8296,0.03904,0.320128,18.76875,-23.52,87.36875,24.264002,-19.560001,4.56,inter_set_rest,0,3.0,22081.0,152520.0,243135.0,292041.0,269637.0
2026-04-08 21:36:43.170341,93348,1609503375262527,975228505,-0.8296,0.03904,0.320128,24.2025,-25.41,92.61,24.264002,-19.560001,4.56,inter_set_rest,0,3.0,22081.0,152520.0,243135.0,292041.0,269637.0
2026-04-08 21:36:43.172909,93349,1609503375277094,975243401,-0.923296,-0.037088,0.081984,32.2875,-24.01875,94.1325,23.840002,-20.536001,4.496,inter_set_rest,0,3.0,22081.0,152520.0,243135.0,292041.0,269637.0
2026-04-08 21:36:43.175415,93350,1609503375285985,975252031,-0.923296,-0.037088,0.081984,34.7375,-20.58875,90.86,23.840002,-20.536001,4.496,inter_set_rest,0,3.0,22081.0,152520.0,243135.0,292041.0,269637.0
2026-04-08 21:36:43.180386,93351,1609503375300447,975266874,-0.876448,-0.0976,0.033184,29.32125,-18.96125,88.26125,22.960001,-21.416,4.28,inter_set_rest,0,3.0,22081.0,152520.0,243135.0,292041.0,269637.0
2026-04-08 21:36:43.182855,93352,1609503375309412,975275610,-0.876448,-0.0976,0.033184,16.49375,-18.935,90.18625,22.960001,-21.416,4.28,inter_set_rest,0,3.0,22081.0,152520.0,243135.0,292041.0,269637.0
2026-04-08 21:36:43.185428,93353,1609503375318325,975284266,-0.774944,0.119072,0.230336,10.12375,-19.95875,92.9775,22.088001,-21.896002,4.376,inter_set_rest,0,3.0,22081.0,152520.0,243135.0,292041.0,269637.0
2026-04-08 21:36:43.187826,93354,1609503375332865,975299138,-0.925248,0.21472,0.1952,15.3475,-19.67,89.4425,21.736002,-22.528002,5.528,inter_set_rest,0,3.0,22081.0,152520.0,243135.0,292041.0,269637.0
2026-04-08 21:36:43.190340,93355,1609503375341797,975307932,-0.925248,0.21472,0.1952,28.455,-16.45875,80.57875,21.736002,-22.528002,5.528,inter_set_rest,0,3.0,22081.0,152520.0,243135.0,292041.0,269637.0
2026-04-08 21:36:43.217921,93366,1609503375356400,975322856,-1.09312,0.076128,0.066368,32.83,-9.5725,73.22875,20.984001,-23.416,4.104,inter_set_rest,0,3.0,22144.0,152905.0,243637.0,292417.0,269862.0
2026-04-08 21:36:43.220407,93367,1609503375365373,975331568,-1.09312,0.076128,0.066368,16.65125,-6.39625,72.68625,20.984001,-23.416,4.104,inter_set_rest,0,3.0,22144.0,152905.0,243637.0,292417.0,269862.0
2026-04-08 21:36:43.222910,93368,1609503375374301,975340282,-1.009184,0.236192,0.300608,0.4025,-7.56875,75.71375,20.400002,-24.032001,3.944,inter_set_rest,0,3.0,22144.0,152905.0,243637.0,292417.0,269862.0
2026-04-08 21:36:43.253250,93369,1609503375388801,975355123,-1.009184,0.236192,0.300608,-3.2025,-8.54,75.705,20.400002,-24.032001,3.944,inter_set_rest,0,3.0,22144.0,152905.0,243637.0,292417.0,269862.0
2026-04-08 21:36:43.257806,93370,1609503375397741,975363811,-1.067744,0.265472,0.173728,-0.98,-10.0275,70.70875,20.032001,-24.528002,4.488,inter_set_rest,0,3.0,22144.0,152905.0,243637.0,292417.0,269862.0
2026-04-08 21:36:43.259263,93371,1609503375412229,975378666,-1.028704,0.17568,0.240096,-0.14,-12.85375,65.65125,20.032001,-24.528002,4.96,inter_set_rest,0,3.0,22144.0,152905.0,243637.0,292417.0,269862.0
2026-04-08 21:36:43.289334,93372,1609503375421170,975387342,-1.028704,0.17568,0.240096,-3.77125,-15.198751,59.82375,19.656,-24.776001,4.96,inter_set_rest,0,3.0,22144.0,152905.0,243637.0,292417.0,269862.0
2026-04-08 21:36:43.292908,93373,1609503375435681,975402280,-1.09312,0.210816,0.199104,-10.57875,-13.011251,52.84125,19.160002,-25.656002,4.472,inter_set_rest,0,3.0,22144.0,152905.0,243637.0,292417.0,269862.0
2026-04-08 21:36:43.320386,93384,1609503375444954,975411384,-1.09312,0.210816,0.199104,-23.9225,-10.4475,48.326252,19.160002,-25.656002,4.472,inter_set_rest,0,3.0,22160.0,153156.0,243982.0,292698.0,270056.0
2026-04-08 21:36:43.322854,93385,1609503375454025,975420165,-1.10288,0.2928,0.103456,-25.025,-8.68875,43.72375,19.152,-25.776001,4.712,inter_set_rest,0,3.0,22160.0,153156.0,243982.0,292698.0,270056.0
2026-04-08 21:36:43.325433,93386,1609503375468519,975435115,-1.10288,0.2928,0.103456,-18.87375,-6.86875,40.25,19.152,-25.776001,4.712,inter_set_rest,0,3.0,22160.0,153156.0,243982.0,292698.0,270056.0
2026-04-08 21:36:43.327999,93387,1609503375477461,975443773,-0.976,0.327936,0.103456,-16.8,-9.1875,42.0525,18.560001,-25.920002,5.504,inter_set_rest,0,3.0,22160.0,153156.0,243982.0,292698.0,270056.0
2026-04-08 21:36:43.360601,93388,1609503375491984,975458737,-0.976,0.327936,0.103456,-10.823751,-13.85125,42.98875,18.560001,-25.920002,5.504,inter_set_rest,0,3.0,22160.0,153156.0,243982.0,292698.0,270056.0
2026-04-08 21:36:43.365059,93389,1609503375500906,975467406,-1.038464,0.201056,-0.017568,-3.8675,-15.32125,35.95375,18.232,-26.416,4.68,inter_set_rest,0,3.0,22160.0,153156.0,243982.0,292698.0,270056.0
2026-04-08 21:36:43.370953,93390,1609503375515390,975482254,-1.046272,0.26352,0.245952,-6.02,-14.752501,28.8575,18.128,-26.720001,5.048,inter_set_rest,0,3.0,22160.0,153156.0,243982.0,292698.0,270056.0
2026-04-08 21:36:43.372581,93391,1609503375524296,975490915,-1.046272,0.26352,0.245952,-13.9125,-13.93875,26.88875,18.128,-26.720001,5.048,inter_set_rest,0,3.0,22160.0,153156.0,243982.0,292698.0,270056.0
2026-04-08 21:36:43.435701,93392,1609503375533221,975499577,-1.009184,0.318176,0.216672,-14.88375,-11.9875,23.14375,18.128,-26.872002,6.936,inter_set_rest,0,3.0,22160.0,153156.0,243982.0,292698.0,270056.0
2026-04-08 21:36:43.464149,93403,1609503375548209,975514528,-1.009184,0.318176,0.216672,-13.53625,-9.2575,12.74875,18.216002,-26.872002,6.936,inter_set_rest,0,3.0,22183.0,153393.0,244268.0,292859.0,270162.0
2026-04-08 21:36:43.466647,93404,1609503375557164,975523235,-1.028704,0.343552,0.064416,-16.94,-9.14375,6.51,18.288,-26.936,5.08,inter_set_rest,0,3.0,22183.0,153393.0,244268.0,292859.0,270162.0
2026-04-08 21:36:43.469219,93405,1609503375571609,975538089,-1.028704,0.343552,0.064416,-23.0125,-10.45625,6.76375,18.288,-26.936,5.08,inter_set_rest,0,3.0,22183.0,153393.0,244268.0,292859.0,270162.0
2026-04-08 21:36:43.471662,93406,1609503375580580,975546760,-0.987712,0.21472,0.13664,-20.5275,-10.17625,1.51375,18.44,-26.936,4.784,inter_set_rest,0,3.0,22183.0,153393.0,244268.0,292859.0,270162.0
2026-04-08 21:36:43.474169,93407,1609503375589501,975555416,-0.987712,0.21472,0.13664,-19.03125,-9.24,-2.9225,18.44,-26.936,4.784,inter_set_rest,0,3.0,22183.0,153393.0,244268.0,292859.0,270162.0
2026-04-08 21:36:43.476640,93408,1609503375604053,975570406,-1.020896,0.232288,0.0488,-18.515,-7.70875,1.295,18.176,-27.096,5.296001,inter_set_rest,0,3.0,22183.0,153393.0,244268.0,292859.0,270162.0
2026-04-08 21:36:43.479333,93409,1609503375612987,975579105,-1.020896,0.232288,0.220576,-18.1125,-2.89625,0.6825,18.176,-27.096,5.296001,inter_set_rest,0,3.0,22183.0,153393.0,244268.0,292859.0,270162.0
2026-04-08 21:36:43.481663,93410,1609503375627485,975594052,-0.962336,0.230336,0.222528,-20.4225,-0.0875,-7.98,18.328001,-27.048,4.952,inter_set_rest,0,3.0,22183.0,153393.0,244268.0,292859.0,270162.0
2026-04-08 21:36:43.484212,93411,1609503375636408,975602720,-0.993568,0.310368,0.353312,-25.50625,0.28,-14.3325,18.824001,-27.160002,5.768,inter_set_rest,0,3.0,22183.0,153393.0,244268.0,292859.0,270162.0
2026-04-08 21:36:43.515465,93422,1609503375651093,975617726,-0.993568,0.310368,0.353312,-29.067501,-1.91625,-13.92125,18.824001,-27.160002,5.768,inter_set_rest,0,3.0,22156.0,153187.0,243825.0,292466.0,269972.0
2026-04-08 21:36:43.517916,93423,1609503375660078,975626423,-1.046272,0.337696,0.279136,-32.96125,-4.89125,-15.4,18.92,-26.592001,6.952,inter_set_rest,0,3.0,22156.0,153187.0,243825.0,292466.0,269972.0
2026-04-08 21:36:43.520442,93424,1609503375669005,975635141,-1.046272,0.337696,0.279136,-35.3675,-7.4025,-18.55,18.92,-26.592001,6.952,inter_set_rest,0,3.0,22156.0,153187.0,243825.0,292466.0,269972.0
2026-04-08 21:36:43.550706,93425,1609503375683513,975650086,-1.081408,0.228384,0.269376,-40.005,-8.86375,-23.2575,19.368,-26.680002,7.400001,inter_set_rest,0,3.0,22156.0,153187.0,243825.0,292466.0,269972.0
2026-04-08 21:36:43.554186,93426,1609503375692430,975658778,-1.081408,0.228384,0.269376,-49.88375,-11.55,-26.67,19.368,-26.680002,7.400001,inter_set_rest,0,3.0,22156.0,153187.0,243825.0,292466.0,269972.0
2026-04-08 21:36:43.556693,93427,1609503375706892,975673635,-0.977952,0.138592,0.37088,-59.3775,-14.56875,-30.8,19.568,-26.2,7.2,inter_set_rest,0,3.0,22156.0,153187.0,243825.0,292466.0,269972.0
2026-04-08 21:36:43.562908,93428,1609503375715804,975682301,-1.052128,0.20496,0.357216,-58.42375,-15.32125,-38.2375,19.776001,-25.800001,7.752,inter_set_rest,0,3.0,22156.0,153187.0,243825.0,292466.0,269972.0
2026-04-08 21:36:43.593087,93429,1609503375730264,975697166,-1.052128,0.20496,0.357216,-47.215,-13.20375,-44.68625,19.776001,-25.800001,7.752,inter_set_rest,0,3.0,22156.0,153187.0,243825.0,292466.0,269972.0
2026-04-08 21:36:43.596693,93430,1609503375739163,975705803,-1.284416,0.300608,0.335744,-34.08125,-8.435,-47.81,20.904001,-26.016,7.400001,inter_set_rest,0,3.0,22156.0,153187.0,243825.0,292466.0,269972.0
2026-04-08 21:36:43.627903,93441,1609503375748531,975714507,-1.284416,0.300608,0.335744,-25.69875,-4.34875,-50.33875,20.904001,-26.016,7.400001,inter_set_rest,0,3.0,21836.0,151384.0,241365.0,290624.0,268854.0
2026-04-08 21:36:43.630423,93442,1609503375763076,975729401,-1.341024,0.306464,0.339648,-28.98,-2.89625,-52.24625,21.576,-25.256,9.320001,inter_set_rest,0,3.0,21836.0,151384.0,241365.0,290624.0,268854.0
2026-04-08 21:36:43.632899,93443,1609503375772015,975738074,-1.341024,0.306464,0.339648,-38.54375,-2.45,-57.44375,21.576,-25.256,9.320001,inter_set_rest,0,3.0,21836.0,151384.0,241365.0,290624.0,268854.0
2026-04-08 21:36:43.635371,93444,1609503375786506,975753011,-1.372256,0.316224,0.456768,-49.95375,-5.11875,-57.18125,22.648,-24.648,8.112,inter_set_rest,0,3.0,21836.0,151384.0,241365.0,290624.0,268854.0
2026-04-08 21:36:43.641673,93445,1609503375795437,975761718,-1.520608,0.245952,0.286944,-53.8475,-8.18125,-54.25,23.272001,-24.44,10.112,inter_set_rest,0,3.0,21836.0,151384.0,241365.0,290624.0,268854.0
2026-04-08 21:36:43.672093,93446,1609503375804352,975770388,-1.520608,0.245952,0.286944,-47.88,-10.24625,-53.0425,23.272001,-24.44,10.112,inter_set_rest,0,3.0,21836.0,151384.0,241365.0,290624.0,268854.0
2026-04-08 21:36:43.675445,93447,1609503375818811,975785248,-1.432768,0.365024,0.513376,-40.03125,-11.06875,-54.7225,23.36,-23.616001,8.736,inter_set_rest,0,3.0,21836.0,151384.0,241365.0,290624.0,268854.0
2026-04-08 21:36:43.677957,93448,1609503375827705,975793894,-1.432768,0.365024,0.513376,-36.4875,-15.6625,-51.9575,23.36,-23.616001,8.736,inter_set_rest,0,3.0,21836.0,151384.0,241365.0,290624.0,268854.0
2026-04-08 21:36:43.734603,93449,1609503375842213,975808787,-1.440576,0.382592,0.679296,-37.6425,-22.855,-45.61375,24.112001,-23.480001,9.448001,inter_set_rest,0,3.0,21836.0,151384.0,241365.0,290624.0,268854.0
2026-04-08 21:36:43.766378,93460,1609503375851222,975817668,-1.440576,0.382592,0.679296,-39.138752,-30.8525,-37.94,24.112001,-23.480001,9.448001,inter_set_rest,0,3.0,21553.0,150047.0,239645.0,289469.0,268179.0
2026-04-08 21:36:43.767917,93461,1609503375865697,975832569,-1.475712,0.31232,0.710528,-34.5275,-39.138752,-32.24375,24.144001,-23.024,9.312,inter_set_rest,0,3.0,21553.0,150047.0,239645.0,289469.0,268179.0
2026-04-08 21:36:43.772248,93462,1609503375874616,975841224,-1.475712,0.31232,0.66368,-26.22375,-42.98875,-27.78125,24.144001,-23.024,9.312,inter_set_rest,0,3.0,21553.0,150047.0,239645.0,289469.0,268179.0
2026-04-08 21:36:43.773960,93463,1609503375889116,975856078,-1.428864,0.378688,0.659776,-20.4225,-44.14375,-22.77625,23.696001,-23.04,8.032001,inter_set_rest,0,3.0,21553.0,150047.0,239645.0,289469.0,268179.0
2026-04-08 21:36:43.775535,93464,1609503375898058,975864749,-1.253184,0.245952,0.452864,-20.81625,-45.255,-16.84375,23.296001,-23.112001,11.232,inter_set_rest,0,3.0,21553.0,150047.0,239645.0,289469.0,268179.0
2026-04-08 21:36:43.778020,93465,1609503375906995,975873453,-1.253184,0.245952,0.452864,-24.78,-45.05375,-13.79,23.296001,-23.112001,11.232,inter_set_rest,0,3.0,21553.0,150047.0,239645.0,289469.0,268179.0
2026-04-08 21:36:43.780456,93466,1609503375921475,975888345,-1.194624,0.134688,0.474336,-25.9,-44.03875,-12.67875,22.968,-22.456001,11.608001,inter_set_rest,0,3.0,21553.0,150047.0,239645.0,289469.0,268179.0
2026-04-08 21:36:43.782961,93467,1609503375930449,975897043,-1.194624,0.134688,0.474336,-18.17375,-40.73125,-8.46125,22.968,-22.456001,11.608001,inter_set_rest,0,3.0,21553.0,150047.0,239645.0,289469.0,268179.0
2026-04-08 21:36:43.839235,93478,1609503375944946,975911915,-1.046272,0.132736,0.519232,-4.20875,-33.39,-3.99,23.2,-22.328001,12.048,inter_set_rest,0,3.0,21822.0,151100.0,240919.0,290254.0,268628.0
2026-04-08 21:36:43.841720,93479,1609503375953879,975920619,-1.046272,0.132736,0.519232,7.455,-24.675,-1.18125,23.2,-22.328001,12.048,inter_set_rest,0,3.0,21822.0,151100.0,240919.0,290254.0,268628.0
2026-04-08 21:36:43.844174,93480,1609503375968375,975935527,-1.013088,0.17568,0.374784,9.96625,-19.0575,3.00125,23.088001,-22.496,11.56,inter_set_rest,0,3.0,21822.0,151100.0,240919.0,290254.0,268628.0
2026-04-08 21:36:43.846643,93481,1609503375977303,975944231,-0.935008,0.080032,0.23424,4.55875,-14.752501,6.86875,22.824001,-22.536001,10.360001,inter_set_rest,0,3.0,21822.0,151100.0,240919.0,290254.0,268628.0
2026-04-08 21:36:43.849209,93482,1609503375986277,975952915,-0.935008,0.080032,0.23424,-3.115,-13.2475,9.695,22.824001,-22.536001,10.360001,inter_set_rest,0,3.0,21822.0,151100.0,240919.0,290254.0,268628.0
2026-04-08 21:36:43.851636,93483,1609503376000780,975967800,-0.870592,0.046848,0.404064,-6.265,-10.85875,11.4625,22.368002,-22.936,11.096001,inter_set_rest,0,3.0,21822.0,151100.0,240919.0,290254.0,268628.0
2026-04-08 21:36:43.856674,93484,1609503376009703,975976539,-0.870592,0.046848,0.404064,-4.7775,-7.07875,11.9,22.368002,-22.936,11.096001,inter_set_rest,0,3.0,21822.0,151100.0,240919.0,290254.0,268628.0
2026-04-08 21:36:43.913119,93485,1609503376024179,975989374,-0.808128,-0.003904,0.441152,-0.945,-4.375,12.74,22.224,-22.992,11.400001,inter_set_rest,0,3.0,21822.0,151100.0,240919.0,290254.0,268628.0
2026-04-08 21:36:43.916736,93486,1609503376033335,976000141,-0.808128,-0.003904,0.441152,2.6775,-3.605,11.85625,22.224,-22.992,11.400001,inter_set_rest,0,3.0,21822.0,151100.0,240919.0,290254.0,268628.0
2026-04-08 21:36:43.919263,93487,1609503376042254,976008792,-0.769088,-0.025376,0.366976,8.30375,-3.75375,10.535,22.144001,-23.232,10.824,inter_set_rest,0,3.0,21822.0,151100.0,240919.0,290254.0,268628.0
2026-04-08 21:36:43.949187,93498,1609503376056843,976023708,-0.808128,0.01952,0.378688,15.77625,-2.96625,8.7675,21.928001,-23.232,7.264,inter_set_rest,0,3.0,22130.0,152363.0,242292.0,290991.0,269000.0
2026-04-08 21:36:43.951713,93499,1609503376065758,976032432,-0.808128,0.01952,0.378688,24.01,-0.79625,6.97375,21.928001,-23.232,7.264,inter_set_rest,0,3.0,22130.0,152363.0,242292.0,290991.0,269000.0
2026-04-08 21:36:43.954184,93500,1609503376080239,976047327,-0.8784,0.12688,0.41968,30.24,0.735,6.92125,21.728,-23.296001,11.472,inter_set_rest,0,3.0,22130.0,152363.0,242292.0,290991.0,269000.0
2026-04-08 21:36:43.956752,93501,1609503376089166,976056008,-0.8784,0.12688,0.41968,31.68375,2.40625,7.60375,21.728,-23.296001,11.472,inter_set_rest,0,3.0,22130.0,152363.0,242292.0,290991.0,269000.0
2026-04-08 21:36:43.959211,93502,1609503376103653,976068838,-0.929152,0.12688,0.247904,27.8075,1.86375,6.93,21.640001,-23.656002,11.424001,inter_set_rest,0,3.0,22130.0,152363.0,242292.0,290991.0,269000.0
2026-04-08 21:36:43.961772,93503,1609503376112889,976079570,-0.929152,0.12688,0.247904,21.875,0.28875,5.41625,21.640001,-23.656002,11.424001,inter_set_rest,0,3.0,22130.0,152363.0,242292.0,290991.0,269000.0
2026-04-08 21:36:43.975936,93504,1609503376121847,976088271,-0.905728,0.083936,0.499712,17.15875,-0.53375,3.42125,21.592001,-23.728,10.952001,inter_set_rest,0,3.0,22130.0,152363.0,242292.0,290991.0,269000.0
2026-04-08 21:36:43.984096,93505,1609503376136316,976103140,-0.905728,0.083936,0.406016,14.58625,0.4375,2.59,21.592001,-23.728,10.952001,inter_set_rest,0,3.0,22130.0,152363.0,242292.0,290991.0,269000.0
2026-04-08 21:36:44.034037,93506,1609503376145323,976111799,-0.99552,0.15616,0.417728,17.8325,3.3425,2.625,21.848001,-24.000002,11.744,inter_set_rest,0,3.0,22130.0,152363.0,242292.0,290991.0,269000.0
2026-04-08 21:36:44.062756,93517,1609503376159839,976126694,-1.10288,0.236192,0.386496,23.66875,6.1075,2.7125,21.984001,-24.208002,9.496,inter_set_rest,0,3.0,21697.0,150419.0,239835.0,289188.0,267955.0
2026-04-08 21:36:44.064164,93518,1609503376168741,976135342,-1.10288,0.236192,0.386496,29.2075,7.385,3.15875,21.984001,-24.208002,9.496,inter_set_rest,0,3.0,21697.0,150419.0,239835.0,289188.0,267955.0
2026-04-08 21:36:44.068438,93519,1609503376183219,976150211,-1.069696,0.232288,0.33184,29.286251,6.7725,3.5,22.016,-24.224,9.456,inter_set_rest,0,3.0,21697.0,150419.0,239835.0,289188.0,267955.0
2026-04-08 21:36:44.070149,93520,1609503376192170,976158922,-1.069696,0.232288,0.33184,23.73875,5.005,4.13875,22.016,-24.224,9.456,inter_set_rest,0,3.0,21697.0,150419.0,239835.0,289188.0,267955.0
2026-04-08 21:36:44.071875,93521,1609503376201080,976167588,-1.003328,0.199104,0.460672,18.147501,3.52625,5.39875,21.424002,-24.136002,10.192,inter_set_rest,0,3.0,21697.0,150419.0,239835.0,289188.0,267955.0
2026-04-08 21:36:44.075979,93522,1609503376215631,976182496,-1.003328,0.199104,0.460672,13.615,2.19625,6.67625,21.424002,-24.136002,10.192,inter_set_rest,0,3.0,21697.0,150419.0,239835.0,289188.0,267955.0
2026-04-08 21:36:44.077514,93523,1609503376224565,976191166,-1.077504,0.228384,0.515328,10.955,1.61,7.5775,21.216002,-24.264002,10.008,inter_set_rest,0,3.0,21697.0,150419.0,239835.0,289188.0,267955.0
2026-04-08 21:36:44.107846,93524,1609503376239075,976206106,-1.106784,0.22448,0.368928,10.325,0.315,7.49875,21.36,-24.68,10.856001,inter_set_rest,0,3.0,21697.0,150419.0,239835.0,289188.0,267955.0
2026-04-08 21:36:44.140051,93535,1609503376248329,976214860,-1.106784,0.22448,0.368928,11.64625,-0.34125,6.895,21.36,-24.68,10.856001,inter_set_rest,0,3.0,21187.0,148133.0,236787.0,286864.0,266600.0
2026-04-08 21:36:44.141206,93536,1609503376257444,976223537,-1.106784,0.255712,0.339648,12.705,-0.8575,5.8625,21.36,-24.68,10.856001,inter_set_rest,0,3.0,21187.0,148133.0,236787.0,286864.0,266600.0
2026-04-08 21:36:44.144717,93537,1609503376271993,976238448,-1.077504,0.249856,0.339648,14.86625,-0.49875,4.99625,21.480001,-24.552002,8.776,inter_set_rest,0,3.0,21187.0,148133.0,236787.0,286864.0,266600.0
2026-04-08 21:36:44.146436,93538,1609503376280980,976247217,-0.979904,0.218624,0.511424,15.3475,-0.7,4.99625,20.992,-24.704,9.736,inter_set_rest,0,3.0,21187.0,148133.0,236787.0,286864.0,266600.0
2026-04-08 21:36:44.148004,93539,1609503376295489,976262104,-0.979904,0.218624,0.511424,14.37625,-1.81125,5.775,20.992,-24.704,9.736,inter_set_rest,0,3.0,21187.0,148133.0,236787.0,286864.0,266600.0
2026-04-08 21:36:44.155976,93540,1609503376304435,976270786,-0.999424,0.181536,0.269376,13.13375,-3.92875,7.07,21.048,-24.968,9.72,inter_set_rest,0,3.0,21187.0,148133.0,236787.0,286864.0,266600.0
2026-04-08 21:36:44.184448,93541,1609503376318922,976285648,-1.042368,0.206912,0.286944,13.76375,-4.69875,6.71125,21.240002,-25.240002,9.360001,inter_set_rest,0,3.0,21187.0,148133.0,236787.0,286864.0,266600.0
2026-04-08 21:36:44.188954,93542,1609503376327865,976294320,-1.042368,0.206912,0.286944,15.77625,-4.08625,5.425,21.240002,-25.240002,9.360001,inter_set_rest,0,3.0,21187.0,148133.0,236787.0,286864.0,266600.0
2026-04-08 21:36:44.190453,93543,1609503376336792,976302977,-1.042368,0.206912,0.286944,17.10625,-3.71875,5.3375,21.240002,-25.240002,9.360001,inter_set_rest,0,3.0,21187.0,148133.0,236787.0,286864.0,266600.0
2026-04-08 21:36:44.220392,93554,1609503376351853,976318144,-0.99552,0.249856,0.452864,19.4075,-3.38625,5.7575,20.936,-25.264002,8.984,inter_set_rest,0,3.0,20898.0,146754.0,234894.0,285357.0,265695.0
2026-04-08 21:36:44.221956,93555,1609503376360908,976326853,-0.987712,0.271328,0.286944,21.2625,-2.45875,5.9675,21.232,-25.648,8.104,inter_set_rest,0,3.0,20898.0,146754.0,234894.0,285357.0,265695.0
2026-04-08 21:36:44.225857,93556,1609503376375399,976341790,-0.987712,0.271328,0.286944,20.965,-1.6625,3.815,21.232,-25.648,8.104,inter_set_rest,0,3.0,20898.0,146754.0,234894.0,285357.0,265695.0
2026-04-08 21:36:44.231738,93557,1609503376384387,976350474,-1.075552,0.255712,0.191296,17.38625,-1.2425,1.4,20.888,-25.344002,8.368,inter_set_rest,0,3.0,20898.0,146754.0,234894.0,285357.0,265695.0
2026-04-08 21:36:44.260760,93558,1609503376393497,976359151,-1.075552,0.255712,0.191296,13.4925,-1.11125,3.43875,20.888,-25.344002,8.368,inter_set_rest,0,3.0,20898.0,146754.0,234894.0,285357.0,265695.0
2026-04-08 21:36:44.265200,93559,1609503376408001,976373992,-0.977952,0.259616,0.40016,8.6275,-3.3425,6.125,20.904001,-25.720001,8.224,inter_set_rest,0,3.0,20898.0,146754.0,234894.0,285357.0,265695.0
2026-04-08 21:36:44.266636,93560,1609503376416918,976382643,-0.977952,0.259616,0.40016,4.71625,-4.10375,3.5,20.904001,-25.720001,8.224,inter_set_rest,0,3.0,20898.0,146754.0,234894.0,285357.0,265695.0
2026-04-08 21:36:44.298884,93561,1609503376431380,976397553,-0.993568,0.232288,0.296704,10.71,-2.14375,-1.4875,20.776001,-25.336,7.584001,inter_set_rest,0,3.0,20898.0,146754.0,234894.0,285357.0,265695.0
2026-04-08 21:36:44.302560,93562,1609503376440318,976406246,-1.013088,0.355264,0.433344,13.23875,-0.4025,-0.6475,20.720001,-25.880001,6.488,inter_set_rest,0,3.0,20898.0,146754.0,234894.0,285357.0,265695.0
2026-04-08 21:36:44.366628,93573,1609503376454862,976421268,-1.013088,0.355264,0.433344,12.95,0.245,2.9925,20.720001,-25.880001,6.488,inter_set_rest,0,3.0,20548.0,145256.0,232927.0,283843.0,264810.0
2026-04-08 21:36:44.369236,93574,1609503376463808,976429971,-1.114592,0.345504,0.257664,10.64875,-0.3675,4.165,20.128,-25.928001,7.56,inter_set_rest,0,3.0,20548.0,145256.0,232927.0,283843.0,264810.0
2026-04-08 21:36:44.372348,93575,1609503376472765,976438671,-1.114592,0.345504,0.257664,6.545,-2.75625,4.43625,20.128,-25.928001,7.56,inter_set_rest,0,3.0,20548.0,145256.0,232927.0,283843.0,264810.0
2026-04-08 21:36:44.374176,93576,1609503376487206,976453567,-1.018944,0.288896,0.402112,1.7325,-5.46875,3.92,20.024,-25.808,7.696001,inter_set_rest,0,3.0,20548.0,145256.0,232927.0,283843.0,264810.0
2026-04-08 21:36:44.380773,93577,1609503376496176,976462235,-1.018944,0.288896,0.402112,-2.47625,-8.68875,3.22,20.024,-25.808,7.696001,inter_set_rest,0,3.0,20548.0,145256.0,232927.0,283843.0,264810.0
2026-04-08 21:36:44.382785,93578,1609503376510663,976477203,-1.026752,0.2928,0.314272,-2.31875,-10.605001,2.61625,20.064001,-25.552002,8.856,inter_set_rest,0,3.0,20548.0,145256.0,232927.0,283843.0,264810.0
2026-04-08 21:36:44.385579,93579,1609503376519606,976485921,-1.089216,0.314272,0.284992,3.43,-10.823751,0.98875,20.064001,-25.560001,9.504001,inter_set_rest,0,3.0,20548.0,145256.0,232927.0,283843.0,264810.0
2026-04-08 21:36:44.387903,93580,1609503376534134,976500826,-1.089216,0.314272,0.284992,9.0125,-10.78875,-1.28625,20.008001,-25.560001,9.504001,inter_set_rest,0,3.0,20548.0,145256.0,232927.0,283843.0,264810.0
2026-04-08 21:36:44.390399,93581,1609503376543089,976509519,-1.009184,0.281088,0.308416,10.167501,-11.90875,-3.17625,20.272001,-25.624,7.960001,inter_set_rest,0,3.0,20548.0,145256.0,232927.0,283843.0,264810.0
2026-04-08 21:36:44.420376,93592,1609503376552140,976518201,-1.009184,0.281088,0.308416,9.84375,-14.23625,-5.74875,20.272001,-25.624,7.960001,inter_set_rest,0,3.0,20384.0,144543.0,232013.0,283195.0,264472.0
2026-04-08 21:36:44.422970,93593,1609503376566779,976533216,-0.997472,0.25376,0.318176,10.85,-17.08875,-8.93375,19.992,-25.480001,6.12,inter_set_rest,0,3.0,20384.0,144543.0,232013.0,283195.0,264472.0
2026-04-08 21:36:44.429251,93594,1609503376575705,976541946,-0.997472,0.25376,0.318176,11.480001,-18.90875,-13.195,19.992,-25.480001,6.12,inter_set_rest,0,3.0,20384.0,144543.0,232013.0,283195.0,264472.0
2026-04-08 21:36:44.459747,93595,1609503376590182,976556815,-1.007232,0.30256,0.394304,13.39625,-19.67,-16.28375,19.712002,-25.832,8.112,inter_set_rest,0,3.0,20384.0,144543.0,232013.0,283195.0,264472.0
2026-04-08 21:36:44.462930,93596,1609503376599101,976565463,-1.007232,0.30256,0.394304,14.245,-19.27625,-17.5175,19.712002,-25.832,8.112,inter_set_rest,0,3.0,20384.0,144543.0,232013.0,283195.0,264472.0
2026-04-08 21:36:44.465390,93597,1609503376613570,976580369,-0.931104,0.308416,0.40992,12.5125,-20.055,-17.4825,20.112001,-25.568,5.536,inter_set_rest,0,3.0,20384.0,144543.0,232013.0,283195.0,264472.0
2026-04-08 21:36:44.469203,93598,1609503376622512,976589038,-0.923296,0.269376,0.488,10.56125,-22.522501,-18.34,20.056002,-25.328001,8.648001,inter_set_rest,0,3.0,20384.0,144543.0,232013.0,283195.0,264472.0
2026-04-08 21:36:44.499413,93599,1609503376631445,976597712,-0.923296,0.269376,0.488,3.98125,-25.83875,-20.991251,20.056002,-25.328001,8.648001,inter_set_rest,0,3.0,20384.0,144543.0,232013.0,283195.0,264472.0
2026-04-08 21:36:44.502950,93600,1609503376645925,976612564,-0.921344,0.236192,0.49776,-1.5575,-28.74375,-23.2925,19.720001,-24.992,8.152,inter_set_rest,0,3.0,20384.0,144543.0,232013.0,283195.0,264472.0
2026-04-08 21:36:44.539052,93611,1609503376654959,976621306,-0.921344,0.236192,0.49776,-4.50625,-29.715,-25.52375,19.720001,-24.992,8.152,inter_set_rest,0,3.0,20496.0,145106.0,232750.0,283767.0,264785.0
2026-04-08 21:36:44.540425,93612,1609503376669482,976636184,-0.909632,0.251808,0.464576,-1.9075,-29.303751,-27.86875,19.880001,-24.344002,9.048,inter_set_rest,0,3.0,20496.0,145106.0,232750.0,283767.0,264785.0
2026-04-08 21:36:44.543477,93613,1609503376678480,976644909,-0.909632,0.251808,0.464576,0.88375,-28.20125,-30.72125,19.880001,-24.344002,9.048,inter_set_rest,0,3.0,20496.0,145106.0,232750.0,283767.0,264785.0
2026-04-08 21:36:44.545944,93614,1609503376687444,976653587,-0.974048,0.247904,0.279136,2.49375,-29.522501,-31.15,20.232,-24.544,8.288,inter_set_rest,0,3.0,20496.0,145106.0,232750.0,283767.0,264785.0
2026-04-08 21:36:44.549987,93615,1609503376701916,976668495,-0.93696,0.203008,0.4392,4.095,-30.975,-32.66375,20.36,-24.192001,7.816001,inter_set_rest,0,3.0,20496.0,145106.0,232750.0,283767.0,264785.0
2026-04-08 21:36:44.580304,93616,1609503376710817,976677137,-0.93696,0.203008,0.4392,4.4275,-31.928751,-37.2925,20.36,-24.192001,7.816001,inter_set_rest,0,3.0,20496.0,145106.0,232750.0,283767.0,264785.0
2026-04-08 21:36:44.583055,93617,1609503376725280,976692029,-1.110688,0.22448,0.306464,5.25875,-31.29,-40.1975,20.424002,-24.288002,8.712001,inter_set_rest,0,3.0,20496.0,145106.0,232750.0,283767.0,264785.0
2026-04-08 21:36:44.586297,93618,1609503376734203,976700704,-1.110688,0.22448,0.306464,2.24,-30.9575,-40.32,20.424002,-24.288002,8.712001,inter_set_rest,0,3.0,20496.0,145106.0,232750.0,283767.0,264785.0
2026-04-08 21:36:44.660518,93629,1609503376748701,976715979,-0.954528,0.25376,0.38064,1.61,-32.05125,-38.99875,20.168001,-23.912,10.616,inter_set_rest,0,3.0,20424.0,144835.0,232444.0,283548.0,264663.0
2026-04-08 21:36:44.663025,93630,1609503376757698,976724668,-0.954528,0.25376,0.38064,8.86375,-33.7925,-43.75,20.168001,-23.912,10.616,inter_set_rest,0,3.0,20424.0,144835.0,232444.0,283548.0,264663.0
2026-04-08 21:36:44.665448,93631,1609503376766582,976733358,-1.052128,0.240096,0.310368,7.21875,-36.4875,-48.86,20.488,-23.824001,9.056001,inter_set_rest,0,3.0,20424.0,144835.0,232444.0,283548.0,264663.0
2026-04-08 21:36:44.667968,93632,1609503376781057,976748198,-1.020896,0.167872,0.259616,0.04375,-42.0,-45.9375,20.488,-23.824001,7.000001,inter_set_rest,0,3.0,20424.0,144835.0,232444.0,283548.0,264663.0
2026-04-08 21:36:44.670475,93633,1609503376789937,976756842,-1.028704,0.167872,0.259616,-6.93875,-45.78875,-43.9425,20.672,-23.256,7.000001,inter_set_rest,0,3.0,20424.0,144835.0,232444.0,283548.0,264663.0
2026-04-08 21:36:44.672977,93634,1609503376804463,976769745,-1.001376,0.154208,0.4392,-10.05375,-47.25875,-45.99,20.592001,-22.792002,10.68,inter_set_rest,0,3.0,20424.0,144835.0,232444.0,283548.0,264663.0
2026-04-08 21:36:44.675548,93635,1609503376813777,976780520,-1.001376,0.154208,0.4392,-9.31875,-47.95875,-50.076252,20.592001,-22.792002,10.68,inter_set_rest,0,3.0,20424.0,144835.0,232444.0,283548.0,264663.0
2026-04-08 21:36:44.678023,93636,1609503376828332,976795409,-1.00528,0.249856,0.450912,-8.7325,-50.32125,-53.138752,20.52,-22.392,9.984,inter_set_rest,0,3.0,20424.0,144835.0,232444.0,283548.0,264663.0
2026-04-08 21:36:44.708210,93637,1609503376837272,976804099,-1.00528,0.249856,0.450912,-10.24625,-54.59125,-52.045002,20.52,-22.392,9.984,inter_set_rest,0,3.0,20424.0,144835.0,232444.0,283548.0,264663.0
2026-04-08 21:36:44.711764,93638,1609503376846302,976812795,-0.99552,0.179584,0.404064,-15.4525,-59.99875,-48.34375,20.616001,-21.744001,11.000001,inter_set_rest,0,3.0,20424.0,144835.0,232444.0,283548.0,264663.0
2026-04-08 21:36:44.739268,93649,1609503376860897,976827710,-0.99552,0.179584,0.404064,-19.3025,-63.13125,-47.17125,20.616001,-21.744001,11.000001,inter_set_rest,0,3.0,20550.0,145345.0,233088.0,284029.0,264934.0
2026-04-08 21:36:44.741719,93650,1609503376869805,976836399,-0.98576,0.076128,0.314272,-20.13375,-62.95625,-50.88125,20.552,-21.528002,10.824,inter_set_rest,0,3.0,20550.0,145345.0,233088.0,284029.0,264934.0
2026-04-08 21:36:44.744243,93651,1609503376884331,976851338,-0.93696,0.074176,0.357216,-12.48625,-60.165,-59.64,20.584002,-21.208,12.384001,inter_set_rest,0,3.0,20550.0,145345.0,233088.0,284029.0,264934.0
2026-04-08 21:36:44.746682,93652,1609503376893314,976860055,-0.93696,0.074176,0.357216,0.88375,-56.49,-66.8325,20.584002,-21.208,12.384001,inter_set_rest,0,3.0,20550.0,145345.0,233088.0,284029.0,264934.0
2026-04-08 21:36:44.777811,93653,1609503376907904,976874968,-0.903776,0.183488,0.433344,5.39875,-54.38125,-67.8825,20.584002,-20.656,13.512001,inter_set_rest,0,3.0,20550.0,145345.0,233088.0,284029.0,264934.0
2026-04-08 21:36:44.780477,93654,1609503376916880,976883645,-0.903776,0.183488,0.433344,0.5425,-54.425,-63.9625,20.584002,-20.656,13.512001,inter_set_rest,0,3.0,20550.0,145345.0,233088.0,284029.0,264934.0
2026-04-08 21:36:44.782941,93655,1609503376925832,976892332,-0.769088,0.042944,0.513376,-3.4475,-55.3875,-60.82125,20.744001,-20.28,11.896001,inter_set_rest,0,3.0,20550.0,145345.0,233088.0,284029.0,264934.0
2026-04-08 21:36:44.788046,93656,1609503376940303,976907186,-0.769088,0.042944,0.513376,-4.36625,-52.6575,-65.625,20.744001,-20.28,11.896001,inter_set_rest,0,3.0,20550.0,145345.0,233088.0,284029.0,264934.0
2026-04-08 21:36:44.821911,93657,1609503376949252,976915867,-0.854976,0.025376,0.528992,-10.3075,-51.33625,-70.72625,21.016,-19.68,12.544001,inter_set_rest,0,3.0,20550.0,145345.0,233088.0,284029.0,264934.0
2026-04-08 21:36:44.849208,93668,1609503376963816,976930814,-0.792512,0.03904,0.42944,-25.025,-56.7525,-66.78875,20.984001,-18.936,12.960001,inter_set_rest,0,3.0,20632.0,145841.0,233772.0,284525.0,265239.0
2026-04-08 21:36:44.851697,93669,1609503376972729,976939468,-0.792512,0.03904,0.42944,-23.9225,-58.72125,-67.235,20.984001,-18.936,12.960001,inter_set_rest,0,3.0,20632.0,145841.0,233772.0,284525.0,265239.0
2026-04-08 21:36:44.854961,93670,1609503376987254,976954334,-0.681248,0.005856,0.550464,-19.7925,-58.96625,-68.4775,20.648,-18.296001,14.448001,inter_set_rest,0,3.0,20632.0,145841.0,233772.0,284525.0,265239.0
2026-04-08 21:36:44.856655,93671,1609503376996243,976963069,-0.681248,0.005856,0.550464,-25.4625,-59.255,-66.3425,20.648,-18.296001,14.448001,inter_set_rest,0,3.0,20632.0,145841.0,233772.0,284525.0,265239.0
2026-04-08 21:36:44.859191,93672,1609503377005224,976971739,-0.853024,-0.18544,0.40992,-27.29125,-56.74375,-67.08625,20.936,-17.896,15.176001,inter_set_rest,0,3.0,20632.0,145841.0,233772.0,284525.0,265239.0
2026-04-08 21:36:44.889362,93673,1609503377019787,976986667,-0.853024,-0.18544,0.40992,-34.16,-54.6,-68.0225,20.936,-17.896,15.176001,inter_set_rest,0,3.0,20632.0,145841.0,233772.0,284525.0,265239.0
2026-04-08 21:36:44.892984,93674,1609503377028733,976995324,-0.806176,-0.031232,0.667584,-50.39125,-59.6575,-61.2675,20.736,-17.032001,15.544001,inter_set_rest,0,3.0,20632.0,145841.0,233772.0,284525.0,265239.0
2026-04-08 21:36:44.895506,93675,1609503377043172,977010187,-0.720288,-0.060512,0.505568,-50.40875,-64.1375,-63.822502,20.752,-16.6,15.176001,inter_set_rest,0,3.0,20632.0,145841.0,233772.0,284525.0,265239.0
2026-04-08 21:36:44.955455,93686,1609503377052415,977018941,-0.720288,-0.060512,0.505568,-46.48,-63.7875,-67.80375,20.752,-16.6,15.176001,inter_set_rest,0,3.0,21010.0,147287.0,235505.0,285757.0,265914.0
2026-04-08 21:36:44.957952,93687,1609503377061470,977027715,-0.720288,-0.060512,0.505568,-46.138752,-63.13125,-65.65125,20.752,-16.6,15.176001,inter_set_rest,0,3.0,21010.0,147287.0,235505.0,285757.0,265914.0
2026-04-08 21:36:44.960382,93688,1609503377075955,977042593,-0.62464,-0.218624,0.753472,-44.77375,-59.64875,-62.072502,20.536001,-15.392001,17.824001,inter_set_rest,0,3.0,21010.0,147287.0,235505.0,285757.0,265914.0
2026-04-08 21:36:44.962906,93689,1609503377084888,977051261,-0.689056,-0.327936,0.772992,-44.275,-55.3875,-66.683754,20.872002,-14.888001,15.928,inter_set_rest,0,3.0,21010.0,147287.0,235505.0,285757.0,265914.0
2026-04-08 21:36:44.965393,93690,1609503377099442,977066136,-0.689056,-0.327936,0.772992,-38.955,-51.6425,-72.12625,20.872002,-14.888001,15.928,inter_set_rest,0,3.0,21010.0,147287.0,235505.0,285757.0,265914.0
2026-04-08 21:36:44.967887,93691,1609503377108443,977074878,-0.665632,-0.0488,0.616832,-33.55625,-50.96,-71.72375,20.568,-14.072001,18.752,inter_set_rest,0,3.0,21010.0,147287.0,235505.0,285757.0,265914.0
2026-04-08 21:36:44.970408,93692,1609503377122903,977089782,-0.665632,-0.0488,0.548512,-31.8325,-49.4375,-62.67625,20.568,-14.072001,18.752,inter_set_rest,0,3.0,21010.0,147287.0,235505.0,285757.0,265914.0
2026-04-08 21:36:44.979606,93693,1609503377131780,977098432,-0.724192,-0.329888,0.548512,-27.055,-43.3475,-62.11625,20.136002,-13.992001,17.792002,inter_set_rest,0,3.0,21010.0,147287.0,235505.0,285757.0,265914.0
2026-04-08 21:36:45.009429,93694,1609503377140706,977107109,-0.724192,-0.329888,0.548512,-25.8825,-39.8475,-65.835,20.136002,-13.992001,17.792002,inter_set_rest,0,3.0,21010.0,147287.0,235505.0,285757.0,265914.0
2026-04-08 21:36:45.038006,93705,1609503377155638,977122221,-0.6832,-0.396256,0.831552,-32.89125,-39.34,-69.64125,20.2,-13.280001,17.688002,inter_set_rest,0,3.0,21177.0,148102.0,236651.0,286611.0,266355.0
2026-04-08 21:36:45.040538,93706,1609503377164662,977130895,-0.659776,-0.181536,0.700768,-41.53625,-41.36125,-71.02375,20.52,-12.480001,17.344002,inter_set_rest,0,3.0,21177.0,148102.0,236651.0,286611.0,266355.0
2026-04-08 21:36:45.042950,93707,1609503377179175,977145811,-0.659776,-0.181536,0.700768,-30.66875,-40.59125,-72.91375,20.52,-12.480001,17.344002,inter_set_rest,0,3.0,21177.0,148102.0,236651.0,286611.0,266355.0
2026-04-08 21:36:45.045441,93708,1609503377188112,977154483,-0.540704,-0.22448,0.874496,-22.295,-39.52375,-75.04875,20.344002,-11.616,18.912,inter_set_rest,0,3.0,21177.0,148102.0,236651.0,286611.0,266355.0
2026-04-08 21:36:45.047958,93709,1609503377197131,977163167,-0.540704,-0.22448,0.874496,-21.98875,-40.5475,-70.07,20.344002,-11.616,18.912,inter_set_rest,0,3.0,21177.0,148102.0,236651.0,286611.0,266355.0
2026-04-08 21:36:45.078165,93710,1609503377211659,977178066,-0.587552,-0.406016,0.837408,-31.75375,-42.8225,-67.50625,20.44,-10.992001,19.832,inter_set_rest,0,3.0,21177.0,148102.0,236651.0,286611.0,266355.0
2026-04-08 21:36:45.081757,93711,1609503377220552,977186720,-0.587552,-0.406016,0.837408,-49.21,-44.3975,-68.41625,20.44,-10.992001,19.832,inter_set_rest,0,3.0,21177.0,148102.0,236651.0,286611.0,266355.0
2026-04-08 21:36:45.085082,93712,1609503377235012,977201583,-0.532896,-0.3904,0.667584,-54.215,-44.170002,-70.2975,20.400002,-10.344001,19.160002,inter_set_rest,0,3.0,21177.0,148102.0,236651.0,286611.0,266355.0
2026-04-08 21:36:45.114501,93713,1609503377243953,977210296,-0.532896,-0.335744,0.735904,-53.0775,-42.857502,-73.3075,20.400002,-10.344001,21.208,inter_set_rest,0,3.0,21177.0,148102.0,236651.0,286611.0,266355.0
2026-04-08 21:36:45.143024,93724,1609503377258625,977225294,-0.355264,-0.335744,0.735904,-33.3375,-40.03125,-75.32875,19.936,-9.312,22.52,inter_set_rest,0,3.0,21734.0,150528.0,239530.0,288475.0,267379.0
2026-04-08 21:36:45.145522,93725,1609503377267591,977233950,-0.366976,-0.56608,0.847168,-23.21375,-39.59375,-69.965004,20.216002,-9.184,19.656,inter_set_rest,0,3.0,21734.0,150528.0,239530.0,288475.0,267379.0
2026-04-08 21:36:45.148002,93726,1609503377276524,977242647,-0.366976,-0.56608,0.847168,-12.792501,-38.045002,-66.35125,20.216002,-9.184,19.656,inter_set_rest,0,3.0,21734.0,150528.0,239530.0,288475.0,267379.0
2026-04-08 21:36:45.150518,93727,1609503377291028,977257621,-0.327936,-0.359168,0.8296,-22.4875,-40.18875,-68.4775,20.240002,-8.744,20.04,inter_set_rest,0,3.0,21734.0,150528.0,239530.0,288475.0,267379.0
2026-04-08 21:36:45.152983,93728,1609503377299959,977266325,-0.327936,-0.359168,0.8296,-26.145,-40.4075,-71.5575,20.240002,-8.744,20.04,inter_set_rest,0,3.0,21734.0,150528.0,239530.0,288475.0,267379.0
2026-04-08 21:36:45.180904,93729,1609503377314489,977281295,-0.320128,-0.421632,0.603168,-7.0875,-38.31625,-68.871254,20.152,-8.176001,20.312,inter_set_rest,0,3.0,21734.0,150528.0,239530.0,288475.0,267379.0
2026-04-08 21:36:45.182966,93730,1609503377323394,977289979,-0.320128,-0.421632,0.603168,-0.02625,-38.5175,-61.635002,20.152,-8.176001,20.312,inter_set_rest,0,3.0,21734.0,150528.0,239530.0,288475.0,267379.0
2026-04-08 21:36:45.185511,93731,1609503377337937,977304859,-0.25376,-0.47824,0.987712,-6.055,-39.2525,-55.335,19.896002,-7.952,20.6,inter_set_rest,0,3.0,21734.0,150528.0,239530.0,288475.0,267379.0
2026-04-08 21:36:45.244493,93732,1609503377346926,977313529,-0.201056,-0.620736,1.052128,-6.685,-34.72875,-52.9375,19.92,-7.592001,20.496,inter_set_rest,0,3.0,21734.0,150528.0,239530.0,288475.0,267379.0
2026-04-08 21:36:45.276726,93743,1609503377355967,977322248,-0.201056,-0.620736,1.052128,-0.23625,-22.82,-61.3375,19.92,-7.592001,20.496,inter_set_rest,0,3.0,21348.0,149842.0,239110.0,288271.0,267306.0
2026-04-08 21:36:45.279191,93744,1609503377370515,977337194,-0.333792,-0.72224,1.319552,18.48875,-6.16875,-64.12,20.232,-8.0,20.336,inter_set_rest,0,3.0,21348.0,149842.0,239110.0,288271.0,267306.0
2026-04-08 21:36:45.281712,93745,1609503377379453,977345846,-0.333792,-0.72224,1.319552,52.52625,7.98875,-50.19,20.232,-8.0,20.336,inter_set_rest,0,3.0,21348.0,149842.0,239110.0,288271.0,267306.0
2026-04-08 21:36:45.284209,93746,1609503377394068,977360730,-0.657824,-0.56608,1.011136,80.43,18.87375,-41.50125,20.6,-8.616,19.992,inter_set_rest,0,3.0,21348.0,149842.0,239110.0,288271.0,267306.0
2026-04-08 21:36:45.286696,93747,1609503377402992,977369394,-0.657824,-0.56608,1.011136,62.475,18.64625,-43.98625,20.6,-8.616,19.992,inter_set_rest,0,3.0,21348.0,149842.0,239110.0,288271.0,267306.0
2026-04-08 21:36:45.289146,93748,1609503377411911,977378081,-0.509472,-0.035136,0.862784,49.3675,17.26375,-56.8925,20.76,-8.336,21.576,inter_set_rest,0,3.0,21348.0,149842.0,239110.0,288271.0,267306.0
2026-04-08 21:36:45.291660,93749,1609503377426498,977393013,-0.238144,-0.433344,1.075552,36.56625,9.3625,-69.125,21.024,-8.216001,20.28,inter_set_rest,0,3.0,21348.0,149842.0,239110.0,288271.0,267306.0
2026-04-08 21:36:45.294159,93750,1609503377435474,977401717,-0.238144,-0.433344,1.075552,43.19,9.68625,-64.435,21.024,-8.216001,20.28,inter_set_rest,0,3.0,21348.0,149842.0,239110.0,288271.0,267306.0
2026-04-08 21:36:45.296698,93751,1609503377449994,977416632,-0.357216,-0.486048,0.841312,17.57875,5.3025,-33.95875,20.800001,-7.928001,19.704,inter_set_rest,0,3.0,21348.0,149842.0,239110.0,288271.0,267306.0
2026-04-08 21:36:45.324244,93762,1609503377459048,977425772,-0.357216,-0.486048,0.841312,-20.34375,-5.46875,-12.6875,20.800001,-7.928001,19.704,inter_set_rest,0,3.0,21173.0,148963.0,238136.0,287684.0,267023.0
2026-04-08 21:36:45.326730,93763,1609503377473684,977440704,-0.562176,-0.38064,0.72224,-42.5425,-10.7975,-21.8925,20.608002,-7.68,20.192001,inter_set_rest,0,3.0,21173.0,148963.0,238136.0,287684.0,267023.0
2026-04-08 21:36:45.330491,93764,1609503377482600,977449355,-0.562176,-0.38064,0.72224,-60.541252,-18.26125,-23.905,20.608002,-7.68,20.192001,inter_set_rest,0,3.0,21173.0,148963.0,238136.0,287684.0,267023.0
2026-04-08 21:36:45.360755,93765,1609503377491618,977458044,-0.425536,-0.23424,0.854976,-66.535,-23.6775,-18.45375,20.736,-6.728,20.576,inter_set_rest,0,3.0,21173.0,148963.0,238136.0,287684.0,267023.0
2026-04-08 21:36:45.364257,93766,1609503377506118,977472933,-0.421632,-0.445056,0.79056,-60.92625,-24.6225,-3.115,20.352001,-6.008,21.544,inter_set_rest,0,3.0,21173.0,148963.0,238136.0,287684.0,267023.0
2026-04-08 21:36:45.366746,93767,1609503377515020,977481585,-0.421632,-0.445056,0.79056,-63.822502,-24.78,-0.0175,20.352001,-6.008,21.544,inter_set_rest,0,3.0,21173.0,148963.0,238136.0,287684.0,267023.0
2026-04-08 21:36:45.396973,93768,1609503377529519,977496503,-0.589504,-0.694912,0.593408,-63.56,-19.99375,-13.448751,20.36,-5.424,21.096,inter_set_rest,0,3.0,21173.0,148963.0,238136.0,287684.0,267023.0
2026-04-08 21:36:45.400557,93769,1609503377538437,977505182,-0.589504,-0.694912,0.593408,-50.04125,-12.8275,-33.60875,20.36,-5.424,21.096,inter_set_rest,0,3.0,21173.0,148963.0,238136.0,287684.0,267023.0
2026-04-08 21:36:45.428047,93780,1609503377552906,977520052,-0.525088,-0.431392,0.589504,-21.07875,-3.5175,-49.11375,20.608002,-5.776001,22.584002,inter_set_rest,0,3.0,21130.0,149283.0,238521.0,287888.0,267108.0
2026-04-08 21:36:45.432966,93781,1609503377561920,977528760,-0.525088,-0.431392,0.589504,9.02125,0.525,-41.895,20.608002,-5.776001,22.584002,inter_set_rest,0,3.0,21130.0,149283.0,238521.0,287888.0,267108.0
2026-04-08 21:36:45.435469,93782,1609503377570941,977537465,-0.573888,-0.472384,0.612928,25.3225,2.8175,-40.0575,20.256,-5.448,21.752,inter_set_rest,0,3.0,21130.0,149283.0,238521.0,287888.0,267108.0
2026-04-08 21:36:45.437999,93783,1609503377585422,977552353,-0.573888,-0.472384,0.612928,20.3525,-0.83125,-36.21625,20.256,-5.448,21.752,inter_set_rest,0,3.0,21130.0,149283.0,238521.0,287888.0,267108.0
2026-04-08 21:36:45.443000,93784,1609503377594352,977561056,-0.460672,-0.589504,0.753472,21.2975,-2.79125,-37.1525,20.712002,-5.664,21.528002,inter_set_rest,0,3.0,21130.0,149283.0,238521.0,287888.0,267108.0
2026-04-08 21:36:45.473198,93785,1609503377608829,977575940,-0.597312,-0.417728,0.67344,31.928751,-1.645,-43.575,21.144001,-5.856,21.528002,inter_set_rest,0,3.0,21130.0,149283.0,238521.0,287888.0,267108.0
2026-04-08 21:36:45.476746,93786,1609503377617770,977584689,-0.597312,-0.417728,0.67344,37.58125,-2.3275,-43.82875,21.144001,-5.856,21.528002,inter_set_rest,0,3.0,21130.0,149283.0,238521.0,287888.0,267108.0
2026-04-08 21:36:45.479222,93787,1609503377632226,977597489,-0.636352,-0.511424,0.837408,41.2825,-4.235,-40.1275,21.216002,-6.24,20.712002,inter_set_rest,0,3.0,21130.0,149283.0,238521.0,287888.0,267108.0
2026-04-08 21:36:45.533279,93788,1609503377641548,977608217,-0.636352,-0.511424,0.837408,47.145,-4.90875,-41.06375,21.216002,-6.24,20.712002,inter_set_rest,0,3.0,21130.0,149283.0,238521.0,287888.0,267108.0
2026-04-08 21:36:45.536862,93789,1609503377650474,977616902,-0.558272,-0.44896,0.84912,45.5175,-3.2375,-53.69875,21.256,-6.000001,20.720001,inter_set_rest,0,3.0,21130.0,149283.0,238521.0,287888.0,267108.0
2026-04-08 21:36:45.567960,93800,1609503377664982,977631821,-0.558272,-0.44896,0.84912,39.26125,-1.53125,-66.82375,21.256,-6.000001,20.720001,inter_set_rest,0,3.0,20691.0,147921.0,237096.0,286982.0,266666.0
2026-04-08 21:36:45.570481,93801,1609503377673883,977640497,-0.616832,-0.316224,0.835456,46.0075,2.70375,-71.19,21.112001,-5.944,18.064001,inter_set_rest,0,3.0,20691.0,147921.0,237096.0,286982.0,266666.0
2026-04-08 21:36:45.573031,93802,1609503377688350,977655341,-0.65392,-0.44896,0.851072,44.7825,-1.1375,-63.07875,21.176,-5.72,22.608002,inter_set_rest,0,3.0,20691.0,147921.0,237096.0,286982.0,266666.0
2026-04-08 21:36:45.575473,93803,1609503377697475,977664052,-0.65392,-0.44896,0.851072,35.7,-11.29625,-53.8475,21.176,-5.72,22.608002,inter_set_rest,0,3.0,20691.0,147921.0,237096.0,286982.0,266666.0
2026-04-08 21:36:45.578653,93804,1609503377706443,977672734,-0.65392,-0.44896,0.851072,16.54625,-17.96375,-55.02875,21.176,-5.72,22.608002,inter_set_rest,0,3.0,20691.0,147921.0,237096.0,286982.0,266666.0
2026-04-08 21:36:45.580814,93805,1609503377720975,977687670,-0.503616,-0.40016,0.646112,-21.90125,-24.8325,-62.3525,21.2,-5.104,22.096,inter_set_rest,0,3.0,20691.0,147921.0,237096.0,286982.0,266666.0
2026-04-08 21:36:45.583031,93806,1609503377729912,977696357,-0.421632,-0.398208,0.812032,-33.08375,-22.2775,-63.9275,21.056002,-4.912,20.648,inter_set_rest,0,3.0,20691.0,147921.0,237096.0,286982.0,266666.0
2026-04-08 21:36:45.614528,93807,1609503377744529,977711309,-0.421632,-0.398208,0.812032,-35.16625,-24.465,-58.37125,21.056002,-4.912,20.648,inter_set_rest,0,3.0,20691.0,147921.0,237096.0,286982.0,266666.0
2026-04-08 21:36:45.617994,93808,1609503377753432,977719987,-0.206912,-0.304512,0.827648,-31.053751,-29.77625,-49.77875,20.568,-4.592,21.128,inter_set_rest,0,3.0,20691.0,147921.0,237096.0,286982.0,266666.0
2026-04-08 21:36:45.649272,93819,1609503377767972,977734945,-0.18544,-0.640256,0.589504,-19.8625,-35.18375,-44.388752,20.504002,-4.04,22.768002,inter_set_rest,0,3.0,21062.0,149244.0,238575.0,287861.0,267131.0
2026-04-08 21:36:45.652134,93820,1609503377776918,977743661,-0.18544,-0.640256,0.589504,-24.80625,-43.91625,-33.27625,20.504002,-4.04,22.768002,inter_set_rest,0,3.0,21062.0,149244.0,238575.0,287861.0,267131.0
2026-04-08 21:36:45.654258,93821,1609503377785832,977752387,-0.18544,-0.640256,0.589504,-29.5925,-45.03625,-27.6675,20.504002,-4.04,22.768002,inter_set_rest,0,3.0,21062.0,149244.0,238575.0,287861.0,267131.0
2026-04-08 21:36:45.657983,93822,1609503377800343,977767304,-0.179584,-0.618784,0.714432,-32.7075,-36.35625,-38.3075,20.0,-3.472,20.008001,inter_set_rest,0,3.0,21062.0,149244.0,238575.0,287861.0,267131.0
2026-04-08 21:36:45.659427,93823,1609503377809279,977775991,-0.148352,-0.396256,0.95648,-16.555,-29.741251,-43.23375,19.744001,-3.08,21.256,inter_set_rest,0,3.0,21062.0,149244.0,238575.0,287861.0,267131.0
2026-04-08 21:36:45.691947,93824,1609503377823772,977790881,-0.148352,-0.396256,0.95648,23.28375,-30.87,-36.225,19.744001,-3.08,21.256,inter_set_rest,0,3.0,21062.0,149244.0,238575.0,287861.0,267131.0
2026-04-08 21:36:45.695525,93825,1609503377832675,977799517,0.003904,-0.525088,0.817888,48.43125,-39.3225,-27.02,19.448002,-3.704,21.84,inter_set_rest,0,3.0,21062.0,149244.0,238575.0,287861.0,267131.0
2026-04-08 21:36:45.697978,93826,1609503377847143,977812375,0.003904,-0.525088,0.817888,44.89625,-43.14625,-29.58375,19.448002,-3.704,21.84,inter_set_rest,0,3.0,21062.0,149244.0,238575.0,287861.0,267131.0
2026-04-08 21:36:45.726752,93837,1609503377856622,977823157,-0.16592,-0.62464,0.589504,18.71625,-42.07,-31.7625,19.336,-3.632,22.544,inter_set_rest,0,3.0,21035.0,149686.0,239377.0,288541.0,267552.0
2026-04-08 21:36:45.729248,93838,1609503377865636,977831970,-0.16592,-0.62464,0.589504,10.9725,-36.68875,-27.65,19.336,-3.632,22.544,inter_set_rest,0,3.0,21035.0,149686.0,239377.0,288541.0,267552.0
2026-04-08 21:36:45.732573,93839,1609503377880168,977846864,-0.244,-0.50752,0.96624,21.866251,-37.37125,-25.40125,18.720001,-4.616,22.376001,inter_set_rest,0,3.0,21035.0,149686.0,239377.0,288541.0,267552.0
2026-04-08 21:36:45.737292,93840,1609503377889127,977855554,-0.17568,-0.476288,1.038464,51.73875,-40.6175,-20.4575,18.376001,-4.992,22.448002,inter_set_rest,0,3.0,21035.0,149686.0,239377.0,288541.0,267552.0
2026-04-08 21:36:45.766906,93841,1609503377903619,977870426,-0.17568,-0.476288,1.038464,60.71625,-43.732502,-17.33375,18.376001,-4.992,22.448002,inter_set_rest,0,3.0,21035.0,149686.0,239377.0,288541.0,267552.0
2026-04-08 21:36:45.770476,93842,1609503377912536,977879078,-0.212768,-0.466528,0.691008,36.4,-43.925,-23.275,18.272001,-4.664,22.376001,inter_set_rest,0,3.0,21035.0,149686.0,239377.0,288541.0,267552.0
2026-04-08 21:36:45.772959,93843,1609503377921472,977887732,-0.212768,-0.466528,0.691008,10.70125,-42.8925,-23.9225,18.272001,-4.664,22.376001,inter_set_rest,0,3.0,21035.0,149686.0,239377.0,288541.0,267552.0
2026-04-08 21:36:45.835717,93844,1609503377935991,977902597,-0.290848,-0.394304,1.065792,17.491251,-43.44375,-11.05125,17.12,-5.08,24.416,inter_set_rest,0,3.0,21035.0,149686.0,239377.0,288541.0,267552.0
2026-04-08 21:36:45.839192,93845,1609503377944902,977911269,-0.290848,-0.394304,1.065792,44.86125,-42.11375,-5.6175,17.12,-5.08,24.416,inter_set_rest,0,3.0,21035.0,149686.0,239377.0,288541.0,267552.0
2026-04-08 21:36:45.866708,93856,1609503377959864,977926371,-0.355264,-0.47824,0.911584,57.225,-40.565,-14.245,17.528002,-5.84,22.560001,inter_set_rest,0,3.0,20738.0,149116.0,239147.0,288683.0,267721.0
2026-04-08 21:36:45.869267,93857,1609503377968816,977935056,-0.286944,-0.427488,0.74176,41.27375,-42.49,-22.58375,17.528002,-5.84,23.592001,inter_set_rest,0,3.0,20738.0,149116.0,239147.0,288683.0,267721.0
2026-04-08 21:36:45.871685,93858,1609503377983288,977949922,-0.286944,-0.427488,0.74176,17.99,-45.8675,-23.14375,16.792002,-5.712,23.592001,inter_set_rest,0,3.0,20738.0,149116.0,239147.0,288683.0,267721.0
2026-04-08 21:36:45.874150,93859,1609503377992199,977958625,-0.269376,-0.318176,1.022848,4.13875,-51.170002,-15.627501,15.888001,-5.536,22.832,inter_set_rest,0,3.0,20738.0,149116.0,239147.0,288683.0,267721.0
2026-04-08 21:36:45.876716,93860,1609503378001133,977967317,-0.269376,-0.318176,1.022848,8.33,-57.75875,-8.40875,15.888001,-5.536,22.832,inter_set_rest,0,3.0,20738.0,149116.0,239147.0,288683.0,267721.0
2026-04-08 21:36:45.879352,93861,1609503378015727,977982268,-0.251808,-0.499712,0.757376,19.50375,-58.7125,-11.165,15.264001,-5.608,26.056002,inter_set_rest,0,3.0,20738.0,149116.0,239147.0,288683.0,267721.0
2026-04-08 21:36:45.881658,93862,1609503378024633,977990939,-0.251808,-0.499712,0.757376,10.01875,-55.3175,-22.295,15.264001,-5.608,26.056002,inter_set_rest,0,3.0,20738.0,149116.0,239147.0,288683.0,267721.0
2026-04-08 21:36:45.886668,93863,1609503378039147,978005817,-0.216672,-0.316224,0.823744,-2.065,-47.17125,-22.88125,14.984001,-5.432,24.024002,inter_set_rest,0,3.0,20738.0,149116.0,239147.0,288683.0,267721.0
2026-04-08 21:36:45.916882,93864,1609503378048082,978014524,-0.216672,-0.316224,0.823744,-4.0075,-37.4325,-14.58625,14.984001,-5.432,24.024002,inter_set_rest,0,3.0,20738.0,149116.0,239147.0,288683.0,267721.0
2026-04-08 21:36:45.945435,93875,1609503378062752,978029417,-0.218624,-0.32208,1.040416,7.11375,-34.055,-5.8275,15.048,-6.176,23.592001,inter_set_rest,0,3.0,20779.0,149510.0,239765.0,289088.0,267949.0
2026-04-08 21:36:45.947957,93876,1609503378071665,978038142,-0.18544,-0.581696,1.081408,24.14125,-37.1525,-6.0025,14.392001,-6.256001,23.696001,inter_set_rest,0,3.0,20779.0,149510.0,239765.0,289088.0,267949.0
2026-04-08 21:36:45.950458,93877,1609503378080603,978046827,-0.18544,-0.581696,1.081408,21.67375,-45.03625,-9.40625,14.392001,-6.256001,23.696001,inter_set_rest,0,3.0,20779.0,149510.0,239765.0,289088.0,267949.0
2026-04-08 21:36:45.952919,93878,1609503378095094,978061709,-0.021472,-0.349408,0.755424,9.45,-49.0525,-16.24875,13.584001,-6.408001,23.76,inter_set_rest,0,3.0,20779.0,149510.0,239765.0,289088.0,267949.0
2026-04-08 21:36:45.955446,93879,1609503378104028,978070382,-0.021472,-0.349408,0.755424,2.4675,-44.02125,-22.77625,13.584001,-6.408001,23.76,inter_set_rest,0,3.0,20779.0,149510.0,239765.0,289088.0,267949.0
2026-04-08 21:36:45.985687,93880,1609503378118605,978085279,-0.232288,-0.265472,0.80032,20.685,-32.36625,-21.647501,13.848001,-7.008,23.952002,inter_set_rest,0,3.0,20779.0,149510.0,239765.0,289088.0,267949.0
2026-04-08 21:36:45.989222,93881,1609503378127534,978093960,-0.232288,-0.265472,0.80032,32.48875,-27.85125,-6.37,13.848001,-7.008,23.952002,inter_set_rest,0,3.0,20779.0,149510.0,239765.0,289088.0,267949.0
2026-04-08 21:36:45.991756,93882,1609503378136446,978102608,-0.267424,-0.501664,0.833504,43.6975,-28.6825,5.17125,12.952001,-7.24,23.824001,inter_set_rest,0,3.0,20779.0,149510.0,239765.0,289088.0,267949.0
2026-04-08 21:36:46.021998,93883,1609503378151014,978117464,-0.163968,-0.41968,0.79056,32.96125,-32.27,5.7575,12.280001,-7.152,24.632002,inter_set_rest,0,3.0,20779.0,149510.0,239765.0,289088.0,267949.0
2026-04-08 21:36:46.050508,93894,1609503378160147,978126236,-0.163968,-0.41968,0.79056,1.79375,-40.6,-6.74625,12.280001,-7.152,24.632002,inter_set_rest,0,3.0,20786.0,149702.0,240174.0,289523.0,268228.0
2026-04-08 21:36:46.052975,93895,1609503378174680,978141122,-0.121024,-0.242048,0.860832,-7.14875,-38.9375,-18.165,12.392,-6.976,24.272001,inter_set_rest,0,3.0,20786.0,149702.0,240174.0,289523.0,268228.0
2026-04-08 21:36:46.056286,93896,1609503378183609,978149789,-0.121024,-0.242048,0.860832,-5.13625,-38.3075,-10.8675,12.392,-6.976,24.272001,inter_set_rest,0,3.0,20786.0,149702.0,240174.0,289523.0,268228.0
2026-04-08 21:36:46.058789,93897,1609503378198149,978164747,-0.085888,-0.435296,0.815936,-4.3575,-38.78875,-0.6125,11.856001,-6.928001,25.328001,inter_set_rest,0,3.0,20786.0,149702.0,240174.0,289523.0,268228.0
2026-04-08 21:36:46.060763,93898,1609503378207107,978173438,-0.085888,-0.435296,0.815936,-16.31875,-40.0575,3.40375,11.856001,-6.928001,25.328001,inter_set_rest,0,3.0,20786.0,149702.0,240174.0,289523.0,268228.0
2026-04-08 21:36:46.062928,93899,1609503378216177,978182119,0.072224,-0.591456,1.079456,-23.21375,-40.11875,4.305,11.336,-6.84,25.240002,inter_set_rest,0,3.0,20786.0,149702.0,240174.0,289523.0,268228.0
2026-04-08 21:36:46.093111,93900,1609503378230656,978196973,0.228384,-0.513376,1.059936,-23.9575,-34.8775,6.11625,11.336,-6.816001,24.36,inter_set_rest,0,3.0,20786.0,149702.0,240174.0,289523.0,268228.0
2026-04-08 21:36:46.096801,93901,1609503378239590,978205665,0.228384,-0.513376,1.059936,-7.34125,-24.59625,9.24875,11.416,-6.816001,24.36,inter_set_rest,0,3.0,20786.0,149702.0,240174.0,289523.0,268228.0
2026-04-08 21:36:46.101803,93902,1609503378254076,978220523,0.05856,-0.46848,1.097024,3.35125,-18.34,17.465,10.896001,-7.336,24.536001,inter_set_rest,0,3.0,20786.0,149702.0,240174.0,289523.0,268228.0
2026-04-08 21:36:46.162961,93913,1609503378263120,978229241,0.05856,-0.46848,1.097024,5.3725,-18.3225,25.095,10.896001,-7.336,24.536001,inter_set_rest,0,3.0,20936.0,150168.0,240600.0,289830.0,268395.0
2026-04-08 21:36:46.165467,93914,1609503378277634,978244178,-0.066368,-0.4392,0.962336,6.5975,-18.94375,24.710001,10.752001,-7.232,24.68,inter_set_rest,0,3.0,20936.0,150168.0,240600.0,289830.0,268395.0
2026-04-08 21:36:46.168036,93915,1609503378286553,978252842,-0.066368,-0.4392,0.962336,5.1975,-20.3525,19.635,10.752001,-7.232,24.68,inter_set_rest,0,3.0,20936.0,150168.0,240600.0,289830.0,268395.0
2026-04-08 21:36:46.173001,93916,1609503378295440,978261496,0.0,-0.36112,0.948672,9.31875,-20.2475,13.64125,10.584001,-7.944,24.544,inter_set_rest,0,3.0,20936.0,150168.0,240600.0,289830.0,268395.0
2026-04-08 21:36:46.175514,93917,1609503378309938,978276370,0.0,-0.36112,0.948672,18.57625,-17.54375,9.28375,10.584001,-7.944,24.544,inter_set_rest,0,3.0,20936.0,150168.0,240600.0,289830.0,268395.0
2026-04-08 21:36:46.178041,93918,1609503378318882,978285086,0.044896,-0.433344,0.940864,15.82,-15.42625,8.7325,10.136001,-8.384001,24.624,inter_set_rest,0,3.0,20936.0,150168.0,240600.0,289830.0,268395.0
2026-04-08 21:36:46.184232,93919,1609503378333369,978300070,-0.091744,-0.505568,0.823744,7.4375,-17.12375,9.7475,9.672001,-8.264,25.528002,inter_set_rest,0,3.0,20936.0,150168.0,240600.0,289830.0,268395.0
2026-04-08 21:36:46.189213,93920,1609503378342312,978308757,-0.091744,-0.505568,0.823744,2.77375,-22.12,10.85875,9.672001,-8.264,25.528002,inter_set_rest,0,3.0,20936.0,150168.0,240600.0,289830.0,268395.0
2026-04-08 21:36:46.219746,93921,1609503378356782,978323676,-0.044896,-0.242048,0.767136,1.8025,-28.37625,12.18,9.232,-8.464001,25.160002,inter_set_rest,0,3.0,20936.0,150168.0,240600.0,289830.0,268395.0
2026-04-08 21:36:46.247952,93932,1609503378365772,978332430,-0.044896,-0.242048,0.767136,16.415,-31.928751,12.95875,9.232,-8.464001,25.160002,inter_set_rest,0,3.0,21257.0,151410.0,241973.0,290749.0,268897.0
2026-04-08 21:36:46.250504,93933,1609503378374679,978341096,0.07808,-0.35136,0.8784,37.1525,-33.57375,11.1825,8.824,-8.856,24.800001,inter_set_rest,0,3.0,21257.0,151410.0,241973.0,290749.0,268897.0
2026-04-08 21:36:46.252991,93934,1609503378389243,978355955,0.07808,-0.35136,0.8784,32.96125,-33.29375,4.5325,8.824,-8.856,24.800001,inter_set_rest,0,3.0,21257.0,151410.0,241973.0,290749.0,268897.0
2026-04-08 21:36:46.255497,93935,1609503378398205,978364673,0.124928,-0.51728,0.806176,8.9775,-32.26125,0.21,8.456,-8.832001,25.232,inter_set_rest,0,3.0,21257.0,151410.0,241973.0,290749.0,268897.0
2026-04-08 21:36:46.260512,93936,1609503378412679,978379568,0.076128,-0.474336,0.931104,-4.50625,-32.1475,5.69625,8.072001,-8.768001,25.344002,inter_set_rest,0,3.0,21257.0,151410.0,241973.0,290749.0,268897.0
2026-04-08 21:36:46.290741,93937,1609503378421572,978388230,0.076128,-0.474336,0.931104,0.3325,-35.175,16.72125,8.072001,-8.768001,25.344002,inter_set_rest,0,3.0,21257.0,151410.0,241973.0,290749.0,268897.0
2026-04-08 21:36:46.294328,93938,1609503378436053,978403101,0.03904,-0.33184,0.843264,16.73,-37.1875,20.265,7.712,-9.712001,24.784,inter_set_rest,0,3.0,21257.0,151410.0,241973.0,290749.0,268897.0
2026-04-08 21:36:46.297952,93939,1609503378444949,978411775,0.03904,-0.33184,0.843264,29.75,-39.1125,15.785,7.712,-9.712001,24.784,inter_set_rest,0,3.0,21257.0,151410.0,241973.0,290749.0,268897.0
2026-04-08 21:36:46.300594,93940,1609503378453945,978420442,0.095648,-0.284992,0.909632,38.9025,-39.9,10.85875,6.328,-9.808001,25.496,inter_set_rest,0,3.0,21257.0,151410.0,241973.0,290749.0,268897.0
2026-04-08 21:36:46.330489,93951,1609503378468842,978435483,0.095648,-0.284992,0.909632,45.15,-40.52125,10.535,6.328,-9.808001,25.496,inter_set_rest,0,3.0,20595.0,149739.0,240305.0,289692.0,268343.0
2026-04-08 21:36:46.335521,93952,1609503378477812,978444169,0.105408,-0.384544,0.979904,40.76625,-40.94125,13.0725,6.424,-10.664001,24.840002,inter_set_rest,0,3.0,20595.0,149739.0,240305.0,289692.0,268343.0
2026-04-08 21:36:46.339286,93953,1609503378492331,978459108,0.085888,-0.181536,0.856928,30.0125,-42.41125,15.5925,6.424,-10.664001,24.28,inter_set_rest,0,3.0,20595.0,149739.0,240305.0,289692.0,268343.0
2026-04-08 21:36:46.369370,93954,1609503378501281,978467779,0.085888,-0.181536,0.856928,20.53625,-41.72,12.74875,6.184001,-10.440001,24.28,inter_set_rest,0,3.0,20595.0,149739.0,240305.0,289692.0,268343.0
2026-04-08 21:36:46.372980,93955,1609503378510208,978476474,0.085888,-0.181536,0.856928,15.505,-38.0975,0.2625,6.184001,-10.440001,24.28,inter_set_rest,0,3.0,20595.0,149739.0,240305.0,289692.0,268343.0
2026-04-08 21:36:46.375664,93956,1609503378524699,978491326,0.023424,0.013664,0.825696,10.33375,-44.79125,-13.011251,5.504,-10.88,24.640001,inter_set_rest,0,3.0,20595.0,149739.0,240305.0,289692.0,268343.0
2026-04-08 21:36:46.380524,93957,1609503378533652,978500097,0.111264,-0.152256,1.009184,20.685,-51.52,-16.975,4.92,-11.216001,25.808,inter_set_rest,0,3.0,20595.0,149739.0,240305.0,289692.0,268343.0
2026-04-08 21:36:46.435709,93958,1609503378548112,978514970,0.111264,-0.152256,1.009184,22.925,-54.80125,-18.90875,4.92,-11.216001,25.808,inter_set_rest,0,3.0,20595.0,149739.0,240305.0,289692.0,268343.0
2026-04-08 21:36:46.439257,93959,1609503378557050,978523654,0.05856,-0.388448,0.964288,21.3675,-54.1625,-20.6325,4.592,-11.456,24.840002,inter_set_rest,0,3.0,20595.0,149739.0,240305.0,289692.0,268343.0
2026-04-08 21:36:46.499256,93970,1609503378571722,978538620,0.05856,-0.388448,0.964288,15.0325,-54.5825,-21.48125,4.592,-11.456,24.840002,inter_set_rest,0,3.0,19996.0,147879.0,238426.0,288511.0,267736.0
2026-04-08 21:36:46.501709,93971,1609503378580681,978547300,0.130784,-0.26352,0.831552,-9.21375,-56.638752,-19.01375,3.952,-11.512,25.888,inter_set_rest,0,3.0,19996.0,147879.0,238426.0,288511.0,267736.0
2026-04-08 21:36:46.504483,93972,1609503378589615,978555958,0.130784,-0.26352,0.831552,-20.4925,-56.603752,-20.965,3.952,-11.512,25.888,inter_set_rest,0,3.0,19996.0,147879.0,238426.0,288511.0,267736.0
2026-04-08 21:36:46.506697,93973,1609503378604131,978570911,0.1952,-0.238144,0.733952,-13.34375,-55.71125,-21.55125,3.568,-11.016001,24.920002,inter_set_rest,0,3.0,19996.0,147879.0,238426.0,288511.0,267736.0
2026-04-08 21:36:46.509252,93974,1609503378613039,978579570,0.25376,-0.394304,0.870592,-11.6025,-57.3475,-22.68,3.568,-11.016001,24.952002,inter_set_rest,0,3.0,19996.0,147879.0,238426.0,288511.0,267736.0
2026-04-08 21:36:46.511734,93975,1609503378627517,978594399,0.25376,-0.394304,0.870592,-14.20125,-58.54625,-24.75375,2.76,-10.632001,24.952002,inter_set_rest,0,3.0,19996.0,147879.0,238426.0,288511.0,267736.0
2026-04-08 21:36:46.514208,93976,1609503378636499,978603093,0.269376,-0.503616,0.99552,-11.10375,-58.8,-25.62,2.24,-10.584001,25.632002,inter_set_rest,0,3.0,19996.0,147879.0,238426.0,288511.0,267736.0
2026-04-08 21:36:46.516696,93977,1609503378650978,978617981,0.269376,-0.503616,0.99552,-7.4725,-57.732502,-27.81625,2.24,-10.584001,25.632002,inter_set_rest,0,3.0,19996.0,147879.0,238426.0,288511.0,267736.0
2026-04-08 21:36:46.544216,93988,1609503378659917,978626743,0.255712,-0.368928,0.786656,-2.70375,-56.88375,-29.44375,2.112,-11.032001,25.144001,inter_set_rest,0,3.0,20010.0,147971.0,238552.0,288602.0,267775.0
2026-04-08 21:36:46.546737,93989,1609503378668874,978635467,0.255712,-0.368928,0.786656,7.07875,-55.90375,-29.49625,2.112,-11.032001,25.144001,inter_set_rest,0,3.0,20010.0,147971.0,238552.0,288602.0,267775.0
2026-04-08 21:36:46.549266,93990,1609503378683379,978650362,0.277184,-0.187392,0.870592,14.86625,-56.945,-30.5375,1.936,-11.392,25.192001,inter_set_rest,0,3.0,20010.0,147971.0,238552.0,288602.0,267775.0
2026-04-08 21:36:46.551696,93991,1609503378692454,978659044,0.277184,-0.187392,0.870592,14.6475,-58.91375,-33.145,1.936,-11.392,25.192001,inter_set_rest,0,3.0,20010.0,147971.0,238552.0,288602.0,267775.0
2026-04-08 21:36:46.556689,93992,1609503378706990,978673939,0.183488,-0.222528,0.75152,13.71125,-59.82375,-34.125,1.224,-11.480001,26.656002,inter_set_rest,0,3.0,20010.0,147971.0,238552.0,288602.0,267775.0
2026-04-08 21:36:46.562978,93993,1609503378715903,978682653,0.216672,-0.31232,0.745664,11.9525,-60.34,-32.94375,0.544,-11.6,25.528002,inter_set_rest,0,3.0,20010.0,147971.0,238552.0,288602.0,267775.0
2026-04-08 21:36:46.593098,93994,1609503378730435,978697551,0.216672,-0.31232,0.745664,6.81625,-60.55,-33.62625,0.544,-11.6,25.528002,inter_set_rest,0,3.0,20010.0,147971.0,238552.0,288602.0,267775.0
2026-04-08 21:36:46.596789,93995,1609503378739370,978706205,0.255712,-0.23424,0.743712,3.6575,-60.22625,-36.54,0.192,-11.584001,25.376001,inter_set_rest,0,3.0,20010.0,147971.0,238552.0,288602.0,267775.0
2026-04-08 21:36:46.599267,93996,1609503378748290,978714863,0.255712,-0.23424,0.743712,2.70375,-59.8675,-39.6725,0.192,-11.584001,25.376001,inter_set_rest,0,3.0,20010.0,147971.0,238552.0,288602.0,267775.0
2026-04-08 21:36:46.659214,94007,1609503378763234,978729807,0.304512,-0.169824,0.679296,1.00625,-60.06875,-41.51,-0.672,-11.576,26.208002,inter_set_rest,0,3.0,19863.0,147488.0,237969.0,288153.0,267517.0
2026-04-08 21:36:46.661733,94008,1609503378772311,978738548,0.304512,-0.169824,0.679296,-0.9275,-60.0775,-41.88625,-0.672,-11.576,26.208002,inter_set_rest,0,3.0,19863.0,147488.0,237969.0,288153.0,267517.0
2026-04-08 21:36:46.664294,94009,1609503378786804,978753398,0.304512,-0.218624,0.743712,-4.2525,-60.92625,-42.74375,-1.144,-11.704,24.968,inter_set_rest,0,3.0,19863.0,147488.0,237969.0,288153.0,267517.0
2026-04-08 21:36:46.666777,94010,1609503378795932,978762070,0.372832,-0.40016,0.757376,-7.5425,-61.5475,-43.14625,-1.48,-11.912001,25.168001,inter_set_rest,0,3.0,19863.0,147488.0,237969.0,288153.0,267517.0
2026-04-08 21:36:46.669290,94011,1609503378804879,978770802,0.372832,-0.40016,0.757376,-9.73875,-61.285,-39.68125,-1.48,-11.912001,25.168001,inter_set_rest,0,3.0,19863.0,147488.0,237969.0,288153.0,267517.0
2026-04-08 21:36:46.671779,94012,1609503378819417,978785710,0.454816,-0.306464,0.815936,-8.2425,-60.6375,-35.1575,-2.184,-11.632001,27.248001,inter_set_rest,0,3.0,19863.0,147488.0,237969.0,288153.0,267517.0
2026-04-08 21:36:46.675503,94013,1609503378828332,978794402,0.454816,-0.306464,0.815936,-1.89,-59.605,-31.4475,-2.184,-11.632001,27.248001,inter_set_rest,0,3.0,19863.0,147488.0,237969.0,288153.0,267517.0
2026-04-08 21:36:46.735786,94014,1609503378842847,978809289,0.363072,-0.12688,0.76128,5.06625,-60.4275,-29.70625,-2.664,-12.032001,26.552002,inter_set_rest,0,3.0,19863.0,147488.0,237969.0,288153.0,267517.0
2026-04-08 21:36:46.739288,94015,1609503378851815,978818030,0.363072,-0.12688,0.76128,7.39375,-62.055,-30.73,-2.664,-12.032001,26.552002,inter_set_rest,0,3.0,19863.0,147488.0,237969.0,288153.0,267517.0
2026-04-08 21:36:46.769341,94026,1609503378866413,978833387,0.38064,-0.158112,0.618784,5.32875,-64.96875,-34.3525,-3.136,-11.824,25.272001,inter_set_rest,0,3.0,19594.0,146555.0,236861.0,287286.0,267035.0
2026-04-08 21:36:46.772863,94027,1609503378875288,978842035,0.503616,-0.339648,0.942816,1.8025,-66.29,-39.83875,-3.6,-12.408001,25.224,inter_set_rest,0,3.0,19594.0,146555.0,236861.0,287286.0,267035.0
2026-04-08 21:36:46.774262,94028,1609503378884183,978850684,0.503616,-0.339648,0.942816,-4.4275,-65.65125,-43.02375,-3.6,-12.408001,25.224,inter_set_rest,0,3.0,19594.0,146555.0,236861.0,287286.0,267035.0
2026-04-08 21:36:46.777191,94029,1609503378898637,978865538,0.560224,-0.406016,0.851072,-8.0675,-65.31875,-40.31125,-4.104,-12.576,24.952002,inter_set_rest,0,3.0,19594.0,146555.0,236861.0,287286.0,267035.0
2026-04-08 21:36:46.780083,94030,1609503378907792,978874269,0.560224,-0.406016,0.851072,-4.34875,-63.30625,-35.455,-4.104,-12.576,24.952002,inter_set_rest,0,3.0,19594.0,146555.0,236861.0,287286.0,267035.0
2026-04-08 21:36:46.781993,94031,1609503378922420,978889151,0.56608,-0.232288,0.833504,5.39,-60.41,-32.576252,-5.016,-12.472,26.080002,inter_set_rest,0,3.0,19594.0,146555.0,236861.0,287286.0,267035.0
2026-04-08 21:36:46.784273,94032,1609503378931418,978897838,0.56608,-0.232288,0.833504,12.69625,-58.63375,-32.62875,-5.016,-12.472,26.080002,inter_set_rest,0,3.0,19594.0,146555.0,236861.0,287286.0,267035.0
2026-04-08 21:36:46.787999,94033,1609503378940412,978906605,0.616832,-0.0976,0.823744,16.0475,-57.2425,-34.16875,-5.136,-13.000001,26.048,inter_set_rest,0,3.0,19594.0,146555.0,236861.0,287286.0,267035.0
2026-04-08 21:36:46.818261,94034,1609503378954883,978921490,0.616832,-0.17568,0.798368,14.07875,-54.78375,-36.715,-5.136,-13.000001,26.048,inter_set_rest,0,3.0,19594.0,146555.0,236861.0,287286.0,267035.0
2026-04-08 21:36:46.850517,94045,1609503378964310,978930247,0.66368,-0.18544,0.798368,9.415,-47.46875,-36.19875,-5.344,-12.968,25.184002,inter_set_rest,0,3.0,19597.0,146080.0,236115.0,286640.0,266639.0
2026-04-08 21:36:46.853250,94046,1609503378978810,978945166,0.831552,-0.173728,1.065792,4.73375,-36.04125,-28.34125,-5.520001,-13.040001,25.12,inter_set_rest,0,3.0,19597.0,146080.0,236115.0,286640.0,266639.0
2026-04-08 21:36:46.855456,94047,1609503378987779,978953873,0.831552,-0.173728,1.065792,0.49,-26.17125,-16.23125,-5.520001,-13.040001,25.12,inter_set_rest,0,3.0,19597.0,146080.0,236115.0,286640.0,266639.0
2026-04-08 21:36:46.858073,94048,1609503379002220,978968798,0.763232,-0.230336,0.782752,-8.0325,-16.68625,-6.3875,-5.856,-12.928,26.136002,inter_set_rest,0,3.0,19597.0,146080.0,236115.0,286640.0,266639.0
2026-04-08 21:36:46.861027,94049,1609503379011146,978977513,0.763232,-0.230336,0.782752,-12.565,-9.28375,3.45625,-5.856,-12.928,26.136002,inter_set_rest,0,3.0,19597.0,146080.0,236115.0,286640.0,266639.0
2026-04-08 21:36:46.890808,94050,1609503379020107,978986176,0.591456,-0.245952,0.511424,-21.2625,-4.66375,12.90625,-5.984,-12.328001,26.704,inter_set_rest,0,3.0,19597.0,146080.0,236115.0,286640.0,266639.0
2026-04-08 21:36:46.894292,94051,1609503379034591,979001128,0.591456,-0.245952,0.511424,-36.155,-5.25875,20.64125,-5.984,-12.328001,26.704,inter_set_rest,0,3.0,19597.0,146080.0,236115.0,286640.0,266639.0
2026-04-08 21:36:46.896748,94052,1609503379043485,979009780,0.552416,-0.26352,0.484096,-47.2675,-9.0125,19.74875,-5.664,-11.912001,24.288002,inter_set_rest,0,3.0,19597.0,146080.0,236115.0,286640.0,266639.0
2026-04-08 21:36:46.927013,94053,1609503379057982,979024666,0.564128,-0.271328,0.5368,-51.24,-12.355001,9.26625,-5.544,-11.688001,25.560001,inter_set_rest,0,3.0,19597.0,146080.0,236115.0,286640.0,266639.0
2026-04-08 21:36:46.958001,94064,1609503379067000,979033429,0.564128,-0.271328,0.5368,-47.18,-13.15125,-8.645,-5.544,-11.688001,25.560001,inter_set_rest,0,3.0,19778.0,146155.0,236070.0,286450.0,266391.0
2026-04-08 21:36:46.960476,94065,1609503379081512,979048326,0.733952,-0.284992,0.372832,-35.07875,-12.6875,-22.575,-5.744,-11.632001,25.320002,inter_set_rest,0,3.0,19778.0,146155.0,236070.0,286450.0,266391.0
2026-04-08 21:36:46.962974,94066,1609503379090447,979057045,0.733952,-0.284992,0.372832,-27.88625,-11.08625,-28.30625,-5.744,-11.632001,25.320002,inter_set_rest,0,3.0,19778.0,146155.0,236070.0,286450.0,266391.0
2026-04-08 21:36:46.965475,94067,1609503379099367,979065718,0.802272,-0.128832,0.523136,-23.45,-8.8375,-25.54125,-5.64,-11.152,26.52,inter_set_rest,0,3.0,19778.0,146155.0,236070.0,286450.0,266391.0
2026-04-08 21:36:46.967961,94068,1609503379114128,979080680,0.802272,-0.128832,0.523136,-16.54625,-8.636251,-17.89375,-5.64,-11.152,26.52,inter_set_rest,0,3.0,19778.0,146155.0,236070.0,286450.0,266391.0
2026-04-08 21:36:46.970517,94069,1609503379123103,979089382,0.769088,-0.220576,0.573888,-11.1475,-8.42625,-10.605001,-6.272,-11.416,26.944002,inter_set_rest,0,3.0,19778.0,146155.0,236070.0,286450.0,266391.0
2026-04-08 21:36:47.036760,94070,1609503379137593,979104246,0.71248,-0.425536,0.91744,-7.69125,-6.39625,-8.16375,-6.064,-11.200001,25.088001,inter_set_rest,0,3.0,19778.0,146155.0,236070.0,286450.0,266391.0
2026-04-08 21:36:47.039228,94071,1609503379146556,979112939,0.71248,-0.425536,0.91744,-7.6125,-4.83875,-5.62625,-6.064,-11.200001,25.088001,inter_set_rest,0,3.0,19778.0,146155.0,236070.0,286450.0,266391.0
2026-04-08 21:36:47.041684,94072,1609503379155464,979121624,0.71248,-0.425536,0.91744,-4.515,-2.77375,0.98875,-6.064,-11.200001,25.088001,inter_set_rest,0,3.0,19778.0,146155.0,236070.0,286450.0,266391.0
2026-04-08 21:36:47.069271,94083,1609503379170052,979137006,0.696864,-0.365024,0.864736,1.2425,-0.13125,8.365,-5.688,-11.056001,25.304,inter_set_rest,0,3.0,19851.0,145793.0,235414.0,285932.0,266106.0
2026-04-08 21:36:47.071755,94084,1609503379178973,979145669,0.66368,-0.140544,0.597312,10.89375,0.63,12.9675,-5.8,-11.264001,25.800001,inter_set_rest,0,3.0,19851.0,145793.0,235414.0,285932.0,266106.0
2026-04-08 21:36:47.074244,94085,1609503379193485,979160516,0.66368,-0.140544,0.597312,23.835001,-0.42875,15.5225,-5.8,-11.264001,25.800001,inter_set_rest,0,3.0,19851.0,145793.0,235414.0,285932.0,266106.0
2026-04-08 21:36:47.076741,94086,1609503379202424,979169225,0.62464,-0.148352,0.698816,33.425,-2.84375,11.36625,-6.296001,-11.568001,27.192001,inter_set_rest,0,3.0,19851.0,145793.0,235414.0,285932.0,266106.0
2026-04-08 21:36:47.079407,94087,1609503379217037,979184141,0.579744,-0.171776,0.548512,31.52625,-3.08875,1.70625,-6.296001,-11.568001,29.04,inter_set_rest,0,3.0,19851.0,145793.0,235414.0,285932.0,266106.0
2026-04-08 21:36:47.081729,94088,1609503379225969,979192826,0.579744,-0.171776,0.548512,16.4675,-3.14125,-2.905,-6.616,-11.736001,29.04,inter_set_rest,0,3.0,19851.0,145793.0,235414.0,285932.0,266106.0
2026-04-08 21:36:47.084283,94089,1609503379234903,979201503,0.579744,-0.171776,0.548512,0.46375,-3.0275,-0.51625,-6.616,-11.736001,29.04,inter_set_rest,0,3.0,19851.0,145793.0,235414.0,285932.0,266106.0
2026-04-08 21:36:47.114551,94090,1609503379249398,979216369,0.610976,-0.113216,0.691008,-6.72875,-1.7675,3.36875,-6.336,-11.744,26.264002,inter_set_rest,0,3.0,19851.0,145793.0,235414.0,285932.0,266106.0
2026-04-08 21:36:47.118063,94091,1609503379258292,979225042,0.61488,-0.0976,0.704672,-9.63375,-1.21625,3.73625,-5.992,-11.512,23.728,inter_set_rest,0,3.0,19851.0,145793.0,235414.0,285932.0,266106.0
2026-04-08 21:36:47.147964,94102,1609503379273098,979239985,0.61488,-0.0976,0.704672,-13.7725,-1.75,0.63875,-5.992,-11.512,23.728,inter_set_rest,0,3.0,19667.0,144928.0,234113.0,284881.0,265484.0
2026-04-08 21:36:47.150474,94103,1609503379282134,979248707,0.552416,-0.122976,0.681248,-16.4325,-1.6975,-1.81125,-6.336,-11.672001,25.608002,inter_set_rest,0,3.0,19667.0,144928.0,234113.0,284881.0,265484.0
2026-04-08 21:36:47.152993,94104,1609503379296684,979263589,0.552416,-0.122976,0.681248,-15.33875,-0.3325,-2.28375,-6.336,-11.672001,25.608002,inter_set_rest,0,3.0,19667.0,144928.0,234113.0,284881.0,265484.0
2026-04-08 21:36:47.159227,94105,1609503379305590,979272294,0.626592,-0.167872,0.636352,-15.23375,0.315,-0.83125,-6.152,-11.112,27.704,inter_set_rest,0,3.0,19667.0,144928.0,234113.0,284881.0,265484.0
2026-04-08 21:36:47.161736,94106,1609503379314551,979280994,0.626592,-0.167872,0.636352,-16.66,0.5775,1.05875,-6.152,-11.112,27.704,inter_set_rest,0,3.0,19667.0,144928.0,234113.0,284881.0,265484.0
2026-04-08 21:36:47.191905,94107,1609503379329037,979295887,0.562176,-0.16592,0.651968,-19.01375,-0.00875,1.6275,-6.04,-11.288,26.416,inter_set_rest,0,3.0,19667.0,144928.0,234113.0,284881.0,265484.0
2026-04-08 21:36:47.195484,94108,1609503379337955,979304568,0.610976,-0.25376,0.901824,-20.58,-1.23375,-0.0175,-6.04,-11.120001,26.944002,inter_set_rest,0,3.0,19667.0,144928.0,234113.0,284881.0,265484.0
2026-04-08 21:36:47.200500,94109,1609503379352436,979319440,0.610976,-0.25376,0.901824,-19.90625,-2.1525,-0.91875,-5.888001,-11.120001,26.944002,inter_set_rest,0,3.0,19667.0,144928.0,234113.0,284881.0,265484.0
2026-04-08 21:36:47.230779,94110,1609503379361407,979328095,0.593408,-0.337696,0.689056,-17.91125,-3.7975,-0.6475,-6.256001,-11.024,25.976002,inter_set_rest,0,3.0,19667.0,144928.0,234113.0,284881.0,265484.0
2026-04-08 21:36:47.262033,94122,1609503379370365,979336828,0.593408,-0.337696,0.689056,-12.59125,-5.4775,-2.415,-6.256001,-11.024,25.976002,inter_set_rest,0,3.0,19396.0,144068.0,233475.0,284596.0,265408.0
2026-04-08 21:36:47.264237,94123,1609503379384902,979351710,0.628544,-0.318176,0.825696,-5.845,-6.3,-6.86,-6.368001,-11.240001,24.648,inter_set_rest,0,3.0,19396.0,144068.0,233475.0,284596.0,265408.0
2026-04-08 21:36:47.266736,94124,1609503379393981,979360410,0.628544,-0.318176,0.825696,-2.24,-7.42875,-11.41,-6.368001,-11.240001,24.648,inter_set_rest,0,3.0,19396.0,144068.0,233475.0,284596.0,265408.0
2026-04-08 21:36:47.270312,94125,1609503379408547,979375317,0.515328,-0.30256,0.61488,-2.8525,-8.3125,-14.48125,-5.936,-11.064,26.240002,inter_set_rest,0,3.0,19396.0,144068.0,233475.0,284596.0,265408.0
2026-04-08 21:36:47.271761,94126,1609503379417488,979383991,0.515328,-0.30256,0.61488,-6.3175,-9.96625,-13.90375,-5.936,-11.064,26.240002,inter_set_rest,0,3.0,19396.0,144068.0,233475.0,284596.0,265408.0
2026-04-08 21:36:47.279272,94127,1609503379431972,979398957,0.532896,-0.288896,0.687104,-7.6125,-11.12125,-11.97,-6.224001,-10.816001,26.384,inter_set_rest,0,3.0,19396.0,144068.0,233475.0,284596.0,265408.0
2026-04-08 21:36:47.335575,94128,1609503379440949,979407645,0.569984,-0.310368,0.560224,-5.0925,-11.7775,-12.46,-5.824,-11.440001,25.848001,inter_set_rest,0,3.0,19396.0,144068.0,233475.0,284596.0,265408.0
2026-04-08 21:36:47.339264,94129,1609503379449882,979416324,0.569984,-0.310368,0.560224,-0.91875,-11.13875,-14.533751,-5.824,-11.440001,25.848001,inter_set_rest,0,3.0,19396.0,144068.0,233475.0,284596.0,265408.0
2026-04-08 21:36:47.366683,94140,1609503379464348,979431189,0.679296,-0.294752,0.769088,1.63625,-9.65125,-14.90125,-6.528,-11.240001,26.096,inter_set_rest,0,3.0,19487.0,144459.0,233922.0,284834.0,265536.0
2026-04-08 21:36:47.368143,94141,1609503379473686,979439893,0.679296,-0.294752,0.769088,0.2975,-7.27125,-11.31375,-6.528,-11.240001,26.096,inter_set_rest,0,3.0,19487.0,144459.0,233922.0,284834.0,265536.0
2026-04-08 21:36:47.372325,94142,1609503379488189,979454812,0.6344,-0.298656,0.767136,-3.61375,-6.055,-5.17125,-6.752,-11.048,25.976002,inter_set_rest,0,3.0,19487.0,144459.0,233922.0,284834.0,265536.0
2026-04-08 21:36:47.374060,94143,1609503379497097,979463476,0.6344,-0.298656,0.767136,-8.67125,-6.615,0.28,-6.752,-11.048,25.976002,inter_set_rest,0,3.0,19487.0,144459.0,233922.0,284834.0,265536.0
2026-04-08 21:36:47.375566,94144,1609503379511716,979478375,0.532896,-0.353312,0.603168,-13.230001,-7.1925,2.8525,-6.688,-11.200001,26.384,inter_set_rest,0,3.0,19487.0,144459.0,233922.0,284834.0,265536.0
2026-04-08 21:36:47.379810,94145,1609503379520633,979487121,0.620736,-0.368928,0.769088,-10.22875,-7.9975,2.65125,-7.192,-11.032001,26.656002,inter_set_rest,0,3.0,19487.0,144459.0,233922.0,284834.0,265536.0
2026-04-08 21:36:47.382228,94146,1609503379529593,979495782,0.620736,-0.368928,0.769088,-1.09375,-7.97125,1.435,-7.192,-11.032001,26.656002,inter_set_rest,0,3.0,19487.0,144459.0,233922.0,284834.0,265536.0
2026-04-08 21:36:47.410768,94147,1609503379544101,979510661,0.630496,-0.335744,0.704672,6.64125,-7.86625,1.3825,-6.992,-11.456,25.640001,inter_set_rest,0,3.0,19487.0,144459.0,233922.0,284834.0,265536.0
2026-04-08 21:36:47.415325,94148,1609503379553008,979519316,0.630496,-0.335744,0.704672,11.24375,-6.81625,1.5925,-6.992,-11.456,25.640001,inter_set_rest,0,3.0,19487.0,144459.0,233922.0,284834.0,265536.0
2026-04-08 21:36:47.441721,94159,1609503379567675,979534439,0.525088,-0.30256,0.55632,11.27875,-6.475,4.36625,-6.904,-11.200001,25.800001,inter_set_rest,0,3.0,19374.0,143974.0,233402.0,284458.0,265345.0
2026-04-08 21:36:47.444288,94160,1609503379576651,979543199,0.525088,-0.30256,0.55632,7.9975,-5.90625,6.93875,-6.904,-11.200001,25.800001,inter_set_rest,0,3.0,19374.0,143974.0,233402.0,284458.0,265345.0
2026-04-08 21:36:47.446764,94161,1609503379585589,979551882,0.577792,-0.318176,0.812032,4.10375,-5.005,7.30625,-7.016,-11.200001,26.960001,inter_set_rest,0,3.0,19374.0,143974.0,233402.0,284458.0,265345.0
2026-04-08 21:36:47.449174,94162,1609503379600124,979566871,0.571936,-0.347456,0.593408,3.26375,-4.38375,7.7,-7.216001,-10.856001,27.032001,inter_set_rest,0,3.0,19374.0,143974.0,233402.0,284458.0,265345.0
2026-04-08 21:36:47.479531,94163,1609503379609044,979575550,0.571936,-0.347456,0.593408,4.7425,-4.27,8.3125,-7.216001,-10.856001,27.032001,inter_set_rest,0,3.0,19374.0,143974.0,233402.0,284458.0,265345.0
2026-04-08 21:36:47.483136,94164,1609503379623527,979590461,0.593408,-0.290848,0.57584,9.03,-3.50875,9.58125,-6.984,-11.376,25.640001,inter_set_rest,0,3.0,19374.0,143974.0,233402.0,284458.0,265345.0
2026-04-08 21:36:47.485601,94165,1609503379632454,979599167,0.593408,-0.290848,0.57584,13.06375,-3.15875,9.5025,-6.984,-11.376,25.640001,inter_set_rest,0,3.0,19374.0,143974.0,233402.0,284458.0,265345.0
2026-04-08 21:36:47.515693,94166,1609503379646995,979614025,0.61488,-0.220576,0.696864,13.0025,-2.37125,7.875,-7.096,-11.464001,25.424002,inter_set_rest,0,3.0,19374.0,143974.0,233402.0,284458.0,265345.0
2026-04-08 21:36:47.519345,94167,1609503379655907,979622677,0.61488,-0.220576,0.696864,11.2175,-1.16375,7.18375,-7.096,-11.464001,25.424002,inter_set_rest,0,3.0,19374.0,143974.0,233402.0,284458.0,265345.0
2026-04-08 21:36:47.546754,94178,1609503379664853,979631315,0.675392,-0.23424,0.798368,8.26,-0.02625,7.4025,-7.368001,-11.76,25.632002,inter_set_rest,0,3.0,19339.0,143913.0,233358.0,284468.0,265370.0
2026-04-08 21:36:47.549353,94179,1609503379679357,979646221,0.675392,-0.23424,0.642208,4.7425,0.65625,7.0875,-7.368001,-11.76,25.632002,inter_set_rest,0,3.0,19339.0,143913.0,233358.0,284468.0,265370.0
2026-04-08 21:36:47.555535,94180,1609503379688334,979654913,0.64416,-0.267424,0.642208,1.225,1.49625,7.49,-7.440001,-11.392,27.496002,inter_set_rest,0,3.0,19339.0,143913.0,233358.0,284468.0,265370.0
2026-04-08 21:36:47.558038,94181,1609503379702940,979669769,0.661728,-0.249856,0.71248,-0.35,2.68625,8.35625,-7.288001,-11.672001,26.240002,inter_set_rest,0,3.0,19339.0,143913.0,233358.0,284468.0,265370.0
2026-04-08 21:36:47.560503,94182,1609503379711862,979678478,0.661728,-0.249856,0.71248,-0.63,2.7475,8.645,-7.288001,-11.672001,26.240002,inter_set_rest,0,3.0,19339.0,143913.0,233358.0,284468.0,265370.0
2026-04-08 21:36:47.590797,94183,1609503379726324,979693335,0.57584,-0.238144,0.560224,-1.33875,3.5175,7.14,-7.384,-11.696,26.472002,inter_set_rest,0,3.0,19339.0,143913.0,233358.0,284468.0,265370.0
2026-04-08 21:36:47.594308,94184,1609503379735227,979701996,0.57584,-0.238144,0.560224,-2.205,3.3775,4.165,-7.384,-11.696,26.472002,inter_set_rest,0,3.0,19339.0,143913.0,233358.0,284468.0,265370.0
2026-04-08 21:36:47.596815,94185,1609503379744169,979710656,0.560224,-0.257664,0.60512,-2.59875,3.21125,2.1875,-7.288001,-11.736001,25.504002,inter_set_rest,0,3.0,19339.0,143913.0,233358.0,284468.0,265370.0
2026-04-08 21:36:47.633381,94186,1609503379758698,979725480,0.560224,-0.257664,0.60512,-1.68875,2.1525,1.40875,-7.288001,-11.736001,25.504002,inter_set_rest,0,3.0,19339.0,143913.0,233358.0,284468.0,265370.0
2026-04-08 21:36:47.662220,94197,1609503379767799,979734197,0.548512,-0.230336,0.743712,-1.435,2.2225,0.41125,-7.08,-11.216001,25.448002,inter_set_rest,0,3.0,19241.0,143541.0,232863.0,284137.0,265156.0
2026-04-08 21:36:47.664236,94198,1609503379782346,979749092,0.581696,-0.259616,0.603168,-1.33,2.3275,-0.86625,-7.168,-11.920001,25.664001,inter_set_rest,0,3.0,19241.0,143541.0,232863.0,284137.0,265156.0
2026-04-08 21:36:47.666738,94199,1609503379791243,979757735,0.581696,-0.259616,0.603168,-2.555,2.35375,-2.12625,-7.168,-11.920001,25.664001,inter_set_rest,0,3.0,19241.0,143541.0,232863.0,284137.0,265156.0
2026-04-08 21:36:47.669301,94200,1609503379805829,979772644,0.616832,-0.265472,0.835456,-4.55,2.91375,-3.325,-7.208,-11.544001,25.52,inter_set_rest,0,3.0,19241.0,143541.0,232863.0,284137.0,265156.0
2026-04-08 21:36:47.671761,94201,1609503379814897,979781352,0.616832,-0.265472,0.835456,-7.74375,3.2725,-4.34875,-7.208,-11.544001,25.52,inter_set_rest,0,3.0,19241.0,143541.0,232863.0,284137.0,265156.0
2026-04-08 21:36:47.674239,94202,1609503379823888,979790061,0.632448,-0.314272,0.720288,-11.9525,3.75375,-5.215,-6.992,-11.440001,25.656002,inter_set_rest,0,3.0,19241.0,143541.0,232863.0,284137.0,265156.0
2026-04-08 21:36:47.704511,94203,1609503379838367,979804955,0.632448,-0.314272,0.720288,-12.635,4.6725,-5.0575,-6.992,-11.440001,25.656002,inter_set_rest,0,3.0,19241.0,143541.0,232863.0,284137.0,265156.0
2026-04-08 21:36:47.708054,94204,1609503379847275,979813635,0.54656,-0.28304,0.511424,-11.025,5.04,-4.19125,-6.960001,-11.400001,26.024002,inter_set_rest,0,3.0,19241.0,143541.0,232863.0,284137.0,265156.0
2026-04-08 21:36:47.710573,94205,1609503379861704,979828481,0.552416,-0.255712,0.59536,-6.97375,4.725,-3.535,-6.88,-11.208,28.352001,inter_set_rest,0,3.0,19241.0,143541.0,232863.0,284137.0,265156.0
2026-04-08 21:36:47.770558,94216,1609503379870912,979837341,0.552416,-0.255712,0.59536,-3.26375,4.83,-2.9575,-6.88,-11.208,28.352001,inter_set_rest,0,3.0,19219.0,143310.0,232494.0,283792.0,264933.0
2026-04-08 21:36:47.773045,94217,1609503379879811,979846069,0.552416,-0.255712,0.59536,-4.4275,5.17125,-2.1875,-6.88,-11.208,28.352001,inter_set_rest,0,3.0,19219.0,143310.0,232494.0,283792.0,264933.0
2026-04-08 21:36:47.775483,94218,1609503379894307,979860947,0.548512,-0.300608,0.532896,-7.8575,5.2675,-0.84,-6.920001,-11.272,25.344002,inter_set_rest,0,3.0,19219.0,143310.0,232494.0,283792.0,264933.0
2026-04-08 21:36:47.778048,94219,1609503379903262,979869616,0.542656,-0.294752,0.753472,-10.10625,5.67875,0.53375,-6.8,-11.136001,25.712002,inter_set_rest,0,3.0,19219.0,143310.0,232494.0,283792.0,264933.0
2026-04-08 21:36:47.780588,94220,1609503379917843,979884494,0.542656,-0.294752,0.753472,-10.2375,5.425,1.51375,-6.8,-11.136001,25.712002,inter_set_rest,0,3.0,19219.0,143310.0,232494.0,283792.0,264933.0
2026-04-08 21:36:47.783072,94221,1609503379926847,979893157,0.597312,-0.35136,0.655872,-7.385,6.13375,2.03,-7.08,-11.112,25.920002,inter_set_rest,0,3.0,19219.0,143310.0,232494.0,283792.0,264933.0
2026-04-08 21:36:47.788111,94222,1609503379941333,979908079,0.597312,-0.314272,0.755424,-4.445,5.7575,2.8175,-7.08,-11.112,25.920002,inter_set_rest,0,3.0,19219.0,143310.0,232494.0,283792.0,264933.0
2026-04-08 21:36:47.818659,94223,1609503379950241,979916739,0.610976,-0.314272,0.755424,-0.98,4.26125,3.0275,-6.992,-10.856001,25.920002,inter_set_rest,0,3.0,19219.0,143310.0,232494.0,283792.0,264933.0
2026-04-08 21:36:47.821830,94224,1609503379959146,979925397,0.610976,-0.314272,0.755424,3.57,2.5375,2.345,-6.992,-10.856001,25.920002,inter_set_rest,0,3.0,19219.0,143310.0,232494.0,283792.0,264933.0
2026-04-08 21:36:47.853012,94235,1609503379973746,979940381,0.523136,-0.296704,0.642208,8.715,0.7175,0.30625,-6.64,-11.192,25.752,inter_set_rest,0,3.0,19087.0,142813.0,231951.0,283453.0,264764.0
2026-04-08 21:36:47.855522,94236,1609503379982690,979949084,0.568032,-0.306464,0.67344,12.32,-0.07875,-1.2075,-6.952,-11.352,27.616001,inter_set_rest,0,3.0,19087.0,142813.0,231951.0,283453.0,264764.0
2026-04-08 21:36:47.857980,94237,1609503379997337,979964000,0.568032,-0.306464,0.67344,14.7175,-0.5075,-1.70625,-6.952,-11.352,27.616001,inter_set_rest,0,3.0,19087.0,142813.0,231951.0,283453.0,264764.0
2026-04-08 21:36:47.860478,94238,1609503380006305,979972718,0.542656,-0.238144,0.640256,13.43125,-1.05,-2.45875,-6.656,-11.616,25.904001,inter_set_rest,0,3.0,19087.0,142813.0,231951.0,283453.0,264764.0
2026-04-08 21:36:47.890806,94239,1609503380020821,979987653,0.542656,-0.238144,0.640256,12.9675,-2.44125,-3.185,-6.656,-11.616,25.904001,inter_set_rest,0,3.0,19087.0,142813.0,231951.0,283453.0,264764.0
2026-04-08 21:36:47.894341,94240,1609503380029724,979996303,0.548512,-0.22448,0.704672,15.75,-2.93125,-4.8475,-6.584,-11.752001,24.28,inter_set_rest,0,3.0,19087.0,142813.0,231951.0,283453.0,264764.0
2026-04-08 21:36:47.899987,94241,1609503380038669,980004956,0.548512,-0.22448,0.704672,14.9975,-3.42125,-6.8775,-6.584,-11.752001,24.28,inter_set_rest,0,3.0,19087.0,142813.0,231951.0,283453.0,264764.0
2026-04-08 21:36:47.902436,94242,1609503380053129,980019871,0.52704,-0.206912,0.636352,12.145,-3.89375,-7.39375,-7.072001,-11.920001,25.224,inter_set_rest,0,3.0,19087.0,142813.0,231951.0,283453.0,264764.0
2026-04-08 21:36:47.934566,94243,1609503380062024,980028564,0.52704,-0.238144,0.5856,10.33375,-3.5875,-6.37875,-7.072001,-11.920001,25.224,inter_set_rest,0,3.0,19087.0,142813.0,231951.0,283453.0,264764.0
2026-04-08 21:36:47.963014,94254,1609503380076897,980043876,0.581696,-0.240096,0.5856,8.5225,-2.555,-5.4425,-7.024,-11.8,25.6,inter_set_rest,0,3.0,19004.0,142572.0,231734.0,283312.0,264708.0
2026-04-08 21:36:47.965523,94255,1609503380085820,980052540,0.610976,-0.216672,0.815936,6.39625,-1.79375,-5.31125,-6.816001,-11.968,25.568,inter_set_rest,0,3.0,19004.0,142572.0,231734.0,283312.0,264708.0
2026-04-08 21:36:47.968066,94256,1609503380100330,980067438,0.610976,-0.216672,0.815936,3.4825,-1.3125,-5.92375,-6.816001,-11.968,25.568,inter_set_rest,0,3.0,19004.0,142572.0,231734.0,283312.0,264708.0
2026-04-08 21:36:47.970506,94257,1609503380109331,980076105,0.544608,-0.249856,0.54656,1.2075,-1.0675,-5.50375,-7.128,-12.024,26.808,inter_set_rest,0,3.0,19004.0,142572.0,231734.0,283312.0,264708.0
2026-04-08 21:36:47.973009,94258,1609503380118329,980084850,0.544608,-0.249856,0.54656,0.9625,-1.75875,-4.6725,-7.128,-12.024,26.808,inter_set_rest,0,3.0,19004.0,142572.0,231734.0,283312.0,264708.0
2026-04-08 21:36:48.003236,94259,1609503380132797,980099777,0.632448,-0.242048,0.769088,1.56625,-1.60125,-5.075,-6.768,-12.144001,26.152,inter_set_rest,0,3.0,19004.0,142572.0,231734.0,283312.0,264708.0
2026-04-08 21:36:48.006764,94260,1609503380141696,980108440,0.632448,-0.242048,0.769088,3.24625,-1.40875,-5.32,-6.768,-12.144001,26.152,inter_set_rest,0,3.0,19004.0,142572.0,231734.0,283312.0,264708.0
2026-04-08 21:36:48.009287,94261,1609503380156174,980123277,0.64416,-0.25376,0.733952,3.1325,-1.5925,-4.2875,-6.352,-12.440001,24.744001,inter_set_rest,0,3.0,19004.0,142572.0,231734.0,283312.0,264708.0
2026-04-08 21:36:48.011815,94262,1609503380165102,980131958,0.597312,-0.236192,0.831552,2.61625,-1.2075,-3.115,-6.856,-12.256001,24.936,inter_set_rest,0,3.0,19004.0,142572.0,231734.0,283312.0,264708.0
2026-04-08 21:36:48.043029,94273,1609503380174194,980140701,0.597312,-0.236192,0.831552,1.79375,-0.5775,-2.10875,-6.856,-12.256001,24.936,inter_set_rest,0,3.0,18892.0,142215.0,231354.0,283038.0,264556.0
2026-04-08 21:36:48.045538,94274,1609503380188740,980155589,0.560224,-0.277184,0.612928,0.28,-0.98,-2.61625,-7.2,-11.752001,26.944002,inter_set_rest,0,3.0,18892.0,142215.0,231354.0,283038.0,264556.0
2026-04-08 21:36:48.048060,94275,1609503380197687,980164262,0.560224,-0.277184,0.612928,-0.37625,-1.4175,-3.26375,-7.2,-11.752001,26.944002,inter_set_rest,0,3.0,18892.0,142215.0,231354.0,283038.0,264556.0
2026-04-08 21:36:48.078253,94276,1609503380212161,980179215,0.530944,-0.226432,0.714432,0.735,-1.82,-3.47375,-7.064,-12.048,26.112001,inter_set_rest,0,3.0,18892.0,142215.0,231354.0,283038.0,264556.0
2026-04-08 21:36:48.081816,94277,1609503380221055,980187878,0.530944,-0.226432,0.714432,1.68,-1.70625,-3.92,-7.064,-12.048,26.112001,inter_set_rest,0,3.0,18892.0,142215.0,231354.0,283038.0,264556.0
2026-04-08 21:36:48.084267,94278,1609503380235547,980200695,0.632448,-0.240096,0.788608,2.765,-1.645,-3.85875,-6.64,-12.296001,26.368002,inter_set_rest,0,3.0,18892.0,142215.0,231354.0,283038.0,264556.0
2026-04-08 21:36:48.114637,94279,1609503380244722,980211434,0.558272,-0.220576,0.76128,4.165,-1.4875,-3.42125,-6.632,-12.064,24.888,inter_set_rest,0,3.0,18892.0,142215.0,231354.0,283038.0,264556.0
2026-04-08 21:36:48.118122,94280,1609503380253672,980220192,0.558272,-0.220576,0.76128,3.50875,-1.505,-2.6775,-6.632,-12.064,24.888,inter_set_rest,0,3.0,18892.0,142215.0,231354.0,283038.0,264556.0
2026-04-08 21:36:48.145524,94291,1609503380268137,980235013,0.532896,-0.240096,0.689056,3.255,-1.96875,-3.26375,-6.688,-12.264001,25.288002,inter_set_rest,0,3.0,18829.0,141891.0,230964.0,282731.0,264381.0
2026-04-08 21:36:48.148061,94292,1609503380277134,980243739,0.532896,-0.240096,0.689056,3.14125,-2.66875,-4.34875,-6.688,-12.264001,25.288002,inter_set_rest,0,3.0,18829.0,141891.0,230964.0,282731.0,264381.0
2026-04-08 21:36:48.150522,94293,1609503380291681,980258693,0.52704,-0.23424,0.622688,3.47375,-2.47625,-5.10125,-7.472,-12.160001,26.208002,inter_set_rest,0,3.0,18829.0,141891.0,230964.0,282731.0,264381.0
2026-04-08 21:36:48.153056,94294,1609503380300596,980267368,0.52704,-0.23424,0.622688,6.57125,-2.10875,-4.55,-7.472,-12.160001,26.208002,inter_set_rest,0,3.0,18829.0,141891.0,230964.0,282731.0,264381.0
2026-04-08 21:36:48.183307,94295,1609503380315175,980282261,0.548512,-0.226432,0.548512,7.595,-1.89875,-4.50625,-6.960001,-12.368001,25.592001,inter_set_rest,0,3.0,18829.0,141891.0,230964.0,282731.0,264381.0
2026-04-08 21:36:48.186756,94296,1609503380324103,980290955,0.61488,-0.197152,0.802272,6.6675,-1.70625,-4.55,-6.960001,-12.368001,26.36,inter_set_rest,0,3.0,18829.0,141891.0,230964.0,282731.0,264381.0
2026-04-08 21:36:48.189285,94297,1609503380333007,980299609,0.61488,-0.197152,0.802272,5.775,-1.02375,-4.24375,-6.816001,-12.432,26.36,inter_set_rest,0,3.0,18829.0,141891.0,230964.0,282731.0,264381.0
2026-04-08 21:36:48.195521,94298,1609503380347553,980314480,0.6344,-0.238144,0.745664,3.17625,-0.65625,-4.01625,-7.112001,-12.360001,25.888,inter_set_rest,0,3.0,18829.0,141891.0,230964.0,282731.0,264381.0
2026-04-08 21:36:48.234563,94299,1609503380356514,980323172,0.6344,-0.238144,0.745664,-0.51625,-0.84875,-4.5675,-7.112001,-12.360001,25.888,inter_set_rest,0,3.0,18829.0,141891.0,230964.0,282731.0,264381.0
2026-04-08 21:36:48.265637,94310,1609503380371058,980338128,0.632448,-0.251808,0.827648,-2.44125,-1.04125,-5.43375,-6.624001,-12.784,26.112001,inter_set_rest,0,3.0,18776.0,141675.0,230709.0,282557.0,264301.0
2026-04-08 21:36:48.271947,94311,1609503380380093,980346797,0.632448,-0.251808,0.827648,-2.415,-0.74375,-6.08125,-6.624001,-12.784,26.112001,inter_set_rest,0,3.0,18776.0,141675.0,230709.0,282557.0,264301.0
2026-04-08 21:36:48.274292,94312,1609503380394897,980361855,0.560224,-0.226432,0.732,-0.56,-0.67375,-6.16875,-6.696,-12.440001,24.992,inter_set_rest,0,3.0,18776.0,141675.0,230709.0,282557.0,264301.0
2026-04-08 21:36:48.276849,94313,1609503380403973,980370560,0.560224,-0.226432,0.732,0.9275,-0.63875,-6.76375,-6.696,-12.440001,24.992,inter_set_rest,0,3.0,18776.0,141675.0,230709.0,282557.0,264301.0
2026-04-08 21:36:48.279505,94314,1609503380412982,980379273,0.650016,-0.236192,0.726144,2.42375,-0.09625,-7.49,-6.912,-12.872001,25.128,inter_set_rest,0,3.0,18776.0,141675.0,230709.0,282557.0,264301.0
2026-04-08 21:36:48.281786,94315,1609503380427477,980394375,0.622688,-0.201056,0.798368,4.2175,0.34125,-8.05875,-6.480001,-13.080001,25.024002,inter_set_rest,0,3.0,18776.0,141675.0,230709.0,282557.0,264301.0
2026-04-08 21:36:48.284339,94316,1609503380436547,980403199,0.622688,-0.201056,0.798368,3.465,0.84875,-8.12875,-6.480001,-13.080001,25.024002,inter_set_rest,0,3.0,18776.0,141675.0,230709.0,282557.0,264301.0
2026-04-08 21:36:48.314575,94317,1609503380451017,980418087,0.564128,-0.208864,0.687104,0.665,1.00625,-7.245,-6.792,-12.736001,26.112001,inter_set_rest,0,3.0,18776.0,141675.0,230709.0,282557.0,264301.0
2026-04-08 21:36:48.318104,94318,1609503380459943,980426733,0.564128,-0.208864,0.687104,-0.8225,0.735,-6.13375,-6.792,-12.736001,26.112001,inter_set_rest,0,3.0,18776.0,141675.0,230709.0,282557.0,264301.0
2026-04-08 21:36:48.345559,94329,1609503380468865,980435506,0.542656,-0.222528,0.62464,-0.37625,0.56875,-5.22375,-6.688,-12.544001,25.352001,inter_set_rest,0,3.0,18752.0,141572.0,230550.0,282445.0,264251.0
2026-04-08 21:36:48.348033,94330,1609503380483388,980450441,0.542656,-0.222528,0.62464,-0.09625,1.02375,-4.9175,-6.688,-12.544001,25.352001,inter_set_rest,0,3.0,18752.0,141572.0,230550.0,282445.0,264251.0
2026-04-08 21:36:48.350555,94331,1609503380492299,980459460,0.651968,-0.251808,0.706624,-0.2975,0.9625,-4.40125,-6.768,-12.696001,25.36,inter_set_rest,0,3.0,18752.0,141572.0,230550.0,282445.0,264251.0
2026-04-08 21:36:48.353075,94332,1609503380507026,980472514,0.601216,-0.232288,0.665632,-0.63,0.735,-3.77125,-6.784,-12.504001,26.032001,inter_set_rest,0,3.0,18752.0,141572.0,230550.0,282445.0,264251.0
2026-04-08 21:36:48.384444,94333,1609503380516357,980483270,0.601216,-0.232288,0.665632,0.84,0.74375,-3.10625,-6.784,-12.504001,26.032001,inter_set_rest,0,3.0,18752.0,141572.0,230550.0,282445.0,264251.0
2026-04-08 21:36:48.388062,94334,1609503380525286,980491948,0.569984,-0.20496,0.788608,1.6625,0.7,-3.99875,-6.784,-12.504001,26.032001,inter_set_rest,0,3.0,18752.0,141572.0,230550.0,282445.0,264251.0
2026-04-08 21:36:48.390525,94335,1609503380539776,980506809,0.569984,-0.20496,0.788608,2.07375,1.1025,-4.85625,-6.496,-13.080001,24.736002,inter_set_rest,0,3.0,18752.0,141572.0,230550.0,282445.0,264251.0
2026-04-08 21:36:48.395525,94336,1609503380548721,980515688,0.554368,-0.191296,0.778848,3.29,1.21625,-4.52375,-6.984,-12.832001,26.616001,inter_set_rest,0,3.0,18752.0,141572.0,230550.0,282445.0,264251.0
2026-04-08 21:36:48.429452,94337,1609503380563180,980528498,0.554368,-0.191296,0.778848,4.4975,1.51375,-4.655,-6.984,-12.832001,26.616001,inter_set_rest,0,3.0,18752.0,141572.0,230550.0,282445.0,264251.0
2026-04-08 21:36:48.458181,94348,1609503380573003,980539269,0.528992,-0.177632,0.657824,4.24375,2.0125,-4.0075,-6.352,-13.096001,25.008001,inter_set_rest,0,3.0,18702.0,141347.0,230239.0,282230.0,264100.0
2026-04-08 21:36:48.461237,94349,1609503380581961,980547978,0.528992,-0.177632,0.657824,4.1825,1.82,-3.535,-6.352,-13.096001,25.008001,inter_set_rest,0,3.0,18702.0,141347.0,230239.0,282230.0,264100.0
2026-04-08 21:36:48.462322,94350,1609503380596510,980562870,0.628544,-0.20496,0.784704,4.48,1.68,-3.885,-6.392,-13.152,25.000002,inter_set_rest,0,3.0,18702.0,141347.0,230239.0,282230.0,264100.0
2026-04-08 21:36:48.464316,94351,1609503380605445,980571572,0.628544,-0.20496,0.62464,3.05375,1.40875,-4.57625,-6.392,-13.152,25.000002,inter_set_rest,0,3.0,18702.0,141347.0,230239.0,282230.0,264100.0
2026-04-08 21:36:48.466844,94352,1609503380619959,980586507,0.601216,-0.230336,0.62464,2.73875,0.9975,-5.0225,-6.504,-12.960001,25.568,inter_set_rest,0,3.0,18702.0,141347.0,230239.0,282230.0,264100.0
2026-04-08 21:36:48.498002,94353,1609503380628882,980595190,0.568032,-0.183488,0.733952,3.6225,1.4875,-5.25,-6.520001,-12.984,25.048,inter_set_rest,0,3.0,18702.0,141347.0,230239.0,282230.0,264100.0
2026-04-08 21:36:48.502749,94354,1609503380643387,980610117,0.568032,-0.183488,0.733952,3.08,2.1,-5.43375,-6.520001,-12.984,25.048,inter_set_rest,0,3.0,18702.0,141347.0,230239.0,282230.0,264100.0
2026-04-08 21:36:48.535411,94355,1609503380652275,980618776,0.530944,-0.15616,0.75152,3.19375,2.19625,-4.935,-6.608,-12.848001,24.752,inter_set_rest,0,3.0,18702.0,141347.0,230239.0,282230.0,264100.0
2026-04-08 21:36:48.538119,94356,1609503380661172,980627469,0.530944,-0.15616,0.75152,3.15875,2.135,-5.08375,-6.608,-12.848001,24.752,inter_set_rest,0,3.0,18702.0,141347.0,230239.0,282230.0,264100.0
2026-04-08 21:36:48.566559,94367,1609503380675783,980642884,0.607072,-0.228384,0.651968,1.63625,1.6975,-6.13375,-6.632,-12.976001,24.672,inter_set_rest,0,3.0,18619.0,141090.0,229998.0,282039.0,264015.0
2026-04-08 21:36:48.568120,94368,1609503380684735,980651568,0.607072,-0.228384,0.651968,-1.33,1.33875,-7.56,-6.632,-12.976001,24.672,inter_set_rest,0,3.0,18619.0,141090.0,229998.0,282039.0,264015.0
2026-04-08 21:36:48.572350,94369,1609503380699240,980664407,0.564128,-0.199104,0.687104,-2.52875,1.53125,-7.76125,-6.376,-13.320001,25.688002,inter_set_rest,0,3.0,18619.0,141090.0,229998.0,282039.0,264015.0
2026-04-08 21:36:48.574100,94370,1609503380708412,980675197,0.540704,-0.199104,0.579744,-0.69125,1.14625,-7.2975,-6.128,-13.200001,24.216002,inter_set_rest,0,3.0,18619.0,141090.0,229998.0,282039.0,264015.0
2026-04-08 21:36:48.575600,94371,1609503380722922,980688078,0.540704,-0.199104,0.579744,-0.27125,0.945,-7.48125,-6.128,-13.200001,24.216002,inter_set_rest,0,3.0,18619.0,141090.0,229998.0,282039.0,264015.0
2026-04-08 21:36:48.583505,94372,1609503380732068,980698885,0.62464,-0.18544,0.796416,-0.2625,1.2425,-7.35875,-6.136,-13.184001,25.104002,inter_set_rest,0,3.0,18619.0,141090.0,229998.0,282039.0,264015.0
2026-04-08 21:36:48.589760,94373,1609503380741004,980707582,0.62464,-0.18544,0.796416,0.5075,1.7325,-6.64125,-6.136,-13.184001,25.104002,inter_set_rest,0,3.0,18619.0,141090.0,229998.0,282039.0,264015.0
2026-04-08 21:36:48.619895,94374,1609503380755466,980722467,0.60512,-0.167872,0.802272,0.98,2.2225,-5.39875,-6.312,-13.104001,25.872002,inter_set_rest,0,3.0,18619.0,141090.0,229998.0,282039.0,264015.0
2026-04-08 21:36:48.622933,94375,1609503380764374,980731123,0.60512,-0.167872,0.802272,0.93625,3.01,-3.9725,-6.312,-13.104001,25.872002,inter_set_rest,0,3.0,18619.0,141090.0,229998.0,282039.0,264015.0
2026-04-08 21:36:48.651115,94386,1609503380778878,980744066,0.587552,-0.197152,0.74176,-1.19875,2.96625,-2.66875,-6.464,-13.616,24.728,inter_set_rest,0,3.0,18567.0,140861.0,229682.0,281763.0,263849.0
2026-04-08 21:36:48.654012,94387,1609503380788065,980754844,0.593408,-0.197152,0.812032,-2.84375,2.80875,-1.085,-6.704001,-12.84,25.176,inter_set_rest,0,3.0,18567.0,140861.0,229682.0,281763.0,263849.0
2026-04-08 21:36:48.659825,94388,1609503380797068,980763554,0.593408,-0.197152,0.812032,-2.0125,2.135,-1.1025,-6.704001,-12.84,25.176,inter_set_rest,0,3.0,18567.0,140861.0,229682.0,281763.0,263849.0
2026-04-08 21:36:48.662254,94389,1609503380811574,980778499,0.632448,-0.218624,0.769088,-0.60375,1.07625,-3.08875,-6.528,-13.216001,26.000002,inter_set_rest,0,3.0,18567.0,140861.0,229682.0,281763.0,263849.0
2026-04-08 21:36:48.690849,94390,1609503380820513,980787215,0.632448,-0.218624,0.769088,0.1575,0.62125,-4.27,-6.528,-13.216001,26.000002,inter_set_rest,0,3.0,18567.0,140861.0,229682.0,281763.0,263849.0
2026-04-08 21:36:48.695300,94391,1609503380834950,980802043,0.599264,-0.1952,0.638304,3.40375,1.05,-3.36,-6.224001,-13.176001,25.144001,inter_set_rest,0,3.0,18567.0,140861.0,229682.0,281763.0,263849.0
2026-04-08 21:36:48.698750,94392,1609503380843872,980810703,0.599264,-0.1952,0.638304,5.24125,1.4525,-1.8725,-6.224001,-13.176001,25.144001,inter_set_rest,0,3.0,18567.0,140861.0,229682.0,281763.0,263849.0
2026-04-08 21:36:48.728029,94393,1609503380858354,980823542,0.552416,-0.167872,0.640256,7.14,1.19875,-1.785,-6.28,-13.448001,24.872002,inter_set_rest,0,3.0,18567.0,140861.0,229682.0,281763.0,263849.0
2026-04-08 21:36:48.732391,94394,1609503380867532,980834263,0.568032,-0.148352,0.76128,8.26875,1.79375,-1.2775,-6.28,-13.448001,24.872002,inter_set_rest,0,3.0,18567.0,140861.0,229682.0,281763.0,263849.0
2026-04-08 21:36:48.758112,94405,1609503380876635,980843040,0.57584,-0.148352,0.76128,7.79625,3.43,-0.46375,-6.328,-13.776001,25.368002,inter_set_rest,0,3.0,18556.0,140700.0,229435.0,281535.0,263693.0
2026-04-08 21:36:48.762303,94406,1609503380891151,980857947,0.579744,-0.130784,0.66368,6.3,5.17125,2.0475,-6.408001,-13.512001,25.336,inter_set_rest,0,3.0,18556.0,140700.0,229435.0,281535.0,263693.0
2026-04-08 21:36:48.764081,94407,1609503380900151,980866696,0.579744,-0.130784,0.66368,5.34625,6.01125,4.89125,-6.408001,-13.512001,25.336,inter_set_rest,0,3.0,18556.0,140700.0,229435.0,281535.0,263693.0
2026-04-08 21:36:48.766419,94408,1609503380914631,980881568,0.607072,-0.15616,0.80032,5.355,6.01125,5.2675,-6.304,-13.64,26.104002,inter_set_rest,0,3.0,18556.0,140700.0,229435.0,281535.0,263693.0
2026-04-08 21:36:48.773405,94409,1609503380923603,980890263,0.607072,-0.15616,0.80032,5.1275,5.29375,4.7075,-6.304,-13.64,26.104002,inter_set_rest,0,3.0,18556.0,140700.0,229435.0,281535.0,263693.0
2026-04-08 21:36:48.835609,94410,1609503380938088,980905141,0.61488,-0.23424,0.659776,3.955,3.63125,5.1975,-6.16,-13.968,25.488,inter_set_rest,0,3.0,18556.0,140700.0,229435.0,281535.0,263693.0
2026-04-08 21:36:48.837810,94411,1609503380947079,980913802,0.61488,-0.23424,0.659776,6.4225,2.8875,6.8075,-6.16,-13.968,25.488,inter_set_rest,0,3.0,18556.0,140700.0,229435.0,281535.0,263693.0
2026-04-08 21:36:48.842365,94412,1609503380956022,980922461,0.618784,-0.197152,0.704672,9.42375,3.43,9.135,-6.248,-13.664001,21.824001,inter_set_rest,0,3.0,18556.0,140700.0,229435.0,281535.0,263693.0
2026-04-08 21:36:48.844113,94413,1609503380970508,980937346,0.589504,-0.132736,0.640256,11.36625,3.5,11.83875,-6.376,-14.000001,24.736002,inter_set_rest,0,3.0,18556.0,140700.0,229435.0,281535.0,263693.0
2026-04-08 21:36:48.874264,94424,1609503380979461,980946059,0.589504,-0.132736,0.640256,12.1625,3.15875,13.5275,-6.376,-14.000001,24.736002,inter_set_rest,0,3.0,18489.0,140450.0,229173.0,281398.0,263627.0
2026-04-08 21:36:48.876833,94425,1609503380993924,980960954,0.538752,-0.15616,0.640256,10.91125,2.45875,13.3,-6.304,-14.056001,24.400002,inter_set_rest,0,3.0,18489.0,140450.0,229173.0,281398.0,263627.0
2026-04-08 21:36:48.879297,94426,1609503381002864,980969633,0.538752,-0.15616,0.640256,8.35625,0.945,12.18875,-6.304,-14.056001,24.400002,inter_set_rest,0,3.0,18489.0,140450.0,229173.0,281398.0,263627.0
2026-04-08 21:36:48.881842,94427,1609503381017387,980984532,0.521184,-0.18544,0.808128,5.50375,0.1575,11.06,-6.784,-14.128,25.320002,inter_set_rest,0,3.0,18489.0,140450.0,229173.0,281398.0,263627.0
2026-04-08 21:36:48.884357,94428,1609503381026364,980993189,0.521184,-0.18544,0.808128,7.14,-0.21875,10.96375,-6.784,-14.128,25.320002,inter_set_rest,0,3.0,18489.0,140450.0,229173.0,281398.0,263627.0
2026-04-08 21:36:48.886846,94429,1609503381035316,981001925,0.499712,-0.203008,0.630496,7.84875,-0.44625,11.40125,-6.672,-14.312,24.52,inter_set_rest,0,3.0,18489.0,140450.0,229173.0,281398.0,263627.0
2026-04-08 21:36:48.918024,94430,1609503381049834,981016813,0.593408,-0.154208,0.798368,6.09,-0.51625,11.38375,-6.352,-14.080001,24.584002,inter_set_rest,0,3.0,18489.0,140450.0,229173.0,281398.0,263627.0
2026-04-08 21:36:48.919431,94431,1609503381058840,981025495,0.593408,-0.154208,0.798368,2.96625,-0.97125,11.20875,-6.352,-14.080001,24.584002,inter_set_rest,0,3.0,18489.0,140450.0,229173.0,281398.0,263627.0
2026-04-08 21:36:48.953664,94442,1609503381073623,981040812,0.593408,-0.173728,0.753472,4.76,-0.7,10.386251,-6.824,-14.328001,24.296001,inter_set_rest,0,3.0,18400.0,140208.0,229015.0,281345.0,263664.0
2026-04-08 21:36:48.955886,94443,1609503381082617,981049587,0.593408,-0.173728,0.753472,5.705,-1.21625,8.54,-6.824,-14.328001,24.296001,inter_set_rest,0,3.0,18400.0,140208.0,229015.0,281345.0,263664.0
2026-04-08 21:36:48.957781,94444,1609503381091558,981058253,0.525088,-0.169824,0.782752,5.66125,-2.31875,6.3525,-6.992,-14.496,24.224,inter_set_rest,0,3.0,18400.0,140208.0,229015.0,281345.0,263664.0
2026-04-08 21:36:48.959328,94445,1609503381106047,981073125,0.525088,-0.169824,0.782752,6.0725,-3.56125,4.66375,-6.992,-14.496,24.224,inter_set_rest,0,3.0,18400.0,140208.0,229015.0,281345.0,263664.0
2026-04-08 21:36:48.971964,94446,1609503381114999,981081786,0.577792,-0.193248,0.784704,5.74875,-3.91125,2.695,-7.16,-14.392001,25.472002,inter_set_rest,0,3.0,18400.0,140208.0,229015.0,281345.0,263664.0
2026-04-08 21:36:48.974325,94447,1609503381129510,981094655,0.583648,-0.163968,0.817888,5.6525,-4.6375,0.98,-7.16,-14.568001,24.376001,inter_set_rest,0,3.0,18400.0,140208.0,229015.0,281345.0,263664.0
2026-04-08 21:36:49.020759,94448,1609503381138667,981105406,0.583648,-0.163968,0.817888,5.6875,-5.97625,-0.46375,-7.04,-14.568001,24.376001,inter_set_rest,0,3.0,18400.0,140208.0,229015.0,281345.0,263664.0
2026-04-08 21:36:49.024250,94449,1609503381153124,981120268,0.650016,-0.269376,0.737856,7.06125,-7.70875,-2.6425,-6.944,-14.536,24.312,inter_set_rest,0,3.0,18400.0,140208.0,229015.0,281345.0,263664.0
2026-04-08 21:36:49.026723,94450,1609503381162034,981128943,0.650016,-0.269376,0.737856,6.965,-9.6775,-5.3725,-6.944,-14.536,24.312,inter_set_rest,0,3.0,18400.0,140208.0,229015.0,281345.0,263664.0
2026-04-08 21:36:49.029223,94451,1609503381170935,981137611,0.587552,-0.27328,0.646112,5.15375,-10.36875,-6.95625,-7.136,-14.776001,21.528002,inter_set_rest,0,3.0,18400.0,140208.0,229015.0,281345.0,263664.0
2026-04-08 21:36:49.060485,94462,1609503381185553,981152504,0.587552,-0.27328,0.646112,3.91125,-10.6575,-8.07625,-7.136,-14.776001,21.528002,inter_set_rest,0,3.0,18362.0,140040.0,228865.0,281216.0,263576.0
2026-04-08 21:36:49.062978,94463,1609503381194565,981161179,0.607072,-0.18544,0.747616,6.55375,-9.948751,-8.89,-7.504,-14.808001,24.880001,inter_set_rest,0,3.0,18362.0,140040.0,228865.0,281216.0,263576.0
2026-04-08 21:36:49.065491,94464,1609503381209108,981176132,0.607072,-0.18544,0.747616,10.78875,-9.49375,-10.26375,-7.504,-14.808001,24.880001,inter_set_rest,0,3.0,18362.0,140040.0,228865.0,281216.0,263576.0
2026-04-08 21:36:49.067999,94465,1609503381218127,981184816,0.603168,-0.150304,0.730048,14.98875,-7.81375,-11.08625,-7.096,-14.992001,25.608002,inter_set_rest,0,3.0,18362.0,140040.0,228865.0,281216.0,263576.0
2026-04-08 21:36:49.074303,94466,1609503381227093,981193539,0.603168,-0.150304,0.730048,17.42125,-5.83625,-9.96625,-7.096,-14.992001,25.608002,inter_set_rest,0,3.0,18362.0,140040.0,228865.0,281216.0,263576.0
2026-04-08 21:36:49.133335,94467,1609503381241578,981208397,0.618784,-0.158112,0.632448,17.35125,-4.05125,-6.90375,-7.272,-15.400001,24.592001,inter_set_rest,0,3.0,18362.0,140040.0,228865.0,281216.0,263576.0
2026-04-08 21:36:49.136717,94468,1609503381250488,981217051,0.550464,-0.103456,0.698816,15.295,-1.84625,-3.6925,-7.288001,-15.512001,23.824001,inter_set_rest,0,3.0,18362.0,140040.0,228865.0,281216.0,263576.0
2026-04-08 21:36:49.146857,94469,1609503381264964,981231957,0.550464,-0.103456,0.698816,10.4825,-0.2975,-0.98875,-7.288001,-15.512001,23.824001,inter_set_rest,0,3.0,18362.0,140040.0,228865.0,281216.0,263576.0
2026-04-08 21:36:49.175654,94480,1609503381273872,981240625,0.568032,-0.130784,0.864736,2.35375,0.81375,0.49,-7.144001,-15.384001,23.848001,inter_set_rest,0,3.0,18270.0,139675.0,228493.0,280990.0,263493.0
2026-04-08 21:36:49.176875,94481,1609503381288689,981255590,0.568032,-0.130784,0.864736,-4.7775,1.89,0.07,-7.144001,-15.384001,23.848001,inter_set_rest,0,3.0,18270.0,139675.0,228493.0,280990.0,263493.0
2026-04-08 21:36:49.179584,94482,1609503381297652,981264294,0.50752,-0.18544,0.806176,-11.08625,2.59,-1.19,-7.144001,-15.232,22.968,inter_set_rest,0,3.0,18270.0,139675.0,228493.0,280990.0,263493.0
2026-04-08 21:36:49.185600,94483,1609503381306601,981272973,0.50752,-0.18544,0.806176,-12.32875,3.5525,-2.10875,-7.144001,-15.232,22.968,inter_set_rest,0,3.0,18270.0,139675.0,228493.0,280990.0,263493.0
2026-04-08 21:36:49.188070,94484,1609503381321122,981287873,0.501664,-0.167872,0.81984,-9.19625,4.0425,-4.0425,-7.152,-15.208001,23.904001,inter_set_rest,0,3.0,18270.0,139675.0,228493.0,280990.0,263493.0
2026-04-08 21:36:49.190509,94485,1609503381330069,981296584,0.501664,-0.167872,0.866688,-5.25,3.57875,-6.8775,-7.152,-15.208001,23.904001,inter_set_rest,0,3.0,18270.0,139675.0,228493.0,280990.0,263493.0
2026-04-08 21:36:49.196981,94486,1609503381344567,981311487,0.534848,-0.128832,0.864736,-2.72125,3.64,-9.17,-7.08,-15.344001,26.056002,inter_set_rest,0,3.0,18270.0,139675.0,228493.0,280990.0,263493.0
2026-04-08 21:36:49.201850,94487,1609503381353445,981320171,0.530944,-0.177632,0.700768,-3.75375,3.43,-9.6425,-7.424,-15.240001,24.632002,inter_set_rest,0,3.0,18270.0,139675.0,228493.0,280990.0,263493.0
2026-04-08 21:36:49.238244,94488,1609503381367933,981335033,0.530944,-0.177632,0.700768,-6.2125,3.045,-8.19,-7.424,-15.240001,24.632002,inter_set_rest,0,3.0,18270.0,139675.0,228493.0,280990.0,263493.0
2026-04-08 21:36:49.266812,94499,1609503381377237,981343767,0.540704,-0.20496,0.788608,-9.35375,3.19375,-7.20125,-7.104001,-15.216001,23.832,inter_set_rest,0,3.0,18141.0,139280.0,228048.0,280654.0,263311.0
2026-04-08 21:36:49.269407,94500,1609503381386274,981352469,0.540704,-0.20496,0.788608,-11.68125,3.7625,-7.90125,-7.104001,-15.216001,23.832,inter_set_rest,0,3.0,18141.0,139280.0,228048.0,280654.0,263311.0
2026-04-08 21:36:49.271833,94501,1609503381400750,981367334,0.5368,-0.199104,0.812032,-13.4225,4.41,-8.18125,-6.608,-15.256001,23.800001,inter_set_rest,0,3.0,18141.0,139280.0,228048.0,280654.0,263311.0
2026-04-08 21:36:49.274273,94502,1609503381409862,981376070,0.5368,-0.199104,0.812032,-14.21,5.25875,-7.6475,-6.608,-15.256001,23.800001,inter_set_rest,0,3.0,18141.0,139280.0,228048.0,280654.0,263311.0
2026-04-08 21:36:49.276782,94503,1609503381424394,981391006,0.47824,-0.187392,0.573888,-14.49,5.74875,-6.51875,-6.672,-15.096001,24.888,inter_set_rest,0,3.0,18141.0,139280.0,228048.0,280654.0,263311.0
2026-04-08 21:36:49.280549,94504,1609503381433316,981399723,0.431392,-0.154208,0.650016,-14.21,5.5125,-6.11625,-6.496,-14.568001,24.800001,inter_set_rest,0,3.0,18141.0,139280.0,228048.0,280654.0,263311.0
2026-04-08 21:36:49.310776,94505,1609503381442256,981408387,0.431392,-0.154208,0.650016,-14.3675,5.11,-6.90375,-6.496,-14.568001,24.800001,inter_set_rest,0,3.0,18141.0,139280.0,228048.0,280654.0,263311.0
2026-04-08 21:36:49.314586,94506,1609503381456727,981423306,0.42944,-0.171776,0.523136,-15.96875,4.6025,-7.37625,-6.624001,-14.888001,24.344002,inter_set_rest,0,3.0,18141.0,139280.0,228048.0,280654.0,263311.0
2026-04-08 21:36:49.320635,94507,1609503381465637,981431965,0.42944,-0.171776,0.523136,-17.59625,3.54375,-6.81625,-6.624001,-14.888001,24.344002,inter_set_rest,0,3.0,18141.0,139280.0,228048.0,280654.0,263311.0
2026-04-08 21:36:49.359305,94518,1609503381480271,981447137,0.544608,-0.228384,0.681248,-19.48625,2.0475,-6.78125,-6.848001,-14.456,25.584002,inter_set_rest,0,3.0,18146.0,139224.0,227920.0,280482.0,263148.0
2026-04-08 21:36:49.361774,94519,1609503381489256,981455885,0.544608,-0.228384,0.681248,-20.71125,0.4025,-7.1575,-6.848001,-14.456,25.584002,inter_set_rest,0,3.0,18146.0,139224.0,227920.0,280482.0,263148.0
2026-04-08 21:36:49.364325,94520,1609503381503736,981470793,0.569984,-0.261568,0.76128,-20.34375,-0.20125,-7.14,-6.608,-14.088,25.144001,inter_set_rest,0,3.0,18146.0,139224.0,227920.0,280482.0,263148.0
2026-04-08 21:36:49.366863,94521,1609503381512676,981479457,0.57584,-0.218624,0.747616,-19.897501,-0.18375,-6.36125,-6.72,-13.928,25.136002,inter_set_rest,0,3.0,18146.0,139224.0,227920.0,280482.0,263148.0
2026-04-08 21:36:49.369389,94522,1609503381521622,981488128,0.57584,-0.218624,0.747616,-17.6225,-0.55125,-3.3425,-6.72,-13.928,25.136002,inter_set_rest,0,3.0,18146.0,139224.0,227920.0,280482.0,263148.0
2026-04-08 21:36:49.436958,94523,1609503381536091,981502989,0.577792,-0.162016,0.84912,-13.41375,-1.39125,0.5775,-6.64,-13.992001,24.864,inter_set_rest,0,3.0,18146.0,139224.0,227920.0,280482.0,263148.0
2026-04-08 21:36:49.439524,94524,1609503381545015,981511676,0.577792,-0.162016,0.84912,-10.43875,-2.47625,1.015,-6.64,-13.992001,24.864,inter_set_rest,0,3.0,18146.0,139224.0,227920.0,280482.0,263148.0
2026-04-08 21:36:49.441811,94525,1609503381559489,981526561,0.542656,-0.216672,0.825696,-11.1125,-2.84375,-1.1375,-6.352,-14.040001,26.592001,inter_set_rest,0,3.0,18146.0,139224.0,227920.0,280482.0,263148.0
2026-04-08 21:36:49.444344,94526,1609503381568418,981535234,0.542656,-0.216672,0.825696,-13.83375,-2.275,-2.14375,-6.352,-14.040001,26.592001,inter_set_rest,0,3.0,18146.0,139224.0,227920.0,280482.0,263148.0
2026-04-08 21:36:49.471809,94537,1609503381582971,981548141,0.554368,-0.218624,0.774944,-16.05625,-1.47875,-2.07375,-6.488,-13.816001,24.464,inter_set_rest,0,3.0,18114.0,139143.0,227744.0,280297.0,263008.0
2026-04-08 21:36:49.479667,94538,1609503381592093,981558823,0.554368,-0.105408,0.83936,-16.96625,-0.595,-0.44625,-6.488,-13.816001,24.464,inter_set_rest,0,3.0,18114.0,139143.0,227744.0,280297.0,263008.0
2026-04-08 21:36:49.481860,94539,1609503381601028,981567509,0.569984,-0.105408,0.83936,-12.32,-0.23625,-0.3675,-6.384,-13.712001,25.640001,inter_set_rest,0,3.0,18114.0,139143.0,227744.0,280297.0,263008.0
2026-04-08 21:36:49.488127,94540,1609503381615615,981582419,0.552416,-0.121024,0.735904,-6.335,0.9275,-2.54625,-6.376,-13.648001,25.896002,inter_set_rest,0,3.0,18114.0,139143.0,227744.0,280297.0,263008.0
2026-04-08 21:36:49.490595,94541,1609503381624534,981591091,0.552416,-0.121024,0.735904,-3.745,4.10375,-6.02875,-6.376,-13.648001,25.896002,inter_set_rest,0,3.0,18114.0,139143.0,227744.0,280297.0,263008.0
2026-04-08 21:36:49.493527,94542,1609503381639024,981605982,0.544608,-0.150304,0.698816,-10.0625,8.14625,-6.615,-6.224001,-13.312,25.320002,inter_set_rest,0,3.0,18114.0,139143.0,227744.0,280297.0,263008.0
2026-04-08 21:36:49.495562,94543,1609503381647969,981614724,0.544608,-0.150304,0.698816,-21.58625,11.66375,-2.205,-6.224001,-13.312,25.320002,inter_set_rest,0,3.0,18114.0,139143.0,227744.0,280297.0,263008.0
2026-04-08 21:36:49.525871,94544,1609503381662453,981627606,0.474336,-0.187392,0.732,-33.08375,11.76875,4.43625,-6.048,-12.848001,26.312002,inter_set_rest,0,3.0,18114.0,139143.0,227744.0,280297.0,263008.0
2026-04-08 21:36:49.529348,94545,1609503381671585,981638336,0.474336,-0.187392,0.732,-45.3425,12.2325,6.53625,-6.048,-12.848001,26.312002,inter_set_rest,0,3.0,18114.0,139143.0,227744.0,280297.0,263008.0
2026-04-08 21:36:49.556936,94556,1609503381680675,981647063,0.542656,-0.140544,0.798368,-52.61375,11.34875,6.055,-5.552,-12.104001,25.232,inter_set_rest,0,3.0,18226.0,139628.0,228354.0,280761.0,263315.0
