pc_time,serial_num,sensor_ts,host_ts,ax,ay,az,gx,gy,gz,mx,my,mz,phase,rpe,weight_kg,ppg_a,ppg_b,ppg_c,ppg_d,ppg_e
2026-04-09 22:09:58.719884,235348,1528728799,1528730538,-0.954528,0.398208,0.062464,-1.5225,10.2375,-8.58375,26.496002,-14.472001,24.312,inter_set_rest,6,5.0,42003.0,368191.0,110656.0,551.0,-147.0
2026-04-09 22:09:58.722031,235349,1528737727,1528739243,-0.954528,0.398208,0.062464,-4.27,10.78,-10.47375,26.496002,-14.472001,24.312,inter_set_rest,6,5.0,42003.0,368191.0,110656.0,551.0,-147.0
2026-04-09 22:09:58.726574,235350,1528746653,1528747942,-0.981856,0.388448,0.050752,-4.71625,12.18,-12.20625,26.264002,-14.728001,23.960001,inter_set_rest,6,5.0,42003.0,368191.0,110656.0,551.0,-147.0
2026-04-09 22:09:58.813343,235361,1528761626,1528762871,-0.981856,0.388448,0.050752,-3.15875,13.09,-13.4925,26.264002,-14.728001,23.960001,inter_set_rest,6,5.0,41984.0,369374.0,111514.0,626.0,-141.0
2026-04-09 22:09:58.832975,235362,1528770607,1528771589,-0.94672,0.415776,0.08784,-1.49625,14.16625,-14.20125,26.264002,-14.048,24.392002,inter_set_rest,6,5.0,41984.0,369374.0,111514.0,626.0,-141.0
2026-04-09 22:09:58.834614,235363,1528779529,1528780324,-0.94672,0.415776,0.08784,-1.715,14.35875,-14.86625,26.264002,-14.048,24.392002,inter_set_rest,6,5.0,41984.0,369374.0,111514.0,626.0,-141.0
2026-04-09 22:09:58.837081,235364,1528788926,1528791066,-0.950624,0.40992,0.07808,-2.52,13.9825,-16.0125,26.880001,-14.368001,23.800001,inter_set_rest,6,5.0,41984.0,369374.0,111514.0,626.0,-141.0
2026-04-09 22:09:58.838761,235365,1528803493,1528803949,-0.950624,0.40992,0.07808,-3.6575,13.46625,-17.03625,26.880001,-14.368001,23.800001,inter_set_rest,6,5.0,41984.0,369374.0,111514.0,626.0,-141.0
2026-04-09 22:09:58.846749,235366,1528813007,1528814738,-0.944768,0.407968,0.07808,-3.0625,13.22125,-17.33375,26.752,-14.272,24.736002,inter_set_rest,6,5.0,41984.0,369374.0,111514.0,626.0,-141.0
2026-04-09 22:09:58.848369,235367,1528821944,1528823427,-0.944768,0.407968,0.07808,-1.2775,13.1075,-18.03375,26.752,-14.272,24.736002,inter_set_rest,6,5.0,41984.0,369374.0,111514.0,626.0,-141.0
2026-04-09 22:09:58.849959,235368,1528830883,1528832118,-0.952576,0.437248,0.080032,-0.6475,13.055,-18.27875,26.352001,-14.504001,23.816002,inter_set_rest,6,5.0,41984.0,369374.0,111514.0,626.0,-141.0
2026-04-09 22:09:58.854137,235369,1528845340,1528847094,-0.944768,0.433344,0.093696,-1.04125,13.86875,-19.53,26.160002,-13.304001,24.568,inter_set_rest,6,5.0,41984.0,369374.0,111514.0,626.0,-141.0
2026-04-09 22:09:58.856758,235370,1528854265,1528855786,-0.944768,0.433344,0.093696,-1.42625,14.2975,-21.2975,26.160002,-13.304001,24.568,inter_set_rest,6,5.0,41984.0,369374.0,111514.0,626.0,-141.0
2026-04-09 22:09:58.882439,235380,1528863262,1528864543,-0.944768,0.433344,0.093696,-3.36875,13.81625,-22.26875,26.160002,-13.304001,24.568,inter_set_rest,6,5.0,41978.0,370361.0,112216.0,682.0,-135.0
2026-04-09 22:09:58.886656,235381,1528877807,1528879497,-0.958432,0.404064,0.072224,-2.80875,13.65,-22.63625,25.656002,-13.216001,24.808,inter_set_rest,6,5.0,41978.0,370361.0,112216.0,682.0,-135.0
2026-04-09 22:09:58.888324,235382,1528886743,1528888255,-0.958432,0.4392,0.06832,-0.77875,13.615,-23.2575,26.424002,-13.776001,23.352001,inter_set_rest,6,5.0,41978.0,370361.0,112216.0,682.0,-135.0
2026-04-09 22:09:58.889916,235383,1528895705,1528896957,-0.958432,0.4392,0.06832,1.82875,12.7225,-24.36,26.424002,-13.776001,23.352001,inter_set_rest,6,5.0,41978.0,370361.0,112216.0,682.0,-135.0
2026-04-09 22:09:58.892303,235384,1528910179,1528911868,-0.977952,0.40992,0.091744,2.09125,13.09,-24.85,26.744001,-13.240001,23.368002,inter_set_rest,6,5.0,41978.0,370361.0,112216.0,682.0,-135.0
2026-04-09 22:09:58.894840,235385,1528919230,1528920597,-0.977952,0.40992,0.091744,1.0325,12.74875,-25.3225,26.744001,-13.240001,23.368002,inter_set_rest,6,5.0,41978.0,370361.0,112216.0,682.0,-135.0
2026-04-09 22:09:58.902952,235386,1528928170,1528929345,-0.977952,0.427488,0.11712,1.6625,13.15125,-24.77125,26.888,-12.544001,23.064001,inter_set_rest,6,5.0,41978.0,370361.0,112216.0,682.0,-135.0
2026-04-09 22:09:58.931259,235387,1528942700,1528944240,-0.977952,0.427488,0.11712,3.63125,13.6325,-25.48,26.888,-12.544001,23.064001,inter_set_rest,6,5.0,41978.0,370361.0,112216.0,682.0,-135.0
2026-04-09 22:09:58.934874,235388,1528951633,1528953037,-0.99552,0.41968,0.081984,3.17625,14.385,-25.45375,26.568,-12.960001,24.504002,inter_set_rest,6,5.0,41978.0,370361.0,112216.0,682.0,-135.0
2026-04-09 22:09:58.937477,235389,1528960542,1528961721,-0.99552,0.41968,0.081984,1.09375,14.77,-25.366251,26.568,-12.960001,24.504002,inter_set_rest,6,5.0,41978.0,370361.0,112216.0,682.0,-135.0
2026-04-09 22:09:58.966063,235399,1528969477,1528970507,-1.001376,0.40992,0.072224,0.7,15.35625,-24.59625,26.984001,-12.312,22.432001,inter_set_rest,6,5.0,41904.0,374082.0,114961.0,968.0,-147.0
2026-04-09 22:09:58.968653,235400,1528983968,1528985424,-1.001376,0.40992,0.072224,2.0825,15.44375,-24.1325,26.984001,-12.312,22.432001,inter_set_rest,6,5.0,41904.0,374082.0,114961.0,968.0,-147.0
2026-04-09 22:09:58.971141,235401,1528992953,1528994067,-1.01504,0.417728,0.083936,3.08875,15.93375,-23.7825,25.544,-12.360001,26.608002,inter_set_rest,6,5.0,41904.0,374082.0,114961.0,968.0,-147.0
2026-04-09 22:09:58.974935,235402,1529001876,1529002783,-1.01504,0.417728,0.083936,0.6825,15.86375,-24.78,25.544,-12.360001,26.608002,inter_set_rest,6,5.0,41904.0,374082.0,114961.0,968.0,-147.0
2026-04-09 22:09:59.005182,235403,1529016351,1529017697,-1.003328,0.404064,0.085888,0.6125,15.53125,-24.465,25.368002,-11.608001,24.6,inter_set_rest,6,5.0,41904.0,374082.0,114961.0,968.0,-147.0
2026-04-09 22:09:59.008786,235404,1529025244,1529026362,-1.003328,0.398208,0.0976,1.63625,14.9975,-24.82375,25.368002,-11.608001,22.032001,inter_set_rest,6,5.0,41904.0,374082.0,114961.0,968.0,-147.0
2026-04-09 22:09:59.011147,235405,1529034147,1529035108,-1.003328,0.398208,0.0976,2.835,14.8225,-25.41,27.320002,-11.64,22.032001,inter_set_rest,6,5.0,41904.0,374082.0,114961.0,968.0,-147.0
2026-04-09 22:09:59.041407,235406,1529048655,1529050067,-1.009184,0.413824,0.083936,4.34,14.805,-24.955,25.544,-11.64,23.264002,inter_set_rest,6,5.0,41904.0,374082.0,114961.0,968.0,-147.0
2026-04-09 22:09:59.068876,235407,1529057579,1529058764,-1.009184,0.413824,0.083936,5.76625,14.69125,-24.71875,25.544,-11.64,23.264002,inter_set_rest,6,5.0,41904.0,374082.0,114961.0,968.0,-147.0
2026-04-09 22:09:59.130013,235417,1529066637,1529067669,-1.001376,0.388448,0.072224,6.195,15.0675,-24.7275,27.016,-11.592001,23.896002,inter_set_rest,6,5.0,41834.0,375687.0,116037.0,1106.0,-127.0
2026-04-09 22:09:59.132444,235418,1529081167,1529082564,-1.001376,0.388448,0.072224,5.66125,14.945,-24.92,27.016,-11.592001,23.896002,inter_set_rest,6,5.0,41834.0,375687.0,116037.0,1106.0,-127.0
2026-04-09 22:09:59.134941,235419,1529090087,1529091268,-0.99552,0.404064,0.080032,5.92375,14.1575,-25.095,26.656002,-11.592001,21.720001,inter_set_rest,6,5.0,41834.0,375687.0,116037.0,1106.0,-127.0
2026-04-09 22:09:59.137963,235420,1529098973,1529099955,-0.99552,0.404064,0.080032,7.53375,13.65,-25.19125,26.656002,-11.592001,21.720001,inter_set_rest,6,5.0,41834.0,375687.0,116037.0,1106.0,-127.0
2026-04-09 22:09:59.139920,235421,1529108009,1529108734,-0.993568,0.384544,0.083936,7.74375,12.5825,-25.725,25.840002,-11.224001,22.416,inter_set_rest,6,5.0,41834.0,375687.0,116037.0,1106.0,-127.0
2026-04-09 22:09:59.143392,235422,1529122900,1529123631,-0.993568,0.384544,0.083936,8.05875,12.31125,-25.7075,25.840002,-11.224001,22.416,inter_set_rest,6,5.0,41834.0,375687.0,116037.0,1106.0,-127.0
2026-04-09 22:09:59.145462,235423,1529132214,1529134375,-0.999424,0.404064,0.066368,9.205,11.55,-25.59375,27.752,-10.592001,21.336,inter_set_rest,6,5.0,41834.0,375687.0,116037.0,1106.0,-127.0
2026-04-09 22:09:59.148671,235424,1529141189,1529143142,-0.999424,0.404064,0.066368,9.52,11.34,-25.55875,27.752,-10.592001,21.336,inter_set_rest,6,5.0,41834.0,375687.0,116037.0,1106.0,-127.0
2026-04-09 22:09:59.149865,235425,1529155821,1529158090,-1.01504,0.36112,0.06832,9.292501,10.66625,-26.27625,26.584002,-10.248,22.384,inter_set_rest,6,5.0,41834.0,375687.0,116037.0,1106.0,-127.0
2026-04-09 22:09:59.177474,235436,1529164919,1529166853,-1.01504,0.36112,0.06832,9.84375,9.66875,-25.85625,26.584002,-10.248,22.384,inter_set_rest,6,5.0,41785.0,377340.0,117211.0,1243.0,-137.0
2026-04-09 22:09:59.179810,235437,1529174033,1529175595,-1.00528,0.3904,0.062464,12.88875,8.98625,-25.4275,26.144001,-10.592001,23.016,inter_set_rest,6,5.0,41785.0,377340.0,117211.0,1243.0,-137.0
2026-04-09 22:09:59.182429,235438,1529182995,1529184376,-1.00528,0.3904,0.062464,14.21,8.19,-25.795,26.144001,-10.592001,23.016,inter_set_rest,6,5.0,41785.0,377340.0,117211.0,1243.0,-137.0
2026-04-09 22:09:59.185006,235439,1529197592,1529199314,-1.013088,0.384544,0.060512,12.1625,7.9625,-26.04875,26.000002,-10.256001,22.024,inter_set_rest,6,5.0,41785.0,377340.0,117211.0,1243.0,-137.0
2026-04-09 22:09:59.187487,235440,1529206535,1529208051,-1.011136,0.363072,0.085888,11.50625,7.84,-25.7075,25.936,-9.480001,22.04,inter_set_rest,6,5.0,41785.0,377340.0,117211.0,1243.0,-137.0
2026-04-09 22:09:59.189960,235441,1529215569,1529216826,-1.011136,0.363072,0.085888,10.745,7.93625,-25.57625,25.936,-9.480001,22.04,inter_set_rest,6,5.0,41785.0,377340.0,117211.0,1243.0,-137.0
2026-04-09 22:09:59.220105,235442,1529230066,1529231852,-1.00528,0.38064,0.080032,10.05375,8.2075,-24.87625,26.832,-9.72,20.328001,inter_set_rest,6,5.0,41785.0,377340.0,117211.0,1243.0,-137.0
2026-04-09 22:09:59.224362,235443,1529238976,1529240578,-1.00528,0.38064,0.080032,10.07125,8.6975,-24.01875,26.832,-9.72,20.328001,inter_set_rest,6,5.0,41785.0,377340.0,117211.0,1243.0,-137.0
2026-04-09 22:09:59.228521,235444,1529247923,1529249311,-1.001376,0.365024,0.052704,10.6575,8.67125,-24.815,26.504002,-9.120001,20.512001,inter_set_rest,6,5.0,41785.0,377340.0,117211.0,1243.0,-137.0
2026-04-09 22:09:59.231152,235445,1529256852,1529258019,-1.001376,0.365024,0.052704,8.72375,9.135,-25.06,26.504002,-9.120001,20.512001,inter_set_rest,6,5.0,41785.0,377340.0,117211.0,1243.0,-137.0
2026-04-09 22:09:59.259899,235455,1529271417,1529273106,-1.01504,0.368928,0.040992,8.49625,9.05625,-24.605,26.840002,-9.272,20.328001,inter_set_rest,6,5.0,41731.0,378623.0,118054.0,1355.0,-150.0
2026-04-09 22:09:59.262489,235456,1529280417,1529281937,-1.01504,0.368928,0.040992,9.33625,8.68,-24.9725,26.840002,-9.272,20.328001,inter_set_rest,6,5.0,41731.0,378623.0,118054.0,1355.0,-150.0
2026-04-09 22:09:59.264916,235457,1529289440,1529290703,-1.007232,0.384544,0.052704,9.6075,8.26,-24.64,26.576002,-8.496,22.504002,inter_set_rest,6,5.0,41731.0,378623.0,118054.0,1355.0,-150.0
2026-04-09 22:09:59.295119,235458,1529303935,1529305649,-1.007232,0.384544,0.052704,9.98375,7.83125,-24.5875,26.576002,-8.496,22.504002,inter_set_rest,6,5.0,41731.0,378623.0,118054.0,1355.0,-150.0
2026-04-09 22:09:59.298745,235459,1529312910,1529314328,-1.013088,0.365024,0.040992,10.00125,7.42875,-24.9025,27.272001,-8.512,19.800001,inter_set_rest,6,5.0,41731.0,378623.0,118054.0,1355.0,-150.0
2026-04-09 22:09:59.302039,235460,1529321852,1529323029,-1.013088,0.365024,0.040992,9.31,6.8075,-25.34,27.272001,-8.512,19.800001,inter_set_rest,6,5.0,41731.0,378623.0,118054.0,1355.0,-150.0
2026-04-09 22:09:59.332410,235461,1529336389,1529337941,-1.020896,0.355264,0.044896,9.94,6.64125,-25.4975,27.2,-9.120001,19.728,inter_set_rest,6,5.0,41731.0,378623.0,118054.0,1355.0,-150.0
2026-04-09 22:09:59.334611,235462,1529345322,1529346638,-1.020896,0.355264,0.044896,10.71875,5.92375,-25.7425,27.2,-9.120001,19.728,inter_set_rest,6,5.0,41731.0,378623.0,118054.0,1355.0,-150.0
2026-04-09 22:09:59.339291,235463,1529354230,1529355312,-1.0248,0.36112,0.021472,10.64,4.725,-25.22625,26.952002,-8.464001,19.776001,inter_set_rest,6,5.0,41731.0,378623.0,118054.0,1355.0,-150.0
2026-04-09 22:09:59.363473,235473,1529369025,1529370336,-1.028704,0.353312,0.054656,12.22375,3.7625,-24.6575,25.088001,-8.344001,21.096,inter_set_rest,6,5.0,41655.0,380406.0,119266.0,1546.0,-137.0
2026-04-09 22:09:59.365006,235474,1529378015,1529379104,-1.028704,0.353312,0.054656,13.46625,3.43,-24.50875,25.088001,-8.344001,21.096,inter_set_rest,6,5.0,41655.0,380406.0,119266.0,1546.0,-137.0
2026-04-09 22:09:59.369240,235475,1529386930,1529387822,-1.0248,0.365024,0.054656,13.2825,3.8675,-24.115,24.880001,-8.120001,21.568,inter_set_rest,6,5.0,41655.0,380406.0,119266.0,1546.0,-137.0
2026-04-09 22:09:59.371688,235476,1529395877,1529396529,-1.0248,0.365024,0.054656,12.36375,4.6025,-23.24,24.880001,-8.120001,21.568,inter_set_rest,6,5.0,41655.0,380406.0,119266.0,1546.0,-137.0
2026-04-09 22:09:59.410225,235477,1529410776,1529411493,-1.03456,0.3416,0.027328,10.87625,4.935,-23.0825,26.880001,-7.920001,19.832,inter_set_rest,6,5.0,41655.0,380406.0,119266.0,1546.0,-137.0
2026-04-09 22:09:59.413739,235478,1529420116,1529422269,-1.03456,0.3416,0.027328,10.0975,5.1975,-22.4875,26.880001,-7.920001,19.832,inter_set_rest,6,5.0,41655.0,380406.0,119266.0,1546.0,-137.0
2026-04-09 22:09:59.416196,235479,1529429047,1529430969,-1.040416,0.33184,0.013664,10.0625,5.67875,-22.02375,26.704,-7.672,19.720001,inter_set_rest,6,5.0,41655.0,380406.0,119266.0,1546.0,-137.0
2026-04-09 22:09:59.418748,235480,1529438031,1529439667,-1.040416,0.33184,0.013664,10.92875,4.87375,-21.44625,26.704,-7.672,19.720001,inter_set_rest,6,5.0,41655.0,380406.0,119266.0,1546.0,-137.0
2026-04-09 22:09:59.450168,235481,1529452590,1529454573,-1.040416,0.327936,0.007808,12.6175,4.2525,-20.755,27.072,-7.416,20.264002,inter_set_rest,6,5.0,41655.0,380406.0,119266.0,1546.0,-137.0
2026-04-09 22:09:59.453737,235482,1529461560,1529463346,-1.040416,0.327936,0.007808,13.545,4.08625,-20.4225,27.072,-7.416,20.264002,inter_set_rest,6,5.0,41655.0,380406.0,119266.0,1546.0,-137.0
2026-04-09 22:09:59.481293,235493,1529470598,1529472114,-1.04432,0.296704,0.003904,14.4025,3.52625,-20.23875,26.608002,-7.376,19.776001,inter_set_rest,6,5.0,41492.0,382985.0,121045.0,1853.0,-148.0
2026-04-09 22:09:59.483704,235494,1529485198,1529487049,-1.04432,0.296704,0.003904,14.69125,3.675,-18.66375,26.608002,-7.376,19.776001,inter_set_rest,6,5.0,41492.0,382985.0,121045.0,1853.0,-148.0
2026-04-09 22:09:59.486196,235495,1529494160,1529495758,-1.059936,0.30256,0.021472,16.66,3.85,-17.31625,26.160002,-7.184001,21.112001,inter_set_rest,6,5.0,41492.0,382985.0,121045.0,1853.0,-148.0
2026-04-09 22:09:59.488729,235496,1529503236,1529504574,-1.059936,0.30256,0.021472,17.1325,4.03375,-16.96625,26.160002,-7.184001,21.112001,inter_set_rest,6,5.0,41492.0,382985.0,121045.0,1853.0,-148.0
2026-04-09 22:09:59.494997,235497,1529517808,1529519534,-1.056032,0.28304,0.031232,16.66,4.12125,-14.7,25.904001,-7.64,20.664001,inter_set_rest,6,5.0,41492.0,382985.0,121045.0,1853.0,-148.0
2026-04-09 22:09:59.501215,235498,1529526760,1529528245,-1.056032,0.314272,0.01952,17.43875,4.2175,-12.8625,25.904001,-7.64,20.664001,inter_set_rest,6,5.0,41492.0,382985.0,121045.0,1853.0,-148.0
2026-04-09 22:09:59.531389,235499,1529535716,1529536946,-1.050176,0.320128,0.01952,18.52375,4.75125,-11.94375,26.688002,-7.288001,19.072,inter_set_rest,6,5.0,41492.0,382985.0,121045.0,1853.0,-148.0
2026-04-09 22:09:59.534977,235500,1529544621,1529545683,-1.050176,0.320128,0.01952,17.26375,4.73375,-12.24125,26.688002,-7.288001,19.072,inter_set_rest,6,5.0,41492.0,382985.0,121045.0,1853.0,-148.0
2026-04-09 22:09:59.537459,235501,1529559142,1529560581,-1.046272,0.294752,0.011712,14.8575,5.4425,-11.87375,26.544,-6.632,19.416,inter_set_rest,6,5.0,41492.0,382985.0,121045.0,1853.0,-148.0
2026-04-09 22:09:59.562401,235511,1529568149,1529569390,-1.042368,0.267424,0.003904,13.8075,6.2825,-11.66375,26.6,-6.832,19.576,inter_set_rest,6,5.0,41345.0,383506.0,121258.0,1939.0,-136.0
2026-04-09 22:09:59.564923,235512,1529577102,1529578248,-1.042368,0.267424,0.003904,11.54125,7.72625,-10.70125,26.6,-6.832,19.576,inter_set_rest,6,5.0,41345.0,383506.0,121258.0,1939.0,-136.0
2026-04-09 22:09:59.567380,235513,1529591703,1529593219,-1.046272,0.249856,0.011712,10.26375,8.47875,-9.205,25.976002,-6.64,18.736,inter_set_rest,6,5.0,41345.0,383506.0,121258.0,1939.0,-136.0
2026-04-09 22:09:59.573693,235514,1529600746,1529601937,-1.046272,0.249856,0.011712,10.22,9.0125,-7.735,25.976002,-6.64,18.736,inter_set_rest,6,5.0,41345.0,383506.0,121258.0,1939.0,-136.0
2026-04-09 22:09:59.603938,235515,1529609667,1529610730,-1.056032,0.247904,-0.00976,10.115,9.70375,-6.4575,25.336,-7.224001,20.128,inter_set_rest,6,5.0,41345.0,383506.0,121258.0,1939.0,-136.0
2026-04-09 22:09:59.607510,235516,1529624144,1529625647,-1.056032,0.247904,-0.00976,10.5,10.01,-3.89375,25.336,-7.224001,20.128,inter_set_rest,6,5.0,41345.0,383506.0,121258.0,1939.0,-136.0
2026-04-09 22:09:59.609857,235517,1529633084,1529634357,-1.038464,0.226432,-0.033184,10.89375,9.96625,-2.47625,26.560001,-7.72,18.912,inter_set_rest,6,5.0,41345.0,383506.0,121258.0,1939.0,-136.0
2026-04-09 22:09:59.616190,235518,1529642048,1529643096,-1.038464,0.226432,-0.033184,10.85,9.345,-0.6475,26.560001,-7.72,18.912,inter_set_rest,6,5.0,41345.0,383506.0,121258.0,1939.0,-136.0
2026-04-09 22:09:59.646864,235519,1529650989,1529651872,-1.026752,0.245952,-0.01952,13.2125,8.96,1.2075,26.704,-7.264,18.800001,inter_set_rest,6,5.0,41345.0,383506.0,121258.0,1939.0,-136.0
2026-04-09 22:09:59.717395,235529,1529665484,1529666848,-1.026752,0.245952,-0.01952,13.195,8.77625,1.00625,26.704,-7.264,18.800001,inter_set_rest,6,5.0,40962.0,385013.0,122135.0,2204.0,-148.0
2026-04-09 22:09:59.719926,235530,1529674404,1529675582,-1.007232,0.251808,-0.00976,11.64625,8.785,0.86625,25.984001,-7.024,16.312,inter_set_rest,6,5.0,40962.0,385013.0,122135.0,2204.0,-148.0
2026-04-09 22:09:59.722415,235531,1529683321,1529684337,-1.007232,0.251808,-0.00976,11.69,9.66,0.34125,25.984001,-7.024,16.312,inter_set_rest,6,5.0,40962.0,385013.0,122135.0,2204.0,-148.0
2026-04-09 22:09:59.724981,235532,1529697809,1529699289,-0.991616,0.255712,-0.011712,10.91125,10.815,-1.4175,25.752,-6.888001,18.328001,inter_set_rest,6,5.0,40962.0,385013.0,122135.0,2204.0,-148.0
2026-04-09 22:09:59.727491,235533,1529706727,1529707997,-0.991616,0.255712,-0.011712,9.44125,10.43875,-2.49375,25.752,-6.888001,18.328001,inter_set_rest,6,5.0,40962.0,385013.0,122135.0,2204.0,-148.0
2026-04-09 22:09:59.729933,235534,1529715645,1529716762,-0.98576,0.259616,-0.031232,9.45875,9.975,-4.0075,25.68,-6.784,15.784,inter_set_rest,6,5.0,40962.0,385013.0,122135.0,2204.0,-148.0
2026-04-09 22:09:59.732456,235535,1529730127,1529731661,-0.987712,0.269376,-0.031232,9.80875,9.6425,-5.46,25.976002,-6.696,18.072,inter_set_rest,6,5.0,40962.0,385013.0,122135.0,2204.0,-148.0
2026-04-09 22:09:59.734931,235536,1529739056,1529740388,-0.987712,0.269376,-0.031232,10.3775,9.0475,-6.64125,25.976002,-6.696,18.072,inter_set_rest,6,5.0,40962.0,385013.0,122135.0,2204.0,-148.0
2026-04-09 22:09:59.737463,235537,1529747989,1529749094,-0.983808,0.281088,-0.025376,10.66625,7.3675,-9.00375,25.976002,-6.768,18.672,inter_set_rest,6,5.0,40962.0,385013.0,122135.0,2204.0,-148.0
2026-04-09 22:09:59.739968,235538,1529762505,1529763996,-0.983808,0.281088,-0.025376,9.30125,6.4225,-13.6325,26.016,-6.768,18.672,inter_set_rest,6,5.0,40962.0,385013.0,122135.0,2204.0,-148.0
2026-04-09 22:09:59.773708,235549,1529771551,1529772754,-0.989664,0.269376,-0.027328,7.1225,5.87125,-17.185,26.304,-6.656,17.6,inter_set_rest,6,5.0,40550.0,387816.0,123761.0,2639.0,-151.0
2026-04-09 22:09:59.776215,235550,1529780479,1529781442,-0.989664,0.269376,-0.027328,2.40625,5.43375,-20.09875,26.304,-6.656,17.6,inter_set_rest,6,5.0,40550.0,387816.0,123761.0,2639.0,-151.0
2026-04-09 22:09:59.778710,235551,1529795010,1529796381,-1.011136,0.257664,-0.007808,0.35,5.9325,-24.053751,25.816002,-6.920001,18.776001,inter_set_rest,6,5.0,40550.0,387816.0,123761.0,2639.0,-151.0
2026-04-09 22:09:59.782713,235552,1529803929,1529805079,-1.011136,0.257664,-0.007808,-0.4725,6.09,-25.31375,25.816002,-6.920001,18.776001,inter_set_rest,6,5.0,40550.0,387816.0,123761.0,2639.0,-151.0
2026-04-09 22:09:59.787072,235553,1529812939,1529813783,-1.050176,0.26352,-0.040992,-0.9975,6.13375,-25.795,25.016,-6.328,19.096,inter_set_rest,6,5.0,40550.0,387816.0,123761.0,2639.0,-151.0
2026-04-09 22:09:59.816414,235554,1529821873,1529822538,-1.050176,0.26352,-0.040992,-2.82625,5.46875,-26.50375,25.016,-6.328,19.096,inter_set_rest,6,5.0,40550.0,387816.0,123761.0,2639.0,-151.0
2026-04-09 22:09:59.819973,235555,1529836700,1529837459,-1.0736,0.218624,-0.054656,-4.585,4.87375,-26.6175,25.864,-6.512,18.072,inter_set_rest,6,5.0,40550.0,387816.0,123761.0,2639.0,-151.0
2026-04-09 22:09:59.822406,235556,1529846061,1529848231,-1.0736,0.218624,-0.054656,-3.08875,4.41,-27.86875,25.864,-6.512,18.072,inter_set_rest,6,5.0,40550.0,387816.0,123761.0,2639.0,-151.0
2026-04-09 22:09:59.852800,235557,1529854993,1529856935,-1.091168,0.191296,-0.037088,-0.7875,5.25,-28.7,25.664001,-5.904,17.648,inter_set_rest,6,5.0,40550.0,387816.0,123761.0,2639.0,-151.0
2026-04-09 22:09:59.880528,235567,1529869774,1529870226,-1.147776,0.25376,0.015616,0.83125,5.145,-27.2125,25.728,-5.288,18.04,inter_set_rest,6,5.0,40605.0,392929.0,127459.0,3522.0,-142.0
2026-04-09 22:09:59.882180,235568,1529879174,1529881038,-1.147776,0.25376,0.015616,3.54375,4.2175,-26.85375,25.728,-5.288,18.04,inter_set_rest,6,5.0,40605.0,392929.0,127459.0,3522.0,-142.0
2026-04-09 22:09:59.884664,235569,1529888099,1529889834,-1.147776,0.31232,0.021472,3.87625,4.54125,-26.460001,25.728,-5.288,18.04,inter_set_rest,6,5.0,40605.0,392929.0,127459.0,3522.0,-142.0
2026-04-09 22:09:59.886161,235570,1529897135,1529898615,-1.208288,0.31232,0.021472,2.45875,5.31125,-26.0925,25.544,-5.352,15.472001,inter_set_rest,6,5.0,40605.0,392929.0,127459.0,3522.0,-142.0
2026-04-09 22:09:59.890462,235571,1529911619,1529913532,-1.18096,0.247904,0.021472,-3.7625,6.43125,-25.34,25.768002,-5.472,17.464,inter_set_rest,6,5.0,40605.0,392929.0,127459.0,3522.0,-142.0
2026-04-09 22:09:59.896698,235572,1529920572,1529922239,-1.18096,0.247904,0.021472,-8.3125,7.91,-24.89375,25.768002,-5.472,17.464,inter_set_rest,6,5.0,40605.0,392929.0,127459.0,3522.0,-142.0
2026-04-09 22:09:59.928126,235573,1529929477,1529930958,-1.194624,0.265472,-0.003904,-7.09625,8.19,-25.40125,24.696001,-5.56,18.720001,inter_set_rest,6,5.0,40605.0,392929.0,127459.0,3522.0,-142.0
2026-04-09 22:09:59.929693,235574,1529943980,1529945958,-1.194624,0.265472,-0.003904,-6.65,7.7,-27.2825,24.696001,-5.56,18.720001,inter_set_rest,6,5.0,40605.0,392929.0,127459.0,3522.0,-142.0
2026-04-09 22:09:59.931290,235575,1529952925,1529954650,-1.204384,0.199104,-0.03904,-8.7675,6.88625,-28.67375,25.336,-5.816001,17.264,inter_set_rest,6,5.0,40605.0,392929.0,127459.0,3522.0,-142.0
2026-04-09 22:09:59.938592,235576,1529961840,1529963372,-1.204384,0.199104,-0.03904,-11.1475,5.97625,-28.91875,25.336,-5.816001,17.264,inter_set_rest,6,5.0,40605.0,392929.0,127459.0,3522.0,-142.0
2026-04-09 22:09:59.967920,235586,1529971352,1529973195,-1.196576,0.18544,0.017568,-10.255,5.81,-27.475,25.624,-5.168,17.992,inter_set_rest,6,5.0,40881.0,397823.0,131067.0,4472.0,-156.0
2026-04-09 22:09:59.976911,235587,1529986610,1529988121,-1.196576,0.18544,0.017568,-6.72875,5.215,-25.40125,25.624,-5.168,17.992,inter_set_rest,6,5.0,40881.0,397823.0,131067.0,4472.0,-156.0
2026-04-09 22:10:00.011251,235588,1529995548,1529996797,-1.184864,0.230336,0.044896,-5.13625,4.7775,-22.5925,25.080002,-5.392,16.568,inter_set_rest,6,5.0,40881.0,397823.0,131067.0,4472.0,-156.0
2026-04-09 22:10:00.013449,235589,1530004554,1530005571,-1.184864,0.230336,0.044896,-5.27625,5.0925,-19.7925,25.080002,-5.392,16.568,inter_set_rest,6,5.0,40881.0,397823.0,131067.0,4472.0,-156.0
2026-04-09 22:10:00.016299,235590,1530013488,1530014284,-1.20048,0.226432,0.033184,-4.865,4.73375,-19.460001,23.544,-5.04,18.672,inter_set_rest,6,5.0,40881.0,397823.0,131067.0,4472.0,-156.0
2026-04-09 22:10:00.019668,235591,1530028048,1530029169,-1.20048,0.226432,0.033184,-5.635,4.55875,-17.8325,23.544,-5.04,18.672,inter_set_rest,6,5.0,40881.0,397823.0,131067.0,4472.0,-156.0
2026-04-09 22:10:00.022848,235592,1530037013,1530037859,-1.196576,0.21472,0.013664,-6.76375,4.17375,-18.0425,24.784,-5.344,16.408,inter_set_rest,6,5.0,40881.0,397823.0,131067.0,4472.0,-156.0
2026-04-09 22:10:00.025504,235593,1530045935,1530046592,-1.196576,0.21472,0.013664,-7.4025,3.85,-18.01625,24.784,-5.344,16.408,inter_set_rest,6,5.0,40881.0,397823.0,131067.0,4472.0,-156.0
2026-04-09 22:10:00.055004,235594,1530060791,1530061527,-1.184864,0.230336,0.003904,-7.06125,3.14125,-16.59,24.720001,-5.208,17.016,inter_set_rest,6,5.0,40881.0,397823.0,131067.0,4472.0,-156.0
2026-04-09 22:10:00.098418,235605,1530070673,1530072350,-1.192672,0.236192,0.005856,-6.78125,2.3275,-15.645,24.664001,-6.424,17.232,inter_set_rest,6,5.0,40928.0,399569.0,132313.0,4825.0,-158.0
2026-04-09 22:10:00.102704,235606,1530079760,1530081047,-1.192672,0.236192,0.005856,-8.1375,2.3975,-14.4375,24.664001,-6.424,17.232,inter_set_rest,6,5.0,40928.0,399569.0,132313.0,4825.0,-158.0
2026-04-09 22:10:00.105598,235607,1530088699,1530089771,-1.192672,0.236192,0.03904,-10.2375,2.8525,-12.69625,24.664001,-6.424,17.232,inter_set_rest,6,5.0,40928.0,399569.0,132313.0,4825.0,-158.0
2026-04-09 22:10:00.110591,235608,1530103240,1530104695,-1.167296,0.222528,0.03904,-12.075,3.7275,-11.235,23.608002,-5.616,17.256,inter_set_rest,6,5.0,40928.0,399569.0,132313.0,4825.0,-158.0
2026-04-09 22:10:00.112268,235609,1530112167,1530113582,-1.15168,0.247904,0.037088,-12.6875,3.8325,-10.115,24.456001,-5.456,16.712,inter_set_rest,6,5.0,40928.0,399569.0,132313.0,4825.0,-158.0
2026-04-09 22:10:00.114677,235610,1530121092,1530122325,-1.15168,0.247904,0.037088,-14.28,3.99,-10.01875,24.456001,-5.456,16.712,inter_set_rest,6,5.0,40928.0,399569.0,132313.0,4825.0,-158.0
2026-04-09 22:10:00.116241,235611,1530135580,1530137305,-1.182912,0.267424,-0.015616,-16.9225,4.1825,-10.87625,22.984001,-5.744,18.136002,inter_set_rest,6,5.0,40928.0,399569.0,132313.0,4825.0,-158.0
2026-04-09 22:10:00.118797,235612,1530144589,1530146056,-1.182912,0.267424,-0.015616,-18.47125,4.80375,-10.57875,22.984001,-5.744,18.136002,inter_set_rest,6,5.0,40928.0,399569.0,132313.0,4825.0,-158.0
2026-04-09 22:10:00.149118,235613,1530153543,1530154741,-1.169248,0.25376,-0.035136,-20.553751,5.11875,-10.54375,24.376001,-5.832,17.544,inter_set_rest,6,5.0,40928.0,399569.0,132313.0,4825.0,-158.0
2026-04-09 22:10:00.152521,235614,1530162556,1530163437,-1.169248,0.25376,-0.035136,-20.615,4.445,-10.71875,24.376001,-5.832,17.544,inter_set_rest,6,5.0,40928.0,399569.0,132313.0,4825.0,-158.0
2026-04-09 22:10:00.177491,235624,1530177184,1530178449,-1.182912,0.290848,-0.027328,-19.29375,3.31625,-10.91125,23.688002,-5.984,16.728,inter_set_rest,6,5.0,40859.0,400556.0,133063.0,5127.0,-150.0
2026-04-09 22:10:00.184489,235625,1530186112,1530187194,-1.182912,0.290848,-0.027328,-19.04,1.61,-11.29625,23.688002,-5.984,16.728,inter_set_rest,6,5.0,40859.0,400556.0,133063.0,5127.0,-150.0
2026-04-09 22:10:00.186382,235626,1530195163,1530195928,-1.188768,0.28304,-0.064416,-19.38125,-0.735,-11.85625,23.416,-6.256001,16.960001,inter_set_rest,6,5.0,40859.0,400556.0,133063.0,5127.0,-150.0
2026-04-09 22:10:00.187921,235627,1530210167,1530210999,-1.175104,0.288896,-0.070272,-18.66375,-3.9725,-13.055,22.584002,-6.544,16.264,inter_set_rest,6,5.0,40859.0,400556.0,133063.0,5127.0,-150.0
2026-04-09 22:10:00.193821,235628,1530219706,1530221782,-1.175104,0.288896,-0.070272,-15.225,-6.09875,-14.07875,22.584002,-6.544,16.264,inter_set_rest,6,5.0,40859.0,400556.0,133063.0,5127.0,-150.0
2026-04-09 22:10:00.224029,235629,1530228638,1530230488,-1.175104,0.288896,-0.070272,-13.99125,-8.21625,-14.51625,22.584002,-6.544,16.264,inter_set_rest,6,5.0,40859.0,400556.0,133063.0,5127.0,-150.0
2026-04-09 22:10:00.231309,235630,1530237593,1530239197,-1.18096,0.296704,-0.027328,-14.91875,-9.292501,-14.69125,23.288002,-6.520001,17.904001,inter_set_rest,6,5.0,40859.0,400556.0,133063.0,5127.0,-150.0
2026-04-09 22:10:00.233859,235631,1530252097,1530254120,-1.1712,0.327936,-0.005856,-17.10625,-10.29875,-14.35875,24.176,-6.624001,16.776001,inter_set_rest,6,5.0,40859.0,400556.0,133063.0,5127.0,-150.0
2026-04-09 22:10:00.236274,235632,1530261052,1530262829,-1.1712,0.327936,-0.005856,-18.6025,-9.5725,-13.64125,24.176,-6.624001,16.776001,inter_set_rest,6,5.0,40859.0,400556.0,133063.0,5127.0,-150.0
2026-04-09 22:10:00.272406,235642,1530270077,1530271600,-1.169248,0.30256,0.0,-20.895,-9.44125,-13.5275,22.736002,-6.4,18.432001,inter_set_rest,6,5.0,40748.0,401331.0,133990.0,5517.0,-148.0
2026-04-09 22:10:00.273777,235643,1530284737,1530286573,-1.169248,0.30256,0.0,-23.35375,-9.45875,-13.02875,22.736002,-6.4,18.432001,inter_set_rest,6,5.0,40748.0,401331.0,133990.0,5517.0,-148.0
2026-04-09 22:10:00.276313,235644,1530293700,1530295293,-1.149728,0.310368,-0.037088,-24.56125,-9.45875,-12.2325,23.864,-6.480001,16.584002,inter_set_rest,6,5.0,40748.0,401331.0,133990.0,5517.0,-148.0
2026-04-09 22:10:00.310218,235645,1530302687,1530304004,-1.149728,0.310368,-0.037088,-27.1075,-9.24875,-10.29875,23.864,-6.480001,16.584002,inter_set_rest,6,5.0,40748.0,401331.0,133990.0,5517.0,-148.0
2026-04-09 22:10:00.313777,235646,1530311700,1530312725,-1.145824,0.324032,-0.017568,-31.57,-8.93375,-7.35,22.320002,-7.000001,19.160002,inter_set_rest,6,5.0,40748.0,401331.0,133990.0,5517.0,-148.0
2026-04-09 22:10:00.316271,235647,1530326226,1530327652,-1.145824,0.324032,-0.017568,-32.13,-8.49625,-5.66125,22.320002,-7.000001,19.160002,inter_set_rest,6,5.0,40748.0,401331.0,133990.0,5517.0,-148.0
2026-04-09 22:10:00.318773,235648,1530335174,1530336374,-1.069696,0.300608,-0.013664,-30.0825,-8.47875,-5.6875,23.168001,-7.72,17.064001,inter_set_rest,6,5.0,40748.0,401331.0,133990.0,5517.0,-148.0
2026-04-09 22:10:00.321372,235649,1530344171,1530345060,-1.069696,0.300608,-0.013664,-31.01,-8.1025,-4.8125,23.168001,-7.72,17.064001,inter_set_rest,6,5.0,40748.0,401331.0,133990.0,5517.0,-148.0
2026-04-09 22:10:00.360024,235650,1530358710,1530359951,-1.0736,0.318176,-0.017568,-32.48,-7.44625,-2.35375,21.768002,-7.464,19.248001,inter_set_rest,6,5.0,40748.0,401331.0,133990.0,5517.0,-148.0
2026-04-09 22:10:00.362166,235651,1530367650,1530368761,-1.0736,0.318176,-0.017568,-33.1275,-6.4225,-1.86375,21.768002,-7.464,19.248001,inter_set_rest,6,5.0,40748.0,401331.0,133990.0,5517.0,-148.0
2026-04-09 22:10:00.401830,235662,1530376636,1530377474,-1.085312,0.372832,0.035136,-35.0,-3.9725,-0.5075,23.6,-8.248,17.12,inter_set_rest,6,5.0,40499.0,402289.0,135229.0,6205.0,-143.0
2026-04-09 22:10:00.403512,235663,1530391117,1530392401,-1.05408,0.28304,0.0488,-39.82125,-0.49875,3.14125,23.240002,-8.264,18.688002,inter_set_rest,6,5.0,40499.0,402289.0,135229.0,6205.0,-143.0
2026-04-09 22:10:00.405953,235664,1530400166,1530401130,-1.05408,0.28304,0.0488,-45.64,3.17625,4.76,23.240002,-8.264,18.688002,inter_set_rest,6,5.0,40499.0,402289.0,135229.0,6205.0,-143.0
2026-04-09 22:10:00.407532,235665,1530409148,1530409907,-1.05408,0.28304,0.0488,-48.30875,5.8975,6.37,23.240002,-8.264,18.688002,inter_set_rest,6,5.0,40499.0,402289.0,135229.0,6205.0,-143.0
2026-04-09 22:10:00.411796,235666,1530418669,1530420819,-1.05408,0.242048,0.021472,-45.9025,7.7,6.685,21.28,-8.456,17.456001,inter_set_rest,6,5.0,40499.0,402289.0,135229.0,6205.0,-143.0
2026-04-09 22:10:00.414220,235667,1530433226,1530433664,-1.042368,0.306464,0.01952,-43.8725,8.12,8.98625,23.016,-8.848001,16.808,inter_set_rest,6,5.0,40499.0,402289.0,135229.0,6205.0,-143.0
2026-04-09 22:10:00.418716,235668,1530442638,1530444433,-1.042368,0.306464,0.01952,-40.8975,9.8,12.985,23.016,-8.848001,16.808,inter_set_rest,6,5.0,40499.0,402289.0,135229.0,6205.0,-143.0
2026-04-09 22:10:00.447687,235669,1530451686,1530453174,-0.991616,0.316224,0.017568,-40.565,10.2375,10.6925,22.896002,-9.712001,16.512001,inter_set_rest,6,5.0,40499.0,402289.0,135229.0,6205.0,-143.0
2026-04-09 22:10:00.451270,235670,1530460628,1530461900,-0.991616,0.316224,0.017568,-43.8025,10.395,13.7725,22.896002,-9.712001,16.512001,inter_set_rest,6,5.0,40499.0,402289.0,135229.0,6205.0,-143.0
2026-04-09 22:10:00.476171,235680,1530475319,1530476921,-0.929152,0.329888,0.021472,-47.66125,11.01625,13.86875,22.632002,-10.376,16.832,inter_set_rest,6,5.0,40083.0,400920.0,133104.0,5613.0,-150.0
2026-04-09 22:10:00.482484,235681,1530484314,1530485686,-0.929152,0.329888,0.021472,-48.71125,12.15375,23.9925,22.632002,-10.376,16.832,inter_set_rest,6,5.0,40083.0,400920.0,133104.0,5613.0,-150.0
2026-04-09 22:10:00.484995,235682,1530493275,1530494431,-0.892064,0.349408,-0.00976,-46.61125,13.965,22.505,21.080002,-10.576,17.872002,inter_set_rest,6,5.0,40083.0,400920.0,133104.0,5613.0,-150.0
2026-04-09 22:10:00.491219,235683,1530507775,1530509411,-0.892064,0.349408,-0.00976,-46.7425,17.35125,25.61125,21.080002,-10.576,17.872002,inter_set_rest,6,5.0,40083.0,400920.0,133104.0,5613.0,-150.0
2026-04-09 22:10:00.493720,235684,1530516846,1530518157,-0.85888,0.345504,0.023424,-48.11625,20.1775,29.7675,21.008001,-11.200001,19.088001,inter_set_rest,6,5.0,40083.0,400920.0,133104.0,5613.0,-150.0
2026-04-09 22:10:00.501546,235685,1530525757,1530526851,-0.85888,0.345504,0.023424,-52.0625,22.47,30.275,21.008001,-11.200001,19.088001,inter_set_rest,6,5.0,40083.0,400920.0,133104.0,5613.0,-150.0
2026-04-09 22:10:00.530199,235686,1530540235,1530541859,-0.833504,0.296704,0.037088,-56.6825,24.22875,30.415,20.672,-11.504001,16.904001,inter_set_rest,6,5.0,40083.0,400920.0,133104.0,5613.0,-150.0
2026-04-09 22:10:00.533748,235687,1530549216,1530549571,-0.833504,0.296704,0.037088,-62.09,24.9375,29.53125,20.672,-11.504001,16.904001,inter_set_rest,6,5.0,40083.0,400920.0,133104.0,5613.0,-150.0
2026-04-09 22:10:00.536250,235688,1530558458,1530560347,-0.845216,0.329888,-0.040992,-60.96125,24.4825,31.036251,21.720001,-12.704,15.544001,inter_set_rest,6,5.0,40083.0,400920.0,133104.0,5613.0,-150.0
2026-04-09 22:10:00.541280,235689,1530567374,1530569051,-0.845216,0.329888,-0.040992,-55.85125,24.01,28.411251,21.720001,-12.704,15.544001,inter_set_rest,6,5.0,40083.0,400920.0,133104.0,5613.0,-150.0
2026-04-09 22:10:00.569168,235699,1530582071,1530582473,-0.823744,0.353312,-0.07808,-54.10125,23.66875,28.18375,21.936,-12.616,15.968,inter_set_rest,6,5.0,39359.0,398695.0,130483.0,4884.0,-153.0
2026-04-09 22:10:00.571473,235700,1530591409,1530593260,-0.831552,0.374784,-0.023424,-52.68375,22.91625,29.723751,21.488,-12.912001,15.088,inter_set_rest,6,5.0,39359.0,398695.0,130483.0,4884.0,-153.0
2026-04-09 22:10:00.574131,235701,1530600418,1530602041,-0.831552,0.374784,-0.023424,-49.91875,22.715,27.5275,21.488,-12.912001,15.088,inter_set_rest,6,5.0,39359.0,398695.0,130483.0,4884.0,-153.0
2026-04-09 22:10:00.611548,235702,1530614913,1530616960,-0.825696,0.320128,-0.027328,-48.23,21.90125,24.87625,21.672,-13.632001,15.224001,inter_set_rest,6,5.0,39359.0,398695.0,130483.0,4884.0,-153.0
2026-04-09 22:10:00.615005,235703,1530623826,1530625648,-0.825696,0.320128,-0.027328,-48.2825,20.02,24.22875,21.672,-13.632001,15.224001,inter_set_rest,6,5.0,39359.0,398695.0,130483.0,4884.0,-153.0
2026-04-09 22:10:00.617484,235704,1530632762,1530634348,-0.83936,0.339648,-0.085888,-46.9175,18.06875,23.73875,21.432001,-14.232,15.064001,inter_set_rest,6,5.0,39359.0,398695.0,130483.0,4884.0,-153.0
2026-04-09 22:10:00.619976,235705,1530641694,1530643067,-0.83936,0.339648,-0.085888,-43.1025,17.0975,23.49375,21.432001,-14.232,15.064001,inter_set_rest,6,5.0,39359.0,398695.0,130483.0,4884.0,-153.0
2026-04-09 22:10:00.650280,235706,1530656227,1530657990,-0.864736,0.407968,-0.025376,-40.39875,16.93125,23.47625,20.536001,-14.656001,18.296001,inter_set_rest,6,5.0,39359.0,398695.0,130483.0,4884.0,-153.0
2026-04-09 22:10:00.653846,235707,1530665142,1530666705,-0.864736,0.407968,-0.025376,-39.13,17.36875,22.995,20.536001,-14.656001,18.296001,inter_set_rest,6,5.0,39359.0,398695.0,130483.0,4884.0,-153.0
2026-04-09 22:10:00.681196,235718,1530674285,1530675476,-0.86864,0.415776,0.025376,-41.30875,17.82375,20.9125,21.544,-15.056001,16.088001,inter_set_rest,6,5.0,39565.0,399860.0,131410.0,5098.0,-139.0
2026-04-09 22:10:00.683752,235719,1530688976,1530690470,-0.86864,0.415776,0.025376,-45.1325,18.62,16.68625,21.544,-15.056001,16.088001,inter_set_rest,6,5.0,39565.0,399860.0,131410.0,5098.0,-139.0
2026-04-09 22:10:00.686259,235720,1530697940,1530699206,-0.874496,0.382592,0.0,-50.65375,19.31125,14.1225,21.400002,-15.160001,15.904,inter_set_rest,6,5.0,39565.0,399860.0,131410.0,5098.0,-139.0
2026-04-09 22:10:00.688798,235721,1530706862,1530707914,-0.874496,0.382592,0.0,-52.07125,20.71125,13.667501,21.400002,-15.160001,15.904,inter_set_rest,6,5.0,39565.0,399860.0,131410.0,5098.0,-139.0
2026-04-09 22:10:00.695017,235722,1530721339,1530722810,-0.886208,0.357216,-0.042944,-49.91,22.7325,13.76375,20.992,-15.464001,15.68,inter_set_rest,6,5.0,39565.0,399860.0,131410.0,5098.0,-139.0
2026-04-09 22:10:00.725207,235723,1530730320,1530731562,-0.886208,0.357216,-0.042944,-52.01,23.59875,15.07625,20.992,-15.464001,15.68,inter_set_rest,6,5.0,39565.0,399860.0,131410.0,5098.0,-139.0
2026-04-09 22:10:00.728756,235724,1530739183,1530740294,-0.913536,0.382592,-0.05856,-52.33375,24.4125,16.178751,21.512001,-16.08,15.024001,inter_set_rest,6,5.0,39565.0,399860.0,131410.0,5098.0,-139.0
2026-04-09 22:10:00.731256,235725,1530753679,1530755176,-0.884256,0.37088,-0.042944,-49.72625,24.19375,16.52,20.792002,-16.224,15.400001,inter_set_rest,6,5.0,39565.0,399860.0,131410.0,5098.0,-139.0
2026-04-09 22:10:00.736310,235726,1530762665,1530763879,-0.884256,0.37088,-0.042944,-52.815,24.19375,16.1525,20.792002,-16.224,15.400001,inter_set_rest,6,5.0,39565.0,399860.0,131410.0,5098.0,-139.0
2026-04-09 22:10:00.771347,235736,1530771554,1530773070,-0.884256,0.337696,-0.01952,-59.14125,24.272501,15.12,20.792002,-16.224,15.400001,inter_set_rest,6,5.0,40014.0,398568.0,130747.0,4673.0,-152.0
2026-04-09 22:10:00.773797,235737,1530780772,1530781808,-0.886208,0.337696,-0.01952,-62.3,24.78875,14.595,21.032001,-16.984001,14.360001,inter_set_rest,6,5.0,40014.0,398568.0,130747.0,4673.0,-152.0
2026-04-09 22:10:00.776301,235738,1530795252,1530796799,-0.876448,0.320128,0.005856,-62.37,24.54375,14.42875,20.032001,-17.04,16.584002,inter_set_rest,6,5.0,40014.0,398568.0,130747.0,4673.0,-152.0
2026-04-09 22:10:00.778813,235739,1530804175,1530805507,-0.876448,0.320128,0.005856,-62.44875,24.63125,15.5925,20.032001,-17.04,16.584002,inter_set_rest,6,5.0,40014.0,398568.0,130747.0,4673.0,-152.0
2026-04-09 22:10:00.808986,235740,1530813153,1530814220,-0.86864,0.337696,0.0,-63.6475,24.99,18.03375,21.088001,-17.872002,16.144001,inter_set_rest,6,5.0,40014.0,398568.0,130747.0,4673.0,-152.0
2026-04-09 22:10:00.812530,235741,1530827614,1530829111,-0.86864,0.337696,0.0,-64.54,24.98125,14.16625,21.088001,-17.872002,16.144001,inter_set_rest,6,5.0,40014.0,398568.0,130747.0,4673.0,-152.0
2026-04-09 22:10:00.815032,235742,1530836522,1530837860,-0.86864,0.363072,-0.017568,-64.26,24.78,11.865,20.864,-18.032001,15.424001,inter_set_rest,6,5.0,40014.0,398568.0,130747.0,4673.0,-152.0
2026-04-09 22:10:00.818775,235743,1530845465,1530846586,-0.86864,0.363072,-0.017568,-65.82625,24.94625,11.08625,20.864,-18.032001,15.424001,inter_set_rest,6,5.0,40014.0,398568.0,130747.0,4673.0,-152.0
2026-04-09 22:10:00.849017,235744,1530859927,1530861506,-0.935008,0.259616,-0.095648,-70.48125,24.57,7.46375,19.688002,-18.336,16.576,inter_set_rest,6,5.0,40014.0,398568.0,130747.0,4673.0,-152.0
2026-04-09 22:10:00.852603,235745,1530868825,1530870213,-0.935008,0.259616,-0.095648,-70.41125,23.51125,4.41875,19.688002,-18.336,16.576,inter_set_rest,6,5.0,40014.0,398568.0,130747.0,4673.0,-152.0
2026-04-09 22:10:00.911499,235755,1530877930,1530878973,-0.942816,0.20496,-0.074176,-67.96125,22.2075,0.525,21.232,-18.400002,15.312,inter_set_rest,6,5.0,39228.0,400291.0,131410.0,5246.0,-141.0
2026-04-09 22:10:00.915129,235756,1530886865,1530887742,-0.942816,0.20496,-0.074176,-62.475,18.8475,-3.6225,21.232,-18.400002,15.312,inter_set_rest,6,5.0,39228.0,400291.0,131410.0,5246.0,-141.0
2026-04-09 22:10:00.917525,235757,1530901395,1530902662,-1.00528,0.333792,0.040992,-54.11875,14.980001,-4.865,20.696001,-18.992,15.216001,inter_set_rest,6,5.0,39228.0,400291.0,131410.0,5246.0,-141.0
2026-04-09 22:10:00.920026,235758,1530910350,1530911394,-1.00528,0.333792,0.040992,-52.01,12.355001,-7.34125,20.696001,-18.992,15.216001,inter_set_rest,6,5.0,39228.0,400291.0,131410.0,5246.0,-141.0
2026-04-09 22:10:00.922565,235759,1530919274,1530920149,-1.036512,0.228384,0.033184,-58.388752,12.573751,-10.10625,21.456001,-19.144001,15.152,inter_set_rest,6,5.0,39228.0,400291.0,131410.0,5246.0,-141.0
2026-04-09 22:10:00.925260,235760,1530933766,1530935045,-1.069696,0.257664,0.03904,-63.79625,13.95625,-12.11875,21.184002,-19.36,15.328001,inter_set_rest,6,5.0,39228.0,400291.0,131410.0,5246.0,-141.0
2026-04-09 22:10:00.927723,235761,1530942700,1530943748,-1.069696,0.257664,0.03904,-61.416252,14.455,-10.01,21.184002,-19.36,15.328001,inter_set_rest,6,5.0,39228.0,400291.0,131410.0,5246.0,-141.0
2026-04-09 22:10:00.932670,235762,1530951666,1530952463,-1.069696,0.257664,0.03904,-60.34,14.542501,-8.9775,21.184002,-19.36,15.328001,inter_set_rest,6,5.0,39228.0,400291.0,131410.0,5246.0,-141.0
2026-04-09 22:10:00.938873,235763,1530966170,1530967453,-1.056032,0.23424,0.056608,-62.46625,14.44625,-8.645,22.000002,-19.792002,14.968,inter_set_rest,6,5.0,39228.0,400291.0,131410.0,5246.0,-141.0
2026-04-09 22:10:00.995036,235774,1530975162,1530976354,-1.091168,0.162016,0.037088,-64.68,13.755,-7.46375,20.888,-19.888,17.76,inter_set_rest,6,5.0,37151.0,403331.0,133536.0,6673.0,-149.0
2026-04-09 22:10:00.997549,235775,1530984150,1530985177,-1.091168,0.162016,0.037088,-68.005,14.4725,-6.85125,20.888,-19.888,17.76,inter_set_rest,6,5.0,37151.0,403331.0,133536.0,6673.0,-149.0
2026-04-09 22:10:01.000086,235776,1530998679,1531000185,-1.061888,0.220576,0.074176,-70.02625,15.627501,-6.65875,21.928001,-20.68,15.728001,inter_set_rest,6,5.0,37151.0,403331.0,133536.0,6673.0,-149.0
2026-04-09 22:10:01.002544,235777,1531007669,1531009000,-1.061888,0.220576,0.074176,-68.38125,17.91125,-6.055,21.928001,-20.68,15.728001,inter_set_rest,6,5.0,37151.0,403331.0,133536.0,6673.0,-149.0
2026-04-09 22:10:01.005034,235778,1531016702,1531017750,-1.046272,0.22448,0.099552,-72.808754,19.6525,-7.63,22.208,-20.936,15.384001,inter_set_rest,6,5.0,37151.0,403331.0,133536.0,6673.0,-149.0
2026-04-09 22:10:01.007528,235779,1531025692,1531026468,-1.046272,0.22448,0.099552,-79.10875,21.07875,-8.26875,22.208,-20.936,15.384001,inter_set_rest,6,5.0,37151.0,403331.0,133536.0,6673.0,-149.0
2026-04-09 22:10:01.013844,235780,1531040688,1531041384,-1.075552,0.21472,0.0488,-85.54,21.5775,-5.215,22.080002,-21.272001,15.296001,inter_set_rest,6,5.0,37151.0,403331.0,133536.0,6673.0,-149.0
2026-04-09 22:10:01.044042,235781,1531049990,1531052219,-1.075552,0.21472,0.0488,-88.2,20.0375,-6.44875,22.080002,-21.272001,15.296001,inter_set_rest,6,5.0,37151.0,403331.0,133536.0,6673.0,-149.0
2026-04-09 22:10:01.047646,235782,1531058942,1531060935,-1.04432,0.105408,-0.011712,-89.20625,18.9875,-9.5375,21.624,-21.736002,15.768001,inter_set_rest,6,5.0,37151.0,403331.0,133536.0,6673.0,-149.0
2026-04-09 22:10:01.050104,235783,1531067868,1531069637,-1.04432,0.105408,-0.011712,-84.805,18.19125,-3.7975,21.624,-21.736002,15.768001,inter_set_rest,6,5.0,37151.0,403331.0,133536.0,6673.0,-149.0
2026-04-09 22:10:01.075055,235793,1531082468,1531084607,-1.04432,0.244,0.101504,-79.05625,17.7975,-4.20875,22.032001,-22.400002,15.984001,inter_set_rest,6,5.0,36115.0,403431.0,135962.0,8104.0,-158.0
2026-04-09 22:10:01.077549,235794,1531091531,1531093368,-1.04432,0.244,0.101504,-81.558754,18.305,-6.50125,22.032001,-22.400002,15.984001,inter_set_rest,6,5.0,36115.0,403431.0,135962.0,8104.0,-158.0
2026-04-09 22:10:01.080016,235795,1531100484,1531102143,-1.061888,0.171776,0.050752,-89.15375,19.6,-7.6825,22.608002,-22.880001,15.776001,inter_set_rest,6,5.0,36115.0,403431.0,135962.0,8104.0,-158.0
2026-04-09 22:10:01.110378,235796,1531115088,1531117122,-1.089216,0.140544,0.015616,-95.235,20.06375,-12.8275,22.320002,-22.976002,16.416,inter_set_rest,6,5.0,36115.0,403431.0,135962.0,8104.0,-158.0
2026-04-09 22:10:01.113838,235797,1531124003,1531125826,-1.089216,0.140544,0.015616,-93.23125,20.13375,-15.365,22.320002,-22.976002,16.416,inter_set_rest,6,5.0,36115.0,403431.0,135962.0,8104.0,-158.0
2026-04-09 22:10:01.116340,235798,1531132946,1531134533,-1.0736,0.111264,-0.005856,-87.2725,18.83,-15.3825,22.320002,-22.976002,16.616001,inter_set_rest,6,5.0,36115.0,403431.0,135962.0,8104.0,-158.0
2026-04-09 22:10:01.125093,235799,1531147444,1531149488,-1.071648,0.111264,-0.005856,-82.81875,16.6775,-17.7275,22.752,-23.352001,16.616001,inter_set_rest,6,5.0,36115.0,403431.0,135962.0,8104.0,-158.0
2026-04-09 22:10:01.130030,235800,1531156366,1531158230,-1.069696,0.062464,0.021472,-74.80375,14.49,-17.3425,23.184002,-23.704,17.92,inter_set_rest,6,5.0,36115.0,403431.0,135962.0,8104.0,-158.0
2026-04-09 22:10:01.162781,235801,1531165320,1531166969,-1.069696,0.062464,0.021472,-66.35125,12.67,-17.6925,23.184002,-23.704,17.92,inter_set_rest,6,5.0,36115.0,403431.0,135962.0,8104.0,-158.0
2026-04-09 22:10:01.221803,235811,1531174262,1531175630,-1.087264,0.10736,0.066368,-54.06625,10.6575,-16.6075,23.688002,-23.76,17.168001,inter_set_rest,6,5.0,36544.0,403431.0,138365.0,9207.0,-139.0
2026-04-09 22:10:01.224941,235812,1531189116,1531190526,-1.087264,0.10736,0.066368,-46.655,9.1175,-17.33375,23.688002,-23.76,17.168001,inter_set_rest,6,5.0,36544.0,403431.0,138365.0,9207.0,-139.0
2026-04-09 22:10:01.226297,235813,1531198068,1531199221,-1.095072,0.177632,0.072224,-48.23,8.11125,-16.905,23.2,-23.656002,16.816,inter_set_rest,6,5.0,36544.0,403431.0,138365.0,9207.0,-139.0
2026-04-09 22:10:01.228806,235814,1531207091,1531207972,-1.095072,0.177632,0.072224,-49.0875,7.98,-17.9725,23.2,-23.656002,16.816,inter_set_rest,6,5.0,36544.0,403431.0,138365.0,9207.0,-139.0
2026-04-09 22:10:01.231331,235815,1531221596,1531222895,-1.089216,0.144448,0.111264,-51.8,9.485,-18.05125,22.408,-23.944,17.496,inter_set_rest,6,5.0,36544.0,403431.0,138365.0,9207.0,-139.0
2026-04-09 22:10:01.233861,235816,1531230524,1531231611,-1.089216,0.144448,0.111264,-57.1025,11.4625,-15.60125,22.408,-23.944,17.496,inter_set_rest,6,5.0,36544.0,403431.0,138365.0,9207.0,-139.0
2026-04-09 22:10:01.236332,235817,1531239493,1531240290,-1.0736,0.064416,0.066368,-60.82125,13.0725,-12.52125,23.496,-24.448002,17.496,inter_set_rest,6,5.0,36544.0,403431.0,138365.0,9207.0,-139.0
2026-04-09 22:10:01.238849,235818,1531254008,1531255186,-1.052128,0.152256,0.027328,-63.13125,14.49,-9.511251,24.184002,-24.728,16.36,inter_set_rest,6,5.0,36544.0,403431.0,138365.0,9207.0,-139.0
2026-04-09 22:10:01.241281,235819,1531262970,1531263857,-1.052128,0.152256,0.027328,-60.6375,13.877501,-5.005,24.184002,-24.728,16.36,inter_set_rest,6,5.0,36544.0,403431.0,138365.0,9207.0,-139.0
2026-04-09 22:10:01.243870,235820,1531271979,1531272575,-1.052128,0.152256,0.027328,-53.4975,13.86,0.0525,24.184002,-24.728,16.36,inter_set_rest,6,5.0,36544.0,403431.0,138365.0,9207.0,-139.0
2026-04-09 22:10:01.272564,235831,1531281243,1531283479,-1.01504,0.187392,0.025376,-48.125,13.23875,2.40625,23.960001,-24.68,15.880001,inter_set_rest,6,5.0,38047.0,403431.0,139066.0,8874.0,-142.0
2026-04-09 22:10:01.275127,235832,1531295851,1531296339,-0.952576,0.119072,0.062464,-47.005,13.08125,3.78875,23.080002,-24.832,20.192001,inter_set_rest,6,5.0,38047.0,403431.0,139066.0,8874.0,-142.0
2026-04-09 22:10:01.278829,235833,1531305234,1531307150,-0.952576,0.119072,0.062464,-46.82125,13.230001,5.8625,23.080002,-24.832,20.192001,inter_set_rest,6,5.0,38047.0,403431.0,139066.0,8874.0,-142.0
2026-04-09 22:10:01.310253,235834,1531314181,1531315858,-0.911584,0.171776,0.085888,-42.21875,13.658751,8.00625,23.536001,-24.832,16.216002,inter_set_rest,6,5.0,38047.0,403431.0,139066.0,8874.0,-142.0
2026-04-09 22:10:01.313793,235835,1531328784,1531330743,-0.911584,0.171776,0.085888,-37.0825,14.35,9.38,23.536001,-24.832,16.216002,inter_set_rest,6,5.0,38047.0,403431.0,139066.0,8874.0,-142.0
2026-04-09 22:10:01.318800,235836,1531337717,1531339469,-0.94672,0.23424,0.023424,-35.9625,15.417501,11.042501,24.024002,-26.12,17.808,inter_set_rest,6,5.0,38047.0,403431.0,139066.0,8874.0,-142.0
2026-04-09 22:10:01.321338,235837,1531346679,1531348163,-0.94672,0.23424,0.023424,-35.9275,16.40625,12.4075,24.024002,-26.12,17.808,inter_set_rest,6,5.0,38047.0,403431.0,139066.0,8874.0,-142.0
2026-04-09 22:10:01.351622,235838,1531355619,1531356873,-1.098976,0.245952,-0.027328,-36.05875,16.68625,10.8325,24.36,-26.032001,16.560001,inter_set_rest,6,5.0,38047.0,403431.0,139066.0,8874.0,-142.0
2026-04-09 22:10:01.355105,235839,1531370088,1531371814,-1.098976,0.245952,-0.027328,-36.93375,16.5375,6.1775,24.36,-26.032001,16.560001,inter_set_rest,6,5.0,38047.0,403431.0,139066.0,8874.0,-142.0
2026-04-09 22:10:01.396484,235849,1531379680,1531380640,-1.18096,0.236192,0.02928,-37.0475,15.505,1.435,24.008001,-26.208002,18.08,inter_set_rest,6,5.0,38871.0,403431.0,136480.0,7295.0,-143.0
2026-04-09 22:10:01.400613,235850,1531388622,1531389438,-1.18096,0.236192,0.02928,-35.32375,12.88,-3.35125,24.008001,-26.208002,18.08,inter_set_rest,6,5.0,38871.0,403431.0,136480.0,7295.0,-143.0
2026-04-09 22:10:01.402357,235851,1531398172,1531400280,-1.018944,0.378688,0.070272,-30.59,11.87375,6.23875,21.800001,-26.536001,19.024,inter_set_rest,6,5.0,38871.0,403431.0,136480.0,7295.0,-143.0
2026-04-09 22:10:01.403909,235852,1531412690,1531413156,-1.018944,0.378688,0.070272,-22.960001,11.47125,17.6575,21.800001,-26.536001,19.024,inter_set_rest,6,5.0,38871.0,403431.0,136480.0,7295.0,-143.0
2026-04-09 22:10:01.408108,235853,1531422022,1531423924,-0.96624,0.355264,0.066368,-20.44875,11.5325,17.85,23.392,-26.840002,18.408,inter_set_rest,6,5.0,38871.0,403431.0,136480.0,7295.0,-143.0
2026-04-09 22:10:01.410572,235854,1531430984,1531432661,-0.96624,0.355264,0.066368,-25.69875,11.94375,19.7925,23.392,-26.840002,18.408,inter_set_rest,6,5.0,38871.0,403431.0,136480.0,7295.0,-143.0
2026-04-09 22:10:01.443739,235855,1531445482,1531447618,-1.01504,0.46848,0.05856,-24.605,12.25875,21.35,24.056002,-27.36,17.960001,inter_set_rest,6,5.0,38871.0,403431.0,136480.0,7295.0,-143.0
2026-04-09 22:10:01.447410,235856,1531454398,1531456300,-0.954528,0.452864,0.052704,-22.295,12.08375,10.815,24.056002,-27.176,22.160002,inter_set_rest,6,5.0,38871.0,403431.0,136480.0,7295.0,-143.0
2026-04-09 22:10:01.448960,235857,1531463320,1531464997,-0.954528,0.452864,0.052704,-29.89875,13.440001,10.36,23.336,-27.176,22.160002,inter_set_rest,6,5.0,38871.0,403431.0,136480.0,7295.0,-143.0
2026-04-09 22:10:01.475679,235867,1531477834,1531479987,-0.987712,0.335744,0.074176,-38.3775,15.2775,15.627501,23.816002,-28.008001,18.232,inter_set_rest,6,5.0,39075.0,403431.0,138517.0,8384.0,-133.0
2026-04-09 22:10:01.478266,235868,1531486911,1531488833,-0.987712,0.335744,0.074176,-44.49375,15.5225,4.9875,23.816002,-28.008001,18.232,inter_set_rest,6,5.0,39075.0,403431.0,138517.0,8384.0,-133.0
2026-04-09 22:10:01.514517,235869,1531495860,1531497537,-0.979904,0.189344,0.0,-57.96,16.09125,0.84875,23.504002,-28.528002,19.904001,inter_set_rest,6,5.0,39075.0,403431.0,138517.0,8384.0,-133.0
2026-04-09 22:10:01.516161,235870,1531504798,1531506328,-0.979904,0.189344,0.0,-63.07875,17.70125,0.06125,23.504002,-28.528002,19.904001,inter_set_rest,6,5.0,39075.0,403431.0,138517.0,8384.0,-133.0
2026-04-09 22:10:01.517699,235871,1531519294,1531521250,-0.981856,0.2928,-0.01952,-52.6575,18.08625,-8.18125,23.936,-29.032001,18.576,inter_set_rest,6,5.0,39075.0,403431.0,138517.0,8384.0,-133.0
2026-04-09 22:10:01.521924,235872,1531528198,1531529949,-0.981856,0.2928,-0.01952,-38.5875,17.21125,-9.96625,23.936,-29.032001,18.576,inter_set_rest,6,5.0,39075.0,403431.0,138517.0,8384.0,-133.0
2026-04-09 22:10:01.523642,235873,1531537119,1531538739,-1.179008,0.269376,-0.042944,-33.451252,17.01875,-10.85,24.048,-28.856,18.384,inter_set_rest,6,5.0,39075.0,403431.0,138517.0,8384.0,-133.0
2026-04-09 22:10:01.525516,235874,1531551623,1531553692,-1.179008,0.269376,-0.042944,-37.70375,17.3775,-14.0175,24.048,-28.856,18.384,inter_set_rest,6,5.0,39075.0,403431.0,138517.0,8384.0,-133.0
2026-04-09 22:10:01.556380,235875,1531560544,1531562379,-1.553792,0.066368,-0.00976,-49.7175,19.15375,-15.56625,23.480001,-28.992,19.0,inter_set_rest,6,5.0,39075.0,403431.0,138517.0,8384.0,-133.0
2026-04-09 22:10:01.558593,235876,1531569461,1531571089,-1.553792,0.066368,-0.00976,-59.920002,17.3775,-12.99375,23.480001,-28.992,19.0,inter_set_rest,6,5.0,39075.0,403431.0,138517.0,8384.0,-133.0
2026-04-09 22:10:01.586396,235887,1531584019,1531586057,-1.309792,-0.310368,-0.033184,-62.055,15.627501,-8.5925,24.392002,-28.560001,18.832,inter_set_rest,6,5.0,39409.0,403431.0,138768.0,8239.0,-145.0
2026-04-09 22:10:01.594146,235888,1531592979,1531594797,-1.309792,-0.310368,-0.033184,-50.19875,17.22875,-7.28875,24.392002,-28.560001,18.832,inter_set_rest,6,5.0,39409.0,403431.0,138768.0,8239.0,-145.0
2026-04-09 22:10:01.595140,235889,1531601969,1531603529,-1.056032,0.011712,-0.060512,-24.33375,19.25,-3.19375,23.568,-28.392002,20.400002,inter_set_rest,6,5.0,39409.0,403431.0,138768.0,8239.0,-145.0
2026-04-09 22:10:01.600390,235890,1531616466,1531618451,-1.028704,0.230336,-0.011712,2.72125,19.11875,-10.5175,22.864,-29.016,20.512001,inter_set_rest,6,5.0,39409.0,403431.0,138768.0,8239.0,-145.0
2026-04-09 22:10:01.600471,235891,1531625404,1531627158,-1.028704,0.230336,-0.011712,14.79625,17.64,-16.625,22.864,-29.016,20.512001,inter_set_rest,6,5.0,39409.0,403431.0,138768.0,8239.0,-145.0
2026-04-09 22:10:01.626722,235892,1531634342,1531635876,-1.028704,0.230336,-0.027328,14.035,15.18125,-14.5075,22.864,-29.016,20.512001,inter_set_rest,6,5.0,39409.0,403431.0,138768.0,8239.0,-145.0
2026-04-09 22:10:01.629892,235893,1531643327,1531644593,-1.128256,0.269376,-0.021472,4.4975,13.76375,-8.75,24.016,-29.144001,16.912,inter_set_rest,6,5.0,39409.0,403431.0,138768.0,8239.0,-145.0
2026-04-09 22:10:01.631330,235894,1531657788,1531659561,-0.977952,0.206912,-0.015616,-8.07625,12.29375,-9.44125,23.784,-29.136002,18.2,inter_set_rest,6,5.0,39409.0,403431.0,138768.0,8239.0,-145.0
2026-04-09 22:10:01.661589,235895,1531666731,1531668277,-0.977952,0.206912,-0.015616,-2.80875,11.34875,-8.435,23.784,-29.136002,18.2,inter_set_rest,6,5.0,39409.0,403431.0,138768.0,8239.0,-145.0
2026-04-09 22:10:01.665104,235896,1531675654,1531676962,-0.931104,0.495808,0.013664,14.77,11.1125,1.925,23.480001,-29.2,18.240002,inter_set_rest,6,5.0,39409.0,403431.0,138768.0,8239.0,-145.0
2026-04-09 22:10:01.690145,235906,1531690135,1531691887,-0.931104,0.495808,0.013664,22.16375,10.0275,5.6175,23.480001,-29.2,18.240002,inter_set_rest,6,5.0,38043.0,403431.0,138532.0,8715.0,-142.0
2026-04-09 22:10:01.692629,235907,1531699016,1531700638,-0.929152,0.491904,0.013664,15.39125,8.9075,2.96625,24.048,-29.232002,18.544,inter_set_rest,6,5.0,38043.0,403431.0,138532.0,8715.0,-142.0
2026-04-09 22:10:01.695168,235908,1531707963,1531709312,-0.929152,0.491904,0.013664,4.10375,7.46375,3.7275,24.048,-29.232002,18.544,inter_set_rest,6,5.0,38043.0,403431.0,138532.0,8715.0,-142.0
2026-04-09 22:10:01.698544,235909,1531722465,1531724226,-0.944768,0.46848,-0.011712,-6.3875,7.76125,1.995,23.648,-28.840002,18.712002,inter_set_rest,6,5.0,38043.0,403431.0,138532.0,8715.0,-142.0
2026-04-09 22:10:01.705364,235910,1531731406,1531732942,-0.944768,0.46848,-0.011712,-16.45875,9.0475,-2.38,23.648,-28.840002,18.712002,inter_set_rest,6,5.0,38043.0,403431.0,138532.0,8715.0,-142.0
2026-04-09 22:10:01.735398,235911,1531740342,1531741645,-0.925248,0.388448,0.031232,-24.43,9.94,-6.5975,24.240002,-28.712002,18.344002,inter_set_rest,6,5.0,38043.0,403431.0,138532.0,8715.0,-142.0
2026-04-09 22:10:01.738996,235912,1531754811,1531756565,-0.925248,0.388448,0.054656,-30.37125,11.12125,-11.08625,24.240002,-28.712002,18.344002,inter_set_rest,6,5.0,38043.0,403431.0,138532.0,8715.0,-142.0
2026-04-09 22:10:01.741321,235913,1531763736,1531765273,-1.007232,0.208864,0.054656,-30.065,9.73875,-16.275,23.696001,-29.2,18.904001,inter_set_rest,6,5.0,38043.0,403431.0,138532.0,8715.0,-142.0
2026-04-09 22:10:01.746434,235914,1531772686,1531773978,-1.007232,0.208864,0.054656,-25.9,6.58,-16.98375,23.696001,-29.2,18.904001,inter_set_rest,6,5.0,38043.0,403431.0,138532.0,8715.0,-142.0
2026-04-09 22:10:01.775151,235924,1531781815,1531782813,-1.098976,0.160064,0.050752,-19.74,4.235,-18.22625,22.68,-29.240002,19.992,inter_set_rest,6,5.0,32068.0,396332.0,119944.0,3054.0,-150.0
2026-04-09 22:10:01.811721,235925,1531796352,1531797783,-1.081408,0.091744,0.163968,-17.61375,3.6575,-21.37625,24.000002,-28.968002,19.496,inter_set_rest,6,5.0,32068.0,396332.0,119944.0,3054.0,-150.0
2026-04-09 22:10:01.822632,235926,1531805346,1531806502,-1.081408,0.091744,0.163968,-21.35875,5.67875,-21.91875,24.000002,-28.968002,19.496,inter_set_rest,6,5.0,32068.0,396332.0,119944.0,3054.0,-150.0
2026-04-09 22:10:01.825150,235927,1531814297,1531815200,-1.081408,0.091744,0.163968,-29.225,8.8725,-22.715,24.000002,-28.968002,19.496,inter_set_rest,6,5.0,32068.0,396332.0,119944.0,3054.0,-150.0
2026-04-09 22:10:01.827658,235928,1531828786,1531830116,-1.032608,0.015616,0.208864,-31.36,11.7775,-21.35875,23.632002,-28.640001,17.248001,inter_set_rest,6,5.0,32068.0,396332.0,119944.0,3054.0,-150.0
2026-04-09 22:10:01.830099,235929,1531837748,1531838796,-1.061888,0.193248,0.177632,-11.6375,11.96125,-16.42375,23.856,-28.952002,18.44,inter_set_rest,6,5.0,32068.0,396332.0,119944.0,3054.0,-150.0
2026-04-09 22:10:01.832593,235930,1531846651,1531847490,-1.061888,0.193248,0.177632,5.635,10.386251,-8.58375,23.856,-28.952002,18.44,inter_set_rest,6,5.0,32068.0,396332.0,119944.0,3054.0,-150.0
2026-04-09 22:10:01.838916,235931,1531861151,1531862367,-1.095072,0.093696,0.203008,23.3625,9.6425,-3.42125,23.232,-28.552002,19.52,inter_set_rest,6,5.0,32068.0,396332.0,119944.0,3054.0,-150.0
2026-04-09 22:10:01.843900,235932,1531870144,1531871099,-1.095072,0.093696,0.203008,43.5225,3.92,-8.33,23.232,-28.552002,19.52,inter_set_rest,6,5.0,32068.0,396332.0,119944.0,3054.0,-150.0
2026-04-09 22:10:01.902618,235943,1531879076,1531879802,-1.126304,0.244,0.140544,81.1825,-2.52875,-4.45375,23.192001,-28.088001,16.912,inter_set_rest,6,5.0,31459.0,403431.0,128120.0,5475.0,-134.0
2026-04-09 22:10:01.905115,235944,1531888426,1531890635,-1.126304,0.244,0.140544,128.70375,-10.0625,8.015,23.192001,-28.088001,16.912,inter_set_rest,6,5.0,31459.0,403431.0,128120.0,5475.0,-134.0
2026-04-09 22:10:01.907603,235945,1531903006,1531903484,-1.059936,0.5368,0.076128,139.25626,-11.5325,20.65,23.776001,-28.104002,18.304,inter_set_rest,6,5.0,31459.0,403431.0,128120.0,5475.0,-134.0
2026-04-09 22:10:01.910133,235946,1531912400,1531914273,-1.059936,0.5368,0.076128,108.75375,-8.30375,22.645,23.776001,-28.104002,18.304,inter_set_rest,6,5.0,31459.0,403431.0,128120.0,5475.0,-134.0
2026-04-09 22:10:01.912620,235947,1531921495,1531923054,-1.067744,0.210816,0.021472,69.22125,-3.61375,22.1375,22.904001,-28.240002,16.984001,inter_set_rest,6,5.0,31459.0,403431.0,128120.0,5475.0,-134.0
2026-04-09 22:10:01.915121,235948,1531936004,1531937989,-0.979904,0.308416,0.052704,41.8775,-1.085,18.22625,22.904001,-28.240002,17.408,inter_set_rest,6,5.0,31459.0,403431.0,128120.0,5475.0,-134.0
2026-04-09 22:10:01.917613,235949,1531945004,1531946773,-0.979904,0.308416,0.052704,37.45,-0.5425,15.645,23.384,-28.056002,17.408,inter_set_rest,6,5.0,31459.0,403431.0,128120.0,5475.0,-134.0
2026-04-09 22:10:01.948076,235950,1531953976,1531955488,-0.979904,0.308416,0.052704,35.98875,-0.735,15.225,23.384,-28.056002,17.408,inter_set_rest,6,5.0,31459.0,403431.0,128120.0,5475.0,-134.0
2026-04-09 22:10:01.951423,235951,1531962985,1531964189,-0.964288,0.488,-0.017568,23.94875,-0.25375,12.81875,23.192001,-28.536001,16.16,inter_set_rest,6,5.0,31459.0,403431.0,128120.0,5475.0,-134.0
2026-04-09 22:10:01.953952,235952,1531977438,1531979086,-1.003328,0.271328,0.003904,10.4825,0.18375,7.30625,23.856,-28.448002,16.632,inter_set_rest,6,5.0,31459.0,403431.0,128120.0,5475.0,-134.0
2026-04-09 22:10:01.978910,235962,1531986491,1531987859,-1.003328,0.271328,0.003904,-2.4675,-1.68875,2.7125,23.856,-28.448002,16.632,inter_set_rest,6,5.0,32994.0,402597.0,127283.0,4762.0,-136.0
2026-04-09 22:10:01.981450,235963,1531995438,1531996634,-1.003328,0.271328,0.003904,-7.7525,-6.20375,-1.72375,23.856,-28.448002,16.632,inter_set_rest,6,5.0,32994.0,402597.0,127283.0,4762.0,-136.0
2026-04-09 22:10:01.983817,235964,1532009997,1532011560,-1.038464,0.40016,0.005856,-1.35625,-9.975,-6.3875,24.912,-28.176,16.016,inter_set_rest,6,5.0,32994.0,402597.0,127283.0,4762.0,-136.0
2026-04-09 22:10:02.014157,235965,1532018999,1532020320,-1.05408,0.454816,0.021472,10.98125,-12.53875,-10.325,24.656002,-27.904001,15.776001,inter_set_rest,6,5.0,32994.0,402597.0,127283.0,4762.0,-136.0
2026-04-09 22:10:02.017657,235966,1532027936,1532029015,-1.05408,0.454816,0.021472,13.64125,-15.16375,-11.27875,24.656002,-27.904001,15.776001,inter_set_rest,6,5.0,32994.0,402597.0,127283.0,4762.0,-136.0
2026-04-09 22:10:02.020138,235967,1532042447,1532043925,-1.042368,0.308416,-0.007808,15.00625,-14.30625,-15.82,25.104002,-27.664001,15.280001,inter_set_rest,6,5.0,32994.0,402597.0,127283.0,4762.0,-136.0
2026-04-09 22:10:02.026012,235968,1532051382,1532052625,-1.042368,0.308416,-0.007808,16.51125,-13.37875,-14.28,25.104002,-27.664001,15.280001,inter_set_rest,6,5.0,32994.0,402597.0,127283.0,4762.0,-136.0
2026-04-09 22:10:02.036493,235969,1532060318,1532061390,-1.059936,0.247904,-0.025376,17.053751,-10.61375,-12.66125,24.656002,-27.464,15.944001,inter_set_rest,6,5.0,32994.0,402597.0,127283.0,4762.0,-136.0
2026-04-09 22:10:02.042739,235970,1532069229,1532070139,-1.059936,0.247904,-0.025376,15.91625,-6.825,-17.61375,24.656002,-27.464,15.944001,inter_set_rest,6,5.0,32994.0,402597.0,127283.0,4762.0,-136.0
2026-04-09 22:10:02.130671,235980,1532083860,1532085135,-1.06384,0.261568,0.003904,16.9575,-3.98125,-21.46375,23.872002,-27.640001,16.976002,inter_set_rest,6,5.0,36636.0,398130.0,127062.0,4130.0,-141.0
2026-04-09 22:10:02.132426,235981,1532092804,1532093922,-1.06384,0.261568,0.003904,15.68875,-1.7675,-21.07875,23.872002,-27.640001,16.976002,inter_set_rest,6,5.0,36636.0,398130.0,127062.0,4130.0,-141.0
2026-04-09 22:10:02.134847,235982,1532101762,1532102621,-1.075552,0.21472,-0.035136,11.66375,0.1225,-22.84625,25.024002,-27.416,15.624001,inter_set_rest,6,5.0,36636.0,398130.0,127062.0,4130.0,-141.0
2026-04-09 22:10:02.136412,235983,1532116234,1532117510,-1.075552,0.21472,-0.033184,7.93625,3.08875,-23.1175,25.024002,-27.416,15.624001,inter_set_rest,6,5.0,36636.0,398130.0,127062.0,4130.0,-141.0
2026-04-09 22:10:02.140710,235984,1532125176,1532126254,-1.03456,0.228384,-0.033184,6.02875,5.29375,-21.35,25.592001,-27.208002,15.616001,inter_set_rest,6,5.0,36636.0,398130.0,127062.0,4130.0,-141.0
2026-04-09 22:10:02.142407,235985,1532134105,1532134933,-1.03456,0.228384,-0.033184,2.9225,7.84875,-20.78125,25.592001,-27.208002,15.616001,inter_set_rest,6,5.0,36636.0,398130.0,127062.0,4130.0,-141.0
2026-04-09 22:10:02.143970,235986,1532148623,1532149914,-1.026752,0.30256,-0.013664,1.05,9.63375,-19.075,24.800001,-26.584002,15.832001,inter_set_rest,6,5.0,36636.0,398130.0,127062.0,4130.0,-141.0
2026-04-09 22:10:02.148439,235987,1532157654,1532158720,-1.022848,0.368928,0.001952,1.33875,10.98125,-16.345,24.544,-27.04,14.464001,inter_set_rest,6,5.0,36636.0,398130.0,127062.0,4130.0,-141.0
2026-04-09 22:10:02.154470,235988,1532166590,1532167426,-1.022848,0.368928,0.001952,2.47625,11.917501,-17.01,24.544,-27.04,14.464001,inter_set_rest,6,5.0,36636.0,398130.0,127062.0,4130.0,-141.0
2026-04-09 22:10:02.180209,235999,1532181633,1532182343,-0.960384,0.203008,0.037088,2.07375,12.85375,-17.08875,24.264002,-26.36,16.536001,inter_set_rest,6,5.0,35975.0,402209.0,129920.0,5070.0,-146.0
2026-04-09 22:10:02.185450,236000,1532191163,1532193229,-0.960384,0.203008,0.037088,1.02375,13.965,-17.42125,24.264002,-26.36,16.536001,inter_set_rest,6,5.0,35975.0,402209.0,129920.0,5070.0,-146.0
2026-04-09 22:10:02.187375,236001,1532200138,1532201958,-1.046272,0.316224,0.00976,-2.16125,15.015,-12.573751,23.840002,-26.928001,15.136001,inter_set_rest,6,5.0,35975.0,402209.0,129920.0,5070.0,-146.0
2026-04-09 22:10:02.187944,236002,1532209085,1532210690,-1.046272,0.316224,0.00976,3.6925,15.2075,-7.20125,23.840002,-26.928001,15.136001,inter_set_rest,6,5.0,35975.0,402209.0,129920.0,5070.0,-146.0
2026-04-09 22:10:02.218944,236003,1532223672,1532225721,-1.04432,0.27328,-0.013664,4.585,15.70625,-7.88375,25.184002,-26.488,14.312,inter_set_rest,6,5.0,35975.0,402209.0,129920.0,5070.0,-146.0
2026-04-09 22:10:02.221127,236004,1532232661,1532234448,-1.04432,0.27328,-0.013664,5.48625,16.9575,-10.12375,25.184002,-26.488,14.312,inter_set_rest,6,5.0,35975.0,402209.0,129920.0,5070.0,-146.0
2026-04-09 22:10:02.225740,236005,1532241585,1532243152,-1.028704,0.242048,-0.027328,8.4875,17.40375,-10.92875,24.928001,-27.2,14.968,inter_set_rest,6,5.0,35975.0,402209.0,129920.0,5070.0,-146.0
2026-04-09 22:10:02.228143,236006,1532250506,1532251841,-1.028704,0.242048,-0.027328,9.2575,18.165,-11.2875,24.928001,-27.2,14.968,inter_set_rest,6,5.0,35975.0,402209.0,129920.0,5070.0,-146.0
2026-04-09 22:10:02.258907,236007,1532265004,1532266784,-1.046272,0.298656,-0.03904,7.69125,19.1275,-12.04875,23.832,-27.184002,16.104,inter_set_rest,6,5.0,35975.0,402209.0,129920.0,5070.0,-146.0
2026-04-09 22:10:02.261111,236008,1532273948,1532275500,-1.046272,0.298656,-0.03904,3.99,19.62625,-11.45375,23.832,-27.184002,16.104,inter_set_rest,6,5.0,35975.0,402209.0,129920.0,5070.0,-146.0
2026-04-09 22:10:02.292413,236018,1532283425,1532284285,-1.026752,0.22448,-0.037088,-1.89,21.07875,-12.81,24.744001,-27.256,14.904,inter_set_rest,6,5.0,35145.0,403217.0,130527.0,5523.0,-135.0
2026-04-09 22:10:02.295347,236019,1532298058,1532299257,-1.028704,0.228384,0.011712,-3.4475,22.575,-16.16125,23.792002,-26.976002,16.504002,inter_set_rest,6,5.0,35145.0,403217.0,130527.0,5523.0,-135.0
2026-04-09 22:10:02.295426,236020,1532306982,1532308045,-1.028704,0.228384,0.011712,-3.5525,23.695,-14.95375,23.792002,-26.976002,16.504002,inter_set_rest,6,5.0,35145.0,403217.0,130527.0,5523.0,-135.0
2026-04-09 22:10:02.297591,236021,1532315928,1532316770,-1.028704,0.228384,0.011712,-4.445,24.491251,-13.5975,23.792002,-26.976002,16.504002,inter_set_rest,6,5.0,35145.0,403217.0,130527.0,5523.0,-135.0
2026-04-09 22:10:02.300126,236022,1532324832,1532325488,-1.10288,0.26352,0.021472,-4.71625,26.43375,-7.21,24.608002,-26.624,14.240001,inter_set_rest,6,5.0,35145.0,403217.0,130527.0,5523.0,-135.0
2026-04-09 22:10:02.330270,236023,1532339767,1532340446,-1.030656,0.232288,0.03904,3.91125,25.935,-6.58875,23.560001,-27.032001,14.368001,inter_set_rest,6,5.0,35145.0,403217.0,130527.0,5523.0,-135.0
2026-04-09 22:10:02.333934,236024,1532349045,1532351276,-1.030656,0.232288,0.03904,2.45,26.5825,-5.17125,23.560001,-27.032001,14.368001,inter_set_rest,6,5.0,35145.0,403217.0,130527.0,5523.0,-135.0
2026-04-09 22:10:02.336417,236025,1532357943,1532359951,-1.032608,0.265472,0.023424,1.09375,27.0375,-0.90125,24.352001,-27.256,14.168,inter_set_rest,6,5.0,35145.0,403217.0,130527.0,5523.0,-135.0
2026-04-09 22:10:02.366583,236026,1532372479,1532372884,-1.032608,0.265472,0.023424,-2.7125,27.02,1.925,24.352001,-27.256,14.168,inter_set_rest,6,5.0,35145.0,403217.0,130527.0,5523.0,-135.0
2026-04-09 22:10:02.426466,236036,1532382126,1532383593,-1.042368,0.294752,0.007808,-2.33625,26.92375,2.4675,23.816002,-27.416,14.088,inter_set_rest,6,5.0,34092.0,403431.0,130672.0,5769.0,-140.0
2026-04-09 22:10:02.427656,236037,1532391083,1532392392,-1.042368,0.294752,0.007808,-3.98125,26.355,5.25875,23.816002,-27.416,14.088,inter_set_rest,6,5.0,34092.0,403431.0,130672.0,5769.0,-140.0
2026-04-09 22:10:02.433887,236038,1532399991,1532401104,-1.071648,0.275232,-0.027328,-8.4875,24.5525,2.45,23.696001,-27.768002,13.952001,inter_set_rest,6,5.0,34092.0,403431.0,130672.0,5769.0,-140.0
2026-04-09 22:10:02.436398,236039,1532414495,1532416007,-1.071648,0.275232,-0.027328,-8.575,22.6275,4.92625,23.696001,-27.768002,13.952001,inter_set_rest,6,5.0,34092.0,403431.0,130672.0,5769.0,-140.0
2026-04-09 22:10:02.438915,236040,1532423385,1532424704,-1.05408,0.22448,-0.074176,-7.63875,21.4375,4.3225,23.776001,-28.256,14.192,inter_set_rest,6,5.0,34092.0,403431.0,130672.0,5769.0,-140.0
2026-04-09 22:10:02.441388,236041,1532432300,1532433425,-1.05408,0.22448,-0.074176,-8.8375,20.44875,2.79125,23.776001,-28.256,14.192,inter_set_rest,6,5.0,34092.0,403431.0,130672.0,5769.0,-140.0
2026-04-09 22:10:02.443879,236042,1532446761,1532448398,-1.030656,0.138592,-0.017568,-7.83125,17.98125,1.37375,23.392,-28.032001,13.688001,inter_set_rest,6,5.0,34092.0,403431.0,130672.0,5769.0,-140.0
2026-04-09 22:10:02.446404,236043,1532455771,1532457130,-1.030656,0.138592,-0.017568,-2.70375,15.855001,-0.37625,23.392,-28.032001,13.688001,inter_set_rest,6,5.0,34092.0,403431.0,130672.0,5769.0,-140.0
2026-04-09 22:10:02.448902,236044,1532464700,1532465864,-1.061888,0.316224,-0.031232,8.05875,14.315001,1.085,23.704,-27.456001,13.024,inter_set_rest,6,5.0,34092.0,403431.0,130672.0,5769.0,-140.0
2026-04-09 22:10:02.453913,236045,1532479210,1532480794,-1.085312,0.218624,-0.033184,10.08,11.43625,-5.46,22.160002,-28.160002,16.152,inter_set_rest,6,5.0,34092.0,403431.0,130672.0,5769.0,-140.0
2026-04-09 22:10:02.478877,236055,1532488213,1532489585,-1.085312,0.218624,-0.033184,2.625,10.89375,-7.37625,22.160002,-28.160002,16.152,inter_set_rest,6,5.0,32542.0,403431.0,128833.0,5306.0,-145.0
2026-04-09 22:10:02.481486,236056,1532497197,1532498340,-1.085312,0.218624,-0.033184,5.90625,10.8325,-6.86,22.160002,-28.160002,16.152,inter_set_rest,6,5.0,32542.0,403431.0,128833.0,5306.0,-145.0
2026-04-09 22:10:02.483932,236057,1532506120,1532507080,-1.057984,0.27328,0.011712,9.37125,10.0625,-5.95,22.296001,-28.216002,14.224001,inter_set_rest,6,5.0,32542.0,403431.0,128833.0,5306.0,-145.0
2026-04-09 22:10:02.515027,236058,1532520598,1532522039,-1.036512,0.27328,0.03904,6.69375,8.4525,-6.43125,22.424002,-27.832,13.544001,inter_set_rest,6,5.0,32542.0,403431.0,128833.0,5306.0,-145.0
2026-04-09 22:10:02.519494,236059,1532529511,1532530730,-1.036512,0.27328,0.03904,3.56125,8.47,-8.715,22.424002,-27.832,13.544001,inter_set_rest,6,5.0,32542.0,403431.0,128833.0,5306.0,-145.0
2026-04-09 22:10:02.520928,236060,1532538457,1532539407,-1.028704,0.290848,0.021472,-0.72625,9.33625,-7.98,22.424002,-27.968,13.104001,inter_set_rest,6,5.0,32542.0,403431.0,128833.0,5306.0,-145.0
2026-04-09 22:10:02.528056,236061,1532552935,1532554371,-1.028704,0.290848,0.021472,-3.395,9.79125,-7.79625,23.224,-27.968,13.104001,inter_set_rest,6,5.0,32542.0,403431.0,128833.0,5306.0,-145.0
2026-04-09 22:10:02.556540,236062,1532561877,1532563116,-1.03456,0.257664,-0.015616,-5.67875,10.675,-6.72,23.240002,-28.384,13.6,inter_set_rest,6,5.0,32542.0,403431.0,128833.0,5306.0,-145.0
2026-04-09 22:10:02.561227,236063,1532570788,1532571852,-1.03456,0.257664,-0.015616,-8.86375,11.7425,-5.55625,23.240002,-28.384,13.6,inter_set_rest,6,5.0,32542.0,403431.0,128833.0,5306.0,-145.0
2026-04-09 22:10:02.587763,236074,1532585865,1532586794,-1.040416,0.251808,-0.031232,-13.95625,12.5475,-4.27,23.104002,-28.12,13.168,inter_set_rest,6,5.0,32092.0,403431.0,130445.0,6043.0,-142.0
2026-04-09 22:10:02.590252,236075,1532594843,1532595586,-1.040416,0.251808,-0.031232,-14.98875,12.01375,-2.94875,23.104002,-28.12,13.168,inter_set_rest,6,5.0,32092.0,403431.0,130445.0,6043.0,-142.0
2026-04-09 22:10:02.592715,236076,1532604370,1532606362,-1.038464,0.267424,-0.035136,-15.1725,11.29625,-3.5175,22.12,-28.44,15.192,inter_set_rest,6,5.0,32092.0,403431.0,130445.0,6043.0,-142.0
2026-04-09 22:10:02.595161,236077,1532613383,1532615073,-1.038464,0.267424,-0.035136,-13.1075,10.03625,-3.955,22.12,-28.44,15.192,inter_set_rest,6,5.0,32092.0,403431.0,130445.0,6043.0,-142.0
2026-04-09 22:10:02.601449,236078,1532627902,1532629950,-1.042368,0.288896,-0.05856,-9.00375,9.21375,-4.26125,22.208,-28.080002,15.928,inter_set_rest,6,5.0,32092.0,403431.0,130445.0,6043.0,-142.0
2026-04-09 22:10:02.631508,236079,1532636883,1532638709,-1.042368,0.288896,-0.05856,-5.5125,8.75875,-4.55,22.208,-28.080002,15.928,inter_set_rest,6,5.0,32092.0,403431.0,130445.0,6043.0,-142.0
2026-04-09 22:10:02.635164,236080,1532645807,1532647399,-1.042368,0.279136,-0.091744,-4.1825,8.6975,-5.775,22.848001,-28.52,15.032001,inter_set_rest,6,5.0,32092.0,403431.0,130445.0,6043.0,-142.0
2026-04-09 22:10:02.637681,236081,1532660354,1532662290,-1.03456,0.242048,-0.109312,-2.5375,8.645,-7.4025,23.456001,-28.712002,13.432001,inter_set_rest,6,5.0,32092.0,403431.0,130445.0,6043.0,-142.0
2026-04-09 22:10:02.643987,236082,1532669385,1532671036,-1.03456,0.242048,-0.109312,-0.70875,8.3475,-8.61,23.456001,-28.712002,13.432001,inter_set_rest,6,5.0,32092.0,403431.0,130445.0,6043.0,-142.0
2026-04-09 22:10:02.674101,236083,1532678349,1532679746,-1.03456,0.242048,-0.124928,-0.385,8.07625,-8.085,23.456001,-28.712002,13.432001,inter_set_rest,6,5.0,32092.0,403431.0,130445.0,6043.0,-142.0
2026-04-09 22:10:02.735087,236093,1532687367,1532688479,-1.050176,0.269376,-0.11712,-1.11125,8.30375,-7.175,23.256,-28.240002,11.624001,inter_set_rest,6,5.0,32405.0,403431.0,133004.0,7102.0,-145.0
2026-04-09 22:10:02.738497,236094,1532701913,1532703502,-1.059936,0.259616,-0.103456,-1.61875,8.12875,-6.5975,23.416,-28.232002,13.552001,inter_set_rest,6,5.0,32405.0,403431.0,133004.0,7102.0,-145.0
2026-04-09 22:10:02.740174,236095,1532710867,1532712209,-1.059936,0.259616,-0.103456,-1.95125,8.1025,-6.74625,23.416,-28.232002,13.552001,inter_set_rest,6,5.0,32405.0,403431.0,133004.0,7102.0,-145.0
2026-04-09 22:10:02.743624,236096,1532719793,1532720893,-1.04432,0.271328,-0.066368,-0.83125,7.595,-6.405,22.944,-28.096,13.400001,inter_set_rest,6,5.0,32405.0,403431.0,133004.0,7102.0,-145.0
2026-04-09 22:10:02.745253,236097,1532734272,1532735772,-1.04432,0.271328,-0.066368,2.0475,6.90375,-6.34375,22.944,-28.096,13.400001,inter_set_rest,6,5.0,32405.0,403431.0,133004.0,7102.0,-145.0
2026-04-09 22:10:02.748704,236098,1532743165,1532744477,-1.030656,0.308416,-0.076128,4.75125,7.39375,-6.3175,23.032001,-28.472002,13.176001,inter_set_rest,6,5.0,32405.0,403431.0,133004.0,7102.0,-145.0
2026-04-09 22:10:02.750143,236099,1532752131,1532753273,-1.030656,0.308416,-0.076128,4.75125,8.47,-6.34375,23.032001,-28.472002,13.176001,inter_set_rest,6,5.0,32405.0,403431.0,133004.0,7102.0,-145.0
2026-04-09 22:10:02.752674,236100,1532766645,1532768221,-1.040416,0.261568,-0.089792,2.45,9.19625,-6.76375,22.616001,-27.760002,14.248001,inter_set_rest,6,5.0,32405.0,403431.0,133004.0,7102.0,-145.0
2026-04-09 22:10:02.755166,236101,1532775630,1532776933,-1.040416,0.261568,-0.089792,0.30625,9.89625,-8.00625,22.616001,-27.760002,14.248001,inter_set_rest,6,5.0,32405.0,403431.0,133004.0,7102.0,-145.0
2026-04-09 22:10:02.780117,236111,1532785069,1532785701,-1.03456,0.279136,-0.085888,0.6475,9.7825,-8.12875,22.608002,-28.536001,14.832001,inter_set_rest,6,5.0,32352.0,403431.0,134988.0,8139.0,-148.0
2026-04-09 22:10:02.782684,236112,1532794276,1532794678,-1.03456,0.279136,-0.085888,0.53375,10.15,-7.875,22.608002,-28.536001,14.832001,inter_set_rest,6,5.0,32352.0,403431.0,134988.0,8139.0,-148.0
2026-04-09 22:10:02.785173,236113,1532809271,1532809647,-1.038464,0.267424,-0.07808,-0.93625,10.4825,-8.37375,22.168001,-28.288002,15.032001,inter_set_rest,6,5.0,32352.0,403431.0,134988.0,8139.0,-148.0
2026-04-09 22:10:02.819142,236114,1532818574,1532820466,-1.038464,0.267424,-0.07808,-1.65375,10.98125,-9.275,22.168001,-28.288002,15.032001,inter_set_rest,6,5.0,32352.0,403431.0,134988.0,8139.0,-148.0
2026-04-09 22:10:02.824025,236115,1532827516,1532829138,-1.030656,0.230336,-0.064416,-0.315,11.375,-9.905,22.784,-28.216002,11.336,inter_set_rest,6,5.0,32352.0,403431.0,134988.0,8139.0,-148.0
2026-04-09 22:10:02.825688,236116,1532836457,1532837838,-1.030656,0.230336,-0.064416,1.63625,11.22625,-9.8875,22.784,-28.216002,11.336,inter_set_rest,6,5.0,32352.0,403431.0,134988.0,8139.0,-148.0
2026-04-09 22:10:02.829258,236117,1532851012,1532852724,-1.042368,0.261568,-0.091744,3.29,11.40125,-8.4,23.176,-28.432001,13.6,inter_set_rest,6,5.0,32352.0,403431.0,134988.0,8139.0,-148.0
2026-04-09 22:10:02.833939,236118,1532859950,1532861424,-1.056032,0.25376,-0.095648,4.48875,10.6225,-7.62125,23.36,-28.272001,13.144001,inter_set_rest,6,5.0,32352.0,403431.0,134988.0,8139.0,-148.0
2026-04-09 22:10:02.864102,236119,1532868978,1532870167,-1.056032,0.25376,-0.095648,4.4975,9.905,-7.21,23.36,-28.272001,13.144001,inter_set_rest,6,5.0,32352.0,403431.0,134988.0,8139.0,-148.0
2026-04-09 22:10:02.926526,236130,1532883460,1532885094,-1.05408,0.247904,-0.0976,4.375,9.10875,-6.615,23.664001,-28.2,13.168,inter_set_rest,6,5.0,32546.0,403431.0,137056.0,9235.0,-137.0
2026-04-09 22:10:02.928970,236131,1532892461,1532893807,-1.05408,0.247904,-0.0976,3.78,8.18125,-5.67,23.664001,-28.2,13.168,inter_set_rest,6,5.0,32546.0,403431.0,137056.0,9235.0,-137.0
2026-04-09 22:10:02.931504,236132,1532901416,1532902549,-1.038464,0.26352,-0.093696,2.72125,7.48125,-4.5675,23.168001,-27.672,13.992001,inter_set_rest,6,5.0,32546.0,403431.0,137056.0,9235.0,-137.0
2026-04-09 22:10:02.934019,236133,1532916024,1532917513,-1.038464,0.26352,-0.093696,1.6625,7.02625,-4.17375,23.168001,-27.672,13.992001,inter_set_rest,6,5.0,32546.0,403431.0,137056.0,9235.0,-137.0
2026-04-09 22:10:02.936390,236134,1532924948,1532926208,-1.03456,0.275232,-0.0488,-1.02375,6.60625,-3.57,23.216002,-28.408,13.112,inter_set_rest,6,5.0,32546.0,403431.0,137056.0,9235.0,-137.0
2026-04-09 22:10:02.939007,236135,1532933871,1532934916,-1.03456,0.275232,-0.0488,-3.68375,6.67625,-4.27,23.216002,-28.408,13.112,inter_set_rest,6,5.0,32546.0,403431.0,137056.0,9235.0,-137.0
2026-04-09 22:10:02.941478,236136,1532942793,1532943605,-1.042368,0.244,-0.046848,-7.07,8.07625,-5.145,23.192001,-28.608002,13.432001,inter_set_rest,6,5.0,32546.0,403431.0,137056.0,9235.0,-137.0
2026-04-09 22:10:02.944033,236137,1532957288,1532958488,-1.042368,0.244,-0.046848,-13.20375,9.59875,-6.09,23.192001,-28.608002,13.432001,inter_set_rest,6,5.0,32546.0,403431.0,137056.0,9235.0,-137.0
2026-04-09 22:10:02.946447,236138,1532966280,1532967190,-1.050176,0.244,-0.07808,-15.39125,11.52375,-5.43375,21.216002,-28.376001,16.0,inter_set_rest,6,5.0,32546.0,403431.0,137056.0,9235.0,-137.0
2026-04-09 22:10:02.949013,236139,1532975216,1532975921,-1.050176,0.244,-0.07808,-15.53125,12.1625,-5.25875,21.216002,-28.376001,16.0,inter_set_rest,6,5.0,32546.0,403431.0,137056.0,9235.0,-137.0
2026-04-09 22:10:03.037751,236149,1532990249,1532990914,-1.06384,0.240096,-0.121024,-13.886251,11.917501,-4.83,21.288,-28.488,15.552001,inter_set_rest,6,5.0,32089.0,403431.0,136689.0,9128.0,-137.0
2026-04-09 22:10:03.040262,236150,1532999533,1533001678,-1.06384,0.240096,-0.13664,-12.1975,11.2175,-3.68375,21.288,-28.488,15.552001,inter_set_rest,6,5.0,32089.0,403431.0,136689.0,9128.0,-137.0
2026-04-09 22:10:03.042700,236151,1533008499,1533010378,-1.032608,0.296704,-0.13664,-10.5175,12.48625,-2.73875,22.320002,-28.800001,16.04,inter_set_rest,6,5.0,32089.0,403431.0,136689.0,9128.0,-137.0
2026-04-09 22:10:03.045205,236152,1533017419,1533019109,-1.032608,0.296704,-0.13664,-12.62625,12.74875,-1.645,22.320002,-28.800001,16.04,inter_set_rest,6,5.0,32089.0,403431.0,136689.0,9128.0,-137.0
2026-04-09 22:10:03.047704,236153,1533031914,1533033995,-1.036512,0.249856,-0.083936,-15.408751,12.11,-2.555,23.224,-28.768002,13.576,inter_set_rest,6,5.0,32089.0,403431.0,136689.0,9128.0,-137.0
2026-04-09 22:10:03.050257,236154,1533040852,1533042696,-1.04432,0.244,-0.10736,-13.51,10.3075,-2.66,23.52,-28.600002,13.616,inter_set_rest,6,5.0,32089.0,403431.0,136689.0,9128.0,-137.0
2026-04-09 22:10:03.052656,236155,1533049839,1533051438,-1.04432,0.244,-0.10736,-6.4225,7.98,-2.2225,23.52,-28.600002,13.616,inter_set_rest,6,5.0,32089.0,403431.0,136689.0,9128.0,-137.0
2026-04-09 22:10:03.055219,236156,1533064447,1533066399,-1.026752,0.30256,-0.11712,0.385,5.95,-1.37375,22.800001,-29.024002,13.688001,inter_set_rest,6,5.0,32089.0,403431.0,136689.0,9128.0,-137.0
2026-04-09 22:10:03.057709,236157,1533073469,1533075145,-1.026752,0.30256,-0.11712,5.7925,4.10375,-0.42875,22.800001,-29.024002,13.688001,inter_set_rest,6,5.0,32089.0,403431.0,136689.0,9128.0,-137.0
2026-04-09 22:10:03.060229,236158,1533082409,1533083871,-1.01504,0.30256,-0.093696,7.63875,3.64,0.0525,22.784,-29.408,13.304001,inter_set_rest,6,5.0,32089.0,403431.0,136689.0,9128.0,-137.0
2026-04-09 22:10:03.085194,236168,1533097109,1533098906,-1.01504,0.30256,-0.093696,5.775,4.0425,-0.37625,22.784,-29.408,13.304001,inter_set_rest,6,5.0,32116.0,403431.0,137842.0,9735.0,-141.0
2026-04-09 22:10:03.087698,236169,1533106107,1533107609,-1.0248,0.281088,-0.081984,1.4525,5.2675,-0.98875,22.808,-28.968002,14.192,inter_set_rest,6,5.0,32116.0,403431.0,137842.0,9735.0,-141.0
2026-04-09 22:10:03.090283,236170,1533115046,1533116344,-1.0248,0.281088,-0.081984,-2.75625,6.32625,-0.385,22.808,-28.968002,14.192,inter_set_rest,6,5.0,32116.0,403431.0,137842.0,9735.0,-141.0
2026-04-09 22:10:03.097751,236171,1533124052,1533125039,-1.057984,0.27328,-0.099552,-7.60375,6.15125,0.3325,22.240002,-29.000002,15.152,inter_set_rest,6,5.0,32116.0,403431.0,137842.0,9735.0,-141.0
2026-04-09 22:10:03.128000,236172,1533138555,1533139977,-1.057984,0.27328,-0.099552,-12.635,6.57125,-0.41125,22.240002,-29.000002,15.152,inter_set_rest,6,5.0,32116.0,403431.0,137842.0,9735.0,-141.0
2026-04-09 22:10:03.131510,236173,1533147452,1533148719,-1.057984,0.244,-0.12688,-14.18375,6.30875,0.35,22.720001,-28.992,13.472001,inter_set_rest,6,5.0,32116.0,403431.0,137842.0,9735.0,-141.0
2026-04-09 22:10:03.134029,236174,1533156366,1533157503,-1.057984,0.244,-0.12688,-12.06625,4.99625,1.14625,22.720001,-28.992,13.472001,inter_set_rest,6,5.0,32116.0,403431.0,137842.0,9735.0,-141.0
2026-04-09 22:10:03.164188,236175,1533170867,1533172490,-1.030656,0.259616,-0.0976,-6.545,3.325,1.9425,22.616001,-28.872002,13.72,inter_set_rest,6,5.0,32116.0,403431.0,137842.0,9735.0,-141.0
2026-04-09 22:10:03.167729,236176,1533179765,1533181237,-1.030656,0.259616,-0.0976,-4.0075,1.91625,2.3975,22.616001,-28.872002,13.72,inter_set_rest,6,5.0,32116.0,403431.0,137842.0,9735.0,-141.0
2026-04-09 22:10:03.195242,236187,1533189362,1533189998,-1.036512,0.2928,-0.076128,-4.54125,1.32125,3.29,23.048,-28.904001,13.296001,inter_set_rest,6,5.0,32327.0,403431.0,140026.0,11014.0,-122.0
2026-04-09 22:10:03.197739,236188,1533198641,1533200806,-1.036512,0.2928,-0.076128,-6.895,0.63,1.88125,23.048,-28.904001,13.296001,inter_set_rest,6,5.0,32327.0,403431.0,140026.0,11014.0,-122.0
2026-04-09 22:10:03.200251,236189,1533213267,1533213687,-1.030656,0.279136,-0.066368,-8.81125,0.5775,1.14625,21.208,-29.608002,15.248001,inter_set_rest,6,5.0,32327.0,403431.0,140026.0,11014.0,-122.0
2026-04-09 22:10:03.202735,236190,1533222555,1533224485,-1.030656,0.300608,-0.103456,-7.56,-0.525,0.18375,21.296001,-29.600002,15.096001,inter_set_rest,6,5.0,32327.0,403431.0,140026.0,11014.0,-122.0
2026-04-09 22:10:03.205252,236191,1533231591,1533233220,-1.030656,0.300608,-0.103456,-5.80125,-1.5575,0.46375,21.296001,-29.600002,15.096001,inter_set_rest,6,5.0,32327.0,403431.0,140026.0,11014.0,-122.0
2026-04-09 22:10:03.236684,236192,1533246091,1533248126,-1.032608,0.294752,-0.103456,-6.04625,-2.14375,0.84875,22.776001,-29.584002,13.592001,inter_set_rest,6,5.0,32327.0,403431.0,140026.0,11014.0,-122.0
2026-04-09 22:10:03.240328,236193,1533255016,1533256799,-1.032608,0.294752,-0.103456,-6.18625,-2.905,0.48125,22.776001,-29.584002,13.592001,inter_set_rest,6,5.0,32327.0,403431.0,140026.0,11014.0,-122.0
2026-04-09 22:10:03.242683,236194,1533263965,1533265504,-1.042368,0.329888,-0.103456,-5.81,-4.27,1.16375,22.048,-29.816002,13.568001,inter_set_rest,6,5.0,32327.0,403431.0,140026.0,11014.0,-122.0
2026-04-09 22:10:03.246489,236195,1533272900,1533274233,-1.042368,0.329888,-0.103456,-5.8625,-4.64625,0.63,22.048,-29.816002,13.568001,inter_set_rest,6,5.0,32327.0,403431.0,140026.0,11014.0,-122.0
2026-04-09 22:10:03.331535,236205,1533287377,1533289558,-1.042368,0.275232,-0.089792,-5.83625,-4.7425,-0.35,22.888,-30.056002,14.416,inter_set_rest,6,5.0,32557.0,403431.0,142515.0,12585.0,-132.0
2026-04-09 22:10:03.334194,236206,1533296346,1533298322,-1.042368,0.275232,-0.089792,-5.17125,-4.6025,-1.225,22.888,-30.056002,14.416,inter_set_rest,6,5.0,32557.0,403431.0,142515.0,12585.0,-132.0
2026-04-09 22:10:03.336504,236207,1533305250,1533307084,-1.026752,0.30256,-0.099552,-4.3225,-4.01625,-1.3125,22.288,-29.824001,14.096001,inter_set_rest,6,5.0,32557.0,403431.0,142515.0,12585.0,-132.0
2026-04-09 22:10:03.339043,236208,1533319694,1533320045,-1.026752,0.30256,-0.099552,-5.8975,-2.835,-1.855,22.288,-29.824001,14.096001,inter_set_rest,6,5.0,32557.0,403431.0,142515.0,12585.0,-132.0
2026-04-09 22:10:03.341506,236209,1533328979,1533330830,-1.05408,0.271328,-0.124928,-7.0,-1.65375,-3.50875,22.632002,-29.384,14.216001,inter_set_rest,6,5.0,32557.0,403431.0,142515.0,12585.0,-132.0
2026-04-09 22:10:03.344024,236210,1533337916,1533339549,-1.05408,0.271328,-0.124928,-5.9325,-2.1525,-4.4625,22.632002,-29.384,14.216001,inter_set_rest,6,5.0,32557.0,403431.0,142515.0,12585.0,-132.0
2026-04-09 22:10:03.346507,236211,1533352560,1533354493,-1.067744,0.261568,-0.134688,-5.6175,-2.275,-3.955,22.688002,-29.416002,13.856001,inter_set_rest,6,5.0,32557.0,403431.0,142515.0,12585.0,-132.0
2026-04-09 22:10:03.349042,236212,1533361536,1533363202,-1.040416,0.277184,-0.144448,-4.9175,-2.42375,-3.5875,22.688002,-29.416002,14.496,inter_set_rest,6,5.0,32557.0,403431.0,142515.0,12585.0,-132.0
2026-04-09 22:10:03.351509,236213,1533370539,1533371959,-1.040416,0.277184,-0.144448,-3.7975,-2.8525,-3.77125,22.088001,-29.952002,14.496,inter_set_rest,6,5.0,32557.0,403431.0,142515.0,12585.0,-132.0
2026-04-09 22:10:03.354002,236214,1533379473,1533380658,-1.040416,0.277184,-0.144448,-4.41,-2.59875,-2.80875,22.088001,-29.952002,14.496,inter_set_rest,6,5.0,32557.0,403431.0,142515.0,12585.0,-132.0
2026-04-09 22:10:03.386997,236224,1533393993,1533395654,-1.018944,0.304512,-0.101504,-6.02,-1.68875,-3.0275,22.136002,-30.000002,14.68,inter_set_rest,6,5.0,32200.0,403431.0,141995.0,12357.0,-137.0
2026-04-09 22:10:03.387757,236225,1533402935,1533404460,-1.028704,0.294752,-0.052704,-7.58625,-0.3325,-3.395,22.888,-30.232002,15.376,inter_set_rest,6,5.0,32200.0,403431.0,141995.0,12357.0,-137.0
2026-04-09 22:10:03.390411,236226,1533411902,1533413200,-1.028704,0.294752,-0.052704,-8.085,1.79375,-4.4625,22.888,-30.232002,15.376,inter_set_rest,6,5.0,32200.0,403431.0,141995.0,12357.0,-137.0
2026-04-09 22:10:03.420460,236227,1533426431,1533428122,-1.032608,0.286944,-0.060512,-9.3275,3.605,-5.7925,21.424002,-29.888,15.664001,inter_set_rest,6,5.0,32200.0,403431.0,141995.0,12357.0,-137.0
2026-04-09 22:10:03.424037,236228,1533435332,1533436821,-1.032608,0.286944,-0.060512,-8.75,4.17375,-7.6125,21.424002,-29.888,15.664001,inter_set_rest,6,5.0,32200.0,403431.0,141995.0,12357.0,-137.0
2026-04-09 22:10:03.426530,236229,1533444258,1533445553,-1.036512,0.298656,-0.07808,-6.25625,2.87875,-7.4375,21.944,-30.560001,14.992001,inter_set_rest,6,5.0,32200.0,403431.0,141995.0,12357.0,-137.0
2026-04-09 22:10:03.432737,236230,1533458761,1533460484,-1.036512,0.298656,-0.07808,-6.22125,0.91,-6.5975,21.944,-30.560001,14.992001,inter_set_rest,6,5.0,32200.0,403431.0,141995.0,12357.0,-137.0
2026-04-09 22:10:03.466278,236231,1533467710,1533469175,-1.0248,0.316224,-0.074176,-2.10875,-1.93375,-6.08125,20.944,-30.048002,15.936001,inter_set_rest,6,5.0,32200.0,403431.0,141995.0,12357.0,-137.0
2026-04-09 22:10:03.466888,236232,1533476643,1533477906,-1.0248,0.316224,-0.074176,2.72125,-4.26125,-6.79875,20.944,-30.048002,15.936001,inter_set_rest,6,5.0,32200.0,403431.0,141995.0,12357.0,-137.0
2026-04-09 22:10:03.494123,236243,1533491755,1533492920,-1.0248,0.329888,-0.0488,0.945,-7.02625,-7.51625,22.088001,-30.088001,15.368001,inter_set_rest,6,5.0,31897.0,403431.0,141994.0,12425.0,-141.0
2026-04-09 22:10:03.496433,236244,1533500701,1533501740,-1.0248,0.329888,-0.0488,-3.4125,-8.8025,-7.42875,22.088001,-30.088001,15.368001,inter_set_rest,6,5.0,31897.0,403431.0,141994.0,12425.0,-141.0
2026-04-09 22:10:03.498949,236245,1533509633,1533510498,-1.050176,0.308416,-0.021472,-7.53375,-11.2525,-8.05,21.68,-30.224,14.528001,inter_set_rest,6,5.0,31897.0,403431.0,141994.0,12425.0,-141.0
2026-04-09 22:10:03.501449,236246,1533518580,1533519200,-1.050176,0.308416,-0.021472,-8.61875,-12.705,-8.5925,21.68,-30.224,14.528001,inter_set_rest,6,5.0,31897.0,403431.0,141994.0,12425.0,-141.0
2026-04-09 22:10:03.506828,236247,1533533531,1533534184,-1.046272,0.275232,-0.017568,-8.60125,-14.323751,-8.35625,21.504002,-30.640001,17.192001,inter_set_rest,6,5.0,31897.0,403431.0,141994.0,12425.0,-141.0
2026-04-09 22:10:03.536837,236248,1533542894,1533544985,-1.03456,0.279136,-0.005856,-9.70375,-15.39125,-8.37375,22.304,-30.688002,15.376,inter_set_rest,6,5.0,31897.0,403431.0,141994.0,12425.0,-141.0
2026-04-09 22:10:03.541987,236249,1533551829,1533553710,-1.03456,0.279136,-0.005856,-9.59875,-16.73875,-7.62125,22.304,-30.688002,15.376,inter_set_rest,6,5.0,31897.0,403431.0,141994.0,12425.0,-141.0
2026-04-09 22:10:03.543144,236250,1533560941,1533562441,-1.03456,0.279136,-0.005856,-8.00625,-17.99,-7.7175,22.304,-30.688002,15.376,inter_set_rest,6,5.0,31897.0,403431.0,141994.0,12425.0,-141.0
2026-04-09 22:10:03.548955,236251,1533575475,1533577416,-1.048224,0.277184,0.007808,-7.91,-19.075,-7.88375,22.616001,-30.760002,15.968,inter_set_rest,6,5.0,31897.0,403431.0,141994.0,12425.0,-141.0
2026-04-09 22:10:03.609696,236252,1533584400,1533586120,-1.04432,0.25376,0.023424,-9.10875,-19.6525,-8.68,21.68,-29.768002,18.480001,inter_set_rest,6,5.0,31897.0,403431.0,141994.0,12425.0,-141.0
2026-04-09 22:10:03.635979,236262,1533593500,1533595326,-1.04432,0.25376,0.023424,-10.10625,-20.2825,-9.24875,21.68,-29.768002,18.480001,inter_set_rest,6,5.0,31964.0,403431.0,141254.0,11864.0,-142.0
2026-04-09 22:10:03.637826,236263,1533608019,1533610258,-1.030656,0.236192,0.015616,-12.18875,-20.44875,-8.8725,22.808,-29.896002,16.104,inter_set_rest,6,5.0,31964.0,403431.0,141254.0,11864.0,-142.0
2026-04-09 22:10:03.643330,236264,1533616936,1533618936,-1.030656,0.236192,0.015616,-15.96875,-21.175,-8.4,22.808,-29.896002,16.104,inter_set_rest,6,5.0,31964.0,403431.0,141254.0,11864.0,-142.0
2026-04-09 22:10:03.652713,236265,1533625861,1533627652,-1.036512,0.300608,0.00976,-12.53,-21.14,-7.93625,23.328001,-30.680002,16.560001,inter_set_rest,6,5.0,31964.0,403431.0,141254.0,11864.0,-142.0
2026-04-09 22:10:03.652932,236266,1533640373,1533642556,-1.036512,0.300608,0.00976,-18.97875,-20.79875,-8.2075,23.328001,-30.680002,16.560001,inter_set_rest,6,5.0,31964.0,403431.0,141254.0,11864.0,-142.0
2026-04-09 22:10:03.660928,236267,1533649318,1533651309,-1.046272,0.277184,0.017568,-22.07625,-20.772501,-9.73875,23.008001,-30.872002,18.616001,inter_set_rest,6,5.0,31964.0,403431.0,141254.0,11864.0,-142.0
2026-04-09 22:10:03.661020,236268,1533658283,1533660084,-1.046272,0.277184,0.017568,-28.525,-21.3675,-7.09625,23.008001,-30.872002,18.616001,inter_set_rest,6,5.0,31964.0,403431.0,141254.0,11864.0,-142.0
2026-04-09 22:10:03.661060,236269,1533667257,1533668818,-1.042368,0.245952,0.017568,-26.5825,-23.1,-7.77,23.072,-30.160002,17.768002,inter_set_rest,6,5.0,31964.0,403431.0,141254.0,11864.0,-142.0
2026-04-09 22:10:03.661100,236270,1533681791,1533683762,-1.042368,0.245952,0.017568,-20.43125,-23.59,-9.59,23.072,-30.160002,17.768002,inter_set_rest,6,5.0,31964.0,403431.0,141254.0,11864.0,-142.0
2026-04-09 22:10:03.684032,236280,1533691183,1533692544,-1.048224,0.249856,-0.017568,-28.28875,-23.6425,-6.44,22.496,-30.136002,17.048,inter_set_rest,6,5.0,32595.0,403431.0,139210.0,10360.0,-140.0
2026-04-09 22:10:03.686524,236281,1533700329,1533701419,-1.048224,0.249856,-0.017568,-30.9225,-25.22625,-8.23375,22.496,-30.136002,17.048,inter_set_rest,6,5.0,32595.0,403431.0,139210.0,10360.0,-140.0
2026-04-09 22:10:03.691237,236282,1533714845,1533716379,-1.08336,0.220576,-0.074176,-21.0875,-27.4575,-7.42875,22.52,-30.384,19.768002,inter_set_rest,6,5.0,32595.0,403431.0,139210.0,10360.0,-140.0
2026-04-09 22:10:03.723257,236283,1533723795,1533725086,-1.067744,0.378688,-0.109312,-6.93,-28.98,-9.1,22.664001,-30.272001,20.008001,inter_set_rest,6,5.0,32595.0,403431.0,139210.0,10360.0,-140.0
2026-04-09 22:10:03.723405,236284,1533732726,1533733807,-1.067744,0.378688,-0.109312,-10.5525,-29.75875,-7.945,22.664001,-30.272001,20.008001,inter_set_rest,6,5.0,32595.0,403431.0,139210.0,10360.0,-140.0
2026-04-09 22:10:03.725417,236285,1533741641,1533742498,-1.067744,0.378688,-0.109312,-18.69875,-31.10625,-7.13125,22.664001,-30.272001,20.008001,inter_set_rest,6,5.0,32595.0,403431.0,139210.0,10360.0,-140.0
2026-04-09 22:10:03.729011,236286,1533756145,1533757445,-1.007232,0.300608,-0.052704,-6.16,-34.39625,-9.10875,23.736002,-30.312002,17.488,inter_set_rest,6,5.0,32595.0,403431.0,139210.0,10360.0,-140.0
2026-04-09 22:10:03.759437,236287,1533765119,1533766169,-1.046272,0.294752,-0.042944,-8.5575,-34.2125,-3.36,23.464,-29.320002,20.512001,inter_set_rest,6,5.0,32595.0,403431.0,139210.0,10360.0,-140.0
2026-04-09 22:10:03.762939,236288,1533774041,1533774845,-1.046272,0.294752,-0.042944,-4.29625,-35.0525,-8.33,23.464,-29.320002,20.512001,inter_set_rest,6,5.0,32595.0,403431.0,139210.0,10360.0,-140.0
2026-04-09 22:10:03.795503,236299,1533788524,1533790210,-1.007232,0.271328,0.054656,4.85625,-35.945,-15.295,24.424002,-29.832,19.648,inter_set_rest,6,5.0,34478.0,403431.0,137548.0,8824.0,-144.0
2026-04-09 22:10:03.797939,236300,1533797495,1533798910,-1.007232,0.271328,0.054656,2.03,-34.23,-11.5675,24.424002,-29.832,19.648,inter_set_rest,6,5.0,34478.0,403431.0,137548.0,8824.0,-144.0
2026-04-09 22:10:03.800306,236301,1533806577,1533807643,-0.968192,0.343552,0.113216,9.58125,-31.33375,-11.6725,23.376001,-29.696001,21.328001,inter_set_rest,6,5.0,34478.0,403431.0,137548.0,8824.0,-144.0
2026-04-09 22:10:03.802727,236302,1533821192,1533822585,-0.968192,0.343552,0.113216,5.285,-25.85625,-10.5,23.376001,-29.696001,21.328001,inter_set_rest,6,5.0,34478.0,403431.0,137548.0,8824.0,-144.0
2026-04-09 22:10:03.805375,236303,1533830155,1533831265,-0.993568,0.31232,0.148352,-2.93125,-20.7375,-9.073751,23.464,-30.272001,21.848001,inter_set_rest,6,5.0,34478.0,403431.0,137548.0,8824.0,-144.0
2026-04-09 22:10:03.812874,236304,1533839100,1533839965,-0.993568,0.31232,0.148352,-0.88375,-16.30125,-9.40625,23.464,-30.272001,21.848001,inter_set_rest,6,5.0,34478.0,403431.0,137548.0,8824.0,-144.0
2026-04-09 22:10:03.842984,236305,1533853605,1533854916,-0.999424,0.304512,0.158112,7.48125,-13.36125,-10.045,24.168001,-29.952002,20.048,inter_set_rest,6,5.0,34478.0,403431.0,137548.0,8824.0,-144.0
2026-04-09 22:10:03.846554,236306,1533862596,1533863604,-0.999424,0.304512,0.158112,13.3175,-11.27,-10.2025,24.168001,-29.952002,20.048,inter_set_rest,6,5.0,34478.0,403431.0,137548.0,8824.0,-144.0
2026-04-09 22:10:03.848972,236307,1533871632,1533872317,-1.020896,0.298656,0.122976,15.9775,-8.785,-9.14375,24.320002,-30.048002,20.024,inter_set_rest,6,5.0,34478.0,403431.0,137548.0,8824.0,-144.0
2026-04-09 22:10:03.949176,236308,1533881077,1533883083,-1.020896,0.298656,0.122976,16.12625,-8.05,-9.84375,24.320002,-30.048002,20.024,inter_set_rest,6,5.0,34478.0,403431.0,137548.0,8824.0,-144.0
2026-04-09 22:10:03.976432,236318,1533895666,1533896033,-1.0248,0.245952,0.128832,13.20375,-7.7875,-8.785,24.160002,-29.864002,20.176,inter_set_rest,6,5.0,35116.0,403431.0,137721.0,8758.0,-149.0
2026-04-09 22:10:03.979229,236319,1533904898,1533906782,-1.032608,0.228384,0.142496,11.27875,-8.00625,-6.6325,24.320002,-29.44,19.728,inter_set_rest,6,5.0,35116.0,403431.0,137721.0,8758.0,-149.0
2026-04-09 22:10:03.981576,236320,1533913872,1533915479,-1.032608,0.228384,0.142496,9.89625,-8.39125,-6.79875,24.320002,-29.44,19.728,inter_set_rest,6,5.0,35116.0,403431.0,137721.0,8758.0,-149.0
2026-04-09 22:10:03.984001,236321,1533922811,1533924186,-1.032608,0.228384,0.142496,6.58875,-8.6275,-7.2975,24.320002,-29.44,19.728,inter_set_rest,6,5.0,35116.0,403431.0,137721.0,8758.0,-149.0
2026-04-09 22:10:03.986647,236322,1533937293,1533939080,-1.022848,0.201056,0.1952,5.5825,-9.38,-7.175,24.328001,-29.672,19.376001,inter_set_rest,6,5.0,35116.0,403431.0,137721.0,8758.0,-149.0
2026-04-09 22:10:04.004320,236323,1533946227,1533947760,-1.042368,0.187392,0.199104,4.69,-9.47625,-6.65,24.12,-29.728,20.304,inter_set_rest,6,5.0,35116.0,403431.0,137721.0,8758.0,-149.0
2026-04-09 22:10:04.013308,236324,1533955157,1533956518,-1.042368,0.187392,0.199104,2.24,-8.9775,-6.71125,24.12,-29.728,20.304,inter_set_rest,6,5.0,35116.0,403431.0,137721.0,8758.0,-149.0
2026-04-09 22:10:04.013368,236325,1533969631,1533971420,-1.026752,0.201056,0.199104,0.0525,-8.04125,-6.13375,24.160002,-30.064001,20.656,inter_set_rest,6,5.0,35116.0,403431.0,137721.0,8758.0,-149.0
2026-04-09 22:10:04.013407,236326,1533978572,1533980141,-1.026752,0.201056,0.199104,-1.3825,-7.1575,-4.41875,24.160002,-30.064001,20.656,inter_set_rest,6,5.0,35116.0,403431.0,137721.0,8758.0,-149.0
2026-04-09 22:10:04.013452,236327,1533987579,1533988830,-1.009184,0.226432,0.197152,-2.2925,-6.1775,-3.40375,23.688002,-29.928001,20.272001,inter_set_rest,6,5.0,35116.0,403431.0,137721.0,8758.0,-149.0
2026-04-09 22:10:04.026604,236337,1534002198,1534003852,-1.009184,0.226432,0.197152,-2.21375,-4.9875,-3.07125,23.688002,-29.928001,20.272001,inter_set_rest,6,5.0,36201.0,403431.0,137643.0,8291.0,-143.0
2026-04-09 22:10:04.026728,236338,1534011221,1534012619,-1.020896,0.284992,0.169824,-2.6775,-4.2525,-3.4125,24.032001,-29.896002,19.880001,inter_set_rest,6,5.0,36201.0,403431.0,137643.0,8291.0,-143.0
2026-04-09 22:10:04.036419,236339,1534020185,1534021342,-1.020896,0.284992,0.169824,-5.6525,-4.38375,-3.96375,24.032001,-29.896002,19.880001,inter_set_rest,6,5.0,36201.0,403431.0,137643.0,8291.0,-143.0
2026-04-09 22:10:04.036548,236340,1534034707,1534036257,-1.011136,0.300608,0.150304,-9.86125,-3.47375,-3.73625,23.872002,-30.016,20.872002,inter_set_rest,6,5.0,36201.0,403431.0,137643.0,8291.0,-143.0
2026-04-09 22:10:04.037874,236341,1534043839,1534045015,-1.011136,0.300608,0.1464,-14.2975,-2.9575,-3.85,23.872002,-30.016,20.872002,inter_set_rest,6,5.0,36201.0,403431.0,137643.0,8291.0,-143.0
2026-04-09 22:10:04.038217,236342,1534052809,1534053743,-0.991616,0.300608,0.1464,-16.80875,-3.24625,-5.39,24.432001,-30.080002,20.472,inter_set_rest,6,5.0,36201.0,403431.0,137643.0,8291.0,-143.0
2026-04-09 22:10:04.039423,236343,1534061722,1534062481,-0.991616,0.300608,0.1464,-19.67,-2.8875,-6.15125,24.432001,-30.080002,20.472,inter_set_rest,6,5.0,36201.0,403431.0,137643.0,8291.0,-143.0
2026-04-09 22:10:04.070087,236344,1534076647,1534077411,-0.983808,0.306464,0.148352,-21.58625,-3.08,-7.2975,23.776001,-29.728,21.928001,inter_set_rest,6,5.0,36201.0,403431.0,137643.0,8291.0,-143.0
2026-04-09 22:10:04.073505,236345,1534086024,1534088203,-1.018944,0.277184,0.148352,-22.741251,-2.89625,-7.77,24.152,-30.264002,21.648,inter_set_rest,6,5.0,36201.0,403431.0,137643.0,8291.0,-143.0
2026-04-09 22:10:04.104085,236356,1534095134,1534096979,-1.018944,0.277184,0.148352,-20.16,-2.38875,-9.40625,24.152,-30.264002,21.648,inter_set_rest,6,5.0,36012.0,403431.0,134064.0,6576.0,-154.0
2026-04-09 22:10:04.106801,236357,1534104096,1534105708,-1.018944,0.251808,0.134688,-18.19125,-1.715,-9.93125,24.152,-30.264002,23.696001,inter_set_rest,6,5.0,36012.0,403431.0,134064.0,6576.0,-154.0
2026-04-09 22:10:04.109026,236358,1534118605,1534120709,-1.032608,0.251808,0.134688,-18.5675,-0.8575,-9.0125,22.888,-29.944002,23.720001,inter_set_rest,6,5.0,36012.0,403431.0,134064.0,6576.0,-154.0
2026-04-09 22:10:04.111539,236359,1534127532,1534129465,-1.018944,0.247904,0.128832,-15.98625,-0.9625,-9.05625,23.472002,-30.152002,22.84,inter_set_rest,6,5.0,36012.0,403431.0,134064.0,6576.0,-154.0
2026-04-09 22:10:04.114222,236360,1534136456,1534138189,-1.018944,0.247904,0.128832,-9.6425,-0.49875,-9.275,23.472002,-30.152002,22.84,inter_set_rest,6,5.0,36012.0,403431.0,134064.0,6576.0,-154.0
2026-04-09 22:10:04.144300,236361,1534150969,1534153078,-1.03456,0.25376,0.132736,-7.34125,0.06125,-9.905,23.288002,-30.184002,23.208,inter_set_rest,6,5.0,36012.0,403431.0,134064.0,6576.0,-154.0
2026-04-09 22:10:04.147841,236362,1534159904,1534161826,-1.03456,0.25376,0.132736,-7.30625,1.25125,-11.13875,23.288002,-30.184002,23.208,inter_set_rest,6,5.0,36012.0,403431.0,134064.0,6576.0,-154.0
2026-04-09 22:10:04.152754,236363,1534168806,1534170513,-1.042368,0.244,0.132736,-5.67,1.0675,-12.64375,24.176,-30.008001,22.264002,inter_set_rest,6,5.0,36012.0,403431.0,134064.0,6576.0,-154.0
2026-04-09 22:10:04.157734,236364,1534183297,1534185460,-1.042368,0.244,0.132736,-4.33125,2.10875,-12.48625,24.176,-30.008001,22.264002,inter_set_rest,6,5.0,36012.0,403431.0,134064.0,6576.0,-154.0
2026-04-09 22:10:04.242720,236374,1534192345,1534194681,-1.016992,0.212768,0.148352,-0.5775,2.75625,-12.915,24.504002,-29.560001,21.768002,inter_set_rest,6,5.0,35766.0,403431.0,134559.0,6887.0,-128.0
2026-04-09 22:10:04.245246,236375,1534201292,1534203445,-1.016992,0.212768,0.148352,-0.3675,4.2875,-11.17375,24.504002,-29.560001,21.768002,inter_set_rest,6,5.0,35766.0,403431.0,134559.0,6887.0,-128.0
2026-04-09 22:10:04.247802,236376,1534215753,1534216337,-1.00528,0.244,0.121024,3.325,4.76,-10.605001,25.128,-29.424002,22.216002,inter_set_rest,6,5.0,35766.0,403431.0,134559.0,6887.0,-128.0
2026-04-09 22:10:04.250315,236377,1534224936,1534227103,-1.032608,0.257664,0.113216,6.3525,5.46,-9.77375,25.128,-29.664001,23.128,inter_set_rest,6,5.0,35766.0,403431.0,134559.0,6887.0,-128.0
2026-04-09 22:10:04.252754,236378,1534233860,1534235780,-1.032608,0.257664,0.113216,8.155,6.15125,-10.29,25.04,-29.664001,23.128,inter_set_rest,6,5.0,35766.0,403431.0,134559.0,6887.0,-128.0
2026-04-09 22:10:04.255249,236379,1534242795,1534244479,-1.032608,0.257664,0.113216,10.47375,6.3175,-10.2725,25.04,-29.664001,23.128,inter_set_rest,6,5.0,35766.0,403431.0,134559.0,6887.0,-128.0
2026-04-09 22:10:04.257740,236380,1534257306,1534259421,-1.03456,0.26352,0.12688,11.6025,6.95625,-9.03875,24.424002,-29.696001,21.320002,inter_set_rest,6,5.0,35766.0,403431.0,134559.0,6887.0,-128.0
2026-04-09 22:10:04.260265,236381,1534266319,1534268188,-1.022848,0.244,0.148352,10.92875,7.6825,-7.77,24.432001,-29.640001,22.160002,inter_set_rest,6,5.0,35766.0,403431.0,134559.0,6887.0,-128.0
2026-04-09 22:10:04.262988,236382,1534275256,1534276895,-1.022848,0.244,0.148352,9.56375,8.37375,-7.6825,24.432001,-29.640001,22.160002,inter_set_rest,6,5.0,35766.0,403431.0,134559.0,6887.0,-128.0
2026-04-09 22:10:04.265242,236383,1534289771,1534291814,-1.01504,0.251808,0.167872,10.5875,8.82,-7.56875,24.480001,-29.408,21.528002,inter_set_rest,6,5.0,35766.0,403431.0,134559.0,6887.0,-128.0
2026-04-09 22:10:04.290278,236393,1534298849,1534300631,-1.01504,0.251808,0.167872,12.74875,9.40625,-7.28,24.480001,-29.408,21.528002,inter_set_rest,6,5.0,35149.0,403431.0,135711.0,7658.0,-140.0
2026-04-09 22:10:04.292743,236394,1534307843,1534309446,-1.020896,0.261568,0.152256,13.93875,10.29,-7.95375,24.920002,-29.184002,20.896002,inter_set_rest,6,5.0,35149.0,403431.0,135711.0,7658.0,-140.0
2026-04-09 22:10:04.296466,236395,1534322338,1534324382,-1.020896,0.261568,0.152256,15.35625,11.13875,-8.68875,24.920002,-29.184002,20.896002,inter_set_rest,6,5.0,35149.0,403431.0,135711.0,7658.0,-140.0
2026-04-09 22:10:04.326737,236396,1534331213,1534333075,-1.0248,0.275232,0.148352,16.96625,11.4975,-9.00375,24.576,-28.848001,21.192001,inter_set_rest,6,5.0,35149.0,403431.0,135711.0,7658.0,-140.0
2026-04-09 22:10:04.330333,236397,1534340200,1534341762,-1.0248,0.275232,0.148352,16.7825,11.6725,-8.46125,24.576,-28.848001,21.192001,inter_set_rest,6,5.0,35149.0,403431.0,135711.0,7658.0,-140.0
2026-04-09 22:10:04.332838,236398,1534349129,1534350471,-1.028704,0.251808,0.15616,13.20375,11.8475,-8.61,24.344002,-29.640001,20.904001,inter_set_rest,6,5.0,35149.0,403431.0,135711.0,7658.0,-140.0
2026-04-09 22:10:04.339098,236399,1534363644,1534365410,-1.028704,0.251808,0.15616,10.52625,11.38375,-9.0125,24.344002,-29.640001,20.904001,inter_set_rest,6,5.0,35149.0,403431.0,135711.0,7658.0,-140.0
2026-04-09 22:10:04.369171,236400,1534372562,1534374149,-1.018944,0.230336,0.160064,8.49625,11.3575,-9.24875,24.912,-29.52,21.016,inter_set_rest,6,5.0,35149.0,403431.0,135711.0,7658.0,-140.0
2026-04-09 22:10:04.372778,236401,1534381489,1534382833,-1.018944,0.230336,0.160064,6.09,11.6375,-9.065,24.912,-29.52,21.016,inter_set_rest,6,5.0,35149.0,403431.0,135711.0,7658.0,-140.0
2026-04-09 22:10:04.400391,236412,1534396616,1534397796,-1.026752,0.226432,0.169824,4.96125,11.935,-7.665,24.696001,-29.536001,20.968,inter_set_rest,6,5.0,34495.0,403431.0,136181.0,8040.0,-139.0
2026-04-09 22:10:04.402821,236413,1534405645,1534406515,-1.032608,0.208864,0.152256,3.52625,12.29375,-7.28,24.696001,-29.544,21.872002,inter_set_rest,6,5.0,34495.0,403431.0,136181.0,8040.0,-139.0
2026-04-09 22:10:04.405309,236414,1534414605,1534415265,-1.032608,0.208864,0.152256,3.21125,12.88,-7.1575,25.184002,-29.544,21.872002,inter_set_rest,6,5.0,34495.0,403431.0,136181.0,8040.0,-139.0
2026-04-09 22:10:04.407816,236415,1534423933,1534426046,-1.032608,0.208864,0.152256,3.10625,12.95875,-7.83125,25.184002,-29.544,21.872002,inter_set_rest,6,5.0,34495.0,403431.0,136181.0,8040.0,-139.0
2026-04-09 22:10:04.411562,236416,1534438471,1534438911,-1.028704,0.222528,0.130784,3.15,12.8275,-6.86875,24.576,-29.496002,22.288,inter_set_rest,6,5.0,34495.0,403431.0,136181.0,8040.0,-139.0
2026-04-09 22:10:04.441729,236417,1534447781,1534449715,-1.032608,0.212768,0.128832,2.03,13.125,-6.3175,23.648,-29.416002,20.416,inter_set_rest,6,5.0,34495.0,403431.0,136181.0,8040.0,-139.0
2026-04-09 22:10:04.445292,236418,1534456689,1534458499,-1.032608,0.212768,0.128832,2.10875,12.20625,-6.6325,23.648,-29.416002,20.416,inter_set_rest,6,5.0,34495.0,403431.0,136181.0,8040.0,-139.0
2026-04-09 22:10:04.447772,236419,1534471190,1534473419,-1.03456,0.247904,0.128832,3.64,12.45125,-5.99375,24.608002,-29.624,20.36,inter_set_rest,6,5.0,34495.0,403431.0,136181.0,8040.0,-139.0
2026-04-09 22:10:04.508000,236420,1534480142,1534482206,-1.03456,0.247904,0.128832,2.24875,13.825,-5.60875,24.608002,-29.624,20.36,inter_set_rest,6,5.0,34495.0,403431.0,136181.0,8040.0,-139.0
2026-04-09 22:10:04.511539,236421,1534489049,1534490901,-1.040416,0.222528,0.111264,-0.11375,14.5775,-5.3725,24.208002,-29.304,20.152,inter_set_rest,6,5.0,34495.0,403431.0,136181.0,8040.0,-139.0
2026-04-09 22:10:04.539006,236431,1534498104,1534499689,-1.040416,0.222528,0.111264,0.83125,14.2975,-5.06625,24.208002,-29.304,20.152,inter_set_rest,6,5.0,33802.0,403431.0,136026.0,8123.0,-151.0
2026-04-09 22:10:04.541515,236432,1534512593,1534514583,-1.036512,0.267424,0.074176,2.695,13.79,-4.92625,24.736002,-29.392002,20.568,inter_set_rest,6,5.0,33802.0,403431.0,136026.0,8123.0,-151.0
2026-04-09 22:10:04.544018,236433,1534521514,1534523287,-1.036512,0.267424,0.074176,3.99,12.573751,-6.0025,24.736002,-29.392002,20.568,inter_set_rest,6,5.0,33802.0,403431.0,136026.0,8123.0,-151.0
2026-04-09 22:10:04.546510,236434,1534530477,1534532000,-1.03456,0.27328,0.070272,4.655,11.27,-6.02875,24.928001,-28.992,20.024,inter_set_rest,6,5.0,33802.0,403431.0,136026.0,8123.0,-151.0
2026-04-09 22:10:04.549025,236435,1534545092,1534546976,-1.03456,0.27328,0.070272,4.34,10.56125,-5.81875,24.928001,-28.992,20.024,inter_set_rest,6,5.0,33802.0,403431.0,136026.0,8123.0,-151.0
2026-04-09 22:10:04.551535,236436,1534554032,1534555700,-1.04432,0.271328,0.07808,4.15625,10.68375,-6.195,24.664001,-29.248001,19.240002,inter_set_rest,6,5.0,33802.0,403431.0,136026.0,8123.0,-151.0
2026-04-09 22:10:04.554081,236437,1534563091,1534564473,-1.04432,0.271328,0.07808,2.94,10.815,-7.41125,24.664001,-29.248001,19.240002,inter_set_rest,6,5.0,33802.0,403431.0,136026.0,8123.0,-151.0
2026-04-09 22:10:04.556479,236438,1534577674,1534579408,-1.04432,0.28304,0.060512,2.56375,10.8675,-8.575,24.688002,-29.528002,20.168001,inter_set_rest,6,5.0,33802.0,403431.0,136026.0,8123.0,-151.0
2026-04-09 22:10:04.560317,236439,1534586637,1534588162,-1.04432,0.249856,0.050752,2.42375,11.05125,-9.00375,24.976002,-29.216002,19.096,inter_set_rest,6,5.0,33802.0,403431.0,136026.0,8123.0,-151.0
2026-04-09 22:10:04.590826,236449,1534596218,1534596964,-1.04432,0.249856,0.050752,1.70625,10.6225,-9.3275,24.976002,-29.216002,19.096,inter_set_rest,6,5.0,33590.0,403431.0,136442.0,8410.0,-140.0
2026-04-09 22:10:04.592591,236450,1534605698,1534607768,-1.04432,0.249856,0.050752,2.59875,10.07125,-9.38875,24.976002,-29.216002,19.096,inter_set_rest,6,5.0,33590.0,403431.0,136442.0,8410.0,-140.0
2026-04-09 22:10:04.594078,236451,1534620270,1534620692,-1.040416,0.238144,0.060512,4.50625,9.40625,-9.38,24.864,-29.304,20.872002,inter_set_rest,6,5.0,33590.0,403431.0,136442.0,8410.0,-140.0
2026-04-09 22:10:04.624254,236452,1534629629,1534631483,-1.038464,0.201056,0.062464,4.57625,9.31,-9.2575,24.784,-29.368002,19.736,inter_set_rest,6,5.0,33590.0,403431.0,136442.0,8410.0,-140.0
2026-04-09 22:10:04.629640,236453,1534638574,1534640209,-1.038464,0.201056,0.062464,3.75375,8.96875,-8.98625,24.784,-29.368002,19.736,inter_set_rest,6,5.0,33590.0,403431.0,136442.0,8410.0,-140.0
2026-04-09 22:10:04.632131,236454,1534647459,1534648894,-1.040416,0.208864,0.060512,3.465,8.75,-8.35625,25.272001,-29.744001,19.816002,inter_set_rest,6,5.0,33590.0,403431.0,136442.0,8410.0,-140.0
2026-04-09 22:10:04.638229,236455,1534662073,1534663821,-1.040416,0.208864,0.060512,5.145,7.9625,-7.5075,25.272001,-29.744001,19.816002,inter_set_rest,6,5.0,33590.0,403431.0,136442.0,8410.0,-140.0
2026-04-09 22:10:04.666744,236456,1534671101,1534672530,-1.04432,0.22448,0.064416,6.60625,8.16375,-6.06375,25.224,-29.144001,19.480001,inter_set_rest,6,5.0,33590.0,403431.0,136442.0,8410.0,-140.0
2026-04-09 22:10:04.671320,236457,1534680053,1534681226,-1.04432,0.22448,0.064416,6.08125,7.77875,-5.57375,25.224,-29.144001,19.480001,inter_set_rest,6,5.0,33590.0,403431.0,136442.0,8410.0,-140.0
2026-04-09 22:10:04.699613,236468,1534695042,1534696074,-1.040416,0.23424,0.081984,6.08125,7.315,-4.97875,24.936,-29.728,19.76,inter_set_rest,6,5.0,33230.0,403431.0,137731.0,9269.0,-142.0
2026-04-09 22:10:04.701319,236469,1534704047,1534704852,-1.040416,0.23424,0.081984,5.69625,7.27125,-4.585,24.936,-29.728,19.76,inter_set_rest,6,5.0,33230.0,403431.0,137731.0,9269.0,-142.0
2026-04-09 22:10:04.702878,236470,1534713540,1534715712,-1.030656,0.208864,0.101504,5.13625,6.755,-4.1825,23.568,-29.344002,21.056002,inter_set_rest,6,5.0,33230.0,403431.0,137731.0,9269.0,-142.0
2026-04-09 22:10:04.707006,236471,1534722484,1534724446,-1.030656,0.208864,0.101504,4.8825,6.16875,-4.13875,23.568,-29.344002,21.056002,inter_set_rest,6,5.0,33230.0,403431.0,137731.0,9269.0,-142.0
2026-04-09 22:10:04.735529,236472,1534737079,1534739330,-1.03456,0.261568,0.113216,7.41125,5.52125,-3.47375,23.920002,-29.600002,20.592001,inter_set_rest,6,5.0,33230.0,403431.0,137731.0,9269.0,-142.0
2026-04-09 22:10:04.744643,236473,1534746025,1534748092,-1.03456,0.261568,0.113216,9.09125,5.25,-2.51125,23.920002,-29.600002,20.592001,inter_set_rest,6,5.0,33230.0,403431.0,137731.0,9269.0,-142.0
2026-04-09 22:10:04.746267,236474,1534754930,1534756789,-1.03456,0.261568,0.111264,6.09875,5.88875,-2.75625,25.104002,-29.44,20.128,inter_set_rest,6,5.0,33230.0,403431.0,137731.0,9269.0,-142.0
2026-04-09 22:10:04.747827,236475,1534769421,1534771671,-1.030656,0.249856,0.10736,4.19125,5.74875,-3.89375,24.528002,-29.496002,19.344002,inter_set_rest,6,5.0,33230.0,403431.0,137731.0,9269.0,-142.0
2026-04-09 22:10:04.755709,236476,1534778363,1534780426,-1.030656,0.249856,0.10736,3.22,6.335,-4.54125,24.528002,-29.496002,19.344002,inter_set_rest,6,5.0,33230.0,403431.0,137731.0,9269.0,-142.0
2026-04-09 22:10:04.807777,236477,1534787285,1534789178,-1.038464,0.236192,0.091744,2.9575,6.41375,-4.725,23.688002,-28.736002,21.344002,inter_set_rest,6,5.0,33230.0,403431.0,137731.0,9269.0,-142.0
2026-04-09 22:10:04.834615,236487,1534796569,1534798001,-1.038464,0.236192,0.091744,1.5225,5.915,-5.64375,23.688002,-28.736002,21.344002,inter_set_rest,6,5.0,33114.0,403431.0,137944.0,9397.0,-143.0
2026-04-09 22:10:04.836312,236488,1534811098,1534812963,-1.04432,0.228384,0.074176,1.2775,4.7775,-5.74,24.656002,-29.312002,19.704,inter_set_rest,6,5.0,33114.0,403431.0,137944.0,9397.0,-143.0
2026-04-09 22:10:04.837855,236489,1534820077,1534821648,-1.04432,0.228384,0.074176,1.56625,3.9375,-5.74875,24.656002,-29.312002,19.704,inter_set_rest,6,5.0,33114.0,403431.0,137944.0,9397.0,-143.0
2026-04-09 22:10:04.842087,236490,1534828999,1534830353,-1.046272,0.21472,0.076128,2.47625,3.14125,-5.355,24.944,-29.544,19.480001,inter_set_rest,6,5.0,33114.0,403431.0,137944.0,9397.0,-143.0
2026-04-09 22:10:04.843808,236491,1534843484,1534845277,-1.046272,0.21472,0.076128,3.08,2.625,-4.655,24.944,-29.544,19.480001,inter_set_rest,6,5.0,33114.0,403431.0,137944.0,9397.0,-143.0
2026-04-09 22:10:04.846249,236492,1534852570,1534853978,-1.032608,0.242048,0.083936,3.49125,1.74125,-4.235,24.624,-29.808,19.184,inter_set_rest,6,5.0,33114.0,403431.0,137944.0,9397.0,-143.0
2026-04-09 22:10:04.847837,236493,1534861533,1534862735,-1.032608,0.242048,0.083936,3.4475,1.5225,-4.1125,24.624,-29.808,19.184,inter_set_rest,6,5.0,33114.0,403431.0,137944.0,9397.0,-143.0
2026-04-09 22:10:04.851906,236494,1534876010,1534877687,-1.046272,0.251808,0.06832,2.63375,1.2425,-4.48875,24.648,-29.144001,19.160002,inter_set_rest,6,5.0,33114.0,403431.0,137944.0,9397.0,-143.0
2026-04-09 22:10:04.880519,236495,1534884957,1534886388,-1.046272,0.251808,0.06832,0.4725,2.0125,-5.0575,24.648,-29.144001,19.160002,inter_set_rest,6,5.0,33114.0,403431.0,137944.0,9397.0,-143.0
2026-04-09 22:10:04.885068,236496,1534893868,1534895097,-1.04432,0.247904,0.0488,-0.35875,2.0475,-5.88,24.704,-29.192001,18.344002,inter_set_rest,6,5.0,33114.0,403431.0,137944.0,9397.0,-143.0
2026-04-09 22:10:04.909151,236506,1534902851,1534903821,-1.04432,0.247904,0.0488,0.735,2.56375,-5.55625,24.704,-29.192001,18.344002,inter_set_rest,6,5.0,33050.0,403431.0,138273.0,9592.0,-137.0
2026-04-09 22:10:04.918447,236507,1534917319,1534918770,-1.04432,0.242048,0.037088,0.945,3.05375,-4.87375,25.256,-29.424002,18.968,inter_set_rest,6,5.0,33050.0,403431.0,138273.0,9592.0,-137.0
2026-04-09 22:10:04.920063,236508,1534926258,1534927483,-1.04432,0.242048,0.037088,-1.56625,2.70375,-4.90875,25.256,-29.424002,18.968,inter_set_rest,6,5.0,33050.0,403431.0,138273.0,9592.0,-137.0
2026-04-09 22:10:04.921715,236509,1534935185,1534936236,-1.050176,0.21472,0.054656,-0.9625,1.39125,-4.01625,23.272001,-29.232002,18.728,inter_set_rest,6,5.0,33050.0,403431.0,138273.0,9592.0,-137.0
2026-04-09 22:10:04.925775,236510,1534949667,1534951160,-1.038464,0.25376,0.064416,1.9425,0.53375,-2.19625,24.888,-29.552002,19.304,inter_set_rest,6,5.0,33050.0,403431.0,138273.0,9592.0,-137.0
2026-04-09 22:10:04.954413,236511,1534958612,1534959873,-1.038464,0.25376,0.064416,3.29,0.28875,-2.345,24.888,-29.552002,19.304,inter_set_rest,6,5.0,33050.0,403431.0,138273.0,9592.0,-137.0
2026-04-09 22:10:04.958878,236512,1534967511,1534968599,-1.038464,0.257664,0.064416,3.57,0.42875,-2.86125,24.888,-29.552002,19.304,inter_set_rest,6,5.0,33050.0,403431.0,138273.0,9592.0,-137.0
2026-04-09 22:10:04.960314,236513,1534982006,1534983513,-1.04432,0.257664,0.064416,3.3775,1.42625,-3.15875,24.728,-29.456001,19.424002,inter_set_rest,6,5.0,33050.0,403431.0,138273.0,9592.0,-137.0
2026-04-09 22:10:04.967058,236514,1534990922,1534992220,-1.040416,0.232288,0.062464,3.605,2.12625,-3.94625,25.064001,-29.384,19.208,inter_set_rest,6,5.0,33050.0,403431.0,138273.0,9592.0,-137.0
2026-04-09 22:10:04.996350,236525,1535000209,1535001142,-1.040416,0.232288,0.062464,4.85625,2.58125,-3.8325,25.064001,-29.384,19.208,inter_set_rest,6,5.0,33182.0,403431.0,138760.0,9823.0,-138.0
2026-04-09 22:10:04.997988,236526,1535014864,1535016261,-1.026752,0.247904,0.080032,6.22125,2.51125,-3.4825,25.304,-29.52,20.232,inter_set_rest,6,5.0,33182.0,403431.0,138760.0,9823.0,-138.0
2026-04-09 22:10:05.001923,236527,1535023781,1535025007,-1.026752,0.247904,0.080032,5.71375,2.03875,-2.6075,25.304,-29.52,20.232,inter_set_rest,6,5.0,33182.0,403431.0,138760.0,9823.0,-138.0
2026-04-09 22:10:05.008231,236528,1535032667,1535033707,-1.032608,0.257664,0.099552,5.01375,1.86375,-1.68,24.368002,-29.656002,21.008001,inter_set_rest,6,5.0,33182.0,403431.0,138760.0,9823.0,-138.0
2026-04-09 22:10:05.037765,236529,1535041651,1535042406,-1.032608,0.257664,0.099552,6.0375,2.89625,-1.79375,24.368002,-29.656002,21.008001,inter_set_rest,6,5.0,33182.0,403431.0,138760.0,9823.0,-138.0
2026-04-09 22:10:05.042155,236530,1535056536,1535057357,-1.03456,0.257664,0.091744,7.0875,3.17625,-1.75,24.232,-29.656002,19.6,inter_set_rest,6,5.0,33182.0,403431.0,138760.0,9823.0,-138.0
2026-04-09 22:10:05.043773,236531,1535065441,1535066051,-1.03456,0.257664,0.091744,7.48125,3.61375,-1.7325,24.232,-29.656002,19.6,inter_set_rest,6,5.0,33182.0,403431.0,138760.0,9823.0,-138.0
2026-04-09 22:10:05.050713,236532,1535074712,1535076817,-1.03456,0.26352,0.081984,6.44,4.0075,-1.47875,24.36,-29.064001,19.072,inter_set_rest,6,5.0,33182.0,403431.0,138760.0,9823.0,-138.0
2026-04-09 22:10:05.110301,236533,1535089182,1535089759,-1.028704,0.257664,0.091744,4.4975,3.0275,-2.1875,23.68,-29.384,17.224,inter_set_rest,6,5.0,33182.0,403431.0,138760.0,9823.0,-138.0
2026-04-09 22:10:05.135402,236543,1535098974,1535100625,-1.028704,0.257664,0.091744,4.1475,2.75625,-3.0625,23.68,-29.384,17.224,inter_set_rest,6,5.0,33235.0,403431.0,140162.0,10673.0,-142.0
2026-04-09 22:10:05.139133,236544,1535107959,1535109376,-1.028704,0.245952,0.0976,3.38625,2.80875,-3.3075,23.68,-29.384,17.224,inter_set_rest,6,5.0,33235.0,403431.0,140162.0,10673.0,-142.0
2026-04-09 22:10:05.140412,236545,1535116874,1535118048,-1.032608,0.245952,0.0976,2.56375,3.43,-3.185,24.408,-29.848001,16.552,inter_set_rest,6,5.0,33235.0,403431.0,140162.0,10673.0,-142.0
2026-04-09 22:10:05.144659,236546,1535131332,1535132957,-1.03456,0.245952,0.089792,2.695,3.98125,-3.64,24.304,-29.576002,19.528002,inter_set_rest,6,5.0,33235.0,403431.0,140162.0,10673.0,-142.0
2026-04-09 22:10:05.146361,236547,1535140250,1535141650,-1.03456,0.245952,0.089792,4.10375,4.10375,-4.3575,24.304,-29.576002,19.528002,inter_set_rest,6,5.0,33235.0,403431.0,140162.0,10673.0,-142.0
2026-04-09 22:10:05.148062,236548,1535149215,1535150396,-1.030656,0.245952,0.091744,4.05125,3.8325,-4.61125,23.464,-29.336,17.424002,inter_set_rest,6,5.0,33235.0,403431.0,140162.0,10673.0,-142.0
2026-04-09 22:10:05.152145,236549,1535163642,1535165408,-1.030656,0.245952,0.091744,2.87875,3.89375,-4.29625,23.464,-29.336,17.424002,inter_set_rest,6,5.0,33235.0,403431.0,140162.0,10673.0,-142.0
2026-04-09 22:10:05.153895,236550,1535172558,1535174166,-1.030656,0.247904,0.0976,2.3275,3.71,-4.85625,23.672,-29.576002,20.560001,inter_set_rest,6,5.0,33235.0,403431.0,140162.0,10673.0,-142.0
2026-04-09 22:10:05.155759,236551,1535181583,1535182879,-1.030656,0.247904,0.0976,2.59,3.4125,-4.73375,23.672,-29.576002,20.560001,inter_set_rest,6,5.0,33235.0,403431.0,140162.0,10673.0,-142.0
2026-04-09 22:10:05.186991,236552,1535190549,1535191646,-1.040416,0.240096,0.091744,2.9575,3.64,-4.235,23.264002,-29.680002,22.048,inter_set_rest,6,5.0,33235.0,403431.0,140162.0,10673.0,-142.0
2026-04-09 22:10:05.215397,236562,1535205128,1535206612,-1.040416,0.240096,0.091744,1.75,4.41875,-4.10375,23.264002,-29.680002,22.048,inter_set_rest,6,5.0,33318.0,403431.0,141218.0,11338.0,-128.0
