pc_time,serial_num,sensor_ts,host_ts,ax,ay,az,gx,gy,gz,mx,my,mz,phase,rpe,weight_kg,ppg_a,ppg_b,ppg_c,ppg_d,ppg_e
2026-04-08 21:42:19.264385,156568,1609503711490994,1311457936,0.56608,0.511424,-0.201056,3.35125,8.00625,13.85125,-8.176001,-11.304001,-21.056002,eccentric,4,3.0,17782.0,135963.0,222790.0,274808.0,259293.0
2026-04-08 21:42:19.268812,156569,1609503711499973,1311466627,0.447008,0.601216,-0.275232,7.8225,10.94625,14.84875,-8.56,-11.128,-20.856,eccentric,4,3.0,17782.0,135963.0,222790.0,274808.0,259293.0
2026-04-08 21:42:19.270365,156570,1609503711508890,1311475307,0.447008,0.601216,-0.275232,10.15875,14.1925,19.83625,-8.56,-11.128,-20.856,eccentric,4,3.0,17782.0,135963.0,222790.0,274808.0,259293.0
2026-04-08 21:42:19.300598,156571,1609503711523423,1311490234,0.491904,0.573888,0.089792,2.31875,13.08125,25.795,-8.6,-11.040001,-21.152,eccentric,4,3.0,17782.0,135963.0,222790.0,274808.0,259293.0
2026-04-08 21:42:19.331714,156583,1609503711532446,1311499042,0.491904,0.573888,0.089792,-7.735,10.22875,25.1825,-8.6,-11.040001,-21.152,eccentric,4,3.0,17579.0,135700.0,222929.0,275258.0,259829.0
2026-04-08 21:42:19.333294,156584,1609503711547002,1311513916,0.577792,0.41968,-0.007808,-8.4,9.61625,21.9625,-8.744,-11.392,-21.064001,eccentric,4,3.0,17579.0,135700.0,222929.0,275258.0,259829.0
2026-04-08 21:42:19.337600,156585,1609503711555920,1311522600,0.59536,0.472384,-0.06832,-0.51625,11.7425,20.755,-9.192,-11.176001,-17.704,eccentric,4,3.0,17579.0,135700.0,222929.0,275258.0,259829.0
2026-04-08 21:42:19.340432,156586,1609503711570407,1311537474,0.59536,0.472384,-0.06832,8.75875,11.20875,25.06,-9.192,-11.176001,-17.704,eccentric,4,3.0,17579.0,135700.0,222929.0,275258.0,259829.0
2026-04-08 21:42:19.346272,156587,1609503711579417,1311546191,0.562176,0.540704,-0.124928,16.38,10.57875,29.61,-9.384001,-10.952001,-19.856,eccentric,4,3.0,17579.0,135700.0,222929.0,275258.0,259829.0
2026-04-08 21:42:19.348731,156588,1609503711588368,1311554919,0.562176,0.540704,-0.124928,21.14875,10.92875,31.5875,-9.384001,-10.952001,-19.856,eccentric,4,3.0,17579.0,135700.0,222929.0,275258.0,259829.0
2026-04-08 21:42:19.380056,156589,1609503711602846,1311569841,0.657824,0.486048,-0.130784,19.06625,11.90875,34.11625,-9.68,-10.632001,-18.6,eccentric,4,3.0,17579.0,135700.0,222929.0,275258.0,259829.0
2026-04-08 21:42:19.381695,156590,1609503711611761,1311578498,0.657824,0.486048,-0.130784,11.2875,14.23625,35.21875,-9.68,-10.632001,-18.6,eccentric,4,3.0,17579.0,135700.0,222929.0,275258.0,259829.0
2026-04-08 21:42:19.383264,156591,1609503711626234,1311593369,0.648064,0.480192,-0.187392,9.56375,18.27,35.95375,-9.52,-10.664001,-21.04,eccentric,4,3.0,17579.0,135700.0,222929.0,275258.0,259829.0
2026-04-08 21:42:19.411700,156602,1609503711635445,1311602122,0.648064,0.480192,-0.187392,3.66625,18.34,39.4625,-9.52,-10.664001,-21.04,eccentric,4,3.0,17703.0,136227.0,223683.0,275848.0,260181.0
2026-04-08 21:42:19.413341,156603,1609503711644439,1311610834,0.757376,0.501664,-0.060512,0.8575,19.7225,42.34125,-10.448001,-10.320001,-20.160002,eccentric,4,3.0,17703.0,136227.0,223683.0,275848.0,260181.0
2026-04-08 21:42:19.417365,156604,1609503711658928,1311625749,0.735904,0.47824,-0.011712,5.95875,23.42375,45.5,-11.144,-10.112,-19.296001,eccentric,4,3.0,17703.0,136227.0,223683.0,275848.0,260181.0
2026-04-08 21:42:19.423655,156605,1609503711667896,1311634501,0.735904,0.47824,-0.011712,6.0725,25.83875,51.6425,-11.144,-10.112,-19.296001,eccentric,4,3.0,17703.0,136227.0,223683.0,275848.0,260181.0
2026-04-08 21:42:19.455622,156606,1609503711682398,1311649409,0.65392,0.486048,-0.1952,2.79125,28.2625,55.107502,-11.016001,-10.072001,-20.104,eccentric,4,3.0,17703.0,136227.0,223683.0,275848.0,260181.0
2026-04-08 21:42:19.457848,156607,1609503711691316,1311658079,0.65392,0.486048,-0.1952,2.05625,30.345,56.93625,-11.016001,-10.072001,-20.104,eccentric,4,3.0,17703.0,136227.0,223683.0,275848.0,260181.0
2026-04-08 21:42:19.462463,156608,1609503711705809,1311672950,0.831552,0.44896,-0.277184,-3.3775,30.1875,57.8725,-11.696,-9.952001,-20.032001,eccentric,4,3.0,17703.0,136227.0,223683.0,275848.0,260181.0
2026-04-08 21:42:19.490842,156609,1609503711714730,1311681626,0.831552,0.44896,-0.277184,-7.735,31.54375,59.395,-11.696,-9.952001,-20.032001,eccentric,4,3.0,17703.0,136227.0,223683.0,275848.0,260181.0
2026-04-08 21:42:19.495475,156610,1609503711723708,1311690303,0.833504,0.441152,-0.111264,-0.74375,34.55375,61.15375,-12.240001,-9.592,-19.184,eccentric,4,3.0,17703.0,136227.0,223683.0,275848.0,260181.0
2026-04-08 21:42:19.525724,156621,1609503711738213,1311705206,0.681248,0.402112,-0.251808,7.35875,36.67125,65.14375,-12.448001,-9.712001,-19.928001,eccentric,4,3.0,17634.0,136017.0,223469.0,275634.0,260047.0
2026-04-08 21:42:19.529954,156622,1609503711747122,1311713933,0.681248,0.402112,-0.251808,10.00125,37.135,70.49,-12.448001,-9.712001,-19.928001,eccentric,4,3.0,17634.0,136017.0,223469.0,275634.0,260047.0
2026-04-08 21:42:19.531720,156623,1609503711761638,1311726801,0.804224,0.392352,-0.325984,4.99625,36.72375,72.7125,-13.656001,-9.232,-19.6,eccentric,4,3.0,17634.0,136017.0,223469.0,275634.0,260047.0
2026-04-08 21:42:19.533227,156624,1609503711770832,1311737580,0.804224,0.392352,-0.325984,-7.00875,36.2775,70.0525,-13.656001,-9.232,-19.6,eccentric,4,3.0,17634.0,136017.0,223469.0,275634.0,260047.0
2026-04-08 21:42:19.539815,156625,1609503711785343,1311752490,0.825696,0.417728,-0.259616,-13.055,37.49375,66.92,-13.976001,-9.376,-19.096,eccentric,4,3.0,17634.0,136017.0,223469.0,275634.0,260047.0
2026-04-08 21:42:19.570645,156626,1609503711794277,1311761196,0.825696,0.417728,-0.259616,-9.0125,41.20375,66.6225,-13.976001,-9.376,-19.096,eccentric,4,3.0,17634.0,136017.0,223469.0,275634.0,260047.0
2026-04-08 21:42:19.572878,156627,1609503711803185,1311769842,0.786656,0.35136,-0.103456,-0.56875,42.2975,69.7725,-14.688001,-9.128,-17.880001,eccentric,4,3.0,17634.0,136017.0,223469.0,275634.0,260047.0
2026-04-08 21:42:19.577460,156628,1609503711817677,1311784687,0.7808,0.33184,0.1952,3.10625,36.44375,75.48625,-14.960001,-8.448,-15.936001,eccentric,4,3.0,17634.0,136017.0,223469.0,275634.0,260047.0
2026-04-08 21:42:19.579144,156629,1609503711826620,1311793427,0.7808,0.33184,0.1952,1.70625,28.72625,74.585,-14.960001,-8.448,-15.936001,eccentric,4,3.0,17634.0,136017.0,223469.0,275634.0,260047.0
2026-04-08 21:42:19.609180,156640,1609503711841586,1311808609,0.827648,0.304512,-0.232288,10.08,27.4225,68.88875,-15.352001,-8.704,-18.216002,eccentric,4,3.0,17647.0,136004.0,223443.0,275575.0,259929.0
2026-04-08 21:42:19.610772,156641,1609503711850597,1311817324,0.827648,0.304512,-0.232288,16.52,29.8375,66.15875,-15.352001,-8.704,-18.216002,eccentric,4,3.0,17647.0,136004.0,223443.0,275575.0,259929.0
2026-04-08 21:42:19.619825,156642,1609503711859563,1311826020,0.876448,0.339648,-0.284992,18.57625,33.8625,66.5,-16.096,-8.056001,-18.264,eccentric,4,3.0,17647.0,136004.0,223443.0,275575.0,259929.0
2026-04-08 21:42:19.648465,156643,1609503711874148,1311840869,0.876448,0.339648,-0.284992,17.6925,36.54875,67.6025,-16.096,-8.056001,-18.264,eccentric,4,3.0,17647.0,136004.0,223443.0,275575.0,259929.0
2026-04-08 21:42:19.652961,156644,1609503711883062,1311849571,0.825696,0.339648,-0.005856,6.81625,34.825,69.93,-16.432001,-7.816001,-17.544,eccentric,4,3.0,17647.0,136004.0,223443.0,275575.0,259929.0
2026-04-08 21:42:19.654410,156645,1609503711897527,1311864405,0.825696,0.17568,0.074176,-2.7125,29.82,72.8,-16.432001,-7.816001,-19.592001,eccentric,4,3.0,17647.0,136004.0,223443.0,275575.0,259929.0
2026-04-08 21:42:19.661069,156646,1609503711906525,1311873059,0.886208,0.17568,0.074176,1.30375,26.32875,74.01625,-17.056002,-7.432,-18.528002,eccentric,4,3.0,17647.0,136004.0,223443.0,275575.0,259929.0
2026-04-08 21:42:19.689692,156647,1609503711920994,1311887918,0.931104,0.140544,-0.275232,8.5575,26.285,73.08875,-17.552,-6.960001,-17.608002,eccentric,4,3.0,17647.0,136004.0,223443.0,275575.0,259929.0
2026-04-08 21:42:19.694223,156648,1609503711929933,1311896575,0.931104,0.140544,-0.275232,10.167501,28.06125,70.13125,-17.552,-6.960001,-17.608002,eccentric,4,3.0,17647.0,136004.0,223443.0,275575.0,259929.0
2026-04-08 21:42:19.725462,156659,1609503711938888,1311905267,0.919392,0.281088,-0.230336,6.79,31.75375,67.8475,-17.752,-6.736001,-15.416,eccentric,4,3.0,17793.0,136397.0,223825.0,275739.0,259919.0
2026-04-08 21:42:19.727007,156660,1609503711953395,1311920263,0.919392,0.281088,-0.230336,-1.72375,32.64625,68.1975,-17.752,-6.736001,-15.416,eccentric,4,3.0,17793.0,136397.0,223825.0,275739.0,259919.0
2026-04-08 21:42:19.731303,156661,1609503711962357,1311928994,0.892064,0.20496,0.062464,-8.0325,31.84125,70.23625,-18.424002,-6.352,-16.464,eccentric,4,3.0,17793.0,136397.0,223825.0,275739.0,259919.0
2026-04-08 21:42:19.733718,156662,1609503711976869,1311943914,0.892064,0.20496,0.062464,-0.67375,30.397501,73.15875,-18.424002,-6.352,-16.464,eccentric,4,3.0,17793.0,136397.0,223825.0,275739.0,259919.0
2026-04-08 21:42:19.762167,156663,1609503711985799,1311952573,0.895968,0.095648,0.033184,4.3225,28.411251,77.16625,-18.808,-5.952,-16.192001,eccentric,4,3.0,17793.0,136397.0,223825.0,275739.0,259919.0
2026-04-08 21:42:19.766688,156664,1609503712000284,1311965420,1.08336,0.081984,-0.210816,6.50125,28.23625,75.11875,-19.072,-5.792,-16.304,eccentric,4,3.0,17793.0,136397.0,223825.0,275739.0,259919.0
2026-04-08 21:42:19.768232,156665,1609503712009402,1311976184,1.08336,0.081984,-0.210816,8.925,30.598751,71.75,-19.072,-5.792,-16.304,eccentric,4,3.0,17793.0,136397.0,223825.0,275739.0,259919.0
2026-04-08 21:42:19.772340,156666,1609503712018309,1311984844,1.08336,0.17568,-0.093696,6.265,32.94375,71.82,-19.072,-5.792,-16.304,eccentric,4,3.0,17793.0,136397.0,223825.0,275739.0,259919.0
2026-04-08 21:42:19.832981,156677,1609503712032827,1311999762,0.89792,0.17568,-0.093696,4.3225,32.92625,73.7975,-20.088001,-5.144,-15.472001,eccentric,4,3.0,17428.0,135281.0,222766.0,275133.0,259725.0
2026-04-08 21:42:19.834656,156678,1609503712041761,1312008489,0.942816,0.033184,0.085888,2.21375,31.4825,77.55125,-20.256,-4.816001,-15.432001,eccentric,4,3.0,17428.0,135281.0,222766.0,275133.0,259725.0
2026-04-08 21:42:19.837956,156679,1609503712056263,1312023396,0.942816,0.033184,0.085888,2.38875,29.81125,80.6575,-20.256,-4.816001,-15.432001,eccentric,4,3.0,17428.0,135281.0,222766.0,275133.0,259725.0
2026-04-08 21:42:19.839532,156680,1609503712065324,1312032071,1.15168,-0.033184,-0.115168,1.75875,30.42375,79.17875,-20.84,-4.016,-14.392001,eccentric,4,3.0,17428.0,135281.0,222766.0,275133.0,259725.0
2026-04-08 21:42:19.846243,156681,1609503712079827,1312046941,1.091168,0.06832,-0.177632,4.31375,32.7775,74.865,-21.008001,-3.96,-15.144001,eccentric,4,3.0,17428.0,135281.0,222766.0,275133.0,259725.0
2026-04-08 21:42:19.848068,156682,1609503712088775,1312055678,1.091168,0.06832,-0.177632,7.7875,37.52875,74.31375,-21.008001,-3.96,-15.144001,eccentric,4,3.0,17428.0,135281.0,222766.0,275133.0,259725.0
2026-04-08 21:42:19.849911,156683,1609503712097762,1312064355,1.091168,0.06832,-0.177632,8.8725,39.97875,76.58,-21.008001,-3.96,-15.144001,eccentric,4,3.0,17428.0,135281.0,222766.0,275133.0,259725.0
2026-04-08 21:42:19.880641,156684,1609503712112231,1312079246,0.974048,0.076128,0.103456,7.35875,39.865,80.28125,-21.584002,-2.952,-13.824,eccentric,4,3.0,17428.0,135281.0,222766.0,275133.0,259725.0
2026-04-08 21:42:19.886109,156685,1609503712121170,1312087912,1.018944,-0.050752,-0.054656,3.4825,38.94625,84.41125,-22.024,-2.784,-14.200001,eccentric,4,3.0,17428.0,135281.0,222766.0,275133.0,259725.0
2026-04-08 21:42:19.920012,156696,1609503712135693,1312102812,1.018944,-0.050752,-0.054656,-2.66,36.9775,85.7675,-22.024,-2.784,-14.200001,eccentric,4,3.0,17667.0,135797.0,223067.0,275079.0,259444.0
2026-04-08 21:42:19.921771,156697,1609503712144693,1312111537,1.16144,-0.06832,0.072224,-3.35125,35.7175,82.57375,-22.176,-2.192,-13.984,eccentric,4,3.0,17667.0,135797.0,223067.0,275079.0,259444.0
2026-04-08 21:42:19.923253,156698,1609503712159237,1312124396,1.16144,-0.02928,-0.007808,4.7425,38.21125,80.71875,-22.176,-2.192,-11.936001,eccentric,4,3.0,17667.0,135797.0,223067.0,275079.0,259444.0
2026-04-08 21:42:19.927340,156699,1609503712168378,1312135134,1.05408,-0.02928,-0.007808,10.87625,38.92875,83.44,-22.432001,-1.616,-11.792001,eccentric,4,3.0,17667.0,135797.0,223067.0,275079.0,259444.0
2026-04-08 21:42:19.932350,156700,1609503712177305,1312143816,1.05408,-0.02928,-0.007808,10.54375,38.535,84.5425,-22.432001,-1.616,-11.792001,eccentric,4,3.0,17667.0,135797.0,223067.0,275079.0,259444.0
2026-04-08 21:42:19.960887,156701,1609503712191779,1312158718,0.964288,-0.083936,0.216672,9.0475,38.00125,83.615,-22.800001,-0.768,-13.088,eccentric,4,3.0,17667.0,135797.0,223067.0,275079.0,259444.0
2026-04-08 21:42:19.965316,156702,1609503712200697,1312167374,1.08336,-0.140544,-0.089792,1.63625,36.6625,83.475,-23.432001,-0.464,-12.872001,eccentric,4,3.0,17667.0,135797.0,223067.0,275079.0,259444.0
2026-04-08 21:42:19.969047,156703,1609503712215192,1312182229,1.08336,-0.140544,-0.089792,-7.93625,34.5625,82.10125,-23.432001,-0.464,-12.872001,eccentric,4,3.0,17667.0,135797.0,223067.0,275079.0,259444.0
2026-04-08 21:42:19.999366,156704,1609503712224129,1312190894,1.030656,-0.091744,-0.027328,-10.21125,34.265,77.945,-23.752,0.264,-11.112,eccentric,4,3.0,17667.0,135797.0,223067.0,275079.0,259444.0
2026-04-08 21:42:20.028158,156715,1609503712238778,1312205831,1.030656,-0.091744,-0.027328,-5.59125,35.58625,77.06125,-23.752,0.264,-11.112,eccentric,4,3.0,17526.0,135318.0,222622.0,274815.0,259368.0
2026-04-08 21:42:20.029608,156716,1609503712247807,1312214488,0.962336,-0.0976,0.167872,-2.47625,34.81625,79.75625,-23.76,0.264,-13.376,eccentric,4,3.0,17526.0,135318.0,222622.0,274815.0,259368.0
2026-04-08 21:42:20.034641,156717,1609503712256728,1312223157,0.962336,-0.0976,0.167872,-2.10875,33.20625,80.91125,-23.76,0.264,-13.376,eccentric,4,3.0,17526.0,135318.0,222622.0,274815.0,259368.0
2026-04-08 21:42:20.035946,156718,1609503712271276,1312238048,1.030656,-0.236192,0.177632,-3.29,31.56125,80.683754,-24.136002,1.576,-10.52,eccentric,4,3.0,17526.0,135318.0,222622.0,274815.0,259368.0
2026-04-08 21:42:20.037032,156719,1609503712280316,1312246765,1.08336,-0.267424,0.152256,-5.355,29.81125,79.205,-24.136002,1.576,-9.976001,eccentric,4,3.0,17526.0,135318.0,222622.0,274815.0,259368.0
2026-04-08 21:42:20.070859,156720,1609503712294807,1312261638,1.08336,-0.267424,0.152256,-6.72875,27.825,77.183754,-24.096,1.92,-9.976001,eccentric,4,3.0,17526.0,135318.0,222622.0,274815.0,259368.0
2026-04-08 21:42:20.073045,156721,1609503712303717,1312270302,1.079456,-0.247904,0.132736,-6.44,26.69625,75.59125,-24.544,2.264,-11.064,eccentric,4,3.0,17526.0,135318.0,222622.0,274815.0,259368.0
2026-04-08 21:42:20.074803,156722,1609503712312634,1312278963,1.079456,-0.247904,0.132736,-3.6575,27.88625,74.69875,-24.544,2.264,-11.064,eccentric,4,3.0,17526.0,135318.0,222622.0,274815.0,259368.0
2026-04-08 21:42:20.106172,156723,1609503712327145,1312293844,0.99552,-0.249856,-0.015616,-3.63125,28.48125,72.7825,-24.776001,2.928,-11.120001,eccentric,4,3.0,17526.0,135318.0,222622.0,274815.0,259368.0
2026-04-08 21:42:20.134193,156734,1609503712336465,1312302890,0.99552,-0.249856,-0.015616,-4.19125,29.4525,68.73125,-24.776001,2.928,-11.120001,eccentric,4,3.0,17547.0,135183.0,222330.0,274505.0,259125.0
2026-04-08 21:42:20.135746,156735,1609503712351013,1312317762,1.059936,-0.286944,0.017568,-4.55,30.3275,66.63125,-24.832,3.464,-9.76,eccentric,4,3.0,17547.0,135183.0,222330.0,274505.0,259125.0
2026-04-08 21:42:20.140003,156736,1609503712359924,1312326418,1.059936,-0.286944,0.017568,-6.23875,30.58125,66.9725,-24.832,3.464,-9.76,eccentric,4,3.0,17547.0,135183.0,222330.0,274505.0,259125.0
2026-04-08 21:42:20.141678,156737,1609503712374432,1312341277,1.087264,-0.257664,0.25376,-7.27125,30.38875,66.5525,-24.968,4.208,-8.104,eccentric,4,3.0,17547.0,135183.0,222330.0,274505.0,259125.0
2026-04-08 21:42:20.144134,156738,1609503712383400,1312350050,1.10288,-0.286944,0.206912,-7.76125,29.19875,64.4875,-24.968,4.728,-7.2,eccentric,4,3.0,17547.0,135183.0,222330.0,274505.0,259125.0
2026-04-08 21:42:20.145688,156739,1609503712392323,1312358756,1.10288,-0.286944,0.206912,-5.18,28.63875,63.5775,-24.968,4.728,-7.2,eccentric,4,3.0,17547.0,135183.0,222330.0,274505.0,259125.0
2026-04-08 21:42:20.180611,156740,1609503712406833,1312373604,1.013088,-0.242048,0.183488,-3.3075,28.4375,63.7,-25.28,5.04,-8.104,eccentric,4,3.0,17547.0,135183.0,222330.0,274505.0,259125.0
2026-04-08 21:42:20.182952,156741,1609503712415760,1312382256,1.013088,-0.242048,0.183488,-3.08875,28.1225,63.1925,-25.28,5.04,-8.104,eccentric,4,3.0,17547.0,135183.0,222330.0,274505.0,259125.0
2026-04-08 21:42:20.187688,156742,1609503712430201,1312397170,1.007232,-0.298656,-0.033184,-2.19625,28.07,62.4575,-25.136002,5.536,-8.336,eccentric,4,3.0,17547.0,135183.0,222330.0,274505.0,259125.0
2026-04-08 21:42:20.217945,156753,1609503712439787,1312405904,1.007232,-0.298656,-0.033184,-2.37125,27.1075,62.65,-25.136002,5.536,-8.336,eccentric,4,3.0,17467.0,134951.0,222097.0,274364.0,259061.0
2026-04-08 21:42:20.219481,156754,1609503712448758,1312414647,1.026752,-0.316224,0.066368,-4.5325,25.9175,62.48375,-25.248001,6.152,-7.112001,eccentric,4,3.0,17467.0,134951.0,222097.0,274364.0,259061.0
2026-04-08 21:42:20.223739,156755,1609503712463237,1312429553,0.944768,-0.279136,0.0976,-5.53875,25.62,60.541252,-25.632002,6.144,-6.584,eccentric,4,3.0,17467.0,134951.0,222097.0,274364.0,259061.0
2026-04-08 21:42:20.225323,156756,1609503712472193,1312438229,0.944768,-0.279136,0.0976,-6.43125,25.2175,59.0625,-25.632002,6.144,-6.584,eccentric,4,3.0,17467.0,134951.0,222097.0,274364.0,259061.0
2026-04-08 21:42:20.255596,156757,1609503712486677,1312453107,0.913536,-0.286944,0.054656,-7.07,24.64875,58.388752,-25.560001,7.016,-6.504,eccentric,4,3.0,17467.0,134951.0,222097.0,274364.0,259061.0
2026-04-08 21:42:20.257852,156758,1609503712495592,1312461785,0.913536,-0.286944,0.054656,-6.51875,22.925,57.2075,-25.560001,7.016,-6.504,eccentric,4,3.0,17467.0,134951.0,222097.0,274364.0,259061.0
2026-04-08 21:42:20.263598,156759,1609503712510033,1312476629,0.942816,-0.27328,0.269376,-5.81875,20.991251,56.035,-25.648,7.56,-7.16,eccentric,4,3.0,17467.0,134951.0,222097.0,274364.0,259061.0
2026-04-08 21:42:20.292164,156760,1609503712518960,1312485298,0.942816,-0.27328,0.269376,-4.33125,19.57375,55.7725,-25.648,7.56,-7.16,eccentric,4,3.0,17467.0,134951.0,222097.0,274364.0,259061.0
2026-04-08 21:42:20.296751,156761,1609503712527862,1312493955,0.915488,-0.31232,-0.005856,-0.20125,18.68125,55.2825,-25.664001,7.888001,-6.792,eccentric,4,3.0,17467.0,134951.0,222097.0,274364.0,259061.0
2026-04-08 21:42:20.325006,156772,1609503712542420,1312508909,0.8784,-0.267424,0.193248,1.4525,17.54375,54.6,-25.448002,8.432,-6.744,eccentric,4,3.0,17374.0,134619.0,221804.0,274221.0,259067.0
2026-04-08 21:42:20.326704,156773,1609503712551366,1312517662,0.8784,-0.267424,0.193248,-0.1575,15.9075,53.47125,-25.448002,8.432,-6.744,eccentric,4,3.0,17374.0,134619.0,221804.0,274221.0,259067.0
2026-04-08 21:42:20.328235,156774,1609503712565937,1312532580,0.83936,-0.296704,0.095648,-3.17625,13.86,52.57875,-25.44,8.808001,-6.64,eccentric,4,3.0,17374.0,134619.0,221804.0,274221.0,259067.0
2026-04-08 21:42:20.332340,156775,1609503712574854,1312541274,0.83936,-0.296704,0.095648,-5.2325,11.0775,51.45875,-25.44,8.808001,-6.64,eccentric,4,3.0,17374.0,134619.0,221804.0,274221.0,259067.0
2026-04-08 21:42:20.360916,156776,1609503712589386,1312556140,0.86864,-0.329888,0.046848,-5.15375,8.225,50.37375,-25.352001,9.192,-6.344,eccentric,4,3.0,17374.0,134619.0,221804.0,274221.0,259067.0
2026-04-08 21:42:20.368769,156777,1609503712598285,1312564860,0.86864,-0.329888,0.046848,-2.70375,6.51875,50.05,-25.352001,9.192,-6.344,eccentric,4,3.0,17374.0,134619.0,221804.0,274221.0,259067.0
2026-04-08 21:42:20.370390,156778,1609503712607191,1312573509,0.874496,-0.343552,0.130784,2.2225,5.38125,47.78375,-25.328001,10.032001,-6.32,eccentric,4,3.0,17374.0,134619.0,221804.0,274221.0,259067.0
2026-04-08 21:42:20.376066,156779,1609503712621662,1312588384,0.874496,-0.343552,0.130784,4.97875,3.6225,44.03875,-25.328001,10.032001,-6.32,eccentric,4,3.0,17374.0,134619.0,221804.0,274221.0,259067.0
2026-04-08 21:42:20.404673,156780,1609503712630603,1312597055,0.895968,-0.33184,0.230336,4.19125,2.0825,39.83875,-25.128,10.248,-7.296001,eccentric,4,3.0,17374.0,134619.0,221804.0,274221.0,259067.0
2026-04-08 21:42:20.475475,156791,1609503712645197,1312611981,0.8296,-0.325984,0.013664,3.19375,0.76125,37.75625,-25.160002,10.448001,-5.776001,eccentric,4,3.0,17237.0,134148.0,221242.0,273854.0,258902.0
2026-04-08 21:42:20.477023,156792,1609503712654140,1312620693,0.8296,-0.325984,0.013664,1.505,-0.63875,35.7875,-25.160002,10.448001,-5.776001,eccentric,4,3.0,17237.0,134148.0,221242.0,273854.0,258902.0
2026-04-08 21:42:20.481244,156793,1609503712668707,1312635605,0.841312,-0.345504,0.031232,-0.46375,-1.3825,33.10125,-24.952002,10.88,-4.872,eccentric,4,3.0,17237.0,134148.0,221242.0,273854.0,258902.0
2026-04-08 21:42:20.482963,156794,1609503712677620,1312644296,0.841312,-0.345504,0.031232,-1.04125,-1.7325,30.625,-24.952002,10.88,-4.872,eccentric,4,3.0,17237.0,134148.0,221242.0,273854.0,258902.0
2026-04-08 21:42:20.484527,156795,1609503712686553,1312652943,0.84912,-0.337696,0.25376,-2.87,-2.1,28.875,-24.720001,10.936001,-5.808,eccentric,4,3.0,17237.0,134148.0,221242.0,273854.0,258902.0
2026-04-08 21:42:20.488774,156796,1609503712701024,1312667820,0.84912,-0.337696,0.25376,-4.8125,-2.7125,26.74875,-24.720001,10.936001,-5.808,eccentric,4,3.0,17237.0,134148.0,221242.0,273854.0,258902.0
2026-04-08 21:42:20.490517,156797,1609503712709970,1312676522,0.796416,-0.329888,0.212768,-7.20125,-4.165,23.72125,-24.976002,11.424001,-7.192,eccentric,4,3.0,17237.0,134148.0,221242.0,273854.0,258902.0
2026-04-08 21:42:20.492012,156798,1609503712724454,1312691371,0.784704,-0.337696,0.122976,-9.3275,-5.85375,21.07,-25.392002,11.360001,-5.232,eccentric,4,3.0,17237.0,134148.0,221242.0,273854.0,258902.0
2026-04-08 21:42:20.496107,156799,1609503712733473,1312700136,0.784704,-0.337696,0.122976,-10.3425,-6.965,19.66125,-25.392002,11.360001,-5.232,eccentric,4,3.0,17237.0,134148.0,221242.0,273854.0,258902.0
2026-04-08 21:42:20.522026,156810,1609503712748163,1312713336,0.827648,-0.349408,0.310368,-11.4975,-7.58625,18.1125,-25.136002,11.384001,-6.176,eccentric,4,3.0,17159.0,133877.0,220877.0,273546.0,258680.0
2026-04-08 21:42:20.525399,156811,1609503712757461,1312724079,0.827648,-0.349408,0.310368,-10.57875,-8.645,15.0325,-25.136002,11.384001,-6.176,eccentric,4,3.0,17159.0,133877.0,220877.0,273546.0,258680.0
2026-04-08 21:42:20.526964,156812,1609503712766379,1312732790,0.853024,-0.421632,0.109312,-7.21,-8.81125,11.935,-24.736002,11.728001,-6.144,eccentric,4,3.0,17159.0,133877.0,220877.0,273546.0,258680.0
2026-04-08 21:42:20.566937,156813,1609503712780892,1312747714,0.853024,-0.421632,0.109312,-4.0425,-8.9075,10.15875,-24.736002,11.728001,-6.144,eccentric,4,3.0,17159.0,133877.0,220877.0,273546.0,258680.0
2026-04-08 21:42:20.571368,156814,1609503712789873,1312756387,0.854976,-0.363072,0.232288,-2.7125,-10.08875,8.12,-24.584002,11.688001,-6.424,eccentric,4,3.0,17159.0,133877.0,220877.0,273546.0,258680.0
2026-04-08 21:42:20.572986,156815,1609503712804354,1312771259,0.792512,-0.363072,0.02928,-2.96625,-11.795,4.8475,-24.632002,11.376,-6.712,eccentric,4,3.0,17159.0,133877.0,220877.0,273546.0,258680.0
2026-04-08 21:42:20.574629,156816,1609503712813282,1312779938,0.792512,-0.363072,0.02928,-2.4675,-12.76625,2.6425,-24.632002,11.376,-6.712,eccentric,4,3.0,17159.0,133877.0,220877.0,273546.0,258680.0
2026-04-08 21:42:20.578609,156817,1609503712822208,1312788628,0.792512,-0.363072,0.02928,-2.415,-12.74875,1.21625,-24.632002,11.376,-6.712,eccentric,4,3.0,17159.0,133877.0,220877.0,273546.0,258680.0
2026-04-08 21:42:20.634997,156828,1609503712836700,1312803603,0.895968,-0.374784,0.242048,-4.9875,-12.573751,-0.95375,-24.592001,11.808001,-7.464,eccentric,4,3.0,17154.0,133826.0,220679.0,273282.0,258471.0
2026-04-08 21:42:20.636692,156829,1609503712845690,1312812356,0.89792,-0.407968,0.169824,-8.3825,-12.67875,-3.77125,-24.688002,11.656,-6.288,eccentric,4,3.0,17154.0,133826.0,220679.0,273282.0,258471.0
2026-04-08 21:42:20.638257,156830,1609503712860168,1312827217,0.89792,-0.407968,0.169824,-9.5375,-13.685,-6.41375,-24.688002,11.656,-6.288,eccentric,4,3.0,17154.0,133826.0,220679.0,273282.0,258471.0
2026-04-08 21:42:20.642506,156831,1609503712869089,1312835913,0.903776,-0.407968,0.257664,-8.61,-15.2075,-8.61875,-24.800001,11.504001,-6.264,eccentric,4,3.0,17154.0,133826.0,220679.0,273282.0,258471.0
2026-04-08 21:42:20.644204,156832,1609503712883717,1312850823,0.903776,-0.407968,0.267424,-4.38375,-16.80875,-10.43,-24.800001,11.504001,-6.264,eccentric,4,3.0,17154.0,133826.0,220679.0,273282.0,258471.0
2026-04-08 21:42:20.645754,156833,1609503712892677,1312859536,0.870592,-0.386496,0.267424,-0.21875,-17.9375,-13.265,-24.976002,11.56,-6.6,eccentric,4,3.0,17154.0,133826.0,220679.0,273282.0,258471.0
2026-04-08 21:42:20.679582,156834,1609503712901621,1312868216,0.870592,-0.386496,0.267424,2.59,-18.45375,-16.695,-24.976002,11.56,-6.6,concentric,4,3.0,17154.0,133826.0,220679.0,273282.0,258471.0
2026-04-08 21:42:20.680456,156835,1609503712916121,1312883082,0.853024,-0.333792,0.216672,1.715,-17.99,-20.13375,-25.048,11.248,-7.848001,concentric,4,3.0,17154.0,133826.0,220679.0,273282.0,258471.0
2026-04-08 21:42:20.682029,156836,1609503712925041,1312891737,0.935008,-0.374784,0.140544,-1.93375,-18.97,-23.52875,-24.752,10.888001,-5.248,concentric,4,3.0,17154.0,133826.0,220679.0,273282.0,258471.0
2026-04-08 21:42:20.747971,156847,1609503712939904,1312906694,0.935008,-0.374784,0.140544,-3.6575,-20.2125,-26.25875,-24.752,10.888001,-5.248,concentric,4,3.0,17160.0,133689.0,220438.0,273005.0,258234.0
2026-04-08 21:42:20.750322,156848,1609503712948905,1312915454,0.940864,-0.38064,0.173728,-2.84375,-21.04375,-28.28,-24.928001,10.752001,-8.384001,concentric,4,3.0,17160.0,133689.0,220438.0,273005.0,258234.0
2026-04-08 21:42:20.753920,156849,1609503712957833,1312924109,0.940864,-0.38064,0.173728,-1.58375,-21.42,-30.10875,-24.928001,10.752001,-8.384001,concentric,4,3.0,17160.0,133689.0,220438.0,273005.0,258234.0
2026-04-08 21:42:20.755440,156850,1609503712972308,1312939073,0.901824,-0.347456,0.228384,-2.35375,-22.00625,-32.17375,-24.824001,10.368,-8.568001,concentric,4,3.0,17160.0,133689.0,220438.0,273005.0,258234.0
2026-04-08 21:42:20.756970,156851,1609503712981244,1312947794,0.901824,-0.347456,0.228384,-2.75625,-22.75,-34.1775,-24.824001,10.368,-8.568001,concentric,4,3.0,17160.0,133689.0,220438.0,273005.0,258234.0
2026-04-08 21:42:20.761323,156852,1609503712995805,1312962655,0.950624,-0.353312,0.208864,-5.55625,-24.22,-35.32375,-24.872002,10.336,-7.696001,concentric,4,3.0,17160.0,133689.0,220438.0,273005.0,258234.0
2026-04-08 21:42:20.761957,156853,1609503713004754,1312971347,0.88816,-0.353312,0.054656,-7.49875,-25.585001,-38.465,-24.872002,10.336,-8.032001,concentric,4,3.0,17160.0,133689.0,220438.0,273005.0,258234.0
2026-04-08 21:42:20.793143,156854,1609503713019301,1312986268,0.876448,-0.353312,0.054656,-5.20625,-26.005,-41.4575,-25.224,10.008,-8.032001,concentric,4,3.0,17160.0,133689.0,220438.0,273005.0,258234.0
2026-04-08 21:42:20.795349,156855,1609503713028201,1312994933,0.923296,-0.353312,0.130784,-0.0525,-26.4425,-42.97125,-25.152,9.912001,-9.6,concentric,4,3.0,17160.0,133689.0,220438.0,273005.0,258234.0
2026-04-08 21:42:20.800151,156856,1609503713037118,1313003595,0.923296,-0.353312,0.130784,2.31,-27.9125,-43.68875,-25.152,9.912001,-9.6,concentric,4,3.0,17160.0,133689.0,220438.0,273005.0,258234.0
2026-04-08 21:42:20.826320,156867,1609503713051610,1313018481,0.960384,-0.325984,0.171776,-0.76125,-29.47875,-44.8525,-24.816002,9.224,-9.864,concentric,4,3.0,17163.0,133745.0,220404.0,272879.0,258086.0
2026-04-08 21:42:20.830518,156868,1609503713060610,1313027244,0.960384,-0.325984,0.171776,-2.45875,-30.0125,-46.8125,-24.816002,9.224,-9.864,concentric,4,3.0,17163.0,133745.0,220404.0,272879.0,258086.0
2026-04-08 21:42:20.832080,156869,1609503713075186,1313042151,0.958432,-0.349408,0.10736,-3.96375,-30.4325,-47.97625,-24.896002,8.712001,-9.68,concentric,4,3.0,17163.0,133745.0,220404.0,272879.0,258086.0
2026-04-08 21:42:20.838635,156870,1609503713084143,1313050841,0.958432,-0.349408,0.10736,-5.31125,-31.2025,-50.19875,-24.896002,8.712001,-9.68,concentric,4,3.0,17163.0,133745.0,220404.0,272879.0,258086.0
2026-04-08 21:42:20.867243,156871,1609503713098624,1313065695,0.979904,-0.3904,0.238144,-2.835,-32.82125,-51.4675,-24.792002,8.320001,-9.656,concentric,4,3.0,17163.0,133745.0,220404.0,272879.0,258086.0
2026-04-08 21:42:20.870732,156872,1609503713107536,1313074346,1.007232,-0.40016,0.101504,-1.47,-34.93,-52.99,-24.504002,7.768001,-11.352,concentric,4,3.0,17163.0,133745.0,220404.0,272879.0,258086.0
2026-04-08 21:42:20.873199,156873,1609503713116455,1313083015,1.007232,-0.40016,0.101504,3.6225,-36.645,-57.365,-24.504002,7.768001,-11.352,concentric,4,3.0,17163.0,133745.0,220404.0,272879.0,258086.0
2026-04-08 21:42:20.897072,156874,1609503713130981,1313097911,0.968192,-0.308416,0.154208,10.24625,-36.96,-60.9525,-24.68,7.384,-9.656,concentric,4,3.0,17163.0,133745.0,220404.0,272879.0,258086.0
2026-04-08 21:42:20.924451,156885,1609503713139917,1313107179,0.968192,-0.308416,0.154208,12.635,-37.52875,-62.23,-24.68,7.384,-9.656,concentric,4,3.0,17188.0,133693.0,220171.0,272578.0,257867.0
2026-04-08 21:42:20.926948,156886,1609503713154421,1313120101,0.925248,-0.296704,-0.052704,10.7625,-37.695,-62.41375,-24.136002,6.944,-11.912001,concentric,4,3.0,17188.0,133693.0,220171.0,272578.0,257867.0
2026-04-08 21:42:20.929493,156887,1609503713164016,1313130852,0.925248,-0.296704,-0.052704,1.68,-40.06625,-63.56,-24.136002,6.944,-11.912001,concentric,4,3.0,17188.0,133693.0,220171.0,272578.0,257867.0
2026-04-08 21:42:20.934441,156888,1609503713172970,1313139581,1.036512,-0.35136,0.189344,-5.005,-42.4025,-67.31375,-24.216002,6.192,-12.312,concentric,4,3.0,17188.0,133693.0,220171.0,272578.0,257867.0
2026-04-08 21:42:20.940690,156889,1609503713187476,1313154479,1.013088,-0.359168,0.167872,-3.91125,-44.87,-70.945,-23.704,6.224001,-12.76,concentric,4,3.0,17188.0,133693.0,220171.0,272578.0,257867.0
2026-04-08 21:42:20.970922,156890,1609503713196385,1313163156,1.013088,-0.359168,0.167872,1.05,-45.94625,-73.64875,-23.704,6.224001,-12.76,concentric,4,3.0,17188.0,133693.0,220171.0,272578.0,257867.0
2026-04-08 21:42:20.974514,156891,1609503713210848,1313175997,1.04432,-0.345504,-0.07808,8.3475,-45.94625,-75.8275,-23.856,5.76,-13.280001,concentric,4,3.0,17188.0,133693.0,220171.0,272578.0,257867.0
2026-04-08 21:42:20.976972,156892,1609503713219963,1313186737,1.04432,-0.345504,-0.07808,9.58125,-45.465,-77.0525,-23.856,5.76,-13.280001,concentric,4,3.0,17188.0,133693.0,220171.0,272578.0,257867.0
2026-04-08 21:42:21.008414,156893,1609503713234526,1313201601,1.104832,-0.335744,-0.0488,5.8625,-44.87875,-80.35125,-23.44,5.0,-13.216001,concentric,4,3.0,17188.0,133693.0,220171.0,272578.0,257867.0
2026-04-08 21:42:21.043232,156904,1609503713243854,1313210273,1.104832,-0.335744,-0.0488,1.18125,-45.54375,-82.57375,-23.44,5.0,-13.216001,concentric,4,3.0,17216.0,133648.0,219940.0,272272.0,257589.0
2026-04-08 21:42:21.045992,156905,1609503713252797,1313218997,1.057984,-0.329888,-0.021472,-2.1175,-47.22375,-81.7425,-23.448002,4.232,-14.496,concentric,4,3.0,17216.0,133648.0,219940.0,272272.0,257589.0
2026-04-08 21:42:21.049507,156906,1609503713267264,1313233860,1.022848,-0.318176,-0.138592,-0.84875,-48.08125,-82.6,-23.176,4.064,-14.688001,concentric,4,3.0,17216.0,133648.0,219940.0,272272.0,257589.0
2026-04-08 21:42:21.052147,156907,1609503713276220,1313242571,1.022848,-0.318176,-0.138592,2.1,-47.24125,-84.07,-23.176,4.064,-14.688001,concentric,4,3.0,17216.0,133648.0,219940.0,272272.0,257589.0
2026-04-08 21:42:21.054728,156908,1609503713290744,1313257461,1.038464,-0.216672,0.013664,3.255,-45.92875,-85.56625,-22.480001,3.168,-15.120001,concentric,4,3.0,17216.0,133648.0,219940.0,272272.0,257589.0
2026-04-08 21:42:21.056931,156909,1609503713299652,1313266175,1.038464,-0.216672,0.013664,0.88375,-43.8025,-86.8525,-22.480001,3.168,-15.120001,concentric,4,3.0,17216.0,133648.0,219940.0,272272.0,257589.0
2026-04-08 21:42:21.059405,156910,1609503713308615,1313274865,1.0248,-0.206912,-0.15616,-1.96875,-41.48375,-86.52875,-22.384,2.968,-14.456,concentric,4,3.0,17216.0,133648.0,219940.0,272272.0,257589.0
2026-04-08 21:42:21.089677,156911,1609503713323102,1313289740,1.0248,-0.206912,-0.15616,-5.34625,-38.7275,-84.16625,-22.384,2.968,-14.456,concentric,4,3.0,17216.0,133648.0,219940.0,272272.0,257589.0
2026-04-08 21:42:21.093209,156912,1609503713332008,1313298392,1.126304,-0.230336,-0.035136,-12.792501,-37.24,-82.90625,-21.68,2.288,-15.776001,concentric,4,3.0,17216.0,133648.0,219940.0,272272.0,257589.0
2026-04-08 21:42:21.123158,156923,1609503713346650,1313313370,1.126304,-0.230336,-0.15616,-19.5825,-35.9625,-84.25375,-21.68,2.288,-15.776001,concentric,4,3.0,17315.0,133928.0,220174.0,272398.0,257571.0
2026-04-08 21:42:21.125716,156924,1609503713355642,1313322079,1.089216,-0.21472,-0.15616,-20.97375,-34.39625,-85.4175,-21.648,1.6,-15.736001,concentric,4,3.0,17315.0,133928.0,220174.0,272398.0,257571.0
2026-04-08 21:42:21.128215,156925,1609503713370149,1313336977,1.098976,-0.22448,-0.085888,-19.53875,-33.005,-85.65375,-21.496,1.408,-16.576,concentric,4,3.0,17315.0,133928.0,220174.0,272398.0,257571.0
2026-04-08 21:42:21.131917,156926,1609503713379056,1313345651,1.098976,-0.22448,-0.085888,-16.695,-33.66125,-84.945,-21.496,1.408,-16.576,concentric,4,3.0,17315.0,133928.0,220174.0,272398.0,257571.0
2026-04-08 21:42:21.162221,156927,1609503713387989,1313354315,1.036512,-0.158112,-0.144448,-15.7675,-34.335,-82.3725,-21.344002,0.336,-15.568001,concentric,4,3.0,17315.0,133928.0,220174.0,272398.0,257571.0
2026-04-08 21:42:21.165725,156928,1609503713402442,1313369128,1.036512,-0.158112,-0.144448,-16.415,-33.73125,-80.49125,-21.344002,0.336,-15.568001,concentric,4,3.0,17315.0,133928.0,220174.0,272398.0,257571.0
2026-04-08 21:42:21.168218,156929,1609503713411402,1313377786,1.069696,-0.162016,-0.222528,-18.68125,-32.235,-80.4475,-20.528002,0.032,-17.032001,concentric,4,3.0,17315.0,133928.0,220174.0,272398.0,257571.0
2026-04-08 21:42:21.198430,156930,1609503713425932,1313392685,1.069696,-0.162016,-0.222528,-23.84375,-29.5575,-80.6225,-20.528002,0.032,-17.032001,concentric,4,3.0,17315.0,133928.0,220174.0,272398.0,257571.0
2026-04-08 21:42:21.202975,156931,1609503713434846,1313401339,1.08336,-0.138592,-0.132736,-27.93875,-26.6525,-80.0975,-20.352001,-1.024,-14.168,concentric,4,3.0,17315.0,133928.0,220174.0,272398.0,257571.0
2026-04-08 21:42:21.231448,156942,1609503713449813,1313416293,1.001376,-0.130784,-0.013664,-30.835001,-24.21125,-78.82875,-19.896002,-1.568,-17.232,concentric,4,3.0,17287.0,133948.0,220276.0,272537.0,257725.0
2026-04-08 21:42:21.234247,156943,1609503713458808,1313425059,1.001376,-0.130784,-0.013664,-31.9725,-23.73,-76.51,-19.896002,-1.568,-17.232,concentric,4,3.0,17287.0,133948.0,220276.0,272537.0,257725.0
2026-04-08 21:42:21.235034,156944,1609503713467792,1313433795,0.970144,-0.115168,-0.124928,-32.8825,-25.8475,-74.2,-19.896002,-1.568,-17.232,concentric,4,3.0,17287.0,133948.0,220276.0,272537.0,257725.0
2026-04-08 21:42:21.238518,156945,1609503713482284,1313448694,0.968192,-0.115168,-0.124928,-32.9,-25.59375,-73.66625,-19.76,-1.608,-17.312,concentric,4,3.0,17287.0,133948.0,220276.0,272537.0,257725.0
2026-04-08 21:42:21.244836,156946,1609503713491185,1313457385,1.0736,-0.10736,-0.16592,-31.928751,-24.19375,-74.8475,-19.264002,-2.624,-17.880001,concentric,4,3.0,17287.0,133948.0,220276.0,272537.0,257725.0
2026-04-08 21:42:21.274707,156947,1609503713505675,1313472294,1.0736,-0.10736,-0.16592,-33.46875,-21.875,-74.75125,-19.264002,-2.624,-17.880001,concentric,4,3.0,17287.0,133948.0,220276.0,272537.0,257725.0
2026-04-08 21:42:21.279119,156948,1609503713514602,1313481001,1.028704,-0.074176,-0.132736,-35.51625,-20.8425,-75.1625,-18.752,-2.928,-17.792002,concentric,4,3.0,17287.0,133948.0,220276.0,272537.0,257725.0
2026-04-08 21:42:21.282793,156949,1609503713529089,1313495867,0.991616,-0.08784,-0.154208,-35.90125,-21.5425,-72.5375,-18.464,-3.456,-17.240002,concentric,4,3.0,17287.0,133948.0,220276.0,272537.0,257725.0
2026-04-08 21:42:21.292365,156950,1609503713538005,1313504527,0.991616,-0.08784,-0.154208,-33.4425,-21.93625,-68.25875,-18.464,-3.456,-17.240002,concentric,4,3.0,17287.0,133948.0,220276.0,272537.0,257725.0
2026-04-08 21:42:21.326278,156961,1609503713547059,1313513317,0.991616,-0.08784,-0.154208,-29.155,-23.49375,-67.2875,-18.464,-3.456,-17.240002,concentric,4,3.0,17282.0,134000.0,220349.0,272627.0,257809.0
2026-04-08 21:42:21.327950,156962,1609503713561605,1313528262,0.970144,-0.01952,-0.203008,-30.40625,-22.96875,-68.2675,-18.432001,-3.448,-16.480001,concentric,4,3.0,17282.0,134000.0,220349.0,272627.0,257809.0
2026-04-08 21:42:21.329510,156963,1609503713570504,1313536932,1.028704,0.0,-0.212768,-31.885,-22.21625,-70.455,-17.584002,-4.552,-18.328001,concentric,4,3.0,17282.0,134000.0,220349.0,272627.0,257809.0
2026-04-08 21:42:21.360641,156964,1609503713584983,1313551817,1.028704,0.0,-0.212768,-34.335,-21.28,-70.02625,-17.584002,-4.552,-18.328001,concentric,4,3.0,17282.0,134000.0,220349.0,272627.0,257809.0
2026-04-08 21:42:21.362859,156965,1609503713593922,1313560493,0.880352,0.056608,-0.037088,-35.04375,-20.34375,-68.01375,-17.192001,-5.0,-18.448,concentric,4,3.0,17282.0,134000.0,220349.0,272627.0,257809.0
2026-04-08 21:42:21.367470,156966,1609503713608424,1313575381,0.880352,0.056608,0.044896,-30.555,-21.245,-65.2575,-17.192001,-5.0,-18.448,concentric,4,3.0,17282.0,134000.0,220349.0,272627.0,257809.0
2026-04-08 21:42:21.371094,156967,1609503713617343,1313584044,0.913536,0.046848,0.044896,-27.71125,-23.28375,-63.04375,-17.0,-5.24,-19.256,concentric,4,3.0,17282.0,134000.0,220349.0,272627.0,257809.0
2026-04-08 21:42:21.399646,156968,1609503713626289,1313592722,0.913536,0.046848,0.044896,-23.0125,-23.59,-64.98625,-17.0,-5.24,-19.256,concentric,4,3.0,17282.0,134000.0,220349.0,272627.0,257809.0
2026-04-08 21:42:21.430022,156979,1609503713640771,1313607662,0.8296,0.060512,-0.183488,-15.12875,-22.05,-67.29625,-16.44,-5.488,-17.68,concentric,4,3.0,17371.0,134270.0,220626.0,272772.0,257875.0
2026-04-08 21:42:21.431761,156980,1609503713649742,1313616427,0.827648,0.148352,-0.083936,-15.70625,-21.53375,-63.23625,-16.048,-6.12,-18.392,concentric,4,3.0,17371.0,134270.0,220626.0,272772.0,257875.0
2026-04-08 21:42:21.433385,156981,1609503713664274,1313631323,0.827648,0.148352,-0.083936,-23.3275,-19.22375,-60.08625,-16.048,-6.12,-18.392,concentric,4,3.0,17371.0,134270.0,220626.0,272772.0,257875.0
2026-04-08 21:42:21.437527,156982,1609503713673200,1313640067,0.851072,0.144448,0.064416,-26.985,-15.627501,-63.13125,-16.08,-6.168,-19.344002,concentric,4,3.0,17371.0,134270.0,220626.0,272772.0,257875.0
2026-04-08 21:42:21.439156,156983,1609503713682232,1313648739,0.851072,0.144448,0.064416,-26.31125,-14.35875,-61.74875,-16.08,-6.168,-19.344002,concentric,4,3.0,17371.0,134270.0,220626.0,272772.0,257875.0
2026-04-08 21:42:21.469395,156984,1609503713696752,1313663620,0.763232,0.138592,-0.134688,-26.17125,-15.155,-58.065,-15.296001,-6.8,-19.392,concentric,4,3.0,17371.0,134270.0,220626.0,272772.0,257875.0
2026-04-08 21:42:21.471779,156985,1609503713705693,1313672285,0.763232,0.138592,-0.134688,-22.6975,-15.82,-58.33625,-15.296001,-6.8,-19.392,concentric,4,3.0,17371.0,134270.0,220626.0,272772.0,257875.0
2026-04-08 21:42:21.476278,156986,1609503713720155,1313687132,0.784704,0.11712,-0.160064,-18.24375,-15.8375,-58.77375,-15.328001,-6.64,-19.168001,concentric,4,3.0,17371.0,134270.0,220626.0,272772.0,257875.0
2026-04-08 21:42:21.504667,156987,1609503713729074,1313695801,0.784704,0.11712,-0.281088,-12.215,-16.44125,-56.44625,-15.328001,-6.64,-19.168001,concentric,4,3.0,17371.0,134270.0,220626.0,272772.0,257875.0
2026-04-08 21:42:21.533366,156998,1609503713743949,1313710740,0.651968,0.226432,-0.281088,-11.01625,-14.665,-52.1325,-15.320001,-6.488,-18.064001,concentric,4,3.0,17229.0,133835.0,220101.0,272527.0,257842.0
2026-04-08 21:42:21.537519,156999,1609503713752968,1313719468,0.661728,0.232288,-0.353312,-14.385,-11.1125,-49.6475,-14.648001,-7.424,-19.736,concentric,4,3.0,17229.0,133835.0,220101.0,272527.0,257842.0
2026-04-08 21:42:21.539213,157000,1609503713761867,1313728121,0.661728,0.232288,-0.353312,-18.6375,-10.4825,-48.86875,-14.648001,-7.424,-19.736,concentric,4,3.0,17229.0,133835.0,220101.0,272527.0,257842.0
2026-04-08 21:42:21.540737,157001,1609503713776454,1313743071,0.679296,0.25376,0.085888,-23.86125,-11.27,-49.07,-14.368001,-7.76,-19.464,concentric,4,3.0,17229.0,133835.0,220101.0,272527.0,257842.0
2026-04-08 21:42:21.544857,157002,1609503713785386,1313751757,0.679296,0.25376,0.085888,-25.05125,-14.28,-51.30125,-14.368001,-7.76,-19.464,concentric,4,3.0,17229.0,133835.0,220101.0,272527.0,257842.0
2026-04-08 21:42:21.573440,157003,1609503713799886,1313766638,0.694912,0.206912,-0.144448,-21.07,-17.272501,-52.2025,-13.992001,-7.512001,-19.480001,concentric,4,3.0,17229.0,133835.0,220101.0,272527.0,257842.0
2026-04-08 21:42:21.578141,157004,1609503713808777,1313775284,0.694912,0.206912,-0.144448,-17.045,-19.022501,-50.61,-13.992001,-7.512001,-19.480001,concentric,4,3.0,17229.0,133835.0,220101.0,272527.0,257842.0
2026-04-08 21:42:21.579498,157005,1609503713823210,1313790143,0.61488,0.271328,-0.382592,-15.26875,-17.22875,-50.18125,-13.848001,-7.704001,-19.504002,concentric,4,3.0,17229.0,133835.0,220101.0,272527.0,257842.0
2026-04-08 21:42:21.586115,157006,1609503713832164,1313798856,0.640256,0.339648,-0.152256,-14.752501,-15.46125,-48.60625,-13.64,-8.304001,-19.184,concentric,4,3.0,17229.0,133835.0,220101.0,272527.0,257842.0
2026-04-08 21:42:21.614636,157007,1609503713841091,1313807530,0.640256,0.339648,-0.152256,-17.9025,-15.74125,-44.87875,-13.64,-8.304001,-19.184,concentric,4,3.0,17229.0,133835.0,220101.0,272527.0,257842.0
2026-04-08 21:42:21.643540,157018,1609503713855649,1313822425,0.757376,0.255712,-0.074176,-22.16375,-16.63375,-44.10875,-13.112,-8.704,-20.016,concentric,4,3.0,17157.0,133854.0,220304.0,272835.0,258132.0
2026-04-08 21:42:21.645668,157019,1609503713864591,1313831089,0.757376,0.255712,-0.074176,-23.49375,-16.24,-44.6425,-13.112,-8.704,-20.016,concentric,4,3.0,17157.0,133854.0,220304.0,272835.0,258132.0
2026-04-08 21:42:21.648233,157020,1609503713879138,1313845959,0.706624,0.28304,-0.142496,-20.6675,-13.08125,-43.951252,-13.504001,-8.568001,-18.976002,concentric,4,3.0,17157.0,133854.0,220304.0,272835.0,258132.0
2026-04-08 21:42:21.650684,157021,1609503713888072,1313854693,0.706624,0.28304,-0.142496,-14.0525,-12.34625,-40.38125,-13.504001,-8.568001,-18.976002,concentric,4,3.0,17157.0,133854.0,220304.0,272835.0,258132.0
2026-04-08 21:42:21.655655,157022,1609503713902595,1313869645,0.61488,0.2928,-0.17568,-13.48375,-16.14375,-36.09375,-12.832001,-8.808001,-18.472,concentric,4,3.0,17157.0,133854.0,220304.0,272835.0,258132.0
2026-04-08 21:42:21.685883,157023,1609503713911522,1313878297,0.714432,0.290848,0.02928,-13.2125,-21.56,-33.985,-12.512001,-8.904,-17.52,concentric,4,3.0,17157.0,133854.0,220304.0,272835.0,258132.0
2026-04-08 21:42:21.689832,157024,1609503713920448,1313886965,0.714432,0.290848,0.02928,-11.2,-25.585001,-33.59125,-12.512001,-8.904,-17.52,concentric,4,3.0,17157.0,133854.0,220304.0,272835.0,258132.0
2026-04-08 21:42:21.692028,157025,1609503713934901,1313901836,0.650016,0.31232,-0.222528,-2.12625,-24.94625,-31.99,-11.984,-9.176001,-20.312,concentric,4,3.0,17157.0,133854.0,220304.0,272835.0,258132.0
2026-04-08 21:42:21.753189,157036,1609503713944056,1313910572,0.650016,0.31232,-0.222528,5.94125,-21.525,-28.44625,-11.984,-9.176001,-20.312,concentric,4,3.0,17305.0,134419.0,221045.0,273431.0,258476.0
2026-04-08 21:42:21.755743,157037,1609503713958648,1313925477,0.665632,0.394304,-0.349408,7.2975,-16.02125,-26.460001,-12.016001,-9.336,-19.912,concentric,4,3.0,17305.0,134419.0,221045.0,273431.0,258476.0
2026-04-08 21:42:21.758231,157038,1609503713967558,1313934146,0.665632,0.394304,-0.349408,2.135,-10.823751,-23.9225,-12.016001,-9.336,-19.912,concentric,4,3.0,17305.0,134419.0,221045.0,273431.0,258476.0
2026-04-08 21:42:21.760699,157039,1609503713976519,1313942833,0.696864,0.40992,-0.210816,-4.935,-7.21,-16.5025,-11.792001,-9.536,-20.664001,concentric,4,3.0,17305.0,134419.0,221045.0,273431.0,258476.0
2026-04-08 21:42:21.763209,157040,1609503713991173,1313957711,0.696864,0.343552,-0.00976,-14.49,-5.915,-8.16375,-11.792001,-9.536,-20.664001,concentric,4,3.0,17305.0,134419.0,221045.0,273431.0,258476.0
2026-04-08 21:42:21.765807,157041,1609503714000130,1313966373,0.753472,0.343552,-0.00976,-23.3625,-4.50625,-6.055,-12.136001,-9.224,-19.68,concentric,4,3.0,17305.0,134419.0,221045.0,273431.0,258476.0
2026-04-08 21:42:21.768253,157042,1609503714014614,1313981301,0.704672,0.316224,-0.142496,-23.98375,-1.4175,-6.72,-12.320001,-9.592,-19.44,concentric,4,3.0,17305.0,134419.0,221045.0,273431.0,258476.0
2026-04-08 21:42:21.798415,157043,1609503714023622,1313989988,0.704672,0.316224,-0.142496,-19.69625,1.645,-4.06,-12.320001,-9.592,-19.44,concentric,4,3.0,17305.0,134419.0,221045.0,273431.0,258476.0
2026-04-08 21:42:21.801936,157044,1609503714038095,1314004878,0.794464,0.368928,-0.203008,-14.3325,3.36,0.90125,-11.872001,-9.688001,-18.480001,concentric,4,3.0,17305.0,134419.0,221045.0,273431.0,258476.0
2026-04-08 21:42:21.836992,157055,1609503714047551,1314013848,0.794464,0.368928,-0.203008,-14.21875,5.0225,2.47625,-11.872001,-9.688001,-18.480001,concentric,4,3.0,17324.0,134503.0,221132.0,273456.0,258483.0
2026-04-08 21:42:21.843251,157056,1609503714056576,1314022574,0.743712,0.398208,-0.040992,-14.980001,6.57125,2.5375,-12.048,-9.768001,-19.976002,concentric,4,3.0,17324.0,134503.0,221132.0,273456.0,258483.0
2026-04-08 21:42:21.845720,157057,1609503714071069,1314037524,0.743712,0.398208,-0.040992,-12.5125,6.72,4.78625,-12.048,-9.768001,-19.976002,concentric,4,3.0,17324.0,134503.0,221132.0,273456.0,258483.0
2026-04-08 21:42:21.848752,157058,1609503714079981,1314046244,0.6832,0.357216,-0.083936,-7.49875,5.5475,9.38,-12.056001,-9.240001,-20.304,concentric,4,3.0,17324.0,134503.0,221132.0,273456.0,258483.0
2026-04-08 21:42:21.854393,157059,1609503714094485,1314061118,0.661728,0.386496,-0.183488,2.3275,4.9,13.5275,-11.896001,-8.976001,-18.232,concentric,4,3.0,17324.0,134503.0,221132.0,273456.0,258483.0
2026-04-08 21:42:21.856893,157060,1609503714103411,1314069869,0.661728,0.386496,-0.183488,8.96,4.87375,14.95375,-11.896001,-8.976001,-18.232,concentric,4,3.0,17324.0,134503.0,221132.0,273456.0,258483.0
