pc_time,serial_num,sensor_ts,host_ts,ax,ay,az,gx,gy,gz,mx,my,mz,phase,rpe,weight_kg,ppg_a,ppg_b,ppg_c,ppg_d,ppg_e
2026-04-08 21:42:37.689592,160031,1609503729921156,1329888289,0.74176,0.20496,-0.111264,9.065,7.1575,30.555,-16.44,-7.824,-17.776001,eccentric,4,3.0,17735.0,136400.0,223381.0,275230.0,259711.0
2026-04-08 21:42:37.751136,160042,1609503729930227,1329897056,0.74176,0.20496,-0.111264,8.1375,8.0325,31.50875,-16.44,-7.824,-17.776001,eccentric,4,3.0,17660.0,136191.0,223152.0,275082.0,259650.0
2026-04-08 21:42:37.753169,160043,1609503729939230,1329905768,0.706624,0.222528,0.01952,8.51375,8.49625,32.92625,-16.616001,-7.664001,-17.728,eccentric,4,3.0,17660.0,136191.0,223152.0,275082.0,259650.0
2026-04-08 21:42:37.755576,160044,1609503729953731,1329920661,0.706624,0.222528,0.01952,9.292501,8.46125,35.60375,-16.616001,-7.664001,-17.728,eccentric,4,3.0,17660.0,136191.0,223152.0,275082.0,259650.0
2026-04-08 21:42:37.758137,160045,1609503729962710,1329929362,0.745664,0.187392,0.027328,9.10875,8.6275,38.03625,-16.904001,-7.016,-16.176,eccentric,4,3.0,17660.0,136191.0,223152.0,275082.0,259650.0
2026-04-08 21:42:37.760637,160046,1609503729977200,1329944290,0.788608,0.197152,0.037088,10.17625,9.730001,40.215,-16.992,-7.144001,-17.36,eccentric,4,3.0,17660.0,136191.0,223152.0,275082.0,259650.0
2026-04-08 21:42:37.763147,160047,1609503729986130,1329952957,0.788608,0.197152,0.037088,11.095,11.62,42.2975,-16.992,-7.144001,-17.36,eccentric,4,3.0,17660.0,136191.0,223152.0,275082.0,259650.0
2026-04-08 21:42:37.765648,160048,1609503730000604,1329965756,0.732,0.16592,-0.140544,13.055,13.37,44.00375,-17.424002,-6.536,-17.344002,eccentric,4,3.0,17660.0,136191.0,223152.0,275082.0,259650.0
2026-04-08 21:42:37.768201,160049,1609503730009802,1329976476,0.732,0.16592,-0.140544,12.90625,13.72,47.34625,-17.424002,-6.536,-17.344002,eccentric,4,3.0,17660.0,136191.0,223152.0,275082.0,259650.0
2026-04-08 21:42:37.770606,160050,1609503730018766,1329985239,0.747616,0.158112,0.070272,6.3,12.8625,48.71125,-17.632,-6.832,-16.16,eccentric,4,3.0,17660.0,136191.0,223152.0,275082.0,259650.0
2026-04-08 21:42:37.829494,160061,1609503730033409,1330000217,0.747616,0.158112,0.070272,1.0325,11.82125,46.85625,-17.632,-6.832,-16.16,eccentric,4,3.0,17627.0,136081.0,223142.0,275160.0,259777.0
2026-04-08 21:42:37.831987,160062,1609503730042374,1330008871,0.69296,0.119072,-0.001952,5.34625,12.43375,50.18125,-17.736,-6.192,-16.992,eccentric,4,3.0,17627.0,136081.0,223142.0,275160.0,259777.0
2026-04-08 21:42:37.834479,160063,1609503730056857,1330023706,0.80032,0.07808,-0.124928,10.823751,13.11625,55.728752,-18.128,-5.936,-17.608002,eccentric,4,3.0,17627.0,136081.0,223142.0,275160.0,259777.0
2026-04-08 21:42:37.837032,160064,1609503730065794,1330032397,0.80032,0.07808,-0.124928,10.61375,14.0,58.68625,-18.128,-5.936,-17.608002,eccentric,4,3.0,17627.0,136081.0,223142.0,275160.0,259777.0
2026-04-08 21:42:37.839660,160065,1609503730074726,1330041113,0.80032,0.07808,-0.124928,1.19,14.56,58.16125,-18.128,-5.936,-17.608002,eccentric,4,3.0,17627.0,136081.0,223142.0,275160.0,259777.0
2026-04-08 21:42:37.841952,160066,1609503730089228,1330056054,0.931104,0.101504,0.013664,-10.29875,16.28375,55.947502,-18.672,-5.632,-14.272,eccentric,4,3.0,17627.0,136081.0,223142.0,275160.0,259777.0
2026-04-08 21:42:37.874281,160067,1609503730098155,1330064776,0.854976,0.074176,0.042944,-9.948751,19.48625,55.64125,-19.184,-5.064,-16.08,eccentric,4,3.0,17627.0,136081.0,223142.0,275160.0,259777.0
2026-04-08 21:42:37.877069,160068,1609503730112627,1330079646,0.854976,0.074176,0.042944,0.32375,21.46375,58.5375,-19.184,-5.064,-16.08,eccentric,4,3.0,17627.0,136081.0,223142.0,275160.0,259777.0
2026-04-08 21:42:37.879522,160069,1609503730121546,1330088305,0.743712,-0.005856,-0.089792,7.91,23.10875,65.135,-19.080002,-5.096,-15.824,eccentric,4,3.0,17627.0,136081.0,223142.0,275160.0,259777.0
2026-04-08 21:42:37.909472,160080,1609503730136148,1330101474,0.743712,-0.005856,-0.160064,7.23625,22.81125,68.88,-19.080002,-5.096,-15.824,eccentric,4,3.0,17770.0,136427.0,223437.0,275255.0,259718.0
2026-04-08 21:42:37.912190,160081,1609503730145471,1330112216,0.856928,-0.001952,-0.160064,0.97125,23.05625,67.24375,-19.824001,-4.384,-14.64,eccentric,4,3.0,17770.0,136427.0,223437.0,275255.0,259718.0
2026-04-08 21:42:37.923386,160082,1609503730154465,1330120932,0.856928,-0.001952,-0.160064,-3.71875,24.5875,65.152504,-19.824001,-4.384,-14.64,eccentric,4,3.0,17770.0,136427.0,223437.0,275255.0,259718.0
2026-04-08 21:42:37.925757,160083,1609503730168908,1330135790,1.040416,0.035136,0.130784,-9.14375,27.475,66.57875,-20.36,-4.248,-12.624001,eccentric,4,3.0,17770.0,136427.0,223437.0,275255.0,259718.0
2026-04-08 21:42:37.930636,160084,1609503730177843,1330144505,0.909632,-0.021472,-0.02928,-13.545,29.855,67.08625,-20.376001,-4.104,-14.504001,eccentric,4,3.0,17770.0,136427.0,223437.0,275255.0,259718.0
2026-04-08 21:42:37.960861,160085,1609503730192316,1330159464,0.909632,-0.021472,-0.02928,-10.6575,32.75125,68.145,-20.376001,-4.104,-14.504001,eccentric,4,3.0,17770.0,136427.0,223437.0,275255.0,259718.0
2026-04-08 21:42:37.964431,160086,1609503730201258,1330168127,0.950624,-0.046848,0.171776,-6.25625,32.75125,72.79125,-20.712002,-3.408,-14.840001,eccentric,4,3.0,17770.0,136427.0,223437.0,275255.0,259718.0
2026-04-08 21:42:37.969388,160087,1609503730215721,1330180917,0.950624,-0.046848,0.171776,-1.6625,31.815,77.16625,-20.712002,-3.408,-14.840001,eccentric,4,3.0,17770.0,136427.0,223437.0,275255.0,259718.0
2026-04-08 21:42:38.000872,160088,1609503730224898,1330191688,0.977952,-0.052704,0.081984,0.53375,30.205,77.9625,-21.648,-3.448,-15.400001,eccentric,4,3.0,17770.0,136427.0,223437.0,275255.0,259718.0
2026-04-08 21:42:38.060630,160099,1609503730234150,1330200372,0.977952,-0.052704,0.081984,-3.42125,30.205,77.1925,-21.648,-3.448,-15.400001,eccentric,4,3.0,17853.0,136442.0,223206.0,274874.0,259350.0
2026-04-08 21:42:38.063177,160100,1609503730248742,1330215272,1.001376,-0.06832,-0.005856,-6.65875,30.70375,77.04375,-21.392,-2.408,-14.440001,eccentric,4,3.0,17853.0,136442.0,223206.0,274874.0,259350.0
2026-04-08 21:42:38.065615,160101,1609503730257665,1330223927,0.903776,-0.115168,0.0976,-5.88,30.86125,78.47,-21.392,-1.928,-12.832001,eccentric,4,3.0,17853.0,136442.0,223206.0,274874.0,259350.0
2026-04-08 21:42:38.068179,160102,1609503730272192,1330238838,0.903776,-0.115168,0.0976,-3.9025,30.80875,82.6875,-22.096,-1.928,-12.832001,eccentric,4,3.0,17853.0,136442.0,223206.0,274874.0,259350.0
2026-04-08 21:42:38.070741,160103,1609503730281171,1330247495,0.972096,-0.203008,0.062464,-2.63375,28.27125,86.30125,-22.016,-1.176,-13.752001,eccentric,4,3.0,17853.0,136442.0,223206.0,274874.0,259350.0
2026-04-08 21:42:38.073683,160104,1609503730290071,1330256150,0.972096,-0.203008,0.062464,-1.0325,26.29375,84.245,-22.016,-1.176,-13.752001,eccentric,4,3.0,17853.0,136442.0,223206.0,274874.0,259350.0
2026-04-08 21:42:38.075697,160105,1609503730304595,1330271014,1.05408,-0.191296,0.138592,-2.86125,25.75125,80.15,-22.944,-1.088,-13.528001,eccentric,4,3.0,17853.0,136442.0,223206.0,274874.0,259350.0
2026-04-08 21:42:38.078259,160106,1609503730313540,1330279790,1.05408,-0.191296,0.138592,-6.04625,25.3575,76.27375,-22.944,-1.088,-13.528001,eccentric,4,3.0,17853.0,136442.0,223206.0,274874.0,259350.0
2026-04-08 21:42:38.080711,160107,1609503730328150,1330294795,0.95648,-0.162016,0.083936,-1.44375,26.32875,75.705,-23.2,-0.448,-11.144,eccentric,4,3.0,17853.0,136442.0,223206.0,274874.0,259350.0
2026-04-08 21:42:38.108261,160118,1609503730337221,1330303540,0.95648,-0.162016,0.083936,3.28125,27.30875,81.121254,-23.2,-0.448,-11.144,eccentric,4,3.0,17716.0,135977.0,222707.0,274535.0,259169.0
2026-04-08 21:42:38.110891,160119,1609503730351755,1330318489,0.915488,-0.1952,0.083936,0.62125,26.5825,89.20625,-23.208,0.712,-10.672001,eccentric,4,3.0,17716.0,135977.0,222707.0,274535.0,259169.0
2026-04-08 21:42:38.113214,160120,1609503730360708,1330327246,1.013088,-0.359168,0.105408,-3.7275,23.5025,90.16,-23.328001,1.072,-11.360001,eccentric,4,3.0,17716.0,135977.0,222707.0,274535.0,259169.0
2026-04-08 21:42:38.143952,160121,1609503730369645,1330335912,1.013088,-0.359168,0.105408,-5.7925,20.85125,83.8775,-23.328001,1.072,-11.360001,eccentric,4,3.0,17716.0,135977.0,222707.0,274535.0,259169.0
2026-04-08 21:42:38.147076,160122,1609503730384142,1330350774,0.977952,-0.33184,0.056608,-6.58,17.43,78.9425,-23.648,1.288,-12.064,eccentric,4,3.0,17716.0,135977.0,222707.0,274535.0,259169.0
2026-04-08 21:42:38.149495,160123,1609503730393077,1330359433,0.977952,-0.33184,0.056608,-1.86375,16.2925,75.03125,-23.648,1.288,-12.064,eccentric,4,3.0,17716.0,135977.0,222707.0,274535.0,259169.0
2026-04-08 21:42:38.183677,160124,1609503730407567,1330374309,0.954528,-0.267424,0.22448,9.765,17.94625,72.72125,-23.52,1.944,-10.488001,eccentric,4,3.0,17716.0,135977.0,222707.0,274535.0,259169.0
2026-04-08 21:42:38.187083,160125,1609503730416551,1330382977,0.954528,-0.267424,0.22448,17.91125,18.71625,74.87375,-23.52,1.944,-10.488001,eccentric,4,3.0,17716.0,135977.0,222707.0,274535.0,259169.0
2026-04-08 21:42:38.220675,160136,1609503730430994,1330397886,0.979904,-0.318176,0.0488,17.710001,18.24375,77.48125,-23.76,2.864,-11.384001,eccentric,4,3.0,17646.0,135616.0,222275.0,274152.0,258895.0
2026-04-08 21:42:38.223226,160137,1609503730440440,1330406631,1.0248,-0.372832,-0.054656,12.136251,15.86375,77.035,-24.248001,3.368,-10.048,eccentric,4,3.0,17646.0,135616.0,222275.0,274152.0,258895.0
2026-04-08 21:42:38.225709,160138,1609503730449444,1330415340,1.0248,-0.372832,-0.054656,7.6125,14.28875,71.18125,-24.248001,3.368,-10.048,eccentric,4,3.0,17646.0,135616.0,222275.0,274152.0,258895.0
2026-04-08 21:42:38.228232,160139,1609503730463940,1330430243,1.079456,-0.333792,0.095648,6.965,15.5575,66.21125,-24.072,3.664,-10.944,eccentric,4,3.0,17646.0,135616.0,222275.0,274152.0,258895.0
2026-04-08 21:42:38.231086,160140,1609503730472921,1330438930,1.079456,-0.333792,0.095648,6.15125,15.96875,63.48125,-24.072,3.664,-10.944,eccentric,4,3.0,17646.0,135616.0,222275.0,274152.0,258895.0
2026-04-08 21:42:38.261320,160141,1609503730487401,1330453828,0.99552,-0.294752,0.191296,11.97875,17.08875,62.0025,-24.52,4.336,-10.312,eccentric,4,3.0,17646.0,135616.0,222275.0,274152.0,258895.0
2026-04-08 21:42:38.264646,160142,1609503730496325,1330462492,0.99552,-0.294752,0.191296,18.8125,16.7475,64.02375,-24.52,4.336,-10.312,eccentric,4,3.0,17646.0,135616.0,222275.0,274152.0,258895.0
2026-04-08 21:42:38.267158,160143,1609503730505257,1330471160,0.962336,-0.320128,0.0488,21.34125,15.925,65.975,-24.416,4.736,-9.808001,eccentric,4,3.0,17646.0,135616.0,222275.0,274152.0,258895.0
2026-04-08 21:42:38.273681,160144,1609503730519790,1330486050,1.022848,-0.32208,0.03904,20.545,14.00875,63.98875,-24.832,5.464,-8.416,eccentric,4,3.0,17646.0,135616.0,222275.0,274152.0,258895.0
2026-04-08 21:42:38.303360,160145,1609503730528700,1330494707,1.022848,-0.32208,0.03904,20.74625,15.54875,60.15625,-24.832,5.464,-8.416,eccentric,4,3.0,17646.0,135616.0,222275.0,274152.0,258895.0
2026-04-08 21:42:38.404515,160156,1609503730543384,1330509780,1.057984,-0.320128,0.066368,22.93375,17.47375,58.49375,-24.656002,5.8,-9.328,eccentric,4,3.0,17713.0,135710.0,222350.0,274167.0,258864.0
2026-04-08 21:42:38.407020,160157,1609503730552314,1330518450,1.057984,-0.320128,0.066368,22.2075,19.6,57.260002,-24.656002,5.8,-9.328,eccentric,4,3.0,17713.0,135710.0,222350.0,274167.0,258864.0
2026-04-08 21:42:38.409579,160158,1609503730566948,1330533390,1.016992,-0.320128,0.206912,19.10125,21.428751,55.291252,-25.144001,6.376,-8.168,eccentric,4,3.0,17713.0,135710.0,222350.0,274167.0,258864.0
2026-04-08 21:42:38.413390,160159,1609503730575882,1330542054,1.016992,-0.320128,0.206912,14.8925,21.55125,53.795002,-25.144001,6.376,-8.168,eccentric,4,3.0,17713.0,135710.0,222350.0,274167.0,258864.0
2026-04-08 21:42:38.414616,160160,1609503730584777,1330550706,1.04432,-0.37088,0.189344,11.8125,21.90125,51.2225,-25.080002,6.432,-8.728001,eccentric,4,3.0,17713.0,135710.0,222350.0,274167.0,258864.0
2026-04-08 21:42:38.417179,160161,1609503730599263,1330565607,1.04432,-0.37088,0.154208,10.92,22.47875,48.7375,-25.080002,6.432,-8.728001,eccentric,4,3.0,17713.0,135710.0,222350.0,274167.0,258864.0
2026-04-08 21:42:38.419556,160162,1609503730608191,1330574268,1.065792,-0.335744,0.154208,9.2575,21.18375,48.18625,-24.944,6.992,-9.056001,eccentric,4,3.0,17713.0,135710.0,222350.0,274167.0,258864.0
2026-04-08 21:42:38.421976,160163,1609503730622677,1330589130,0.983808,-0.310368,0.16592,11.40125,20.90375,43.4875,-25.36,7.104001,-8.144,eccentric,4,3.0,17713.0,135710.0,222350.0,274167.0,258864.0
2026-04-08 21:42:38.453194,160174,1609503730631594,1330597809,0.983808,-0.310368,0.16592,13.9475,20.30875,41.22125,-25.36,7.104001,-8.144,eccentric,4,3.0,17573.0,135431.0,222268.0,274321.0,259107.0
2026-04-08 21:42:38.457474,160175,1609503730646148,1330612728,0.954528,-0.329888,0.083936,14.25375,19.10125,42.11375,-25.560001,8.112,-6.656,eccentric,4,3.0,17573.0,135431.0,222268.0,274321.0,259107.0
2026-04-08 21:42:38.459197,160176,1609503730655107,1330621446,0.954528,-0.329888,0.083936,16.1525,17.5,41.27375,-25.560001,8.112,-6.656,eccentric,4,3.0,17573.0,135431.0,222268.0,274321.0,259107.0
2026-04-08 21:42:38.460710,160177,1609503730664200,1330630165,0.85888,-0.335744,0.031232,13.405,15.0675,40.13625,-25.264002,8.072001,-6.912,eccentric,4,3.0,17573.0,135431.0,222268.0,274321.0,259107.0
2026-04-08 21:42:38.465244,160178,1609503730678831,1330645024,0.85888,-0.335744,0.031232,11.1475,13.30875,37.695,-25.264002,8.072001,-6.912,eccentric,4,3.0,17573.0,135431.0,222268.0,274321.0,259107.0
2026-04-08 21:42:38.466777,160179,1609503730687784,1330653694,0.892064,-0.298656,0.144448,8.89,12.18,36.23375,-25.272001,8.336,-5.008,eccentric,4,3.0,17573.0,135431.0,222268.0,274321.0,259107.0
2026-04-08 21:42:38.469163,160180,1609503730702361,1330668570,0.880352,-0.28304,0.109312,3.36,11.34875,35.4725,-25.464,8.976001,-4.824,eccentric,4,3.0,17573.0,135431.0,222268.0,274321.0,259107.0
2026-04-08 21:42:38.470618,160181,1609503730711336,1330677282,0.880352,-0.28304,0.109312,-3.15875,11.34875,32.89125,-25.464,8.976001,-4.824,eccentric,4,3.0,17573.0,135431.0,222268.0,274321.0,259107.0
2026-04-08 21:42:38.474778,160182,1609503730720391,1330686005,0.880352,-0.365024,0.115168,-8.65375,11.80375,30.2225,-25.464,8.976001,-4.824,eccentric,4,3.0,17573.0,135431.0,222268.0,274321.0,259107.0
2026-04-08 21:42:38.533687,160193,1609503730735283,1330701019,0.952576,-0.365024,0.115168,-10.71875,12.80125,27.02875,-25.928001,9.072001,-5.520001,eccentric,4,3.0,17515.0,135312.0,222222.0,274365.0,259202.0
2026-04-08 21:42:38.535447,160194,1609503730744262,1330709775,0.95648,-0.357216,0.21472,-9.75625,13.09,22.82,-25.416,9.056001,-6.376,eccentric,4,3.0,17515.0,135312.0,222222.0,274365.0,259202.0
2026-04-08 21:42:38.536945,160195,1609503730759167,1330724668,0.95648,-0.357216,0.21472,-10.71,12.573751,19.678751,-25.416,9.056001,-6.376,eccentric,4,3.0,17515.0,135312.0,222222.0,274365.0,259202.0
2026-04-08 21:42:38.541164,160196,1609503730768484,1330735369,0.942816,-0.329888,0.138592,-10.64875,11.1125,18.4275,-25.744001,9.376,-6.4,eccentric,4,3.0,17515.0,135312.0,222222.0,274365.0,259202.0
2026-04-08 21:42:38.542912,160197,1609503730777444,1330744089,0.942816,-0.329888,0.138592,-10.57875,9.065,17.4475,-25.744001,9.376,-6.4,eccentric,4,3.0,17515.0,135312.0,222222.0,274365.0,259202.0
2026-04-08 21:42:38.545275,160198,1609503730791940,1330758958,0.856928,-0.32208,0.119072,-7.6475,7.3325,15.42625,-25.752,9.472,-5.112001,eccentric,4,3.0,17515.0,135312.0,222222.0,274365.0,259202.0
2026-04-08 21:42:38.575863,160199,1609503730800871,1330767662,0.856928,-0.324032,0.247904,-6.36125,5.0575,15.07625,-25.752,9.472,-5.112001,eccentric,4,3.0,17515.0,135312.0,222222.0,274365.0,259202.0
2026-04-08 21:42:38.579491,160200,1609503730815348,1330780483,0.9272,-0.324032,0.247904,-6.3525,2.2575,15.1375,-26.144001,9.64,-5.968,eccentric,4,3.0,17515.0,135312.0,222222.0,274365.0,259202.0
2026-04-08 21:42:38.580873,160201,1609503730824452,1330791230,0.880352,-0.32208,0.17568,-3.22875,0.30625,14.2275,-25.720001,9.856001,-6.12,eccentric,4,3.0,17515.0,135312.0,222222.0,274365.0,259202.0
2026-04-08 21:42:38.612724,160212,1609503730833864,1330799933,0.880352,-0.32208,0.17568,-0.04375,-1.295,14.8575,-25.720001,9.856001,-6.12,eccentric,4,3.0,17438.0,135149.0,222160.0,274384.0,259285.0
2026-04-08 21:42:38.647054,160213,1609503730848436,1330814888,0.854976,-0.33184,0.044896,-0.25375,-2.695,15.0675,-25.744001,9.552,-5.92,eccentric,4,3.0,17438.0,135149.0,222160.0,274384.0,259285.0
2026-04-08 21:42:38.651328,160214,1609503730857381,1330823579,0.854976,-0.33184,0.044896,-3.22875,-4.76875,14.323751,-25.744001,9.552,-5.92,eccentric,4,3.0,17438.0,135149.0,222160.0,274384.0,259285.0
2026-04-08 21:42:38.653042,160215,1609503730871832,1330838474,0.915488,-0.349408,0.197152,-5.46,-5.48625,12.03125,-25.920002,10.112,-5.736,eccentric,4,3.0,17438.0,135149.0,222160.0,274384.0,259285.0
2026-04-08 21:42:38.654498,160216,1609503730880768,1330847135,0.915488,-0.349408,0.197152,-5.64375,-5.6175,10.4825,-25.920002,10.112,-5.736,eccentric,4,3.0,17438.0,135149.0,222160.0,274384.0,259285.0
2026-04-08 21:42:38.658841,160217,1609503730889689,1330855855,0.872544,-0.347456,0.130784,-5.83625,-5.9325,11.03375,-25.832,9.976001,-5.912,eccentric,4,3.0,17438.0,135149.0,222160.0,274384.0,259285.0
2026-04-08 21:42:38.660386,160218,1609503730904175,1330870753,0.925248,-0.3904,0.169824,-7.7875,-5.7925,10.167501,-25.968,9.792001,-5.144,eccentric,4,3.0,17438.0,135149.0,222160.0,274384.0,259285.0
2026-04-08 21:42:38.667861,160219,1609503730913107,1330879427,0.925248,-0.3904,0.169824,-9.695,-5.7575,8.54875,-25.968,9.792001,-5.144,eccentric,4,3.0,17438.0,135149.0,222160.0,274384.0,259285.0
2026-04-08 21:42:38.699353,160220,1609503730927695,1330894303,0.874496,-0.396256,0.122976,-12.34625,-6.48375,7.8575,-26.024002,10.152,-6.208,eccentric,4,3.0,17438.0,135149.0,222160.0,274384.0,259285.0
2026-04-08 21:42:38.734397,160231,1609503730937171,1330903207,0.874496,-0.396256,0.122976,-16.415,-6.9475,7.23625,-26.024002,10.152,-6.208,eccentric,4,3.0,17369.0,134814.0,221701.0,273947.0,258952.0
2026-04-08 21:42:38.735840,160232,1609503730951717,1330918066,0.864736,-0.41968,0.222528,-18.12125,-6.72,6.4925,-25.584002,10.240001,-6.288,eccentric,4,3.0,17369.0,134814.0,221701.0,273947.0,258952.0
2026-04-08 21:42:38.740091,160233,1609503730960632,1330926740,0.864736,-0.41968,0.222528,-16.56375,-6.1425,4.33125,-25.584002,10.240001,-6.288,eccentric,4,3.0,17369.0,134814.0,221701.0,273947.0,258952.0
2026-04-08 21:42:38.741704,160234,1609503730969637,1330935433,0.825696,-0.421632,0.247904,-14.9275,-6.57125,3.05375,-25.752,9.944,-5.904,eccentric,4,3.0,17369.0,134814.0,221701.0,273947.0,258952.0
2026-04-08 21:42:38.743433,160235,1609503730984099,1330950359,0.784704,-0.447008,0.085888,-13.4225,-7.315,1.32125,-25.816002,10.592001,-7.448,eccentric,4,3.0,17369.0,134814.0,221701.0,273947.0,258952.0
2026-04-08 21:42:38.747477,160236,1609503730993042,1330959032,0.784704,-0.447008,0.085888,-11.305,-7.8575,-2.8175,-25.816002,10.592001,-7.448,eccentric,4,3.0,17369.0,134814.0,221701.0,273947.0,258952.0
2026-04-08 21:42:38.776176,160237,1609503731007518,1330973885,0.75152,-0.423584,0.083936,-9.56375,-7.9975,-6.67625,-25.576002,10.208,-6.488,eccentric,4,3.0,17369.0,134814.0,221701.0,273947.0,258952.0
2026-04-08 21:42:38.780266,160238,1609503731016413,1330982546,0.75152,-0.423584,0.083936,-9.065,-7.76125,-8.53125,-25.576002,10.208,-6.488,eccentric,4,3.0,17369.0,134814.0,221701.0,273947.0,258952.0
2026-04-08 21:42:38.783121,160239,1609503731030943,1330997496,0.85888,-0.443104,0.27328,-10.29875,-7.86625,-10.47375,-25.728,9.912001,-6.784,eccentric,4,3.0,17369.0,134814.0,221701.0,273947.0,258952.0
2026-04-08 21:42:38.812805,160250,1609503731040028,1331006312,0.85888,-0.443104,0.27328,-11.1125,-7.9275,-12.45125,-25.728,9.912001,-6.784,eccentric,4,3.0,17325.0,134463.0,221154.0,273502.0,258654.0
2026-04-08 21:42:38.814239,160251,1609503731049014,1331015038,0.827648,-0.44896,0.244,-10.70125,-7.63875,-14.70875,-25.920002,10.040001,-4.92,eccentric,4,3.0,17325.0,134463.0,221154.0,273502.0,258654.0
2026-04-08 21:42:38.815839,160252,1609503731063533,1331029976,0.81008,-0.42944,0.277184,-10.115,-7.63,-16.2225,-26.192001,9.744,-5.272,eccentric,4,3.0,17325.0,134463.0,221154.0,273502.0,258654.0
2026-04-08 21:42:38.846788,160253,1609503731072507,1331038704,0.81008,-0.42944,0.277184,-9.073751,-7.88375,-17.82375,-26.192001,9.744,-5.272,concentric,4,3.0,17325.0,134463.0,221154.0,273502.0,258654.0
2026-04-08 21:42:38.850530,160254,1609503731086989,1331053536,0.804224,-0.435296,0.28304,-8.61,-8.02375,-19.87125,-26.000002,9.136001,-7.504,concentric,4,3.0,17325.0,134463.0,221154.0,273502.0,258654.0
2026-04-08 21:42:38.852270,160255,1609503731095915,1331062190,0.804224,-0.435296,0.28304,-9.24,-8.6625,-22.33875,-26.000002,9.136001,-7.504,concentric,4,3.0,17325.0,134463.0,221154.0,273502.0,258654.0
2026-04-08 21:42:38.856972,160256,1609503731104888,1331070922,0.841312,-0.489952,0.1464,-10.77125,-8.98625,-23.87,-25.920002,9.112,-7.2,concentric,4,3.0,17325.0,134463.0,221154.0,273502.0,258654.0
2026-04-08 21:42:38.887282,160257,1609503731119372,1331085801,0.841312,-0.489952,0.1464,-10.54375,-8.68875,-25.48875,-25.920002,9.112,-7.2,concentric,4,3.0,17325.0,134463.0,221154.0,273502.0,258654.0
2026-04-08 21:42:38.890704,160258,1609503731128275,1331094455,0.837408,-0.480192,0.212768,-10.6225,-8.26875,-27.055,-26.064001,8.552,-7.480001,concentric,4,3.0,17325.0,134463.0,221154.0,273502.0,258654.0
2026-04-08 21:42:38.955719,160269,1609503731142757,1331109353,0.837408,-0.480192,0.259616,-10.185,-8.26,-28.945,-26.064001,8.552,-7.480001,concentric,4,3.0,17317.0,134489.0,221207.0,273506.0,258687.0
2026-04-08 21:42:38.958205,160270,1609503731151736,1331118082,0.81008,-0.456768,0.257664,-10.6925,-8.636251,-30.44125,-26.448002,8.552,-6.616,concentric,4,3.0,17317.0,134489.0,221207.0,273506.0,258687.0
2026-04-08 21:42:38.960705,160271,1609503731166338,1331132962,0.847168,-0.519232,0.181536,-12.06625,-9.345,-31.8675,-25.800001,8.304001,-7.496,concentric,4,3.0,17317.0,134489.0,221207.0,273506.0,258687.0
2026-04-08 21:42:38.963231,160272,1609503731175298,1331141630,0.847168,-0.519232,0.181536,-11.41875,-9.66875,-33.8625,-25.800001,8.304001,-7.496,concentric,4,3.0,17317.0,134489.0,221207.0,273506.0,258687.0
2026-04-08 21:42:38.965634,160273,1609503731184219,1331150306,0.821792,-0.521184,0.03904,-11.57625,-9.93125,-35.90125,-26.400002,8.400001,-8.232,concentric,4,3.0,17317.0,134489.0,221207.0,273506.0,258687.0
2026-04-08 21:42:38.968137,160274,1609503731198682,1331165223,0.821792,-0.521184,0.03904,-11.55,-9.7475,-37.135,-26.400002,8.400001,-8.232,concentric,4,3.0,17317.0,134489.0,221207.0,273506.0,258687.0
2026-04-08 21:42:38.970667,160275,1609503731207610,1331173906,0.77104,-0.462624,0.103456,-13.4225,-9.37125,-37.65125,-26.448002,7.16,-7.920001,concentric,4,3.0,17317.0,134489.0,221207.0,273506.0,258687.0
2026-04-08 21:42:38.974418,160276,1609503731222116,1331188812,0.77104,-0.462624,0.103456,-15.155,-9.8175,-39.27875,-26.448002,7.16,-7.920001,concentric,4,3.0,17317.0,134489.0,221207.0,273506.0,258687.0
2026-04-08 21:42:39.005737,160277,1609503731231046,1331197511,0.749568,-0.452864,0.111264,-14.81375,-9.84375,-39.10375,-26.424002,7.216001,-5.712,concentric,4,3.0,17317.0,134489.0,221207.0,273506.0,258687.0
2026-04-08 21:42:39.033130,160288,1609503731245678,1331212442,0.788608,-0.505568,0.033184,-15.33,-10.7275,-38.482502,-26.848001,6.72,-9.584001,concentric,4,3.0,17263.0,134267.0,220990.0,273404.0,258651.0
2026-04-08 21:42:39.035702,160289,1609503731254621,1331221101,0.788608,-0.505568,0.033184,-12.80125,-10.29875,-39.68125,-26.848001,6.72,-9.584001,concentric,4,3.0,17263.0,134267.0,220990.0,273404.0,258651.0
2026-04-08 21:42:39.038138,160290,1609503731263561,1331229771,0.788608,-0.505568,0.220576,-8.93375,-10.33375,-41.16875,-26.848001,6.72,-9.584001,concentric,4,3.0,17263.0,134267.0,220990.0,273404.0,258651.0
2026-04-08 21:42:39.040646,160291,1609503731278133,1331244723,0.79056,-0.443104,0.218624,-6.46625,-10.63125,-41.72,-26.632002,6.512,-6.016,concentric,4,3.0,17263.0,134267.0,220990.0,273404.0,258651.0
2026-04-08 21:42:39.043140,160292,1609503731287076,1331253394,0.853024,-0.42944,0.279136,-1.61,-10.94625,-41.125,-26.864002,5.864,-8.416,concentric,4,3.0,17263.0,134267.0,220990.0,273404.0,258651.0
2026-04-08 21:42:39.073308,160293,1609503731301598,1331268295,0.853024,-0.42944,0.279136,1.07625,-10.87625,-38.8325,-26.864002,5.864,-8.416,concentric,4,3.0,17263.0,134267.0,220990.0,273404.0,258651.0
2026-04-08 21:42:39.076846,160294,1609503731310487,1331276970,0.833504,-0.411872,0.001952,-0.525,-10.823751,-35.805,-26.592001,5.992,-8.648001,concentric,4,3.0,17263.0,134267.0,220990.0,273404.0,258651.0
2026-04-08 21:42:39.079453,160295,1609503731324944,1331291827,0.874496,-0.376736,0.197152,-1.05,-9.7475,-34.4925,-26.328001,5.288,-8.784,concentric,4,3.0,17263.0,134267.0,220990.0,273404.0,258651.0
2026-04-08 21:42:39.109606,160296,1609503731333878,1331300497,0.874496,-0.376736,0.197152,-1.68875,-7.69125,-31.8325,-26.328001,5.288,-8.784,concentric,4,3.0,17263.0,134267.0,220990.0,273404.0,258651.0
2026-04-08 21:42:39.138177,160307,1609503731342837,1331309206,0.874496,-0.376736,0.197152,-3.70125,-5.76625,-29.015,-26.328001,5.288,-8.784,concentric,4,3.0,17241.0,134190.0,220979.0,273461.0,258721.0
2026-04-08 21:42:39.140732,160308,1609503731357341,1331324049,0.864736,-0.382592,0.085888,-8.14625,-4.62875,-26.95,-26.568,4.912,-9.144,concentric,4,3.0,17241.0,134190.0,220979.0,273461.0,258721.0
2026-04-08 21:42:39.143193,160309,1609503731366266,1331332802,0.882304,-0.359168,0.212768,-12.11,-4.06875,-25.08625,-26.688002,5.272,-8.096001,concentric,4,3.0,17241.0,134190.0,220979.0,273461.0,258721.0
2026-04-08 21:42:39.145737,160310,1609503731380900,1331347723,0.882304,-0.359168,0.212768,-13.02,-3.56125,-23.03875,-26.688002,5.272,-8.096001,concentric,4,3.0,17241.0,134190.0,220979.0,273461.0,258721.0
2026-04-08 21:42:39.149034,160311,1609503731389820,1331356388,0.8784,-0.376736,0.062464,-12.45125,-3.12375,-20.36125,-26.608002,5.088,-8.152,concentric,4,3.0,17241.0,134190.0,220979.0,273461.0,258721.0
2026-04-08 21:42:39.178383,160312,1609503731404348,1331371281,0.8784,-0.376736,0.062464,-11.08625,-2.52,-18.57625,-26.608002,5.088,-8.152,concentric,4,3.0,17241.0,134190.0,220979.0,273461.0,258721.0
2026-04-08 21:42:39.181996,160313,1609503731413260,1331379944,0.972096,-0.392352,0.023424,-9.8525,-2.0125,-16.555,-26.768002,4.792,-10.544001,concentric,4,3.0,17241.0,134190.0,220979.0,273461.0,258721.0
2026-04-08 21:42:39.184458,160314,1609503731422168,1331388641,0.972096,-0.392352,0.023424,-7.0,-2.19625,-14.63,-26.768002,4.792,-10.544001,concentric,4,3.0,17241.0,134190.0,220979.0,273461.0,258721.0
2026-04-08 21:42:39.247265,160325,1609503731437058,1331403542,0.911584,-0.333792,-0.021472,-3.08,-2.8,-12.565,-26.752,4.736,-9.136001,concentric,4,3.0,17227.0,134027.0,220681.0,273167.0,258509.0
2026-04-08 21:42:39.250676,160326,1609503731446133,1331412332,1.013088,-0.345504,0.042944,-0.09625,-3.78,-8.4875,-26.800001,4.96,-6.68,concentric,4,3.0,17227.0,134027.0,220681.0,273167.0,258509.0
2026-04-08 21:42:39.253105,160327,1609503731460661,1331427248,1.013088,-0.345504,0.042944,0.72625,-4.47125,-5.9325,-26.800001,4.96,-6.68,concentric,4,3.0,17227.0,134027.0,220681.0,273167.0,258509.0
2026-04-08 21:42:39.255887,160328,1609503731469582,1331435986,0.942816,-0.277184,0.130784,1.19875,-4.27875,-5.88,-26.616001,4.64,-8.6,concentric,4,3.0,17227.0,134027.0,220681.0,273167.0,258509.0
2026-04-08 21:42:39.258367,160329,1609503731478541,1331444655,0.942816,-0.277184,0.130784,3.325,-3.70125,-5.425,-26.616001,4.64,-8.6,concentric,4,3.0,17227.0,134027.0,220681.0,273167.0,258509.0
2026-04-08 21:42:39.264439,160330,1609503731492958,1331459542,0.944768,-0.261568,-0.056608,6.7025,-2.8875,-2.59,-26.208002,4.72,-7.288001,concentric,4,3.0,17227.0,134027.0,220681.0,273167.0,258509.0
2026-04-08 21:42:39.266891,160331,1609503731501854,1331468186,0.944768,-0.261568,-0.056608,7.84,-3.24625,1.2775,-26.208002,4.72,-7.288001,concentric,4,3.0,17227.0,134027.0,220681.0,273167.0,258509.0
2026-04-08 21:42:39.269454,160332,1609503731516350,1331483085,0.991616,-0.220576,0.16592,8.12,-4.38375,4.4625,-26.368002,4.976,-8.552,concentric,4,3.0,17227.0,134027.0,220681.0,273167.0,258509.0
2026-04-08 21:42:39.278390,160333,1609503731525368,1331491793,0.991616,-0.220576,0.16592,5.06625,-6.2475,5.13625,-26.368002,4.976,-8.552,concentric,4,3.0,17227.0,134027.0,220681.0,273167.0,258509.0
2026-04-08 21:42:39.334388,160344,1609503731540331,1331506855,1.036512,-0.236192,0.16592,2.24875,-8.68,3.07125,-25.888,5.208,-11.528001,concentric,4,3.0,17185.0,133803.0,220294.0,272819.0,258253.0
2026-04-08 21:42:39.337066,160345,1609503731549314,1331515507,1.020896,-0.228384,0.091744,4.69875,-9.94,0.95375,-25.432001,5.272,-10.144,concentric,4,3.0,17185.0,133803.0,220294.0,272819.0,258253.0
2026-04-08 21:42:39.339547,160346,1609503731558241,1331524201,1.020896,-0.228384,0.091744,10.7275,-11.38375,1.435,-25.432001,5.272,-10.144,concentric,4,3.0,17185.0,133803.0,220294.0,272819.0,258253.0
2026-04-08 21:42:39.342005,160347,1609503731572832,1331539121,1.0248,-0.228384,0.037088,13.67625,-13.34375,1.96875,-25.696001,5.312,-10.56,concentric,4,3.0,17185.0,133803.0,220294.0,272819.0,258253.0
2026-04-08 21:42:39.344523,160348,1609503731581767,1331547817,1.0248,-0.228384,0.037088,11.6025,-14.595,0.2975,-25.696001,5.312,-10.56,concentric,4,3.0,17185.0,133803.0,220294.0,272819.0,258253.0
2026-04-08 21:42:39.349407,160349,1609503731596279,1331562694,1.040416,-0.245952,0.01952,7.46375,-15.645,-4.50625,-25.488,5.424,-9.240001,concentric,4,3.0,17185.0,133803.0,220294.0,272819.0,258253.0
2026-04-08 21:42:39.379756,160350,1609503731605233,1331571417,1.040416,-0.245952,0.01952,5.3375,-16.26625,-9.56375,-25.488,5.424,-9.240001,concentric,4,3.0,17185.0,133803.0,220294.0,272819.0,258253.0
2026-04-08 21:42:39.383233,160351,1609503731619700,1331586276,1.042368,-0.21472,0.025376,4.89125,-17.955,-13.58,-25.352001,5.208,-10.136001,concentric,4,3.0,17185.0,133803.0,220294.0,272819.0,258253.0
2026-04-08 21:42:39.385979,160352,1609503731628598,1331594937,1.059936,-0.181536,0.111264,7.65625,-19.4425,-16.47625,-25.080002,5.2,-11.144,concentric,4,3.0,17185.0,133803.0,220294.0,272819.0,258253.0
2026-04-08 21:42:39.416912,160364,1609503731637522,1331603557,1.059936,-0.181536,0.111264,10.85,-20.3,-17.255,-25.080002,5.2,-11.144,concentric,4,3.0,17239.0,133901.0,220230.0,272631.0,258076.0
2026-04-08 21:42:39.419574,160365,1609503731652445,1331618494,1.046272,-0.220576,0.025376,11.27,-21.525,-20.58875,-24.976002,5.064,-10.168,concentric,4,3.0,17239.0,133901.0,220230.0,272631.0,258076.0
2026-04-08 21:42:39.422088,160366,1609503731661337,1331627246,1.046272,-0.220576,0.025376,9.98375,-23.5725,-23.44125,-24.976002,5.064,-10.168,concentric,4,3.0,17239.0,133901.0,220230.0,272631.0,258076.0
2026-04-08 21:42:39.452223,160367,1609503731675826,1331642166,1.001376,-0.20496,0.113216,7.76125,-26.6875,-24.38625,-24.776001,5.04,-10.744,concentric,4,3.0,17239.0,133901.0,220230.0,272631.0,258076.0
2026-04-08 21:42:39.455720,160368,1609503731684771,1331650880,1.001376,-0.20496,0.113216,6.615,-28.455,-26.915,-24.776001,5.04,-10.744,concentric,4,3.0,17239.0,133901.0,220230.0,272631.0,258076.0
2026-04-08 21:42:39.458279,160369,1609503731693632,1331659569,0.944768,-0.20496,-0.121024,6.18625,-29.9775,-30.26625,-24.256,4.92,-10.112,concentric,4,3.0,17239.0,133901.0,220230.0,272631.0,258076.0
2026-04-08 21:42:39.460771,160370,1609503731708117,1331674434,1.057984,-0.240096,-0.027328,4.3225,-32.12125,-34.97375,-24.232,4.504,-11.296001,concentric,4,3.0,17239.0,133901.0,220230.0,272631.0,258076.0
2026-04-08 21:42:39.469659,160371,1609503731717142,1331683160,1.057984,-0.240096,-0.027328,1.96,-33.4425,-40.0925,-24.232,4.504,-11.296001,concentric,4,3.0,17239.0,133901.0,220230.0,272631.0,258076.0
2026-04-08 21:42:39.499845,160372,1609503731731623,1331698015,1.09312,-0.245952,0.025376,2.8875,-34.1775,-46.52375,-23.696001,4.336,-12.544001,concentric,4,3.0,17239.0,133901.0,220230.0,272631.0,258076.0
2026-04-08 21:42:39.565407,160383,1609503731740683,1331706744,1.09312,-0.245952,0.025376,7.35,-34.685,-52.03625,-23.696001,4.336,-12.544001,concentric,4,3.0,17333.0,134052.0,220139.0,272352.0,257755.0
2026-04-08 21:42:39.567832,160384,1609503731755227,1331721653,1.075552,-0.201056,0.103456,9.0475,-35.21875,-55.2125,-23.728,3.88,-13.000001,concentric,4,3.0,17333.0,134052.0,220139.0,272352.0,257755.0
2026-04-08 21:42:39.569401,160385,1609503731764172,1331730371,1.075552,-0.201056,0.103456,7.1225,-35.7175,-58.388752,-23.728,3.88,-13.000001,concentric,4,3.0,17333.0,134052.0,220139.0,272352.0,257755.0
2026-04-08 21:42:39.573701,160386,1609503731773164,1331739053,1.00528,-0.199104,-0.119072,4.22625,-36.3125,-62.22125,-23.024,3.424,-12.856001,concentric,4,3.0,17333.0,134052.0,220139.0,272352.0,257755.0
2026-04-08 21:42:39.575674,160387,1609503731787622,1331753900,1.06384,-0.21472,-0.06832,-0.2625,-37.9925,-66.535,-23.024,3.424,-15.824,concentric,4,3.0,17333.0,134052.0,220139.0,272352.0,257755.0
2026-04-08 21:42:39.577169,160388,1609503731796581,1331762577,1.06384,-0.21472,-0.06832,-2.835,-38.395,-70.81375,-23.144001,2.784,-15.824,concentric,4,3.0,17333.0,134052.0,220139.0,272352.0,257755.0
2026-04-08 21:42:39.581244,160389,1609503731811077,1331777444,1.114592,-0.201056,0.13664,-1.61,-37.79125,-74.24375,-22.928001,2.848,-14.272,concentric,4,3.0,17333.0,134052.0,220139.0,272352.0,257755.0
2026-04-08 21:42:39.583675,160390,1609503731819993,1331786169,1.114592,-0.201056,0.13664,1.98625,-37.205,-76.2125,-22.928001,2.848,-14.272,concentric,4,3.0,17333.0,134052.0,220139.0,272352.0,257755.0
2026-04-08 21:42:39.588612,160391,1609503731834495,1331801058,1.081408,-0.18544,0.138592,3.2725,-37.66,-78.07625,-22.336,1.904,-15.120001,concentric,4,3.0,17333.0,134052.0,220139.0,272352.0,257755.0
2026-04-08 21:42:39.614737,160402,1609503731843507,1331809787,1.081408,-0.18544,0.138592,0.13125,-38.56125,-80.85,-22.336,1.904,-15.120001,concentric,4,3.0,17441.0,134309.0,220188.0,272274.0,257604.0
2026-04-08 21:42:39.649798,160403,1609503731852492,1331818495,1.179008,-0.17568,0.021472,-2.80875,-37.3625,-84.55125,-22.28,1.568,-14.856001,concentric,4,3.0,17441.0,134309.0,220188.0,272274.0,257604.0
2026-04-08 21:42:39.653193,160404,1609503731867029,1331833453,1.179008,-0.17568,0.021472,-2.26625,-35.14,-88.15625,-22.28,1.568,-14.856001,concentric,4,3.0,17441.0,134309.0,220188.0,272274.0,257604.0
2026-04-08 21:42:39.655809,160405,1609503731875970,1331842197,1.124352,-0.134688,-0.115168,-3.42125,-32.7775,-90.37,-21.792002,0.872,-11.920001,concentric,4,3.0,17441.0,134309.0,220188.0,272274.0,257604.0
2026-04-08 21:42:39.658159,160406,1609503731890441,1331857064,1.149728,-0.138592,0.1464,-6.3,-30.33625,-91.70875,-21.352001,0.32,-15.768001,concentric,4,3.0,17441.0,134309.0,220188.0,272274.0,257604.0
2026-04-08 21:42:39.663160,160407,1609503731899346,1331865726,1.149728,-0.138592,0.1464,-8.645,-28.97125,-91.51625,-21.352001,0.32,-15.768001,concentric,4,3.0,17441.0,134309.0,220188.0,272274.0,257604.0
2026-04-08 21:42:39.669743,160408,1609503731913870,1331880654,1.126304,-0.177632,0.1464,-11.4625,-27.5625,-90.308754,-21.256,-0.168,-15.336,concentric,4,3.0,17441.0,134309.0,220188.0,272274.0,257604.0
2026-04-08 21:42:39.699803,160409,1609503731922777,1331889298,1.126304,-0.177632,0.1464,-12.64375,-27.06375,-90.67625,-21.256,-0.168,-15.336,concentric,4,3.0,17441.0,134309.0,220188.0,272274.0,257604.0
2026-04-08 21:42:39.703270,160410,1609503731931673,1331897988,1.042368,-0.121024,0.011712,-12.43375,-26.6525,-94.85875,-21.032001,-0.624,-16.6,concentric,4,3.0,17441.0,134309.0,220188.0,272274.0,257604.0
2026-04-08 21:42:39.738642,160421,1609503731946244,1331913153,1.042368,-0.121024,0.011712,-11.87375,-24.710001,-99.60125,-21.032001,-0.624,-16.6,concentric,4,3.0,17542.0,134518.0,220257.0,272224.0,257485.0
2026-04-08 21:42:39.738751,160422,1609503731955250,1331921823,1.100928,-0.03904,0.070272,-11.85625,-21.84875,-100.86125,-20.432001,-1.4,-16.072,concentric,4,3.0,17542.0,134518.0,220257.0,272224.0,257485.0
2026-04-08 21:42:39.738791,160423,1609503731969789,1331936726,1.077504,-0.103456,0.111264,-12.95,-18.40125,-100.14375,-19.896002,-2.296,-17.552,concentric,4,3.0,17542.0,134518.0,220257.0,272224.0,257485.0
2026-04-08 21:42:39.738826,160424,1609503731978714,1331945425,1.077504,-0.103456,0.111264,-16.345,-16.82625,-97.27375,-19.896002,-2.296,-17.552,concentric,4,3.0,17542.0,134518.0,220257.0,272224.0,257485.0
2026-04-08 21:42:39.768851,160425,1609503731993218,1331960343,1.089216,-0.16592,0.0488,-19.25,-18.795,-94.246254,-19.992,-2.896,-16.992,concentric,4,3.0,17542.0,134518.0,220257.0,272224.0,257485.0
2026-04-08 21:42:39.775943,160426,1609503732002184,1331968996,1.089216,-0.16592,0.0488,-21.62125,-21.84,-95.76,-19.992,-2.896,-16.992,concentric,4,3.0,17542.0,134518.0,220257.0,272224.0,257485.0
2026-04-08 21:42:39.778465,160427,1609503732011090,1331977644,1.048224,-0.101504,0.040992,-17.57875,-23.0475,-100.152504,-19.232,-3.096,-17.528002,concentric,4,3.0,17542.0,134518.0,220257.0,272224.0,257485.0
2026-04-08 21:42:39.780963,160428,1609503732025532,1331992502,1.048224,-0.101504,0.040992,-7.90125,-21.35875,-101.5875,-19.232,-3.096,-17.528002,concentric,4,3.0,17542.0,134518.0,220257.0,272224.0,257485.0
2026-04-08 21:42:39.787173,160429,1609503732034470,1332001217,1.026752,-0.003904,-0.023424,-0.39375,-18.9875,-97.86875,-18.640001,-3.8,-17.312,concentric,4,3.0,17542.0,134518.0,220257.0,272224.0,257485.0
2026-04-08 21:42:39.854574,160440,1609503732049242,1332016178,1.089216,0.03904,0.005856,-0.7525,-16.31875,-91.805,-18.640001,-3.8,-16.0,concentric,4,3.0,17610.0,134865.0,220727.0,272619.0,257798.0
2026-04-08 21:42:39.857063,160441,1609503732058191,1332024885,1.077504,0.03904,0.005856,-5.97625,-13.0375,-88.8825,-18.408,-3.96,-16.0,concentric,4,3.0,17610.0,134865.0,220727.0,272619.0,257798.0
2026-04-08 21:42:39.859903,160442,1609503732067182,1332033542,1.077504,0.03904,0.005856,-13.50125,-10.9725,-88.73375,-18.408,-3.96,-16.0,concentric,4,3.0,17610.0,134865.0,220727.0,272619.0,257798.0
2026-04-08 21:42:39.862112,160443,1609503732081660,1332048395,1.0248,0.0488,-0.056608,-20.125,-9.8875,-88.5675,-17.976002,-4.872,-17.84,concentric,4,3.0,17610.0,134865.0,220727.0,272619.0,257798.0
2026-04-08 21:42:39.866452,160444,1609503732090636,1332057061,0.884256,0.064416,-0.025376,-23.35375,-8.925,-86.56375,-17.616001,-5.256,-15.112,concentric,4,3.0,17610.0,134865.0,220727.0,272619.0,257798.0
2026-04-08 21:42:39.867141,160445,1609503732105099,1332071934,0.884256,0.064416,-0.025376,-23.8175,-10.2025,-80.08875,-17.616001,-5.256,-15.112,concentric,4,3.0,17610.0,134865.0,220727.0,272619.0,257798.0
2026-04-08 21:42:39.869542,160446,1609503732114019,1332080621,0.884256,0.0488,0.027328,-21.7525,-10.01875,-71.89875,-17.368,-5.6,-16.984001,concentric,4,3.0,17610.0,134865.0,220727.0,272619.0,257798.0
2026-04-08 21:42:39.899770,160447,1609503732128529,1332095525,0.884256,0.0488,0.027328,-17.928751,-9.905,-66.8325,-17.368,-5.6,-16.984001,concentric,4,3.0,17610.0,134865.0,220727.0,272619.0,257798.0
2026-04-08 21:42:39.903346,160448,1609503732137459,1332104211,0.935008,-0.033184,-0.30256,-25.22625,-10.85,-67.75125,-16.968,-5.616,-18.216002,concentric,4,3.0,17610.0,134865.0,220727.0,272619.0,257798.0
2026-04-08 21:42:39.930884,160459,1609503732146500,1332112965,0.935008,-0.033184,-0.30256,-32.29625,-9.00375,-72.66,-16.968,-5.616,-18.216002,concentric,4,3.0,17606.0,134883.0,220755.0,272724.0,257936.0
2026-04-08 21:42:39.933250,160460,1609503732161038,1332127866,0.886208,0.08784,-0.115168,-31.99875,-4.9525,-72.16125,-16.68,-6.264,-17.880001,concentric,4,3.0,17606.0,134883.0,220755.0,272724.0,257936.0
2026-04-08 21:42:39.935740,160461,1609503732170051,1332136596,0.794464,0.162016,-0.300608,-29.84625,-1.40875,-65.84375,-16.68,-6.264,-17.088001,concentric,4,3.0,17606.0,134883.0,220755.0,272724.0,257936.0
2026-04-08 21:42:39.938227,160462,1609503732184534,1332151506,0.794464,0.162016,-0.300608,-26.69625,4.55875,-59.2025,-16.544,-6.584,-17.088001,concentric,4,3.0,17606.0,134883.0,220755.0,272724.0,257936.0
2026-04-08 21:42:39.969450,160463,1609503732193484,1332160213,0.845216,0.099552,-0.074176,-29.085001,8.68875,-51.45875,-16.368,-6.984,-16.464,concentric,4,3.0,17606.0,134883.0,220755.0,272724.0,257936.0
2026-04-08 21:42:39.973855,160464,1609503732207961,1332175088,0.845216,0.099552,-0.074176,-43.46125,7.7525,-45.22,-16.368,-6.984,-16.464,concentric,4,3.0,17606.0,134883.0,220755.0,272724.0,257936.0
2026-04-08 21:42:39.976204,160465,1609503732216903,1332183751,0.880352,0.02928,-0.08784,-57.3125,6.85125,-47.69625,-16.032001,-7.408001,-17.552,concentric,4,3.0,17606.0,134883.0,220755.0,272724.0,257936.0
2026-04-08 21:42:39.982430,160466,1609503732225849,1332192433,0.880352,0.02928,-0.08784,-51.98375,8.4,-52.35125,-16.032001,-7.408001,-17.552,concentric,4,3.0,17606.0,134883.0,220755.0,272724.0,257936.0
2026-04-08 21:42:40.051786,160477,1609503732240357,1332207341,0.860832,0.16592,-0.121024,-39.8825,8.925,-45.31625,-16.44,-7.552001,-17.768002,concentric,4,3.0,17579.0,134997.0,220981.0,273073.0,258273.0
2026-04-08 21:42:40.053253,160478,1609503732249805,1332216076,0.860832,0.16592,-0.121024,-28.48125,11.31375,-33.52125,-16.44,-7.552001,-17.768002,concentric,4,3.0,17579.0,134997.0,220981.0,273073.0,258273.0
2026-04-08 21:42:40.055678,160479,1609503732264266,1332231004,0.651968,0.242048,-0.080032,-19.3375,14.175,-25.8475,-16.488,-7.400001,-16.36,concentric,4,3.0,17579.0,134997.0,220981.0,273073.0,258273.0
2026-04-08 21:42:40.058394,160480,1609503732273186,1332239728,0.694912,0.148352,0.130784,-29.925,12.32,-24.15,-15.768001,-7.992001,-17.560001,concentric,4,3.0,17579.0,134997.0,220981.0,273073.0,258273.0
2026-04-08 21:42:40.064482,160481,1609503732282134,1332248402,0.694912,0.148352,0.130784,-48.475,7.8575,-28.90125,-15.768001,-7.992001,-17.560001,concentric,4,3.0,17579.0,134997.0,220981.0,273073.0,258273.0
2026-04-08 21:42:40.067029,160482,1609503732296602,1332263319,0.599264,0.11712,-0.099552,-54.0225,4.2175,-34.01125,-15.840001,-8.184,-16.632,concentric,4,3.0,17579.0,134997.0,220981.0,273073.0,258273.0
2026-04-08 21:42:40.069412,160483,1609503732305499,1332272037,0.599264,0.11712,-0.099552,-40.7575,-0.805,-30.47625,-15.840001,-8.184,-16.632,concentric,4,3.0,17579.0,134997.0,220981.0,273073.0,258273.0
2026-04-08 21:42:40.073191,160484,1609503732320040,1332286901,0.482144,0.23424,0.007808,-22.44375,-1.88125,-21.595,-15.832001,-8.120001,-17.328001,concentric,4,3.0,17579.0,134997.0,220981.0,273073.0,258273.0
2026-04-08 21:42:40.103504,160485,1609503732328989,1332295583,0.482144,0.23424,0.007808,-5.60875,-2.54625,-14.81375,-15.832001,-8.120001,-17.328001,concentric,4,3.0,17579.0,134997.0,220981.0,273073.0,258273.0
2026-04-08 21:42:40.164446,160496,1609503732343789,1332310670,0.511424,0.171776,-0.062464,-5.145,-3.26375,-13.34375,-15.664001,-8.272,-18.216002,concentric,4,3.0,17481.0,134922.0,221076.0,273275.0,258515.0
2026-04-08 21:42:40.166938,160497,1609503732352774,1332319330,0.56608,0.240096,0.0488,-17.2025,-2.65125,-19.62625,-15.792001,-8.624001,-17.344002,concentric,4,3.0,17481.0,134922.0,221076.0,273275.0,258515.0
2026-04-08 21:42:40.169435,160498,1609503732361696,1332328120,0.56608,0.240096,0.0488,-28.07,-1.4875,-24.22875,-15.792001,-8.624001,-17.344002,concentric,4,3.0,17481.0,134922.0,221076.0,273275.0,258515.0
2026-04-08 21:42:40.171948,160499,1609503732376159,1332343027,0.482144,0.284992,0.011712,-33.99375,0.56875,-23.8875,-15.288001,-8.816,-17.448,concentric,4,3.0,17481.0,134922.0,221076.0,273275.0,258515.0
2026-04-08 21:42:40.174424,160500,1609503732385061,1332351678,0.482144,0.284992,0.011712,-34.58,-0.805,-15.505,-15.288001,-8.816,-17.448,concentric,4,3.0,17481.0,134922.0,221076.0,273275.0,258515.0
2026-04-08 21:42:40.176939,160501,1609503732399573,1332366628,0.427488,0.1952,0.03904,-32.76875,-2.65125,-7.55125,-15.432001,-9.240001,-17.752,concentric,4,3.0,17481.0,134922.0,221076.0,273275.0,258515.0
2026-04-08 21:42:40.179444,160502,1609503732408536,1332375331,0.427488,0.1952,0.03904,-26.29375,-4.41875,-6.0375,-15.432001,-9.240001,-17.752,concentric,4,3.0,17481.0,134922.0,221076.0,273275.0,258515.0
2026-04-08 21:42:40.182008,160503,1609503732423052,1332388219,0.472384,0.206912,0.083936,-23.975,-4.12125,-7.42875,-15.56,-9.088,-15.768001,concentric,4,3.0,17481.0,134922.0,221076.0,273275.0,258515.0
2026-04-08 21:42:40.185746,160504,1609503732432269,1332398968,0.601216,0.284992,0.13664,-23.49375,-3.9725,-8.98625,-15.672001,-9.320001,-15.960001,concentric,4,3.0,17481.0,134922.0,221076.0,273275.0,258515.0
2026-04-08 21:42:40.244425,160515,1609503732441197,1332407659,0.601216,0.284992,0.13664,-26.0575,-6.9475,-8.21625,-15.672001,-9.320001,-15.960001,concentric,4,3.0,17781.0,135822.0,222022.0,273813.0,258727.0
2026-04-08 21:42:40.246994,160516,1609503732455722,1332422614,0.599264,0.244,0.08784,-30.065,-8.58375,-9.05625,-15.216001,-9.752001,-17.544,concentric,4,3.0,17781.0,135822.0,222022.0,273813.0,258727.0
2026-04-08 21:42:40.249399,160517,1609503732464623,1332431254,0.599264,0.244,0.08784,-23.625,-8.02375,-5.7225,-15.216001,-9.752001,-17.544,concentric,4,3.0,17781.0,135822.0,222022.0,273813.0,258727.0
2026-04-08 21:42:40.251992,160518,1609503732479150,1332446170,0.550464,0.18544,-0.1464,-12.74875,-5.97625,0.79625,-15.112,-9.480001,-17.832,concentric,4,3.0,17781.0,135822.0,222022.0,273813.0,258727.0
2026-04-08 21:42:40.254461,160519,1609503732488108,1332454840,0.550464,0.18544,-0.1464,-10.1325,-5.9325,2.9225,-15.112,-9.480001,-17.832,concentric,4,3.0,17781.0,135822.0,222022.0,273813.0,258727.0
2026-04-08 21:42:40.257275,160520,1609503732502621,1332469718,0.726144,0.251808,0.1952,-15.58375,-6.18625,-1.855,-15.176001,-9.528001,-16.408,concentric,4,3.0,17781.0,135822.0,222022.0,273813.0,258727.0
2026-04-08 21:42:40.288159,160521,1609503732511594,1332478414,0.726144,0.251808,0.1952,-13.83375,-5.17125,-6.1425,-15.176001,-9.528001,-16.408,concentric,4,3.0,17781.0,135822.0,222022.0,273813.0,258727.0
2026-04-08 21:42:40.290387,160522,1609503732520497,1332487071,0.704672,0.318176,0.212768,-3.98125,-5.60875,0.3675,-15.160001,-9.432,-18.752,concentric,4,3.0,17781.0,135822.0,222022.0,273813.0,258727.0
2026-04-08 21:42:40.295173,160523,1609503732534946,1332501929,0.65392,0.249856,0.152256,5.6175,-8.5575,12.11875,-15.384001,-9.488001,-17.36,concentric,4,3.0,17781.0,135822.0,222022.0,273813.0,258727.0
2026-04-08 21:42:40.325510,160534,1609503732543910,1332510642,0.65392,0.249856,0.152256,8.33,-11.62,15.61875,-15.384001,-9.488001,-17.36,concentric,4,3.0,18045.0,136517.0,222611.0,274051.0,258567.0
2026-04-08 21:42:40.327019,160535,1609503732558546,1332525611,0.747616,0.25376,0.005856,7.7,-12.48625,12.18875,-15.224001,-9.224,-16.848001,concentric,4,3.0,18045.0,136517.0,222611.0,274051.0,258567.0
2026-04-08 21:42:40.331140,160536,1609503732567485,1332534299,0.747616,0.25376,0.005856,9.5025,-11.15625,9.17875,-15.224001,-9.224,-16.848001,concentric,4,3.0,18045.0,136517.0,222611.0,274051.0,258567.0
2026-04-08 21:42:40.336096,160537,1609503732581977,1332547161,0.813984,0.306464,-0.17568,15.49625,-7.805,10.395,-15.288001,-9.008,-16.296001,concentric,4,3.0,18045.0,136517.0,222611.0,274051.0,258567.0
2026-04-08 21:42:40.364733,160538,1609503732591145,1332557889,0.813984,0.306464,-0.17568,23.21375,-4.34,14.542501,-15.288001,-9.008,-16.296001,concentric,4,3.0,18045.0,136517.0,222611.0,274051.0,258567.0
