pc_time,serial_num,sensor_ts,host_ts,ax,ay,az,gx,gy,gz,mx,my,mz,phase,rpe,weight_kg,ppg_a,ppg_b,ppg_c,ppg_d,ppg_e
2026-04-07 17:52:33.021949,261770,1423395323,1423396924,-0.8784,-0.124928,0.124928,9.44125,21.665,20.2125,34.624,15.240001,33.976,eccentric,5,3.0,20469.0,306771.0,279787.0,333777.0,296672.0
2026-04-07 17:52:33.052374,261781,1423404418,1423405739,-0.8784,-0.124928,0.124928,-2.77375,22.44375,23.44125,34.624,15.240001,33.976,eccentric,5,3.0,20378.0,305973.0,279115.0,332868.0,295894.0
2026-04-07 17:52:33.054809,261782,1423419058,1423420739,-0.923296,-0.08784,0.072224,-9.485,24.1675,25.2525,34.416,14.448001,34.496002,eccentric,5,3.0,20378.0,305973.0,279115.0,332868.0,295894.0
2026-04-07 17:52:33.057264,261783,1423428207,1423429494,-0.923296,-0.08784,0.072224,-6.5625,25.83,26.075,34.416,14.448001,34.496002,eccentric,5,3.0,20378.0,305973.0,279115.0,332868.0,295894.0
2026-04-07 17:52:33.058922,261784,1423437162,1423438216,-1.001376,0.017568,0.044896,1.26,26.1975,26.74,35.920002,14.456,35.120003,eccentric,5,3.0,20378.0,305973.0,279115.0,332868.0,295894.0
2026-04-07 17:52:33.063036,261785,1423451724,1423453130,-0.98576,-0.050752,0.050752,5.565,25.655,27.86875,35.920002,14.088,35.08,eccentric,5,3.0,20378.0,305973.0,279115.0,332868.0,295894.0
2026-04-07 17:52:33.094511,261786,1423460684,1423461881,-0.98576,-0.050752,0.050752,4.05125,25.235,27.9125,35.352,14.088,35.08,eccentric,5,3.0,20378.0,305973.0,279115.0,332868.0,295894.0
2026-04-07 17:52:33.096129,261787,1423469610,1423470556,-0.98576,-0.050752,0.050752,-3.12375,24.0275,28.58625,35.352,14.088,35.08,eccentric,5,3.0,20378.0,305973.0,279115.0,332868.0,295894.0
2026-04-07 17:52:33.097750,261788,1423478534,1423479280,-0.993568,-0.031232,0.101504,-8.4,23.73875,30.6775,36.456,14.296001,33.488003,eccentric,5,3.0,20378.0,305973.0,279115.0,332868.0,295894.0
2026-04-07 17:52:33.104261,261789,1423493556,1423494182,-1.046272,0.054656,0.056608,-7.6825,24.84125,31.36,37.064003,13.784,33.2,eccentric,5,3.0,20378.0,305973.0,279115.0,332868.0,295894.0
2026-04-07 17:52:33.131909,261799,1423502920,1423505022,-1.046272,0.054656,0.056608,-6.44,26.11,31.36,37.064003,13.784,33.2,eccentric,5,3.0,20241.0,304319.0,277582.0,330807.0,294032.0
2026-04-07 17:52:33.133633,261800,1423511996,1423513740,-1.126304,0.046848,0.02928,-6.58,25.8475,31.78,37.064003,14.112,32.896,eccentric,5,3.0,20241.0,304319.0,277582.0,330807.0,294032.0
2026-04-07 17:52:33.135213,261801,1423520928,1423522530,-1.126304,0.046848,0.02928,-8.16375,24.82375,33.24125,37.504,14.112,32.896,eccentric,5,3.0,20241.0,304319.0,277582.0,330807.0,294032.0
2026-04-07 17:52:33.150751,261802,1423535434,1423537455,-1.050176,-0.025376,0.05856,-13.3175,22.33875,35.18375,37.960003,13.880001,32.768,eccentric,5,3.0,20241.0,304319.0,277582.0,330807.0,294032.0
2026-04-07 17:52:33.156812,261803,1423544430,1423546199,-1.050176,-0.025376,0.05856,-21.62125,20.685,33.90625,37.960003,13.880001,32.768,eccentric,5,3.0,20241.0,304319.0,277582.0,330807.0,294032.0
2026-04-07 17:52:33.208738,261804,1423553383,1423554967,-1.120448,0.046848,0.023424,-20.65,19.95875,33.10125,38.600002,13.064001,32.848003,eccentric,5,3.0,20241.0,304319.0,277582.0,330807.0,294032.0
2026-04-07 17:52:33.210982,261805,1423567855,1423569854,-1.120448,0.046848,0.023424,-12.88,20.97375,33.24125,38.600002,13.064001,32.848003,eccentric,5,3.0,20241.0,304319.0,277582.0,330807.0,294032.0
2026-04-07 17:52:33.213894,261806,1423576800,1423578586,-1.179008,0.060512,-0.013664,-7.7,19.9675,32.2875,39.248,13.000001,32.048,eccentric,5,3.0,20241.0,304319.0,277582.0,330807.0,294032.0
2026-04-07 17:52:33.216309,261807,1423585681,1423587266,-1.179008,0.060512,-0.013664,-6.20375,17.73625,34.3,39.248,13.000001,32.048,eccentric,5,3.0,20241.0,304319.0,277582.0,330807.0,294032.0
2026-04-07 17:52:33.241412,261817,1423600791,1423602358,-1.149728,-0.001952,0.00976,-7.1225,15.75,38.255,38.84,12.232,32.008003,eccentric,5,3.0,20576.0,307516.0,280043.0,333083.0,295656.0
2026-04-07 17:52:33.243807,261818,1423609781,1423611080,-1.149728,-0.001952,0.00976,-12.04875,12.2675,41.615,38.84,12.232,32.008003,eccentric,5,3.0,20576.0,307516.0,280043.0,333083.0,295656.0
2026-04-07 17:52:33.248836,261819,1423618738,1423619828,-1.159488,0.070272,0.011712,-16.6075,9.0125,43.785,38.928,11.848001,31.696001,eccentric,5,3.0,20576.0,307516.0,280043.0,333083.0,295656.0
2026-04-07 17:52:33.251345,261820,1423627678,1423628617,-1.159488,0.070272,0.011712,-11.52375,6.895,43.5575,38.928,11.848001,31.696001,eccentric,5,3.0,20576.0,307516.0,280043.0,333083.0,295656.0
2026-04-07 17:52:33.253814,261821,1423642179,1423643524,-1.157536,0.140544,-0.001952,-6.09,4.66375,43.12,39.216003,12.032001,32.432003,eccentric,5,3.0,20576.0,307516.0,280043.0,333083.0,295656.0
2026-04-07 17:52:33.260114,261822,1423651181,1423652243,-1.157536,0.140544,-0.001952,-4.69,3.3075,42.035,39.216003,12.032001,32.432003,eccentric,5,3.0,20576.0,307516.0,280043.0,333083.0,295656.0
2026-04-07 17:52:33.294017,261823,1423660150,1423660930,-1.110688,0.035136,-0.052704,-6.74625,3.26375,39.8125,40.848003,11.936001,32.512,eccentric,5,3.0,20576.0,307516.0,280043.0,333083.0,295656.0
2026-04-07 17:52:33.297598,261824,1423674645,1423675843,-1.120448,-0.001952,-0.033184,-12.9675,2.96625,38.6575,41.432003,11.376,31.352001,eccentric,5,3.0,20576.0,307516.0,280043.0,333083.0,295656.0
2026-04-07 17:52:33.300289,261825,1423683558,1423684533,-1.120448,-0.001952,-0.033184,-12.6,2.02125,37.905,41.432003,11.376,31.352001,eccentric,5,3.0,20576.0,307516.0,280043.0,333083.0,295656.0
2026-04-07 17:52:33.302908,261826,1423692476,1423693221,-1.149728,0.10736,-0.025376,-4.41875,1.00625,38.08,41.432003,11.376,34.824,eccentric,5,3.0,20576.0,307516.0,280043.0,333083.0,295656.0
2026-04-07 17:52:33.335051,261837,1423707470,1423708201,-1.149728,0.10736,-0.025376,4.69875,0.665,39.515,41.52,10.72,34.824,eccentric,5,3.0,20950.0,310693.0,282470.0,335126.0,296590.0
2026-04-07 17:52:33.337603,261838,1423716856,1423719017,-1.09312,0.12688,-0.027328,8.82,0.81375,39.66375,42.04,9.952001,32.936,eccentric,5,3.0,20950.0,310693.0,282470.0,335126.0,296590.0
2026-04-07 17:52:33.340159,261839,1423725777,1423727756,-1.09312,0.12688,-0.027328,5.2675,0.0525,37.45,42.04,9.952001,32.936,eccentric,5,3.0,20950.0,310693.0,282470.0,335126.0,296590.0
2026-04-07 17:52:33.345103,261840,1423734700,1423736460,-1.0736,0.080032,-0.072224,2.03,0.4375,35.6825,42.032,9.96,32.712,eccentric,5,3.0,20950.0,310693.0,282470.0,335126.0,296590.0
2026-04-07 17:52:33.375280,261841,1423749259,1423751339,-1.0736,0.080032,-0.072224,0.665,2.0475,33.11875,42.032,9.96,32.712,eccentric,5,3.0,20950.0,310693.0,282470.0,335126.0,296590.0
2026-04-07 17:52:33.378923,261842,1423758184,1423760082,-1.056032,0.095648,-0.06832,0.805,2.86125,31.0625,42.688004,9.912001,31.352001,eccentric,5,3.0,20950.0,310693.0,282470.0,335126.0,296590.0
2026-04-07 17:52:33.381414,261843,1423767066,1423768767,-1.056032,0.095648,-0.06832,3.325,2.98375,29.14625,42.688004,9.912001,31.352001,eccentric,5,3.0,20950.0,310693.0,282470.0,335126.0,296590.0
2026-04-07 17:52:33.411534,261844,1423781569,1423783657,-1.026752,0.113216,-0.046848,6.86,3.31625,26.075,43.52,9.360001,31.680002,eccentric,5,3.0,20950.0,310693.0,282470.0,335126.0,296590.0
2026-04-07 17:52:33.415137,261845,1423790492,1423792357,-1.026752,0.113216,-0.046848,12.18875,5.005,24.22875,43.52,9.360001,31.680002,eccentric,5,3.0,20950.0,310693.0,282470.0,335126.0,296590.0
2026-04-07 17:52:33.440096,261855,1423799394,1423801340,-1.059936,0.158112,-0.003904,18.8825,8.575,22.58375,43.616,10.0,32.056,eccentric,5,3.0,21108.0,312090.0,283538.0,336044.0,296942.0
2026-04-07 17:52:33.442645,261856,1423813941,1423816291,-1.036512,0.144448,-0.03904,19.03125,10.386251,19.08375,43.320004,8.88,32.0,eccentric,5,3.0,21108.0,312090.0,283538.0,336044.0,296942.0
2026-04-07 17:52:33.445075,261857,1423822881,1423825001,-1.036512,0.144448,-0.03904,13.95625,13.3,17.0275,43.320004,8.88,32.0,eccentric,5,3.0,21108.0,312090.0,283538.0,336044.0,296942.0
2026-04-07 17:52:33.447569,261858,1423831759,1423833738,-1.036512,0.144448,-0.03904,9.58125,15.6625,15.11125,43.320004,8.88,32.0,eccentric,5,3.0,21108.0,312090.0,283538.0,336044.0,296942.0
2026-04-07 17:52:33.450059,261859,1423840915,1423842418,-1.003328,0.101504,-0.050752,5.46875,17.31625,13.57125,43.640003,8.76,33.16,eccentric,5,3.0,21108.0,312090.0,283538.0,336044.0,296942.0
2026-04-07 17:52:33.481662,261860,1423855392,1423857346,-1.040416,0.150304,-0.07808,4.66375,18.585001,12.4075,43.712,8.320001,32.832,eccentric,5,3.0,21108.0,312090.0,283538.0,336044.0,296942.0
2026-04-07 17:52:33.485101,261861,1423864286,1423866032,-1.040416,0.150304,-0.07808,8.505,19.55625,10.31625,43.712,8.320001,32.832,eccentric,5,3.0,21108.0,312090.0,283538.0,336044.0,296942.0
2026-04-07 17:52:33.487674,261862,1423873211,1423874730,-1.040416,0.148352,-0.128832,16.87875,20.39625,8.33875,43.712,8.320001,29.512001,eccentric,5,3.0,21108.0,312090.0,283538.0,336044.0,296942.0
2026-04-07 17:52:33.517787,261863,1423887717,1423889629,-1.036512,0.148352,-0.128832,21.98,19.15375,8.015,44.456,8.240001,29.512001,eccentric,5,3.0,21108.0,312090.0,283538.0,336044.0,296942.0
2026-04-07 17:52:33.521359,261864,1423896642,1423898373,-1.007232,0.12688,-0.134688,18.7775,17.52625,5.48625,44.576,7.864,31.504002,eccentric,5,3.0,21108.0,312090.0,283538.0,336044.0,296942.0
2026-04-07 17:52:33.548896,261874,1423905697,1423907144,-1.007232,0.12688,-0.134688,19.285,16.0125,1.89875,44.576,7.864,31.504002,eccentric,5,3.0,21391.0,315274.0,286321.0,339338.0,299650.0
2026-04-07 17:52:33.551572,261875,1423920187,1423922081,-1.050176,0.169824,-0.105408,23.86125,15.2775,0.56,44.576,8.256001,31.096,eccentric,5,3.0,21391.0,315274.0,286321.0,339338.0,299650.0
2026-04-07 17:52:33.553810,261876,1423929205,1423930842,-1.050176,0.169824,-0.105408,25.3225,14.3325,-1.09375,44.576,8.256001,31.096,eccentric,5,3.0,21391.0,315274.0,286321.0,339338.0,299650.0
2026-04-07 17:52:33.556346,261877,1423938143,1423939559,-1.10288,0.189344,-0.050752,24.675,13.685,-2.51125,45.04,7.920001,31.952002,eccentric,5,3.0,21391.0,315274.0,286321.0,339338.0,299650.0
2026-04-07 17:52:33.558899,261878,1423947057,1423948283,-1.10288,0.189344,-0.050752,25.38375,12.45125,-4.50625,45.04,7.920001,31.952002,eccentric,5,3.0,21391.0,315274.0,286321.0,339338.0,299650.0
2026-04-07 17:52:33.597821,261879,1423961558,1423963242,-1.052128,0.154208,-0.111264,23.1875,13.23875,-5.74,44.752003,8.552,31.560001,eccentric,5,3.0,21391.0,315274.0,286321.0,339338.0,299650.0
2026-04-07 17:52:33.601381,261880,1423970484,1423971947,-1.052128,0.154208,-0.111264,20.02875,15.44375,-7.84,44.752003,8.552,31.560001,eccentric,5,3.0,21391.0,315274.0,286321.0,339338.0,299650.0
2026-04-07 17:52:33.603868,261881,1423979390,1423980642,-1.098976,0.152256,-0.085888,20.895,17.053751,-10.78875,44.656002,7.848001,32.256,eccentric,5,3.0,21391.0,315274.0,286321.0,339338.0,299650.0
2026-04-07 17:52:33.606356,261882,1423993874,1423995577,-1.098976,0.15616,-0.124928,21.91,18.43625,-12.17125,44.656002,7.848001,33.088,eccentric,5,3.0,21391.0,315274.0,286321.0,339338.0,299650.0
2026-04-07 17:52:33.635163,261893,1424003242,1424004602,-1.098976,0.15616,-0.124928,19.34625,19.18875,-13.58,44.984,7.968,33.088,eccentric,5,3.0,21652.0,317901.0,288696.0,342250.0,302165.0
2026-04-07 17:52:33.639407,261894,1424012218,1424013446,-1.098976,0.15616,-0.124928,19.87125,17.745,-14.533751,44.984,7.968,33.088,eccentric,5,3.0,21652.0,317901.0,288696.0,342250.0,302165.0
2026-04-07 17:52:33.641032,261895,1424026740,1424028458,-1.0736,0.158112,-0.109312,23.31,16.65125,-13.0725,44.440002,7.488,32.856003,eccentric,5,3.0,21652.0,317901.0,288696.0,342250.0,302165.0
2026-04-07 17:52:33.646737,261896,1424035665,1424037191,-1.100928,0.167872,-0.101504,23.23125,16.1175,-13.06375,44.704002,7.960001,31.992,eccentric,5,3.0,21652.0,317901.0,288696.0,342250.0,302165.0
2026-04-07 17:52:33.675344,261897,1424044618,1424045893,-1.100928,0.167872,-0.101504,22.4,14.84875,-14.55125,44.704002,7.960001,31.992,eccentric,5,3.0,21652.0,317901.0,288696.0,342250.0,302165.0
2026-04-07 17:52:33.679777,261898,1424059092,1424060798,-1.100928,0.1952,-0.11712,22.00625,14.3675,-15.575,45.144,8.352,32.104,eccentric,5,3.0,21652.0,317901.0,288696.0,342250.0,302165.0
2026-04-07 17:52:33.681365,261899,1424067982,1424069524,-1.100928,0.1952,-0.11712,18.20875,14.315001,-15.8025,45.144,8.352,32.104,eccentric,5,3.0,21652.0,317901.0,288696.0,342250.0,302165.0
2026-04-07 17:52:33.688009,261900,1424076915,1424078233,-1.100928,0.17568,-0.0976,15.0675,14.51625,-16.0125,44.800003,7.848001,33.376003,eccentric,5,3.0,21652.0,317901.0,288696.0,342250.0,302165.0
2026-04-07 17:52:33.716630,261901,1424085976,1424086942,-1.100928,0.17568,-0.0976,12.915,13.86,-17.01875,44.800003,7.848001,33.376003,eccentric,5,3.0,21652.0,317901.0,288696.0,342250.0,302165.0
2026-04-07 17:52:33.721095,261902,1424100455,1424101821,-1.091168,0.187392,-0.140544,10.29875,13.2475,-18.75125,45.424004,8.072001,32.072002,eccentric,5,3.0,21652.0,317901.0,288696.0,342250.0,302165.0
2026-04-07 17:52:33.753135,261912,1424109468,1424110571,-1.091168,0.187392,-0.140544,10.5175,12.80125,-20.116251,45.424004,8.072001,32.072002,eccentric,5,3.0,21736.0,319044.0,289841.0,343943.0,303898.0
2026-04-07 17:52:33.754864,261913,1424119102,1424121399,-1.157536,0.1952,-0.0976,17.4475,13.09875,-18.31375,45.120003,8.208,31.776001,eccentric,5,3.0,21736.0,319044.0,289841.0,343943.0,303898.0
2026-04-07 17:52:33.756441,261914,1424133613,1424134303,-1.157536,0.1952,-0.0976,23.1175,12.48625,-17.3775,45.120003,8.208,31.776001,eccentric,5,3.0,21736.0,319044.0,289841.0,343943.0,303898.0
2026-04-07 17:52:33.759700,261915,1424143003,1424145074,-1.163392,0.150304,-0.13664,22.67125,11.305,-18.33125,44.592003,7.672,34.552002,eccentric,5,3.0,21736.0,319044.0,289841.0,343943.0,303898.0
2026-04-07 17:52:33.769372,261916,1424151981,1424153777,-1.163392,0.150304,-0.13664,21.35,11.13,-18.06875,44.592003,7.672,34.552002,eccentric,5,3.0,21736.0,319044.0,289841.0,343943.0,303898.0
2026-04-07 17:52:33.771796,261917,1424160928,1424162524,-1.16144,0.179584,-0.103456,22.1725,10.2375,-15.05,43.984,7.896,34.704002,eccentric,5,3.0,21736.0,319044.0,289841.0,343943.0,303898.0
2026-04-07 17:52:33.786814,261918,1424175543,1424177374,-1.165344,0.206912,-0.099552,20.8775,10.386251,-13.658751,43.408,7.424,35.984,eccentric,5,3.0,21736.0,319044.0,289841.0,343943.0,303898.0
2026-04-07 17:52:33.815388,261919,1424184458,1424186086,-1.165344,0.206912,-0.099552,17.92,9.82625,-12.95875,43.408,7.424,35.984,eccentric,5,3.0,21736.0,319044.0,289841.0,343943.0,303898.0
2026-04-07 17:52:33.819864,261920,1424193424,1424194780,-1.165344,0.206912,-0.099552,13.93875,9.03,-12.18875,43.408,7.424,35.984,eccentric,5,3.0,21736.0,319044.0,289841.0,343943.0,303898.0
2026-04-07 17:52:33.861279,261930,1424208212,1424209813,-1.114592,0.189344,-0.121024,7.91875,8.015,-11.6025,45.152,7.864,32.36,eccentric,5,3.0,21842.0,320129.0,290716.0,344825.0,304510.0
2026-04-07 17:52:33.862811,261931,1424217209,1424218514,-1.11264,0.16592,-0.101504,5.41625,7.805,-11.54125,44.712,8.016001,33.512,eccentric,5,3.0,21842.0,320129.0,290716.0,344825.0,304510.0
2026-04-07 17:52:33.900102,261932,1424226156,1424227231,-1.11264,0.16592,-0.101504,6.93,7.81375,-10.43875,44.712,8.016001,33.512,eccentric,5,3.0,21842.0,320129.0,290716.0,344825.0,304510.0
2026-04-07 17:52:33.906901,261933,1424235109,1424235925,-1.116544,0.183488,-0.070272,8.89,7.25375,-9.3625,46.760002,7.896,32.368,eccentric,5,3.0,21842.0,320129.0,290716.0,344825.0,304510.0
2026-04-07 17:52:33.908607,261934,1424249643,1424250880,-1.116544,0.183488,-0.070272,11.90875,7.2625,-7.385,45.840004,7.896,32.368,eccentric,5,3.0,21842.0,320129.0,290716.0,344825.0,304510.0
2026-04-07 17:52:33.910137,261935,1424258636,1424259589,-1.08336,0.212768,-0.072224,13.46625,8.26,-5.39875,45.664,8.024,32.072002,eccentric,5,3.0,21842.0,320129.0,290716.0,344825.0,304510.0
2026-04-07 17:52:33.914387,261936,1424267585,1424268286,-1.08336,0.212768,-0.072224,9.66875,9.5025,-5.7575,45.664,8.024,32.072002,eccentric,5,3.0,21842.0,320129.0,290716.0,344825.0,304510.0
2026-04-07 17:52:33.916099,261937,1424282487,1424283193,-1.1224,0.240096,-0.07808,4.41875,10.29,-7.5775,45.296,8.328,31.600002,eccentric,5,3.0,21842.0,320129.0,290716.0,344825.0,304510.0
2026-04-07 17:52:33.918604,261938,1424291823,1424294022,-1.1224,0.240096,-0.07808,1.19875,8.9425,-9.35375,45.296,8.328,31.600002,eccentric,5,3.0,21842.0,320129.0,290716.0,344825.0,304510.0
2026-04-07 17:52:33.920138,261939,1424300795,1424302742,-1.165344,0.261568,-0.113216,-0.55125,8.33,-11.1125,44.72,7.696001,33.272003,eccentric,5,3.0,21842.0,320129.0,290716.0,344825.0,304510.0
2026-04-07 17:52:33.951902,261950,1424309743,1424311515,-1.165344,0.261568,-0.113216,-1.5225,7.595,-11.655,44.72,7.696001,33.272003,eccentric,5,3.0,21963.0,320938.0,291253.0,345139.0,304523.0
2026-04-07 17:52:33.953598,261951,1424324309,1424326458,-1.157536,0.18544,-0.113216,-3.5525,4.64625,-11.7425,45.256,7.896,32.88,eccentric,5,3.0,21963.0,320938.0,291253.0,345139.0,304523.0
2026-04-07 17:52:33.955159,261952,1424333417,1424335183,-1.157536,0.18544,-0.113216,-6.55375,1.84625,-11.41,45.256,7.896,32.88,eccentric,5,3.0,21963.0,320938.0,291253.0,345139.0,304523.0
2026-04-07 17:52:33.958506,261953,1424342417,1424343914,-1.155584,0.1464,-0.115168,-6.825,-0.14,-9.24,44.968002,7.392,31.032001,eccentric,5,3.0,21963.0,320938.0,291253.0,345139.0,304523.0
2026-04-07 17:52:33.988737,261954,1424356959,1424358886,-1.136064,0.148352,-0.142496,-3.2725,-1.1375,-7.46375,45.320004,7.056,34.168003,eccentric,5,3.0,21963.0,320938.0,291253.0,345139.0,304523.0
2026-04-07 17:52:33.993130,261955,1424365980,1424367590,-1.136064,0.148352,-0.142496,-0.91875,-1.79375,-4.9875,45.320004,7.056,34.168003,eccentric,5,3.0,21963.0,320938.0,291253.0,345139.0,304523.0
2026-04-07 17:52:33.994832,261956,1424375095,1424376278,-1.136064,0.148352,-0.140544,-0.25375,-2.16125,-2.4675,45.320004,7.056,34.168003,eccentric,5,3.0,21963.0,320938.0,291253.0,345139.0,304523.0
2026-04-07 17:52:33.996378,261957,1424383959,1424385059,-1.114592,0.150304,-0.140544,0.91875,-1.435,-0.79625,44.4,6.984,35.24,eccentric,5,3.0,21963.0,320938.0,291253.0,345139.0,304523.0
2026-04-07 17:52:34.026523,261958,1424398479,1424400039,-1.134112,0.160064,-0.08784,1.6975,-1.54875,0.595,44.896004,7.944,32.464,eccentric,5,3.0,21963.0,320938.0,291253.0,345139.0,304523.0
2026-04-07 17:52:34.058869,261968,1424407724,1424408836,-1.134112,0.160064,-0.08784,1.19,-1.1725,1.44375,44.896004,7.944,32.464,eccentric,5,3.0,22063.0,321879.0,291875.0,345382.0,304612.0
2026-04-07 17:52:34.061316,261969,1424416647,1424417527,-1.153632,0.160064,-0.072224,0.2275,-1.21625,1.89875,44.584003,6.376,33.608,eccentric,5,3.0,22063.0,321879.0,291875.0,345382.0,304612.0
2026-04-07 17:52:34.063885,261970,1424431172,1424432399,-1.153632,0.160064,-0.072224,-2.8175,-2.24875,3.45625,44.584003,6.376,33.608,eccentric,5,3.0,22063.0,321879.0,291875.0,345382.0,304612.0
2026-04-07 17:52:34.066379,261971,1424440185,1424441165,-1.134112,0.158112,-0.07808,-6.39625,-3.71,4.19125,45.512,6.424,34.168003,eccentric,5,3.0,22063.0,321879.0,291875.0,345382.0,304612.0
2026-04-07 17:52:34.068811,261972,1424449163,1424449878,-1.134112,0.158112,-0.07808,-7.1575,-3.78875,4.48,45.512,6.424,34.168003,eccentric,5,3.0,22063.0,321879.0,291875.0,345382.0,304612.0
2026-04-07 17:52:34.071321,261973,1424458527,1424460673,-1.134112,0.162016,-0.0976,-6.79,-2.91375,4.1825,45.544003,6.432,33.624,eccentric,5,3.0,22063.0,321879.0,291875.0,345382.0,304612.0
2026-04-07 17:52:34.101690,261974,1424473090,1424473524,-1.134112,0.162016,-0.0976,-9.42375,-2.4675,3.59625,45.544003,6.432,33.624,eccentric,5,3.0,22063.0,321879.0,291875.0,345382.0,304612.0
2026-04-07 17:52:34.105191,261975,1424482452,1424484336,-1.16144,0.142496,-0.080032,-11.025,-1.98625,4.1125,45.480003,6.08,35.928,eccentric,5,3.0,22063.0,321879.0,291875.0,345382.0,304612.0
2026-04-07 17:52:34.107709,261976,1424491357,1424493037,-1.16144,0.142496,-0.080032,-13.8425,-2.86125,4.78625,45.480003,6.08,35.928,eccentric,5,3.0,22063.0,321879.0,291875.0,345382.0,304612.0
2026-04-07 17:52:34.141439,261986,1424505947,1424508027,-1.149728,0.121024,-0.115168,-15.846251,-3.91125,5.04,46.264004,6.216,31.488,eccentric,5,3.0,22599.0,326660.0,295403.0,348489.0,307022.0
2026-04-07 17:52:34.147604,261987,1424515026,1424516793,-1.149728,0.121024,-0.115168,-16.2925,-4.0075,5.285,46.264004,6.216,31.488,eccentric,5,3.0,22599.0,326660.0,295403.0,348489.0,307022.0
2026-04-07 17:52:34.150100,261988,1424523956,1424525537,-1.13216,0.121024,-0.11712,-14.83125,-2.8,4.305,45.776,6.368001,33.760002,eccentric,5,3.0,22599.0,326660.0,295403.0,348489.0,307022.0
2026-04-07 17:52:34.152535,261989,1424538489,1424540441,-1.155584,0.115168,-0.07808,-11.87375,-1.25125,2.695,45.824,6.56,31.568,eccentric,5,3.0,22599.0,326660.0,295403.0,348489.0,307022.0
2026-04-07 17:52:34.157617,261990,1424547515,1424549152,-1.155584,0.115168,-0.07808,-9.38,0.74375,2.42375,45.824,6.56,31.568,eccentric,5,3.0,22599.0,326660.0,295403.0,348489.0,307022.0
2026-04-07 17:52:34.195365,261991,1424556452,1424557881,-1.139968,0.060512,-0.074176,-9.82625,2.0825,2.3275,45.824,6.512,32.392002,eccentric,5,3.0,22599.0,326660.0,295403.0,348489.0,307022.0
2026-04-07 17:52:34.198887,261992,1424565421,1424566596,-1.139968,0.060512,-0.074176,-11.41,1.74125,3.3075,46.464,6.512,32.392002,eccentric,5,3.0,22599.0,326660.0,295403.0,348489.0,307022.0
2026-04-07 17:52:34.201331,261993,1424579881,1424581492,-1.13216,0.031232,-0.115168,-14.175,0.81375,5.0225,46.264004,5.728,33.768,eccentric,5,3.0,22599.0,326660.0,295403.0,348489.0,307022.0
2026-04-07 17:52:34.203851,261994,1424588801,1424590220,-1.13216,0.031232,-0.115168,-16.2925,-0.735,7.32375,46.264004,5.728,33.768,eccentric,5,3.0,22599.0,326660.0,295403.0,348489.0,307022.0
2026-04-07 17:52:34.206342,261995,1424597757,1424598904,-1.114592,0.093696,-0.124928,-16.19625,-1.60125,9.68625,46.600002,5.504,32.480003,eccentric,5,3.0,22599.0,326660.0,295403.0,348489.0,307022.0
2026-04-07 17:52:34.241436,262006,1424612392,1424613979,-1.114592,0.093696,-0.124928,-14.2625,-1.82875,10.54375,46.600002,5.504,32.480003,eccentric,5,3.0,23144.0,331862.0,299866.0,353711.0,311209.0
2026-04-07 17:52:34.243952,262007,1424621377,1424622754,-1.110688,0.115168,-0.109312,-14.11375,-1.295,10.5175,45.544003,4.688,33.344,eccentric,5,3.0,23144.0,331862.0,299866.0,353711.0,311209.0
2026-04-07 17:52:34.246311,262008,1424630342,1424631441,-1.110688,0.115168,-0.109312,-17.325,-1.54875,10.52625,45.544003,4.688,33.344,eccentric,5,3.0,23144.0,331862.0,299866.0,353711.0,311209.0
2026-04-07 17:52:34.276580,262009,1424644905,1424646375,-1.1224,0.115168,-0.08784,-20.09,-1.225,11.66375,45.928,5.576,32.504,eccentric,5,3.0,23144.0,331862.0,299866.0,353711.0,311209.0
2026-04-07 17:52:34.280140,262010,1424653860,1424655102,-1.1224,0.115168,-0.08784,-22.93375,-1.40875,12.355001,45.928,5.576,32.504,eccentric,5,3.0,23144.0,331862.0,299866.0,353711.0,311209.0
2026-04-07 17:52:34.282698,262011,1424662756,1424663791,-1.118496,0.044896,-0.0976,-24.4475,-2.70375,12.25875,45.328003,4.568,35.112003,eccentric,5,3.0,23144.0,331862.0,299866.0,353711.0,311209.0
2026-04-07 17:52:34.285094,262012,1424671695,1424672482,-1.118496,0.044896,-0.0976,-23.10875,-3.115,12.11875,45.328003,4.568,35.112003,eccentric,5,3.0,23144.0,331862.0,299866.0,353711.0,311209.0
2026-04-07 17:52:34.315311,262013,1424686172,1424687366,-1.11264,0.027328,-0.130784,-21.7,-2.87875,12.2325,46.296,5.272,32.728,eccentric,5,3.0,23144.0,331862.0,299866.0,353711.0,311209.0
2026-04-07 17:52:34.318942,262014,1424695078,1424696101,-1.11264,0.027328,-0.130784,-17.2025,-2.1875,12.145,46.296,5.272,32.728,eccentric,5,3.0,23144.0,331862.0,299866.0,353711.0,311209.0
2026-04-07 17:52:34.325067,262015,1424704057,1424704791,-1.147776,0.08784,-0.121024,-10.745,-1.07625,12.18,47.072002,5.112001,31.560001,eccentric,5,3.0,23144.0,331862.0,299866.0,353711.0,311209.0
2026-04-07 17:52:34.351044,262025,1424719072,1424719773,-1.136064,0.0976,-0.095648,-7.805,-1.77625,11.64625,46.440002,4.272,33.816,eccentric,5,3.0,23493.0,335121.0,302580.0,356946.0,313704.0
2026-04-07 17:52:34.352588,262026,1424728508,1424730599,-1.136064,0.0976,-0.095648,-8.505,-1.74125,12.50375,46.440002,4.272,33.816,eccentric,5,3.0,23493.0,335121.0,302580.0,356946.0,313704.0
2026-04-07 17:52:34.355064,262027,1424737438,1424739307,-1.153632,0.089792,-0.056608,-12.74,-1.89875,14.23625,46.768,4.328,31.064001,eccentric,5,3.0,23493.0,335121.0,302580.0,356946.0,313704.0
2026-04-07 17:52:34.357563,262028,1424746383,1424748017,-1.153632,0.089792,-0.056608,-16.695,-2.42375,13.5625,46.768,4.328,31.064001,eccentric,5,3.0,23493.0,335121.0,302580.0,356946.0,313704.0
2026-04-07 17:52:34.388966,262029,1424760850,1424762905,-1.163392,0.031232,-0.113216,-19.88875,-2.75625,13.335,47.056004,4.288,31.432001,eccentric,5,3.0,23493.0,335121.0,302580.0,356946.0,313704.0
2026-04-07 17:52:34.391425,262030,1424769762,1424771619,-1.163392,0.031232,-0.113216,-21.28,-3.87625,13.62375,47.056004,4.288,31.432001,eccentric,5,3.0,23493.0,335121.0,302580.0,356946.0,313704.0
2026-04-07 17:52:34.393878,262031,1424778733,1424780307,-1.130208,0.08784,-0.119072,-19.60875,-3.70125,12.62625,47.008003,4.648,31.424002,eccentric,5,3.0,23493.0,335121.0,302580.0,356946.0,313704.0
2026-04-07 17:52:34.424167,262032,1424793296,1424795218,-1.130208,0.08784,-0.119072,-15.155,-2.82625,11.12125,47.008003,4.648,31.424002,eccentric,5,3.0,23493.0,335121.0,302580.0,356946.0,313704.0
2026-04-07 17:52:34.427603,262033,1424802219,1424803903,-1.134112,0.142496,-0.083936,-11.61125,-1.58375,9.3625,47.440002,4.008,31.016,eccentric,5,3.0,23493.0,335121.0,302580.0,356946.0,313704.0
2026-04-07 17:52:34.452548,262043,1424811290,1424812656,-1.134112,0.142496,-0.083936,-13.27375,-1.4525,8.6625,47.440002,4.008,31.016,eccentric,5,3.0,23732.0,337097.0,304195.0,358837.0,315015.0
2026-04-07 17:52:34.455105,262044,1424825823,1424827654,-1.116544,0.105408,-0.066368,-18.0075,-1.68,7.49875,47.960003,4.192,30.848001,eccentric,5,3.0,23732.0,337097.0,304195.0,358837.0,315015.0
2026-04-07 17:52:34.457600,262045,1424834792,1424836362,-1.116544,0.105408,-0.066368,-20.6675,-1.47,5.57375,47.960003,4.192,30.848001,eccentric,5,3.0,23732.0,337097.0,304195.0,358837.0,315015.0
2026-04-07 17:52:34.460063,262046,1424843723,1424845047,-1.128256,0.080032,-0.07808,-21.55125,-1.6625,4.12125,47.800003,4.336,32.264,eccentric,5,3.0,23732.0,337097.0,304195.0,358837.0,315015.0
2026-04-07 17:52:34.462678,262047,1424852686,1424853911,-1.128256,0.080032,-0.07808,-21.90125,-1.5575,2.065,47.800003,4.336,32.264,eccentric,5,3.0,23732.0,337097.0,304195.0,358837.0,315015.0
2026-04-07 17:52:34.500781,262048,1424867120,1424868861,-1.104832,0.076128,-0.124928,-21.62125,-1.6975,0.9625,47.344,4.136,31.904001,eccentric,5,3.0,23732.0,337097.0,304195.0,358837.0,315015.0
2026-04-07 17:52:34.534043,262049,1424876052,1424877580,-1.104832,0.076128,-0.124928,-19.59125,-0.90125,-0.3325,47.344,4.136,31.904001,eccentric,5,3.0,23732.0,337097.0,304195.0,358837.0,315015.0
2026-04-07 17:52:34.537657,262050,1424884976,1424886300,-1.10288,0.095648,-0.122976,-18.01625,-0.32375,-1.19,47.912003,4.12,31.752,eccentric,5,3.0,23732.0,337097.0,304195.0,358837.0,315015.0
2026-04-07 17:52:34.540299,262051,1424899436,1424901185,-1.100928,0.083936,-0.08784,-16.82625,-0.20125,-2.14375,47.352,4.224,31.408,eccentric,5,3.0,23732.0,337097.0,304195.0,358837.0,315015.0
2026-04-07 17:52:34.567543,262062,1424908937,1424909975,-1.100928,0.083936,-0.08784,-16.0125,-0.77,-2.6425,47.352,4.224,31.408,eccentric,5,3.0,23819.0,337614.0,304571.0,359163.0,314938.0
2026-04-07 17:52:34.570064,262063,1424917939,1424918767,-1.095072,0.064416,-0.083936,-16.1525,-1.3125,-2.02125,47.352,4.16,30.600002,eccentric,5,3.0,23819.0,337614.0,304571.0,359163.0,314938.0
2026-04-07 17:52:34.572563,262064,1424932467,1424933676,-1.095072,0.064416,-0.083936,-15.855001,-1.05,-2.5025,47.288002,4.16,30.600002,eccentric,5,3.0,23819.0,337614.0,304571.0,359163.0,314938.0
2026-04-07 17:52:34.575135,262065,1424941390,1424942522,-1.120448,0.095648,-0.095648,-14.4375,-0.56,-3.6925,46.920002,4.288,31.920002,eccentric,5,3.0,23819.0,337614.0,304571.0,359163.0,314938.0
2026-04-07 17:52:34.577567,262066,1424950379,1424951287,-1.120448,0.095648,-0.095648,-14.06125,-0.1925,-5.005,46.920002,4.288,31.920002,eccentric,5,3.0,23819.0,337614.0,304571.0,359163.0,314938.0
2026-04-07 17:52:34.580376,262067,1424959406,1424960040,-1.163392,0.122976,-0.091744,-11.89125,0.44625,-6.27375,46.872,3.912,32.112003,eccentric,5,3.0,23819.0,337614.0,304571.0,359163.0,314938.0
2026-04-07 17:52:34.582716,262068,1424974318,1424975024,-1.163392,0.122976,-0.091744,-10.185,1.07625,-7.91,46.872,3.912,32.112003,eccentric,5,3.0,23819.0,337614.0,304571.0,359163.0,314938.0
2026-04-07 17:52:34.612854,262069,1424983828,1424985778,-1.175104,0.08784,-0.101504,-10.2025,1.295,-8.715,47.08,4.368,32.84,eccentric,5,3.0,23819.0,337614.0,304571.0,359163.0,314938.0
2026-04-07 17:52:34.616411,262070,1424992777,1424994483,-1.175104,0.08784,-0.101504,-11.655,1.155,-10.386251,47.08,4.368,32.84,eccentric,5,3.0,23819.0,337614.0,304571.0,359163.0,314938.0
2026-04-07 17:52:34.641371,262080,1425007261,1425009410,-1.163392,0.01952,-0.124928,-12.38125,0.20125,-9.40625,46.656002,4.248,30.880001,eccentric,5,3.0,23357.0,333317.0,300893.0,354772.0,311607.0
2026-04-07 17:52:34.646394,262081,1425016555,1425018138,-1.163392,0.01952,-0.124928,-10.8325,0.2975,-8.575,46.656002,4.248,30.880001,eccentric,5,3.0,23357.0,333317.0,300893.0,354772.0,311607.0
2026-04-07 17:52:34.648846,262082,1425025564,1425026907,-1.139968,-0.001952,-0.144448,-6.65875,0.53375,-9.0125,47.368004,4.504,31.152002,eccentric,5,3.0,23357.0,333317.0,300893.0,354772.0,311607.0
2026-04-07 17:52:34.651341,262083,1425034601,1425035613,-1.139968,-0.001952,-0.144448,-0.93625,2.10875,-9.26625,47.368004,4.504,31.152002,eccentric,5,3.0,23357.0,333317.0,300893.0,354772.0,311607.0
2026-04-07 17:52:34.681608,262084,1425049228,1425050527,-1.145824,0.085888,-0.074176,4.4625,3.80625,-10.5875,47.256,4.384,30.864002,eccentric,5,3.0,23357.0,333317.0,300893.0,354772.0,311607.0
2026-04-07 17:52:34.685032,262085,1425058131,1425059209,-1.145824,0.163968,0.0,4.9175,5.3725,-11.9875,47.256,4.384,30.864002,eccentric,5,3.0,23357.0,333317.0,300893.0,354772.0,311607.0
2026-04-07 17:52:34.687690,262086,1425067068,1425067901,-1.179008,0.160064,0.0,-0.83125,5.88,-13.1075,47.112003,4.736,32.664,eccentric,5,3.0,23357.0,333317.0,300893.0,354772.0,311607.0
2026-04-07 17:52:34.690240,262087,1425081572,1425082839,-1.13216,0.11712,-0.042944,-9.5375,5.1975,-14.5075,47.064003,4.84,30.352001,eccentric,5,3.0,23357.0,333317.0,300893.0,354772.0,311607.0
2026-04-07 17:52:34.698936,262088,1425090503,1425091617,-1.13216,0.11712,-0.042944,-17.73625,3.38625,-15.47875,47.064003,4.84,30.352001,eccentric,5,3.0,23357.0,333317.0,300893.0,354772.0,311607.0
2026-04-07 17:52:34.729968,262089,1425099613,1425100343,-1.11264,0.056608,-0.101504,-20.88625,2.3625,-17.01,47.208004,4.872,28.984001,eccentric,5,3.0,23357.0,333317.0,300893.0,354772.0,311607.0
2026-04-07 17:52:34.756913,262099,1425109389,1425111210,-1.11264,0.056608,-0.101504,-18.61125,3.4475,-19.62625,47.208004,4.872,28.984001,eccentric,5,3.0,22762.0,326762.0,295093.0,347576.0,305296.0
2026-04-07 17:52:34.758595,262100,1425123997,1425126129,-1.104832,0.064416,-0.122976,-13.27375,4.15625,-23.75625,47.224003,5.256,30.216002,eccentric,5,3.0,22762.0,326762.0,295093.0,347576.0,305296.0
2026-04-07 17:52:34.760184,262101,1425133101,1425134862,-1.104832,0.064416,-0.122976,-9.66,5.03125,-26.460001,47.224003,5.256,30.216002,eccentric,5,3.0,22762.0,326762.0,295093.0,347576.0,305296.0
2026-04-07 17:52:34.764492,262102,1425142136,1425143563,-1.134112,0.101504,-0.109312,-5.145,5.04875,-28.77,46.176003,5.448,31.016,eccentric,5,3.0,22762.0,326762.0,295093.0,347576.0,305296.0
2026-04-07 17:52:34.797432,262103,1425151177,1425152246,-1.134112,0.101504,-0.109312,-3.9725,5.34625,-29.86375,46.176003,5.448,31.016,eccentric,5,3.0,22762.0,326762.0,295093.0,347576.0,305296.0
2026-04-07 17:52:34.799752,262104,1425165714,1425167227,-1.130208,0.044896,-0.07808,-7.0875,3.92,-29.35625,46.176003,5.296001,30.888002,concentric,5,3.0,22762.0,326762.0,295093.0,347576.0,305296.0
2026-04-07 17:52:34.805163,262105,1425174722,1425175941,-1.130208,0.044896,-0.07808,-9.625,3.75375,-29.07625,46.176003,5.296001,30.888002,concentric,5,3.0,22762.0,326762.0,295093.0,347576.0,305296.0
2026-04-07 17:52:34.807809,262106,1425183750,1425184612,-1.130208,-0.007808,-0.060512,-9.28375,4.08625,-28.1225,46.352,6.072001,29.392002,concentric,5,3.0,22762.0,326762.0,295093.0,347576.0,305296.0
2026-04-07 17:52:34.808466,262107,1425198296,1425199488,-1.130208,-0.007808,-0.060512,-5.5475,4.025,-28.875,46.352,6.072001,29.392002,concentric,5,3.0,22762.0,326762.0,295093.0,347576.0,305296.0
2026-04-07 17:52:34.838781,262108,1425207230,1425208228,-1.149728,0.033184,-0.040992,-1.81125,5.52125,-29.60125,46.696003,6.296001,29.760002,concentric,5,3.0,22762.0,326762.0,295093.0,347576.0,305296.0
2026-04-07 17:52:34.868887,262119,1425216226,1425216975,-1.149728,0.033184,-0.040992,0.6475,6.76375,-30.70375,46.696003,6.296001,29.760002,concentric,5,3.0,21921.0,318733.0,288224.0,339398.0,298752.0
2026-04-07 17:52:34.873123,262120,1425225598,1425227719,-1.143872,0.070272,-0.037088,-1.12875,7.70875,-30.380001,46.552002,6.480001,29.616001,concentric,5,3.0,21921.0,318733.0,288224.0,339398.0,298752.0
2026-04-07 17:52:34.876339,262121,1425240139,1425240577,-1.175104,0.054656,-0.074176,-5.88,8.5925,-30.161251,45.24,6.976,30.088001,concentric,5,3.0,21921.0,318733.0,288224.0,339398.0,298752.0
2026-04-07 17:52:34.881176,262122,1425249639,1425251399,-1.175104,0.054656,-0.074176,-9.31,10.167501,-31.38625,45.24,6.976,30.088001,concentric,5,3.0,21921.0,318733.0,288224.0,339398.0,298752.0
2026-04-07 17:52:34.882643,262123,1425258620,1425260130,-1.175104,0.054656,-0.074176,-11.05125,9.835,-32.576252,45.24,6.976,30.088001,concentric,5,3.0,21921.0,318733.0,288224.0,339398.0,298752.0
2026-04-07 17:52:34.889318,262124,1425273164,1425275130,-1.1712,0.015616,-0.115168,-10.386251,8.82875,-33.73125,45.528004,7.144001,30.752,concentric,5,3.0,21921.0,318733.0,288224.0,339398.0,298752.0
2026-04-07 17:52:34.894292,262125,1425282110,1425283854,-1.186816,0.044896,-0.11712,-6.125,8.40875,-34.60625,45.760002,8.016001,29.168001,concentric,5,3.0,21921.0,318733.0,288224.0,339398.0,298752.0
2026-04-07 17:52:34.922850,262126,1425291084,1425292598,-1.186816,0.044896,-0.11712,-1.365,9.135,-35.805,45.760002,8.016001,29.168001,concentric,5,3.0,21921.0,318733.0,288224.0,339398.0,298752.0
2026-04-07 17:52:34.936999,262127,1425305582,1425307490,-1.194624,0.040992,-0.083936,-0.3675,9.7125,-36.96875,44.992,7.672,29.464,concentric,5,3.0,21921.0,318733.0,288224.0,339398.0,298752.0
2026-04-07 17:52:34.961148,262137,1425314647,1425316272,-1.194624,0.040992,-0.083936,-2.02125,9.1525,-36.75,44.992,7.672,29.464,concentric,5,3.0,21173.0,311897.0,282527.0,333137.0,293536.0
2026-04-07 17:52:34.962668,262138,1425323685,1425324949,-1.194624,0.003904,-0.031232,-3.47375,8.65375,-34.16875,44.728,8.264,28.768002,concentric,5,3.0,21173.0,311897.0,282527.0,333137.0,293536.0
2026-04-07 17:52:34.967058,262139,1425332633,1425333687,-1.194624,0.003904,-0.031232,-6.71125,7.14875,-32.01625,44.728,8.264,28.768002,concentric,5,3.0,21173.0,311897.0,282527.0,333137.0,293536.0
2026-04-07 17:52:34.973223,262140,1425347129,1425348625,-1.165344,-0.03904,-0.05856,-9.975,8.1725,-32.2175,44.648003,8.192,29.048002,concentric,5,3.0,21173.0,311897.0,282527.0,333137.0,293536.0
2026-04-07 17:52:34.974848,262141,1425356086,1425357311,-1.165344,-0.03904,-0.05856,-11.5675,10.05375,-34.2825,44.648003,8.192,29.048002,concentric,5,3.0,21173.0,311897.0,282527.0,333137.0,293536.0
2026-04-07 17:52:34.977204,262142,1425364971,1425365999,-1.188768,0.033184,-0.08784,-9.12625,11.87375,-34.6675,44.528004,8.752001,28.864002,concentric,5,3.0,21173.0,311897.0,282527.0,333137.0,293536.0
2026-04-07 17:52:35.007490,262143,1425379447,1425380998,-1.188768,0.080032,-0.08784,-4.4625,12.48625,-34.79,44.528004,8.752001,28.864002,concentric,5,3.0,21173.0,311897.0,282527.0,333137.0,293536.0
2026-04-07 17:52:35.009766,262144,1425388384,1425389712,-1.204384,0.07808,-0.08784,-0.8575,13.4925,-33.9675,44.280003,9.392,27.416,concentric,5,3.0,21173.0,311897.0,282527.0,333137.0,293536.0
2026-04-07 17:52:35.014403,262145,1425397295,1425398399,-1.204384,0.07808,-0.08784,1.65375,13.09875,-32.795002,44.280003,9.392,27.416,concentric,5,3.0,21173.0,311897.0,282527.0,333137.0,293536.0
2026-04-07 17:52:35.041054,262155,1425412338,1425413493,-1.218048,0.023424,-0.121024,3.22,13.1075,-32.41,44.248,9.816001,28.584002,concentric,5,3.0,20828.0,308938.0,280318.0,331195.0,292090.0
2026-04-07 17:52:35.042610,262156,1425421384,1425422267,-1.235616,-0.037088,-0.130784,2.59875,13.0375,-32.29625,44.072002,10.024,29.736002,concentric,5,3.0,20828.0,308938.0,280318.0,331195.0,292090.0
2026-04-07 17:52:35.046738,262157,1425430317,1425431005,-1.235616,-0.037088,-0.130784,0.34125,12.67875,-33.0925,44.072002,10.024,29.736002,concentric,5,3.0,20828.0,308938.0,280318.0,331195.0,292090.0
2026-04-07 17:52:35.051701,262158,1425439647,1425441798,-1.235616,-0.037088,-0.06832,1.05,12.6525,-33.76625,44.072002,10.024,29.736002,concentric,5,3.0,20828.0,308938.0,280318.0,331195.0,292090.0
2026-04-07 17:52:35.095029,262159,1425454168,1425454625,-1.23952,0.031232,-0.06832,7.04375,13.32625,-34.2825,43.232002,10.224001,29.768002,concentric,5,3.0,20828.0,308938.0,280318.0,331195.0,292090.0
2026-04-07 17:52:35.097274,262160,1425463575,1425465404,-1.247328,0.099552,-0.076128,13.405,14.83125,-34.30875,43.008003,10.552,28.288002,concentric,5,3.0,20828.0,308938.0,280318.0,331195.0,292090.0
2026-04-07 17:52:35.101859,262161,1425472483,1425474140,-1.247328,0.099552,-0.076128,13.51875,15.09375,-35.65625,43.008003,10.552,28.288002,concentric,5,3.0,20828.0,308938.0,280318.0,331195.0,292090.0
2026-04-07 17:52:35.103551,262162,1425481385,1425482820,-1.284416,0.119072,-0.130784,10.9725,15.645,-36.9075,42.576,11.576,29.600002,concentric,5,3.0,20828.0,308938.0,280318.0,331195.0,292090.0
2026-04-07 17:52:35.105199,262163,1425495899,1425497822,-1.284416,0.119072,-0.130784,9.5375,17.2025,-37.607502,42.576,11.576,29.600002,concentric,5,3.0,20828.0,308938.0,280318.0,331195.0,292090.0
2026-04-07 17:52:35.136223,262164,1425504820,1425506553,-1.344928,0.040992,-0.095648,8.1725,18.06,-36.12875,41.792004,11.368001,29.416002,concentric,5,3.0,20828.0,308938.0,280318.0,331195.0,292090.0
2026-04-07 17:52:35.171964,262175,1425514271,1425515310,-1.344928,0.040992,-0.095648,5.78375,17.9025,-34.97375,41.792004,11.368001,29.416002,concentric,5,3.0,20713.0,307946.0,279839.0,331440.0,293093.0
2026-04-07 17:52:35.173618,262176,1425528953,1425530275,-1.315648,-0.05856,-0.103456,3.6575,15.995,-36.1375,42.296,11.832001,28.528002,concentric,5,3.0,20713.0,307946.0,279839.0,331440.0,293093.0
2026-04-07 17:52:35.175340,262177,1425537862,1425539032,-1.315648,-0.05856,-0.103456,4.29625,14.096251,-36.35625,42.296,11.832001,28.528002,concentric,5,3.0,20713.0,307946.0,279839.0,331440.0,293093.0
2026-04-07 17:52:35.179373,262178,1425546786,1425547733,-1.245376,0.001952,-0.183488,6.83375,12.78375,-37.44125,41.512,12.320001,28.176,concentric,5,3.0,20713.0,307946.0,279839.0,331440.0,293093.0
2026-04-07 17:52:35.181162,262179,1425555872,1425556467,-1.245376,0.001952,-0.183488,12.6525,12.76625,-39.2,41.512,12.320001,28.176,concentric,5,3.0,20713.0,307946.0,279839.0,331440.0,293093.0
2026-04-07 17:52:35.182930,262180,1425570646,1425571369,-1.247328,0.070272,-0.177632,19.635,13.3525,-40.27625,41.152,12.280001,30.056002,concentric,5,3.0,20713.0,307946.0,279839.0,331440.0,293093.0
2026-04-07 17:52:35.188932,262181,1425580038,1425582195,-1.247328,0.070272,-0.177632,18.13,12.10125,-38.8325,41.152,12.280001,30.056002,concentric,5,3.0,20713.0,307946.0,279839.0,331440.0,293093.0
2026-04-07 17:52:35.220213,262182,1425588993,1425590910,-1.335168,-0.054656,-0.167872,9.730001,9.6425,-34.90375,39.792004,12.864,30.656002,concentric,5,3.0,20713.0,307946.0,279839.0,331440.0,293093.0
2026-04-07 17:52:35.222453,262183,1425603511,1425605827,-1.309792,-0.101504,-0.0976,5.1275,4.9,-30.17,40.800003,13.080001,28.728,concentric,5,3.0,20713.0,307946.0,279839.0,331440.0,293093.0
2026-04-07 17:52:35.253881,262193,1425612511,1425614582,-1.309792,-0.101504,-0.0976,9.065,-0.39375,-25.47125,40.800003,13.080001,28.728,concentric,5,3.0,20505.0,306283.0,278695.0,330639.0,292891.0
2026-04-07 17:52:35.258138,262194,1425621575,1425623409,-1.167296,0.023424,-0.1464,14.7175,-3.84125,-27.72875,39.536003,13.52,29.608002,concentric,5,3.0,20505.0,306283.0,278695.0,330639.0,292891.0
2026-04-07 17:52:35.259843,262195,1425630603,1425632138,-1.167296,0.023424,-0.1464,20.895,-4.69,-35.735,39.536003,13.52,29.608002,concentric,5,3.0,20505.0,306283.0,278695.0,330639.0,292891.0
2026-04-07 17:52:35.261405,262196,1425645087,1425647057,-1.18096,0.154208,-0.062464,25.40125,-3.21125,-42.9275,38.928,13.6,30.104002,concentric,5,3.0,20505.0,306283.0,278695.0,330639.0,292891.0
2026-04-07 17:52:35.265540,262197,1425654018,1425655756,-1.18096,0.154208,-0.062464,26.62625,-1.77625,-47.90625,38.928,13.6,30.104002,concentric,5,3.0,20505.0,306283.0,278695.0,330639.0,292891.0
2026-04-07 17:52:35.294996,262198,1425663040,1425664462,-1.065792,0.148352,0.01952,22.12,-0.11375,-52.71875,38.472,14.168,27.136002,concentric,5,3.0,20505.0,306283.0,278695.0,330639.0,292891.0
2026-04-07 17:52:35.297225,262199,1425677502,1425679351,-1.065792,0.148352,0.01952,12.573751,1.33875,-60.2175,38.472,14.168,27.136002,concentric,5,3.0,20505.0,306283.0,278695.0,330639.0,292891.0
2026-04-07 17:52:35.305176,262200,1425686388,1425688026,-1.011136,0.05856,0.042944,5.11,3.54375,-67.6025,37.760002,15.016001,28.952002,concentric,5,3.0,20505.0,306283.0,278695.0,330639.0,292891.0
2026-04-07 17:52:35.305894,262201,1425695325,1425696743,-1.011136,0.05856,0.042944,3.24625,6.92125,-73.42125,37.760002,15.016001,28.952002,concentric,5,3.0,20505.0,306283.0,278695.0,330639.0,292891.0
2026-04-07 17:52:35.362662,262211,1425709794,1425712109,-1.0248,-0.001952,0.021472,5.88,9.94,-79.0125,37.288002,15.512001,30.136002,concentric,5,3.0,19881.0,300354.0,274069.0,326541.0,290253.0
2026-04-07 17:52:35.397310,262212,1425718729,1425720791,-1.0248,-0.001952,0.021472,8.14625,12.59125,-82.2675,37.288002,15.512001,30.136002,concentric,5,3.0,19881.0,300354.0,274069.0,326541.0,290253.0
2026-04-07 17:52:35.400158,262213,1425727709,1425729527,-1.056032,0.00976,0.00976,11.5325,15.3825,-81.235,36.912003,16.648,28.936,concentric,5,3.0,19881.0,300354.0,274069.0,326541.0,290253.0
2026-04-07 17:52:35.402582,262214,1425742189,1425744466,-1.009184,0.046848,0.021472,14.16625,18.45375,-79.38875,34.896,16.52,27.968,concentric,5,3.0,19881.0,300354.0,274069.0,326541.0,290253.0
2026-04-07 17:52:35.405134,262215,1425751115,1425753161,-1.009184,0.046848,0.021472,15.21625,23.38875,-80.01,34.896,16.52,27.968,concentric,5,3.0,19881.0,300354.0,274069.0,326541.0,290253.0
2026-04-07 17:52:35.407616,262216,1425760123,1425761904,-1.009184,0.046848,0.021472,15.365,28.90125,-83.308754,34.896,16.52,27.968,concentric,5,3.0,19881.0,300354.0,274069.0,326541.0,290253.0
2026-04-07 17:52:35.410107,262217,1425769109,1425770616,-1.067744,-0.017568,0.044896,11.095,33.80125,-84.86625,34.872,17.776001,29.400002,concentric,5,3.0,19881.0,300354.0,274069.0,326541.0,290253.0
2026-04-07 17:52:35.412688,262218,1425783564,1425785496,-1.098976,-0.033184,-0.076128,2.19625,35.49875,-86.66,33.136,17.68,28.552002,concentric,5,3.0,19881.0,300354.0,274069.0,326541.0,290253.0
2026-04-07 17:52:35.415095,262219,1425792520,1425794188,-1.098976,-0.033184,-0.076128,-2.415,35.77875,-85.60125,33.136,17.68,28.552002,concentric,5,3.0,19881.0,300354.0,274069.0,326541.0,290253.0
2026-04-07 17:52:35.417673,262220,1425801517,1425802925,-1.098976,-0.080032,-0.160064,1.44375,35.34125,-82.1275,33.136,17.68,28.552002,concentric,5,3.0,19881.0,300354.0,274069.0,326541.0,290253.0
2026-04-07 17:52:35.451315,262231,1425816202,1425817930,-1.04432,-0.085888,-0.160064,7.945,33.29375,-79.19625,32.608,17.592001,28.008001,concentric,5,3.0,19911.0,301726.0,275994.0,330102.0,294046.0
2026-04-07 17:52:35.453824,262232,1425825258,1425826715,-1.059936,-0.031232,-0.11712,14.9625,30.07375,-75.29375,31.504002,18.224,28.44,concentric,5,3.0,19911.0,301726.0,275994.0,330102.0,294046.0
2026-04-07 17:52:35.456350,262233,1425834268,1425835439,-1.059936,-0.031232,-0.11712,23.49375,28.630001,-71.26,31.504002,18.224,28.44,concentric,5,3.0,19911.0,301726.0,275994.0,330102.0,294046.0
2026-04-07 17:52:35.458763,262234,1425848868,1425850368,-1.048224,0.007808,-0.083936,33.5125,27.76375,-68.67875,30.232002,17.968,32.296,concentric,5,3.0,19911.0,301726.0,275994.0,330102.0,294046.0
2026-04-07 17:52:35.489088,262235,1425857850,1425859079,-1.048224,0.007808,-0.083936,33.5125,27.37,-67.31375,30.232002,17.968,32.296,concentric,5,3.0,19911.0,301726.0,275994.0,330102.0,294046.0
2026-04-07 17:52:35.492672,262236,1425866706,1425867793,-0.954528,-0.124928,-0.091744,24.57875,27.825,-67.55,29.744001,18.976002,28.744001,concentric,5,3.0,19911.0,301726.0,275994.0,330102.0,294046.0
2026-04-07 17:52:35.495141,262237,1425875661,1425876544,-0.954528,-0.124928,-0.091744,16.65125,29.56625,-68.2325,29.744001,18.976002,28.744001,concentric,5,3.0,19911.0,301726.0,275994.0,330102.0,294046.0
2026-04-07 17:52:35.498860,262238,1425890208,1425891456,-0.942816,-0.245952,-0.109312,13.27375,33.635,-63.58625,28.952002,18.720001,28.848001,concentric,5,3.0,19911.0,301726.0,275994.0,330102.0,294046.0
2026-04-07 17:52:35.529052,262239,1425899209,1425900191,-0.942816,-0.245952,-0.109312,15.2775,37.52,-56.04375,28.952002,18.720001,28.848001,concentric,5,3.0,19911.0,301726.0,275994.0,330102.0,294046.0
2026-04-07 17:52:35.532593,262240,1425908147,1425908906,-1.032608,-0.17568,-0.054656,23.1,41.3525,-46.73375,28.832,19.080002,28.568,concentric,5,3.0,19911.0,301726.0,275994.0,330102.0,294046.0
2026-04-07 17:52:35.559383,262250,1425923168,1425923813,-0.911584,-0.074176,-0.070272,33.52125,45.5175,-37.44125,28.264002,19.136002,28.752,concentric,5,3.0,19817.0,301527.0,275880.0,330826.0,294912.0
2026-04-07 17:52:35.561182,262251,1425932511,1425934613,-0.911584,-0.074176,-0.070272,33.3725,49.74375,-33.73125,28.264002,19.136002,28.752,concentric,5,3.0,19817.0,301527.0,275880.0,330826.0,294912.0
2026-04-07 17:52:35.562876,262252,1425941485,1425943330,-0.911584,-0.074176,-0.070272,21.665,53.095,-35.945,28.264002,19.136002,28.752,concentric,5,3.0,19817.0,301527.0,275880.0,330826.0,294912.0
2026-04-07 17:52:35.566713,262253,1425950478,1425952038,-0.923296,-0.101504,-0.162016,12.62625,54.04,-35.8925,27.864002,19.624,28.760002,concentric,5,3.0,19817.0,301527.0,275880.0,330826.0,294912.0
2026-04-07 17:52:35.597473,262254,1425965114,1425967000,-0.880352,-0.222528,-0.191296,6.16,53.59375,-33.92375,27.968,19.176,30.032001,concentric,5,3.0,19817.0,301527.0,275880.0,330826.0,294912.0
2026-04-07 17:52:35.600157,262255,1425974027,1425975714,-0.880352,-0.222528,-0.191296,1.05,51.52875,-31.42125,27.968,19.176,30.032001,concentric,5,3.0,19817.0,301527.0,275880.0,330826.0,294912.0
2026-04-07 17:52:35.604269,262256,1425982970,1425984434,-0.772992,-0.27328,-0.177632,-1.88125,49.86625,-30.31875,27.160002,19.320002,27.720001,concentric,5,3.0,19817.0,301527.0,275880.0,330826.0,294912.0
2026-04-07 17:52:35.609721,262257,1425997479,1425999366,-0.772992,-0.27328,-0.177632,-3.4475,47.85375,-27.71125,27.160002,19.320002,27.720001,concentric,5,3.0,19817.0,301527.0,275880.0,330826.0,294912.0
2026-04-07 17:52:35.640002,262258,1426006516,1426008075,-0.8784,-0.158112,-0.249856,3.07125,44.72125,-23.625,27.160002,19.432001,28.512001,concentric,5,3.0,19817.0,301527.0,275880.0,330826.0,294912.0
2026-04-07 17:52:35.701742,262268,1426015588,1426017020,-0.8784,-0.158112,-0.249856,14.2975,39.05125,-21.07875,27.160002,19.432001,28.512001,concentric,5,3.0,19860.0,302908.0,277442.0,333789.0,297985.0
2026-04-07 17:52:35.707006,262269,1426024651,1426025715,-0.80032,-0.150304,-0.271328,27.0025,33.74875,-17.255,26.512001,19.032001,28.840002,concentric,5,3.0,19860.0,302908.0,277442.0,333789.0,297985.0
2026-04-07 17:52:35.707665,262270,1426039128,1426040658,-0.80032,-0.150304,-0.271328,32.55875,30.905,-15.4525,26.512001,19.032001,28.840002,concentric,5,3.0,19860.0,302908.0,277442.0,333789.0,297985.0
2026-04-07 17:52:35.711851,262271,1426048063,1426049495,-0.788608,-0.208864,-0.130784,30.70375,27.58,-15.79375,26.288002,18.664001,29.856,concentric,5,3.0,19860.0,302908.0,277442.0,333789.0,297985.0
2026-04-07 17:52:35.713566,262272,1426057038,1426058187,-0.788608,-0.208864,-0.130784,26.6525,23.8525,-13.93875,26.288002,18.664001,29.856,concentric,5,3.0,19860.0,302908.0,277442.0,333789.0,297985.0
2026-04-07 17:52:35.715253,262273,1426071623,1426073124,-0.85888,-0.257664,-0.13664,16.485,17.64,-11.48875,26.432001,19.048,29.944002,concentric,5,3.0,19860.0,302908.0,277442.0,333789.0,297985.0
2026-04-07 17:52:35.719679,262274,1426080551,1426081847,-0.85888,-0.257664,-0.13664,4.83,9.21375,-8.84625,26.432001,19.048,29.944002,concentric,5,3.0,19860.0,302908.0,277442.0,333789.0,297985.0
2026-04-07 17:52:35.721946,262275,1426089497,1426090583,-0.726144,-0.238144,-0.228384,5.31125,6.86875,-3.92,27.112001,18.872002,28.808,concentric,5,3.0,19860.0,302908.0,277442.0,333789.0,297985.0
2026-04-07 17:52:35.723570,262276,1426104071,1426105482,-0.696864,-0.179584,-0.230336,10.84125,5.5475,-1.4175,26.408,18.656,31.728,concentric,5,3.0,19860.0,302908.0,277442.0,333789.0,297985.0
