pc_time,serial_num,sensor_ts,host_ts,ax,ay,az,gx,gy,gz,mx,my,mz,phase,rpe,weight_kg,ppg_a,ppg_b,ppg_c,ppg_d,ppg_e
2026-04-08 21:45:54.844812,197103,1609503927070861,1527037637,0.84912,0.080032,-0.12688,26.022501,11.48875,16.07375,-16.856,-4.528,-17.968,eccentric,4,3.0,19348.0,139536.0,225139.0,276152.0,260965.0
2026-04-08 21:45:54.877108,197114,1609503927079795,1527046351,0.84912,0.083936,-0.099552,27.69375,12.73125,17.26375,-17.12,-4.72,-19.52,eccentric,4,3.0,19460.0,139943.0,225681.0,276573.0,261197.0
2026-04-08 21:45:54.879576,197115,1609503927088673,1527054991,0.84912,0.083936,-0.099552,26.74875,13.4575,19.460001,-17.12,-4.72,-19.52,eccentric,4,3.0,19460.0,139943.0,225681.0,276573.0,261197.0
2026-04-08 21:45:54.882087,197116,1609503927103162,1527069888,0.74176,0.091744,-0.327936,29.11125,14.95375,20.78125,-17.68,-4.512,-17.976002,eccentric,4,3.0,19460.0,139943.0,225681.0,276573.0,261197.0
2026-04-08 21:45:54.884606,197117,1609503927112101,1527078656,0.74176,0.091744,-0.327936,33.6175,16.26625,22.7675,-17.68,-4.512,-17.976002,eccentric,4,3.0,19460.0,139943.0,225681.0,276573.0,261197.0
2026-04-08 21:45:54.887148,197118,1609503927126721,1527093563,0.745664,0.101504,-0.296704,31.885,15.56625,23.75625,-17.752,-4.048,-19.240002,eccentric,4,3.0,19460.0,139943.0,225681.0,276573.0,261197.0
2026-04-08 21:45:54.917340,197119,1609503927135674,1527102224,0.745664,0.101504,-0.296704,26.3375,12.10125,22.12,-17.752,-4.048,-19.240002,eccentric,4,3.0,19460.0,139943.0,225681.0,276573.0,261197.0
2026-04-08 21:45:54.920916,197120,1609503927150136,1527117131,0.776896,0.089792,-0.035136,24.94625,8.33,19.80125,-17.696001,-4.248,-20.656,eccentric,4,3.0,19460.0,139943.0,225681.0,276573.0,261197.0
2026-04-08 21:45:54.923376,197121,1609503927159083,1527125821,0.821792,0.093696,-0.22448,32.1825,4.865,21.5775,-18.128,-3.808,-18.768002,eccentric,4,3.0,19460.0,139943.0,225681.0,276573.0,261197.0
2026-04-08 21:45:54.927131,197122,1609503927168008,1527134478,0.821792,0.093696,-0.22448,42.07875,5.2675,22.4875,-18.128,-3.808,-18.768002,eccentric,4,3.0,19460.0,139943.0,225681.0,276573.0,261197.0
2026-04-08 21:45:54.957161,197133,1609503927182498,1527149420,0.983808,0.072224,-0.245952,45.2025,9.135,21.2625,-18.056002,-3.464,-19.272001,eccentric,4,3.0,19529.0,140514.0,226614.0,277347.0,261676.0
2026-04-08 21:45:54.963390,197134,1609503927191436,1527158078,0.983808,0.072224,-0.245952,32.33125,11.90875,18.31375,-18.056002,-3.464,-19.272001,eccentric,4,3.0,19529.0,140514.0,226614.0,277347.0,261676.0
2026-04-08 21:45:54.965896,197135,1609503927205978,1527173001,0.919392,0.121024,-0.181536,15.3825,11.095,15.42625,-17.944,-3.592,-19.080002,eccentric,4,3.0,19529.0,140514.0,226614.0,277347.0,261676.0
2026-04-08 21:45:54.996138,197136,1609503927214901,1527181672,0.919392,0.121024,-0.181536,12.97625,12.1975,15.53125,-17.944,-3.592,-19.080002,eccentric,4,3.0,19529.0,140514.0,226614.0,277347.0,261676.0
2026-04-08 21:45:54.999635,197137,1609503927229376,1527196501,0.884256,0.046848,0.015616,22.02375,11.22625,19.5125,-18.456001,-3.192,-18.864,eccentric,4,3.0,19529.0,140514.0,226614.0,277347.0,261676.0
2026-04-08 21:45:55.002133,197138,1609503927238275,1527205142,0.999424,-0.017568,-0.226432,23.59,8.12875,24.01875,-18.68,-2.776,-18.592001,eccentric,4,3.0,19529.0,140514.0,226614.0,277347.0,261676.0
2026-04-08 21:45:55.005882,197139,1609503927247246,1527213869,0.999424,-0.017568,-0.226432,14.34125,6.51875,23.4325,-18.68,-2.776,-18.592001,eccentric,4,3.0,19529.0,140514.0,226614.0,277347.0,261676.0
2026-04-08 21:45:55.036055,197140,1609503927261725,1527228752,0.942816,0.03904,-0.406016,3.21125,8.435,18.85625,-18.864,-2.688,-18.048,eccentric,4,3.0,19529.0,140514.0,226614.0,277347.0,261676.0
2026-04-08 21:45:55.039620,197141,1609503927270624,1527237401,0.942816,0.03904,-0.406016,-1.3475,14.42875,16.1,-18.864,-2.688,-18.048,eccentric,4,3.0,19529.0,140514.0,226614.0,277347.0,261676.0
2026-04-08 21:45:55.071580,197153,1609503927285183,1527250659,0.856928,0.103456,-0.226432,2.17875,21.647501,16.5725,-19.104,-2.96,-18.52,eccentric,4,3.0,19225.0,139565.0,225647.0,276789.0,261490.0
2026-04-08 21:45:55.104906,197154,1609503927294515,1527261404,0.856928,0.103456,-0.226432,8.61875,25.75125,22.960001,-19.104,-2.96,-18.52,eccentric,4,3.0,19225.0,139565.0,225647.0,276789.0,261490.0
2026-04-08 21:45:55.108415,197155,1609503927309043,1527274248,0.808128,0.035136,-0.0488,5.215,24.0625,28.28875,-19.632002,-2.504,-17.768002,eccentric,4,3.0,19225.0,139565.0,225647.0,276789.0,261490.0
2026-04-08 21:45:55.110853,197156,1609503927318259,1527285041,0.821792,-0.023424,-0.177632,-6.27375,22.225,26.32,-19.864,-2.856,-17.608002,eccentric,4,3.0,19225.0,139565.0,225647.0,276789.0,261490.0
2026-04-08 21:45:55.113360,197157,1609503927327148,1527293695,0.821792,-0.023424,-0.177632,-17.3425,19.50375,21.428751,-19.864,-2.856,-17.608002,eccentric,4,3.0,19225.0,139565.0,225647.0,276789.0,261490.0
2026-04-08 21:45:55.116006,197158,1609503927341611,1527308563,0.827648,0.005856,-0.294752,-21.2975,21.49,17.96375,-20.088001,-2.792,-18.368,eccentric,4,3.0,19225.0,139565.0,225647.0,276789.0,261490.0
2026-04-08 21:45:55.118381,197159,1609503927350514,1527317213,0.827648,0.005856,-0.294752,-15.56625,24.815,19.6525,-20.088001,-2.792,-18.368,eccentric,4,3.0,19225.0,139565.0,225647.0,276789.0,261490.0
2026-04-08 21:45:55.123365,197160,1609503927365098,1527332130,0.7808,0.02928,-0.064416,-12.53875,26.62625,23.45,-20.712002,-2.96,-17.176,eccentric,4,3.0,19225.0,139565.0,225647.0,276789.0,261490.0
2026-04-08 21:45:55.179616,197171,1609503927374052,1527340766,0.7808,0.02928,-0.064416,-13.055,27.825,24.2025,-20.712002,-2.96,-17.176,eccentric,4,3.0,19189.0,139566.0,225802.0,276976.0,261593.0
2026-04-08 21:45:55.182114,197172,1609503927383049,1527349450,0.8784,-0.080032,-0.052704,-13.02,27.62375,23.6425,-20.808,-3.16,-17.776001,eccentric,4,3.0,19189.0,139566.0,225802.0,276976.0,261593.0
2026-04-08 21:45:55.184620,197173,1609503927397543,1527364305,0.8784,-0.080032,-0.052704,-20.553751,26.1625,23.9925,-20.808,-3.16,-17.776001,eccentric,4,3.0,19189.0,139566.0,225802.0,276976.0,261593.0
2026-04-08 21:45:55.187102,197174,1609503927406466,1527373028,1.030656,-0.046848,-0.056608,-33.145,25.9525,19.20625,-21.248001,-3.112,-17.544,eccentric,4,3.0,19189.0,139566.0,225802.0,276976.0,261593.0
2026-04-08 21:45:55.189609,197175,1609503927420987,1527388006,0.909632,-0.005856,-0.158112,-36.58375,28.95375,10.36875,-21.6,-3.272,-16.496,eccentric,4,3.0,19189.0,139566.0,225802.0,276976.0,261593.0
2026-04-08 21:45:55.192124,197176,1609503927429930,1527396702,0.909632,-0.005856,-0.158112,-28.14,31.84125,9.52,-21.6,-3.272,-16.496,eccentric,4,3.0,19189.0,139566.0,225802.0,276976.0,261593.0
2026-04-08 21:45:55.222362,197177,1609503927444448,1527411599,0.827648,0.003904,-0.140544,-18.08625,32.1475,16.38,-22.216002,-3.248,-15.920001,eccentric,4,3.0,19189.0,139566.0,225802.0,276976.0,261593.0
2026-04-08 21:45:55.225883,197178,1609503927453379,1527420305,0.827648,0.003904,-0.140544,-17.33375,29.89875,20.32625,-22.216002,-3.248,-15.920001,eccentric,4,3.0,19189.0,139566.0,225802.0,276976.0,261593.0
2026-04-08 21:45:55.231146,197179,1609503927462336,1527428963,1.026752,-0.109312,0.0,-20.6675,26.7225,17.64,-22.296001,-3.584,-16.624,eccentric,4,3.0,19189.0,139566.0,225802.0,276976.0,261593.0
2026-04-08 21:45:55.264688,197190,1609503927477247,1527443884,1.026752,-0.109312,0.0,-21.385,25.375,14.0525,-22.296001,-3.584,-16.624,eccentric,4,3.0,19363.0,139805.0,225899.0,276798.0,261289.0
2026-04-08 21:45:55.270940,197191,1609503927486309,1527452560,1.0736,-0.089792,-0.083936,-21.105,25.34875,12.80125,-22.568,-3.864,-16.688002,eccentric,4,3.0,19363.0,139805.0,225899.0,276798.0,261289.0
2026-04-08 21:45:55.273392,197192,1609503927500897,1527467475,1.01504,-0.033184,-0.08784,-21.70875,27.1075,9.8175,-23.144001,-3.648,-18.12,eccentric,4,3.0,19363.0,139805.0,225899.0,276798.0,261289.0
2026-04-08 21:45:55.275861,197193,1609503927509818,1527476142,1.01504,-0.033184,-0.08784,-14.9975,28.411251,7.63,-23.144001,-3.648,-18.12,eccentric,4,3.0,19363.0,139805.0,225899.0,276798.0,261289.0
2026-04-08 21:45:55.306055,197194,1609503927524398,1527491065,1.04432,-0.007808,0.132736,-8.60125,28.09625,10.50875,-23.000002,-3.912,-14.288001,eccentric,4,3.0,19363.0,139805.0,225899.0,276798.0,261289.0
2026-04-08 21:45:55.310425,197195,1609503927533318,1527499751,1.04432,-0.007808,0.132736,-9.9225,25.4625,13.545,-23.000002,-3.912,-14.288001,eccentric,4,3.0,19363.0,139805.0,225899.0,276798.0,261289.0
2026-04-08 21:45:55.313477,197196,1609503927542241,1527508416,1.050176,-0.099552,-0.074176,-11.585,22.19875,12.03125,-23.648,-4.408,-15.824,eccentric,4,3.0,19363.0,139805.0,225899.0,276798.0,261289.0
2026-04-08 21:45:55.316189,197197,1609503927556693,1527523274,1.050176,-0.099552,-0.074176,-9.695,20.18625,10.26375,-23.648,-4.408,-15.824,eccentric,4,3.0,19363.0,139805.0,225899.0,276798.0,261289.0
2026-04-08 21:45:55.347019,197198,1609503927565594,1527531930,1.016992,-0.050752,-0.031232,-5.85375,20.3525,12.03125,-24.032001,-4.128,-15.616001,eccentric,4,3.0,19363.0,139805.0,225899.0,276798.0,261289.0
2026-04-08 21:45:55.406823,197209,1609503927580196,1527546924,1.028704,-0.017568,0.093696,-0.67375,20.78125,11.76,-24.064001,-3.96,-15.288001,eccentric,4,3.0,19061.0,139042.0,225272.0,276530.0,261288.0
2026-04-08 21:45:55.411490,197210,1609503927589097,1527555574,1.028704,-0.017568,0.093696,0.665,20.76375,12.9675,-24.064001,-3.96,-15.288001,eccentric,4,3.0,19061.0,139042.0,225272.0,276530.0,261288.0
2026-04-08 21:45:55.413125,197211,1609503927598036,1527564234,1.028704,-0.017568,0.093696,-4.40125,20.79,14.90125,-24.064001,-3.96,-15.288001,eccentric,4,3.0,19061.0,139042.0,225272.0,276530.0,261288.0
2026-04-08 21:45:55.414668,197212,1609503927612556,1527579109,1.095072,-0.064416,-0.163968,-8.3125,21.74375,15.2775,-24.296001,-4.448,-15.232,eccentric,4,3.0,19061.0,139042.0,225272.0,276530.0,261288.0
2026-04-08 21:45:55.418925,197213,1609503927621513,1527587810,1.1224,-0.001952,0.040992,-13.5275,21.44625,16.98375,-25.112001,-4.256,-13.920001,eccentric,4,3.0,19061.0,139042.0,225272.0,276530.0,261288.0
2026-04-08 21:45:55.420561,197214,1609503927636049,1527602678,1.1224,-0.001952,0.040992,-15.33875,20.965,19.11,-25.112001,-4.256,-13.920001,eccentric,4,3.0,19061.0,139042.0,225272.0,276530.0,261288.0
2026-04-08 21:45:55.423041,197215,1609503927645008,1527611393,1.003328,-0.005856,0.052704,-9.16125,21.25375,21.77875,-25.504002,-4.232,-14.872001,eccentric,4,3.0,19061.0,139042.0,225272.0,276530.0,261288.0
2026-04-08 21:45:55.424620,197216,1609503927659588,1527626264,1.003328,-0.005856,0.052704,-4.01625,20.95625,24.59625,-25.504002,-4.232,-14.872001,eccentric,4,3.0,19061.0,139042.0,225272.0,276530.0,261288.0
2026-04-08 21:45:55.430016,197217,1609503927668604,1527634997,1.036512,-0.042944,-0.101504,-2.77375,20.01125,26.8625,-25.448002,-3.92,-13.464001,eccentric,4,3.0,19061.0,139042.0,225272.0,276530.0,261288.0
2026-04-08 21:45:55.494706,197228,1609503927678085,1527643746,1.036512,-0.042944,-0.101504,-2.03,19.18,28.60375,-25.448002,-3.92,-13.464001,eccentric,4,3.0,19025.0,138803.0,225010.0,276320.0,261124.0
2026-04-08 21:45:55.497667,197229,1609503927693086,1527658666,1.028704,-0.074176,-0.062464,-2.73875,18.935,29.09375,-25.672,-3.88,-14.992001,eccentric,4,3.0,19025.0,138803.0,225010.0,276320.0,261124.0
2026-04-08 21:45:55.499688,197230,1609503927702574,1527669491,0.976,-0.044896,0.021472,-5.06625,19.2675,28.7875,-25.576002,-3.784,-12.160001,eccentric,4,3.0,19025.0,138803.0,225010.0,276320.0,261124.0
2026-04-08 21:45:55.502156,197231,1609503927711517,1527678151,0.976,-0.044896,0.021472,-8.04125,20.2825,28.49,-25.576002,-3.784,-12.160001,eccentric,4,3.0,19025.0,138803.0,225010.0,276320.0,261124.0
2026-04-08 21:45:55.504641,197232,1609503927726001,1527692997,0.970144,-0.062464,-0.023424,-10.9725,21.07875,29.715,-26.304,-4.04,-13.480001,eccentric,4,3.0,19025.0,138803.0,225010.0,276320.0,261124.0
2026-04-08 21:45:55.507105,197233,1609503927735003,1527701663,0.970144,-0.062464,-0.023424,-14.1575,21.56,31.036251,-26.304,-4.04,-13.480001,eccentric,4,3.0,19025.0,138803.0,225010.0,276320.0,261124.0
2026-04-08 21:45:55.509629,197234,1609503927749534,1527716544,0.94672,-0.083936,0.015616,-16.59875,21.4725,31.22,-26.800001,-3.736,-11.576,eccentric,4,3.0,19025.0,138803.0,225010.0,276320.0,261124.0
2026-04-08 21:45:55.517149,197235,1609503927758559,1527725274,0.94672,-0.083936,0.015616,-17.7625,21.7,29.9075,-26.800001,-3.736,-11.576,eccentric,4,3.0,19025.0,138803.0,225010.0,276320.0,261124.0
2026-04-08 21:45:55.551310,197236,1609503927773026,1527740185,1.0248,-0.095648,0.10736,-17.33375,22.505,28.848751,-26.784,-3.768,-14.360001,eccentric,4,3.0,19025.0,138803.0,225010.0,276320.0,261124.0
2026-04-08 21:45:55.578344,197247,1609503927782071,1527749187,1.032608,-0.066368,0.040992,-13.335,23.0475,27.755001,-26.856,-3.96,-11.192,eccentric,4,3.0,19077.0,138815.0,224935.0,276197.0,260977.0
2026-04-08 21:45:55.580902,197248,1609503927791010,1527757866,1.032608,-0.066368,0.040992,-10.2725,22.4175,27.02,-26.856,-3.96,-11.192,eccentric,4,3.0,19077.0,138815.0,224935.0,276197.0,260977.0
2026-04-08 21:45:55.583399,197249,1609503927805595,1527770761,0.999424,-0.027328,0.101504,-7.28875,22.645,27.62375,-27.552002,-3.528,-11.512,eccentric,4,3.0,19077.0,138815.0,224935.0,276197.0,260977.0
2026-04-08 21:45:55.585869,197250,1609503927814929,1527781578,0.999424,-0.027328,0.101504,-5.495,22.68875,29.0325,-27.552002,-3.528,-11.512,eccentric,4,3.0,19077.0,138815.0,224935.0,276197.0,260977.0
2026-04-08 21:45:55.588406,197251,1609503927829461,1527796560,1.026752,-0.060512,0.124928,-5.36375,21.84,29.1725,-27.912,-3.144,-11.304001,eccentric,4,3.0,19077.0,138815.0,224935.0,276197.0,260977.0
2026-04-08 21:45:55.618521,197252,1609503927838408,1527805227,1.026752,-0.060512,0.124928,-4.38375,21.5075,27.36125,-27.912,-3.144,-11.304001,eccentric,4,3.0,19077.0,138815.0,224935.0,276197.0,260977.0
2026-04-08 21:45:55.622103,197253,1609503927847336,1527813883,1.040416,-0.111264,0.025376,-2.61625,20.95625,26.92375,-28.2,-2.864,-11.824,eccentric,4,3.0,19077.0,138815.0,224935.0,276197.0,260977.0
2026-04-08 21:45:55.624892,197254,1609503927861788,1527828735,1.00528,-0.099552,-0.083936,-0.98,20.16,26.678751,-28.2,-3.096,-13.200001,eccentric,4,3.0,19077.0,138815.0,224935.0,276197.0,260977.0
2026-04-08 21:45:55.632234,197255,1609503927870681,1527837341,1.00528,-0.099552,-0.083936,-0.67375,20.71125,25.305,-28.272001,-3.096,-13.200001,eccentric,4,3.0,19077.0,138815.0,224935.0,276197.0,260977.0
2026-04-08 21:45:55.669649,197266,1609503927885280,1527852401,0.913536,-0.054656,-0.072224,-1.72375,20.895,24.50875,-28.368002,-3.016,-11.040001,eccentric,4,3.0,18961.0,138326.0,224350.0,275833.0,260796.0
2026-04-08 21:45:55.703579,197267,1609503927894302,1527861117,0.913536,-0.054656,-0.072224,-5.06625,20.67625,22.8725,-28.368002,-3.016,-11.040001,eccentric,4,3.0,18961.0,138326.0,224350.0,275833.0,260796.0
2026-04-08 21:45:55.707124,197268,1609503927908787,1527873954,1.036512,-0.076128,0.169824,-8.68,20.2125,20.825,-28.912,-2.88,-10.52,eccentric,4,3.0,18961.0,138326.0,224350.0,275833.0,260796.0
2026-04-08 21:45:55.711100,197269,1609503927918007,1527884715,1.036512,-0.076128,0.169824,-10.15875,20.475,18.20875,-28.912,-2.88,-10.52,eccentric,4,3.0,18961.0,138326.0,224350.0,275833.0,260796.0
2026-04-08 21:45:55.712397,197270,1609503927926907,1527893382,0.931104,-0.056608,-0.134688,-7.2625,20.991251,16.4675,-29.000002,-2.744,-10.232,eccentric,4,3.0,18961.0,138326.0,224350.0,275833.0,260796.0
2026-04-08 21:45:55.714745,197271,1609503927941403,1527908248,0.931104,-0.056608,-0.134688,-4.3925,21.0,15.91625,-29.000002,-2.744,-10.232,eccentric,4,3.0,18961.0,138326.0,224350.0,275833.0,260796.0
2026-04-08 21:45:55.717166,197272,1609503927950303,1527916902,0.981856,-0.005856,-0.011712,-4.10375,21.07,16.35375,-29.2,-2.568,-10.216001,eccentric,4,3.0,18961.0,138326.0,224350.0,275833.0,260796.0
2026-04-08 21:45:55.723337,197273,1609503927964812,1527931811,1.022848,0.0,0.093696,-8.19,20.57125,18.7775,-29.656002,-2.464,-9.808001,eccentric,4,3.0,18961.0,138326.0,224350.0,275833.0,260796.0
2026-04-08 21:45:55.753634,197274,1609503927973843,1527940501,1.022848,0.0,0.093696,-14.13125,19.22375,20.48375,-29.656002,-2.464,-9.808001,eccentric,4,3.0,18961.0,138326.0,224350.0,275833.0,260796.0
2026-04-08 21:45:55.782113,197285,1609503927988412,1527955409,0.925248,-0.031232,0.011712,-19.1275,16.98375,21.455,-29.128002,-2.384,-9.416,eccentric,4,3.0,18877.0,138111.0,224193.0,275825.0,260900.0
2026-04-08 21:45:55.784657,197286,1609503927997334,1527964067,0.925248,-0.031232,0.011712,-22.37375,14.875,21.34125,-29.128002,-2.384,-9.416,eccentric,4,3.0,18877.0,138111.0,224193.0,275825.0,260900.0
2026-04-08 21:45:55.787135,197287,1609503928006399,1527972824,0.921344,-0.064416,-0.099552,-21.6825,12.39875,21.95375,-29.568,-2.184,-8.440001,eccentric,4,3.0,18877.0,138111.0,224193.0,275825.0,260900.0
2026-04-08 21:45:55.790375,197288,1609503928020972,1527987818,0.921344,-0.064416,-0.099552,-17.89375,10.325,22.6975,-29.568,-2.184,-8.440001,eccentric,4,3.0,18877.0,138111.0,224193.0,275825.0,260900.0
2026-04-08 21:45:55.795889,197289,1609503928029878,1527996538,0.9272,-0.02928,0.0,-14.28875,8.56625,22.09375,-29.976002,-1.808,-8.648001,eccentric,4,3.0,18877.0,138111.0,224193.0,275825.0,260900.0
2026-04-08 21:45:55.828622,197290,1609503928044355,1528011418,0.999424,-0.064416,-0.042944,-12.69625,7.27125,22.0325,-29.928001,-1.912,-7.904,eccentric,4,3.0,18877.0,138111.0,224193.0,275825.0,260900.0
2026-04-08 21:45:55.832169,197291,1609503928053280,1528020121,0.999424,-0.064416,-0.042944,-12.1975,5.8275,22.25125,-29.928001,-1.912,-7.904,eccentric,4,3.0,18877.0,138111.0,224193.0,275825.0,260900.0
2026-04-08 21:45:55.834593,197292,1609503928062220,1528028838,0.999424,-0.064416,-0.042944,-12.52125,5.2325,20.116251,-29.928001,-1.912,-7.904,eccentric,4,3.0,18877.0,138111.0,224193.0,275825.0,260900.0
2026-04-08 21:45:55.837132,197293,1609503928076735,1528043695,1.009184,-0.076128,0.015616,-13.74625,4.59375,18.87375,-29.680002,-2.096,-10.216001,eccentric,4,3.0,18877.0,138111.0,224193.0,275825.0,260900.0
2026-04-08 21:45:55.865281,197304,1609503928085893,1528052448,0.976,-0.080032,-0.093696,-15.42625,4.025,18.3925,-29.960001,-1.464,-7.248,eccentric,4,3.0,18872.0,138161.0,224251.0,275878.0,260934.0
2026-04-08 21:45:55.867098,197305,1609503928100510,1528067334,0.976,-0.080032,-0.093696,-16.9575,3.50875,16.87,-29.960001,-1.464,-7.248,eccentric,4,3.0,18872.0,138161.0,224251.0,275878.0,260934.0
2026-04-08 21:45:55.869626,197306,1609503928109480,1528076026,0.962336,-0.046848,0.035136,-15.95125,3.00125,14.77,-30.184002,-1.136,-7.024,eccentric,4,3.0,18872.0,138161.0,224251.0,275878.0,260934.0
2026-04-08 21:45:55.899762,197307,1609503928123977,1528090875,0.979904,-0.083936,-0.076128,-14.72625,2.415,13.78125,-30.328001,-1.28,-9.104,eccentric,4,3.0,18872.0,138161.0,224251.0,275878.0,260934.0
2026-04-08 21:45:55.903325,197308,1609503928132894,1528099559,0.979904,-0.083936,-0.076128,-13.125,1.21625,11.92625,-30.328001,-1.28,-9.104,eccentric,4,3.0,18872.0,138161.0,224251.0,275878.0,260934.0
2026-04-08 21:45:55.905899,197309,1609503928141806,1528108237,0.979904,-0.083936,-0.076128,-11.5325,0.42875,10.50875,-30.328001,-1.28,-9.104,eccentric,4,3.0,18872.0,138161.0,224251.0,275878.0,260934.0
2026-04-08 21:45:55.937271,197310,1609503928156302,1528123113,0.94672,-0.037088,0.015616,-10.43,-0.5425,10.14125,-29.840002,-0.984,-8.792001,eccentric,4,3.0,18872.0,138161.0,224251.0,275878.0,260934.0
2026-04-08 21:45:55.940858,197311,1609503928165222,1528131774,0.964288,-0.044896,-0.003904,-10.99875,-1.88125,9.45875,-29.976002,-1.496,-10.312,eccentric,4,3.0,18872.0,138161.0,224251.0,275878.0,260934.0
2026-04-08 21:45:55.968347,197322,1609503928179983,1528147146,0.964288,-0.044896,-0.003904,-11.917501,-3.12375,8.6975,-29.976002,-1.496,-10.312,eccentric,4,3.0,18887.0,138113.0,224145.0,275703.0,260755.0
2026-04-08 21:45:55.970873,197323,1609503928188964,1528155832,0.944768,-0.06832,0.103456,-10.605001,-4.34,7.4375,-29.648,-1.264,-8.808001,eccentric,4,3.0,18887.0,138113.0,224145.0,275703.0,260755.0
2026-04-08 21:45:56.006066,197324,1609503928203441,1528168734,0.944768,-0.06832,-0.040992,-8.26875,-5.11875,5.88875,-29.648,-1.264,-8.808001,eccentric,4,3.0,18887.0,138113.0,224145.0,275703.0,260755.0
2026-04-08 21:45:56.012140,197325,1609503928212864,1528179482,0.98576,-0.083936,-0.040992,-3.7975,-5.495,5.25,-29.896002,-1.024,-7.648,eccentric,4,3.0,18887.0,138113.0,224145.0,275703.0,260755.0
2026-04-08 21:45:56.014632,197326,1609503928221775,1528188137,0.98576,-0.083936,-0.040992,-1.1025,-5.64375,5.215,-29.896002,-1.024,-7.648,eccentric,4,3.0,18887.0,138113.0,224145.0,275703.0,260755.0
2026-04-08 21:45:56.017076,197327,1609503928236261,1528203049,0.94672,-0.017568,0.066368,-1.645,-5.88,4.55,-29.768002,-0.896,-7.512001,eccentric,4,3.0,18887.0,138113.0,224145.0,275703.0,260755.0
2026-04-08 21:45:56.019560,197328,1609503928245210,1528211724,0.991616,-0.091744,0.05856,-3.94625,-6.65875,4.0425,-29.904001,-1.096,-9.888001,eccentric,4,3.0,18887.0,138113.0,224145.0,275703.0,260755.0
2026-04-08 21:45:56.022118,197329,1609503928259720,1528226570,0.991616,-0.091744,0.05856,-7.30625,-7.86625,3.2725,-29.904001,-1.096,-9.888001,eccentric,4,3.0,18887.0,138113.0,224145.0,275703.0,260755.0
2026-04-08 21:45:56.029296,197330,1609503928268650,1528235328,0.954528,-0.083936,0.023424,-7.41125,-8.8375,2.38,-29.448002,-0.856,-9.376,eccentric,4,3.0,18887.0,138113.0,224145.0,275703.0,260755.0
2026-04-08 21:45:56.058544,197331,1609503928277588,1528243994,0.954528,-0.083936,0.023424,-3.92,-9.5375,2.00375,-29.448002,-0.856,-9.376,eccentric,4,3.0,18887.0,138113.0,224145.0,275703.0,260755.0
2026-04-08 21:45:56.090798,197342,1609503928292129,1528258930,0.964288,-0.062464,-0.072224,-0.6475,-8.5575,1.56625,-29.480001,-0.72,-9.624001,concentric,4,3.0,18953.0,138336.0,224381.0,275856.0,260856.0
2026-04-08 21:45:56.093291,197343,1609503928301048,1528267578,0.964288,-0.062464,-0.072224,1.1725,-8.925,0.11375,-29.480001,-0.72,-9.624001,concentric,4,3.0,18953.0,138336.0,224381.0,275856.0,260856.0
2026-04-08 21:45:56.095850,197344,1609503928315583,1528282501,0.989664,-0.064416,0.093696,-2.3975,-10.73625,-1.1375,-29.264002,-0.464,-9.816001,concentric,4,3.0,18953.0,138336.0,224381.0,275856.0,260856.0
2026-04-08 21:45:56.098439,197345,1609503928324519,1528291224,0.989664,-0.103456,0.122976,-6.71125,-13.125,-2.56375,-29.264002,-0.464,-9.816001,concentric,4,3.0,18953.0,138336.0,224381.0,275856.0,260856.0
2026-04-08 21:45:56.100812,197346,1609503928339022,1528306106,1.050176,-0.103456,0.122976,-7.5775,-15.35625,-5.075,-29.208002,-0.392,-11.088,concentric,4,3.0,18953.0,138336.0,224381.0,275856.0,260856.0
2026-04-08 21:45:56.108537,197347,1609503928347955,1528314810,1.061888,-0.113216,-0.01952,-4.69875,-16.1,-7.16625,-29.128002,-0.48,-9.368,concentric,4,3.0,18953.0,138336.0,224381.0,275856.0,260856.0
2026-04-08 21:45:56.138644,197348,1609503928356901,1528323509,1.061888,-0.113216,-0.01952,1.225,-17.54375,-8.8725,-29.128002,-0.48,-9.368,concentric,4,3.0,18953.0,138336.0,224381.0,275856.0,260856.0
2026-04-08 21:45:56.142228,197349,1609503928371367,1528338415,0.993568,-0.054656,-0.095648,4.52375,-17.80625,-10.3425,-28.592001,-0.368,-10.424001,concentric,4,3.0,18953.0,138336.0,224381.0,275856.0,260856.0
2026-04-08 21:45:56.169614,197360,1609503928380278,1528347121,0.993568,-0.054656,-0.095648,6.37875,-17.0975,-11.585,-28.592001,-0.368,-10.424001,concentric,4,3.0,19039.0,138379.0,224235.0,275531.0,260510.0
2026-04-08 21:45:56.172094,197361,1609503928395337,1528362053,1.048224,-0.10736,-0.033184,3.185,-18.1825,-13.62375,-28.28,-0.696,-11.280001,concentric,4,3.0,19039.0,138379.0,224235.0,275531.0,260510.0
2026-04-08 21:45:56.174618,197362,1609503928404335,1528370754,1.048224,-0.10736,-0.033184,-2.70375,-19.52125,-17.07125,-28.28,-0.696,-11.280001,concentric,4,3.0,19039.0,138379.0,224235.0,275531.0,260510.0
2026-04-08 21:45:56.177118,197363,1609503928413330,1528379525,1.08336,-0.144448,0.081984,-4.20875,-20.5275,-20.51875,-28.160002,-0.76,-10.936001,concentric,4,3.0,19039.0,138379.0,224235.0,275531.0,260510.0
2026-04-08 21:45:56.207328,197364,1609503928427850,1528394450,0.981856,-0.11712,-0.046848,-5.11875,-21.4725,-23.975,-28.176,-0.696,-10.792001,concentric,4,3.0,19039.0,138379.0,224235.0,275531.0,260510.0
2026-04-08 21:45:56.211145,197365,1609503928436786,1528403121,0.981856,-0.11712,-0.046848,-3.38625,-21.35875,-27.50125,-28.176,-0.696,-10.792001,concentric,4,3.0,19039.0,138379.0,224235.0,275531.0,260510.0
2026-04-08 21:45:56.217181,197366,1609503928451266,1528417973,1.007232,-0.13664,0.01952,-0.3325,-21.67375,-30.33625,-27.336,-0.808,-12.088,concentric,4,3.0,19039.0,138379.0,224235.0,275531.0,260510.0
2026-04-08 21:45:56.219572,197367,1609503928460210,1528426657,1.007232,-0.13664,0.01952,0.02625,-22.68,-33.5825,-27.336,-0.808,-12.088,concentric,4,3.0,19039.0,138379.0,224235.0,275531.0,260510.0
2026-04-08 21:45:56.249825,197368,1609503928474677,1528441541,0.98576,-0.158112,0.007808,0.2275,-24.4125,-37.75625,-27.424002,-0.808,-10.824,concentric,4,3.0,19039.0,138379.0,224235.0,275531.0,260510.0
2026-04-08 21:45:56.314673,197379,1609503928484180,1528450710,0.98576,-0.158112,0.007808,2.0825,-25.78625,-41.50125,-27.424002,-0.808,-10.824,concentric,4,3.0,19126.0,138459.0,224096.0,275203.0,260190.0
2026-04-08 21:45:56.317184,197380,1609503928493107,1528459382,1.011136,-0.167872,-0.02928,2.6425,-27.5625,-44.345,-27.008001,-1.552,-15.032001,concentric,4,3.0,19126.0,138459.0,224096.0,275203.0,260190.0
2026-04-08 21:45:56.319588,197381,1609503928507611,1528474368,1.036512,-0.189344,-0.052704,4.3925,-28.8925,-47.39875,-26.784,-1.552,-13.384001,concentric,4,3.0,19126.0,138459.0,224096.0,275203.0,260190.0
2026-04-08 21:45:56.322147,197382,1609503928516663,1528483080,1.036512,-0.189344,-0.052704,6.76375,-28.7525,-50.295002,-26.784,-1.552,-13.384001,concentric,4,3.0,19126.0,138459.0,224096.0,275203.0,260190.0
2026-04-08 21:45:56.324598,197383,1609503928531158,1528497962,1.016992,-0.134688,0.050752,6.9125,-29.25125,-51.58125,-26.208002,-1.984,-13.696001,concentric,4,3.0,19126.0,138459.0,224096.0,275203.0,260190.0
2026-04-08 21:45:56.327159,197384,1609503928540056,1528506628,1.016992,-0.134688,0.050752,5.9325,-30.72125,-53.68125,-26.208002,-1.984,-13.696001,concentric,4,3.0,19126.0,138459.0,224096.0,275203.0,260190.0
2026-04-08 21:45:56.329645,197385,1609503928548953,1528515277,1.08336,-0.16592,0.013664,6.58875,-31.57875,-54.43375,-26.032001,-2.352,-14.200001,concentric,4,3.0,19126.0,138459.0,224096.0,275203.0,260190.0
2026-04-08 21:45:56.332266,197386,1609503928563623,1528530276,1.08336,-0.16592,0.013664,6.95625,-31.692501,-54.285,-26.032001,-2.352,-14.200001,concentric,4,3.0,19126.0,138459.0,224096.0,275203.0,260190.0
2026-04-08 21:45:56.334704,197387,1609503928572569,1528538992,1.0248,-0.138592,0.056608,6.9475,-31.535,-54.48625,-25.528002,-2.232,-14.712001,concentric,4,3.0,19126.0,138459.0,224096.0,275203.0,260190.0
2026-04-08 21:45:56.370924,197398,1609503928587136,1528554000,1.067744,-0.160064,0.089792,6.36125,-31.0975,-55.947502,-25.464,-2.576,-13.888001,concentric,4,3.0,19271.0,138851.0,224427.0,275309.0,260156.0
2026-04-08 21:45:56.373401,197399,1609503928596077,1528562746,1.067744,-0.160064,0.089792,6.93,-31.26375,-56.9625,-25.464,-2.576,-13.888001,concentric,4,3.0,19271.0,138851.0,224427.0,275309.0,260156.0
2026-04-08 21:45:56.378388,197400,1609503928610570,1528577729,1.071648,-0.11712,-0.050752,8.435,-32.29625,-57.42625,-24.776001,-3.048,-14.968,concentric,4,3.0,19271.0,138851.0,224427.0,275309.0,260156.0
2026-04-08 21:45:56.380809,197401,1609503928619536,1528586452,1.071648,-0.11712,-0.050752,10.26375,-33.04,-56.72625,-24.776001,-3.048,-14.968,concentric,4,3.0,19271.0,138851.0,224427.0,275309.0,260156.0
2026-04-08 21:45:56.387120,197402,1609503928628472,1528595195,1.00528,-0.11712,0.013664,12.425,-32.43625,-55.01125,-24.352001,-3.024,-11.296001,concentric,4,3.0,19271.0,138851.0,224427.0,275309.0,260156.0
2026-04-08 21:45:56.419812,197403,1609503928642956,1528610108,1.00528,-0.11712,0.013664,12.94125,-32.83,-53.17375,-24.352001,-3.024,-11.296001,concentric,4,3.0,19271.0,138851.0,224427.0,275309.0,260156.0
2026-04-08 21:45:56.423375,197404,1609503928651847,1528618773,0.977952,-0.162016,-0.064416,12.71375,-34.5275,-53.68125,-23.472002,-3.312,-15.800001,concentric,4,3.0,19271.0,138851.0,224427.0,275309.0,260156.0
2026-04-08 21:45:56.425896,197405,1609503928666325,1528631583,0.977952,-0.162016,-0.064416,12.85375,-34.79875,-55.34375,-23.472002,-3.312,-15.800001,concentric,4,3.0,19271.0,138851.0,224427.0,275309.0,260156.0
2026-04-08 21:45:56.456128,197406,1609503928675581,1528642395,1.016992,-0.138592,-0.10736,12.60875,-35.00875,-55.5275,-23.496,-3.76,-16.168001,concentric,4,3.0,19271.0,138851.0,224427.0,275309.0,260156.0
2026-04-08 21:45:56.484571,197417,1609503928690183,1528657297,0.987712,-0.076128,-0.150304,10.36,-34.107502,-54.4425,-22.776001,-3.928,-16.088001,concentric,4,3.0,19348.0,139100.0,224625.0,275401.0,260191.0
2026-04-08 21:45:56.487053,197418,1609503928699082,1528665953,0.987712,-0.076128,-0.150304,8.085,-33.36375,-53.83875,-22.776001,-3.928,-16.088001,concentric,4,3.0,19348.0,139100.0,224625.0,275401.0,260191.0
2026-04-08 21:45:56.489544,197419,1609503928708044,1528674625,0.970144,-0.119072,-0.081984,6.37,-31.85,-52.45625,-22.648,-4.072,-15.448001,concentric,4,3.0,19348.0,139100.0,224625.0,275401.0,260191.0
2026-04-08 21:45:56.492061,197420,1609503928722571,1528689498,0.970144,-0.119072,-0.081984,3.5175,-30.89625,-50.61,-22.648,-4.072,-15.448001,concentric,4,3.0,19348.0,139100.0,224625.0,275401.0,260191.0
2026-04-08 21:45:56.494616,197421,1609503928731491,1528698162,0.89792,-0.142496,-0.128832,4.4625,-31.2375,-49.245,-22.12,-4.024,-15.936001,concentric,4,3.0,19348.0,139100.0,224625.0,275401.0,260191.0
2026-04-08 21:45:56.524883,197422,1609503928746033,1528713063,0.89792,-0.142496,-0.128832,6.055,-31.84125,-48.41375,-22.12,-4.024,-15.936001,concentric,4,3.0,19348.0,139100.0,224625.0,275401.0,260191.0
2026-04-08 21:45:56.528386,197423,1609503928754952,1528721723,0.948672,-0.103456,-0.007808,6.4925,-31.325,-47.985,-22.008001,-4.216,-17.816,concentric,4,3.0,19348.0,139100.0,224625.0,275401.0,260191.0
2026-04-08 21:45:56.530876,197424,1609503928769460,1528736597,0.950624,-0.07808,-0.111264,9.40625,-29.54,-46.90875,-21.28,-4.168,-17.800001,concentric,4,3.0,19348.0,139100.0,224625.0,275401.0,260191.0
2026-04-08 21:45:56.537130,197425,1609503928778422,1528745297,0.950624,-0.07808,-0.111264,10.3425,-26.83625,-44.31,-21.28,-4.168,-17.800001,concentric,4,3.0,19348.0,139100.0,224625.0,275401.0,260191.0
2026-04-08 21:45:56.567190,197436,1609503928787487,1528754306,0.950624,-0.07808,-0.111264,8.8375,-23.94,-40.915,-21.28,-4.168,-17.800001,concentric,4,3.0,19512.0,139508.0,224903.0,275533.0,260205.0
2026-04-08 21:45:56.569646,197437,1609503928802040,1528767211,0.93696,-0.025376,-0.113216,6.97375,-21.02625,-37.33625,-20.832,-4.8,-16.720001,concentric,4,3.0,19512.0,139508.0,224903.0,275533.0,260205.0
2026-04-08 21:45:56.604845,197438,1609503928811197,1528777941,1.03456,-0.099552,-0.122976,4.55875,-16.94875,-32.795002,-20.896002,-4.232,-15.400001,concentric,4,3.0,19512.0,139508.0,224903.0,275533.0,260205.0
2026-04-08 21:45:56.608393,197439,1609503928825689,1528792831,1.03456,-0.099552,-0.122976,-2.87,-13.79875,-28.95375,-20.896002,-4.232,-15.400001,concentric,4,3.0,19512.0,139508.0,224903.0,275533.0,260205.0
2026-04-08 21:45:56.610969,197440,1609503928834608,1528801483,0.972096,-0.101504,-0.193248,-12.92375,-12.075,-28.2275,-20.696001,-4.584,-17.824001,concentric,4,3.0,19512.0,139508.0,224903.0,275533.0,260205.0
2026-04-08 21:45:56.613400,197441,1609503928843514,1528810158,0.972096,-0.101504,-0.193248,-15.26875,-10.24625,-29.1725,-20.696001,-4.584,-17.824001,concentric,4,3.0,19512.0,139508.0,224903.0,275533.0,260205.0
2026-04-08 21:45:56.619262,197442,1609503928858040,1528825021,0.91744,-0.101504,-0.103456,-9.5025,-9.4675,-26.495,-20.288,-4.36,-18.096,concentric,4,3.0,19512.0,139508.0,224903.0,275533.0,260205.0
2026-04-08 21:45:56.648764,197443,1609503928867027,1528833709,0.91744,-0.101504,-0.103456,-3.08875,-10.535,-22.715,-20.288,-4.36,-18.096,concentric,4,3.0,19512.0,139508.0,224903.0,275533.0,260205.0
2026-04-08 21:45:56.680870,197454,1609503928881486,1528848528,0.894016,-0.037088,-0.10736,1.54,-11.9525,-21.88375,-19.952002,-4.776,-17.792002,concentric,4,3.0,19646.0,139978.0,225360.0,275832.0,260375.0
2026-04-08 21:45:56.683384,197455,1609503928890420,1528857193,0.993568,0.001952,-0.167872,5.01375,-12.52125,-20.5625,-19.768002,-4.704,-19.792002,concentric,4,3.0,19646.0,139978.0,225360.0,275832.0,260375.0
2026-04-08 21:45:56.685882,197456,1609503928904909,1528870109,0.993568,0.001952,-0.167872,2.275,-10.89375,-17.82375,-19.768002,-4.704,-19.792002,concentric,4,3.0,19646.0,139978.0,225360.0,275832.0,260375.0
2026-04-08 21:45:56.688371,197457,1609503928914289,1528880874,0.892064,0.027328,-0.249856,-1.9075,-8.47875,-16.66875,-19.528002,-4.48,-17.336,concentric,4,3.0,19646.0,139978.0,225360.0,275832.0,260375.0
2026-04-08 21:45:56.690848,197458,1609503928923343,1528889582,0.892064,0.027328,-0.249856,-6.44875,-5.85375,-14.63875,-19.528002,-4.48,-17.336,concentric,4,3.0,19646.0,139978.0,225360.0,275832.0,260375.0
2026-04-08 21:45:56.695913,197459,1609503928937895,1528904533,0.935008,-0.003904,-0.011712,-12.46875,-5.52125,-12.3725,-19.408,-4.392,-17.344002,concentric,4,3.0,19646.0,139978.0,225360.0,275832.0,260375.0
2026-04-08 21:45:56.726180,197460,1609503928947007,1528913234,0.935008,-0.003904,-0.011712,-14.41125,-7.69125,-11.22625,-19.408,-4.392,-17.344002,concentric,4,3.0,19646.0,139978.0,225360.0,275832.0,260375.0
2026-04-08 21:45:56.729663,197461,1609503928961477,1528928085,0.880352,0.037088,-0.081984,-10.4475,-10.7275,-11.4275,-19.248001,-4.504,-16.336,concentric,4,3.0,19646.0,139978.0,225360.0,275832.0,260375.0
2026-04-08 21:45:56.732118,197462,1609503928970388,1528936779,0.884256,0.062464,-0.203008,-1.89,-11.865,-11.0775,-19.024,-4.272,-19.712002,concentric,4,3.0,19646.0,139978.0,225360.0,275832.0,260375.0
2026-04-08 21:45:56.759750,197463,1609503928979317,1528945441,0.884256,0.062464,-0.203008,2.835,-11.73375,-10.35125,-19.024,-4.272,-19.712002,concentric,4,3.0,19646.0,139978.0,225360.0,275832.0,260375.0
2026-04-08 21:45:56.787106,197474,1609503928993890,1528960365,0.935008,0.040992,-0.162016,-2.23125,-11.41,-9.345,-18.816,-4.64,-18.36,concentric,4,3.0,19695.0,140239.0,225598.0,275979.0,260461.0
2026-04-08 21:45:56.789737,197475,1609503929002772,1528969003,0.935008,0.040992,-0.162016,-10.45625,-12.0575,-10.325,-18.816,-4.64,-18.36,concentric,4,3.0,19695.0,140239.0,225598.0,275979.0,260461.0
2026-04-08 21:45:56.792181,197476,1609503929017288,1528983928,0.950624,0.013664,-0.30256,-15.33,-13.86,-10.823751,-18.808,-4.576,-18.832,concentric,4,3.0,19695.0,140239.0,225598.0,275979.0,260461.0
2026-04-08 21:45:56.794991,197477,1609503929026350,1528992623,0.950624,0.013664,-0.30256,-14.04375,-15.18125,-10.57875,-18.808,-4.576,-18.832,concentric,4,3.0,19695.0,140239.0,225598.0,275979.0,260461.0
2026-04-08 21:45:56.799634,197478,1609503929040851,1529007638,0.9272,0.103456,-0.16592,-3.7975,-12.495,-10.31625,-18.2,-4.544,-18.632,concentric,4,3.0,19695.0,140239.0,225598.0,275979.0,260461.0
2026-04-08 21:45:56.831758,197479,1609503929049769,1529016307,0.911584,0.095648,-0.208864,10.21125,-8.505,-7.9625,-18.2,-4.544,-19.264002,concentric,4,3.0,19695.0,140239.0,225598.0,275979.0,260461.0
2026-04-08 21:45:56.833708,197480,1609503929058697,1529024958,0.91744,0.095648,-0.208864,17.08,-4.75125,-5.6,-18.312,-4.288,-19.264002,concentric,4,3.0,19695.0,140239.0,225598.0,275979.0,260461.0
2026-04-08 21:45:56.835841,197481,1609503929073165,1529039815,0.806176,0.0976,-0.0976,5.71375,-4.17375,-7.63,-18.032001,-4.192,-18.816,concentric,4,3.0,19695.0,140239.0,225598.0,275979.0,260461.0
2026-04-08 21:45:56.840843,197482,1609503929082106,1529048524,0.806176,0.0976,-0.0976,-13.1775,-3.9025,-12.67,-18.032001,-4.192,-18.816,concentric,4,3.0,19695.0,140239.0,225598.0,275979.0,260461.0
2026-04-08 21:45:56.868337,197493,1609503929096646,1529063515,0.815936,0.050752,-0.255712,-20.825,-5.06625,-15.3475,-18.096,-4.072,-18.168001,concentric,4,3.0,20174.0,141107.0,225812.0,275681.0,259939.0
2026-04-08 21:45:56.870823,197494,1609503929105621,1529072228,0.815936,0.050752,-0.255712,-21.035,-5.67875,-15.88125,-18.096,-4.072,-18.168001,concentric,4,3.0,20174.0,141107.0,225812.0,275681.0,259939.0
2026-04-08 21:45:56.906115,197495,1609503929120136,1529087172,0.778848,0.122976,-0.122976,-12.55625,-3.255,-18.025,-17.84,-4.4,-18.896002,concentric,4,3.0,20174.0,141107.0,225812.0,275681.0,259939.0
2026-04-08 21:45:56.910723,197496,1609503929129157,1529095857,0.778848,0.122976,-0.122976,1.16375,1.1025,-17.3775,-17.84,-4.4,-18.896002,concentric,4,3.0,20174.0,141107.0,225812.0,275681.0,259939.0
2026-04-08 21:45:56.913591,197497,1609503929138096,1529104526,0.650016,0.056608,-0.249856,2.905,3.63125,-13.93,-17.560001,-4.296,-19.328001,concentric,4,3.0,20174.0,141107.0,225812.0,275681.0,259939.0
2026-04-08 21:45:56.914707,197498,1609503929152564,1529119368,0.730048,0.035136,-0.054656,-8.70625,2.17,-16.51125,-17.448,-4.656,-18.992,concentric,4,3.0,20174.0,141107.0,225812.0,275681.0,259939.0
2026-04-08 21:45:56.920893,197499,1609503929161490,1529128031,0.730048,0.035136,-0.054656,-23.135,-1.925,-25.1825,-17.448,-4.656,-18.992,concentric,4,3.0,20174.0,141107.0,225812.0,275681.0,259939.0
2026-04-08 21:45:56.953829,197500,1609503929175965,1529142923,0.732,0.144448,-0.21472,-23.72125,-3.98125,-31.8325,-17.376001,-4.632,-19.016,concentric,4,3.0,20174.0,141107.0,225812.0,275681.0,259939.0
2026-04-08 21:45:56.981427,197511,1609503929185195,1529151653,0.732,0.144448,-0.21472,-9.905,-0.8225,-28.665,-17.376001,-4.632,-19.016,concentric,4,3.0,19987.0,140897.0,225889.0,276150.0,260551.0
2026-04-08 21:45:56.983152,197512,1609503929194285,1529160477,0.61488,0.187392,-0.091744,6.30875,2.555,-21.8925,-17.568,-4.808,-18.696001,concentric,4,3.0,19987.0,140897.0,225889.0,276150.0,260551.0
2026-04-08 21:45:56.984665,197513,1609503929208832,1529175373,0.61488,0.187392,-0.091744,9.765,3.08875,-18.94375,-17.568,-4.808,-18.696001,concentric,4,3.0,19987.0,140897.0,225889.0,276150.0,260551.0
2026-04-08 21:45:56.988748,197514,1609503929217809,1529184055,0.632448,0.042944,-0.179584,-6.02,-1.645,-23.7125,-17.328001,-4.384,-17.912,concentric,4,3.0,19987.0,140897.0,225889.0,276150.0,260551.0
2026-04-08 21:45:56.994628,197515,1609503929232344,1529198946,0.659776,0.066368,-0.281088,-23.2575,-4.24375,-32.83875,-17.096,-4.704,-17.560001,concentric,4,3.0,19987.0,140897.0,225889.0,276150.0,260551.0
2026-04-08 21:45:57.022475,197516,1609503929241251,1529207592,0.659776,0.066368,-0.281088,-20.991251,-6.48375,-33.985,-17.096,-4.704,-17.560001,concentric,4,3.0,19987.0,140897.0,225889.0,276150.0,260551.0
2026-04-08 21:45:57.026748,197517,1609503929255755,1529222528,0.655872,0.181536,-0.167872,-8.02375,-6.965,-27.62375,-17.112001,-5.24,-18.712002,concentric,4,3.0,19987.0,140897.0,225889.0,276150.0,260551.0
2026-04-08 21:45:57.032202,197518,1609503929264644,1529231194,0.655872,0.181536,-0.167872,5.635,-5.46,-23.66875,-17.112001,-5.24,-18.712002,concentric,4,3.0,19987.0,140897.0,225889.0,276150.0,260551.0
2026-04-08 21:45:57.034661,197519,1609503929273554,1529239843,0.589504,0.134688,-0.25376,9.2575,-3.10625,-23.38875,-16.960001,-5.032,-18.096,concentric,4,3.0,19987.0,140897.0,225889.0,276150.0,260551.0
2026-04-08 21:45:57.090795,197530,1609503929288675,1529254955,0.589504,0.134688,-0.25376,1.16375,-0.105,-24.0975,-16.960001,-5.032,-18.096,concentric,4,3.0,19723.0,140474.0,225754.0,276350.0,260929.0
2026-04-08 21:45:57.093349,197531,1609503929297620,1529263609,0.616832,0.105408,-0.08784,-7.28,0.0175,-25.4975,-16.728,-5.816001,-18.92,concentric,4,3.0,19723.0,140474.0,225754.0,276350.0,260929.0
2026-04-08 21:45:57.095865,197532,1609503929312090,1529278462,0.667584,0.124928,-0.001952,-12.4425,-2.14375,-24.92,-16.816,-5.488,-20.736,concentric,4,3.0,19723.0,140474.0,225754.0,276350.0,260929.0
2026-04-08 21:45:57.098366,197533,1609503929321023,1529287145,0.667584,0.124928,-0.001952,-8.95125,-4.9525,-22.6275,-16.816,-5.488,-20.736,concentric,4,3.0,19723.0,140474.0,225754.0,276350.0,260929.0
2026-04-08 21:45:57.100866,197534,1609503929330093,1529295903,0.667584,0.124928,-0.001952,1.68875,-7.56,-19.10125,-16.816,-5.488,-20.736,concentric,4,3.0,19723.0,140474.0,225754.0,276350.0,260929.0
2026-04-08 21:45:57.103364,197535,1609503929344620,1529310796,0.665632,0.093696,-0.277184,8.54875,-7.13125,-16.12625,-16.76,-5.384,-19.504002,concentric,4,3.0,19723.0,140474.0,225754.0,276350.0,260929.0
2026-04-08 21:45:57.134889,197536,1609503929353549,1529319453,0.77104,0.089792,-0.021472,7.8925,-5.39875,-14.980001,-16.656,-5.008,-16.024,concentric,4,3.0,19723.0,140474.0,225754.0,276350.0,260929.0
2026-04-08 21:45:57.138456,197537,1609503929368025,1529334292,0.77104,0.089792,-0.021472,2.3975,-3.26375,-14.595,-16.656,-5.008,-16.024,concentric,4,3.0,19723.0,140474.0,225754.0,276350.0,260929.0
2026-04-08 21:45:57.140908,197538,1609503929376963,1529342972,0.763232,0.072224,-0.16592,0.035,-2.68625,-13.658751,-16.832,-5.712,-18.968,concentric,4,3.0,19723.0,140474.0,225754.0,276350.0,260929.0
2026-04-08 21:45:57.168362,197549,1609503929391587,1529357874,0.763232,0.072224,-0.16592,3.045,-2.275,-11.68125,-16.832,-5.712,-18.968,concentric,4,3.0,19751.0,140777.0,226334.0,276855.0,261279.0
