pc_time,serial_num,sensor_ts,host_ts,ax,ay,az,gx,gy,gz,mx,my,mz,phase,rpe,weight_kg,ppg_a,ppg_b,ppg_c,ppg_d,ppg_e
2026-04-08 21:33:36.072243,58172,1609503188220369,788187092,0.554368,-0.755424,0.700768,-64.72375,-41.86875,-21.30625,-24.352001,20.992,12.872001,inter_set_rest,0,3.0,17391.0,135130.0,221671.0,275259.0,260121.0
2026-04-08 21:33:36.075794,58173,1609503188229271,788195747,0.554368,-0.755424,0.700768,-36.3125,-43.58375,-21.175,-24.352001,20.992,12.872001,inter_set_rest,0,3.0,17391.0,135130.0,221671.0,275259.0,260121.0
2026-04-08 21:33:36.082177,58174,1609503188243759,788210665,0.724192,-0.700768,0.763232,-1.7675,-39.7425,-18.4975,-25.016,20.848001,12.352,inter_set_rest,0,3.0,17391.0,135130.0,221671.0,275259.0,260121.0
2026-04-08 21:33:36.112002,58185,1609503188253063,788219428,0.724192,-0.700768,0.763232,35.11375,-34.0725,-16.33625,-25.016,20.848001,12.352,inter_set_rest,0,3.0,17514.0,135517.0,222036.0,275417.0,260142.0
2026-04-08 21:33:36.114516,58186,1609503188262261,788228189,0.772992,-0.616832,0.628544,68.66125,-29.6275,-13.1775,-25.504002,20.416,12.880001,inter_set_rest,0,3.0,17514.0,135517.0,222036.0,275417.0,260142.0
2026-04-08 21:33:36.116995,58187,1609503188276809,788243106,0.772992,-0.616832,0.628544,90.2825,-29.00625,-6.58875,-25.504002,20.416,12.880001,inter_set_rest,0,3.0,17514.0,135517.0,222036.0,275417.0,260142.0
2026-04-08 21:33:36.122020,58188,1609503188285747,788251816,0.650016,-0.495808,0.548512,99.11125,-32.96125,0.84875,-25.6,19.84,14.896001,inter_set_rest,0,3.0,17514.0,135517.0,222036.0,275417.0,260142.0
2026-04-08 21:33:36.170965,58189,1609503188300262,788266731,0.739808,-0.474336,0.821792,101.63125,-39.69875,7.98,-25.720001,19.352001,13.68,inter_set_rest,0,3.0,17514.0,135517.0,222036.0,275417.0,260142.0
2026-04-08 21:33:36.174566,58190,1609503188309158,788275391,0.739808,-0.474336,0.821792,104.02,-47.4775,13.79875,-25.720001,19.352001,13.68,inter_set_rest,0,3.0,17514.0,135517.0,222036.0,275417.0,260142.0
2026-04-08 21:33:36.177056,58191,1609503188323646,788290267,0.95648,-0.407968,1.223904,110.34625,-45.05375,19.48625,-25.912,18.504002,13.808001,inter_set_rest,0,3.0,17514.0,135517.0,222036.0,275417.0,260142.0
2026-04-08 21:33:36.179530,58192,1609503188332572,788298909,0.95648,-0.407968,1.223904,127.63625,-24.15875,22.37375,-25.912,18.504002,13.808001,inter_set_rest,0,3.0,17514.0,135517.0,222036.0,275417.0,260142.0
2026-04-08 21:33:36.182036,58193,1609503188341513,788307592,0.862784,-0.236192,0.921344,144.66376,-4.13,24.9025,-25.248001,18.096,14.896001,inter_set_rest,0,3.0,17514.0,135517.0,222036.0,275417.0,260142.0
2026-04-08 21:33:36.212314,58204,1609503188356206,788323002,0.862784,-0.236192,0.921344,149.1525,12.29375,32.19125,-25.248001,18.096,14.896001,inter_set_rest,0,3.0,17507.0,135529.0,222087.0,275551.0,260271.0
2026-04-08 21:33:36.214763,58205,1609503188365269,788331725,0.607072,-0.095648,0.708576,142.765,21.9625,43.1725,-24.616001,17.864,13.68,inter_set_rest,0,3.0,17507.0,135529.0,222087.0,275551.0,260271.0
2026-04-08 21:33:36.220217,58206,1609503188379775,788346643,0.700768,-0.148352,0.618784,118.02875,22.05875,53.515,-23.736002,17.92,15.328001,inter_set_rest,0,3.0,17507.0,135529.0,222087.0,275551.0,260271.0
2026-04-08 21:33:36.227362,58207,1609503188388719,788355325,0.700768,-0.148352,0.618784,81.19125,15.198751,60.0075,-23.736002,17.92,15.328001,inter_set_rest,0,3.0,17507.0,135529.0,222087.0,275551.0,260271.0
2026-04-08 21:33:36.255941,58208,1609503188403186,788370210,0.607072,-0.091744,0.423584,48.65,5.6,69.4225,-22.904001,18.952002,15.904,inter_set_rest,0,3.0,17507.0,135529.0,222087.0,275551.0,260271.0
2026-04-08 21:33:36.260500,58209,1609503188412096,788378869,0.607072,-0.091744,0.423584,29.2075,-9.625,67.90875,-22.904001,18.952002,15.904,inter_set_rest,0,3.0,17507.0,135529.0,222087.0,275551.0,260271.0
2026-04-08 21:33:36.262014,58210,1609503188420991,788387518,0.691008,-0.22448,0.486048,17.053751,-25.31375,47.53875,-23.088001,19.208,15.080001,inter_set_rest,0,3.0,17507.0,135529.0,222087.0,275551.0,260271.0
2026-04-08 21:33:36.293264,58211,1609503188435466,788402367,0.691008,-0.22448,0.486048,9.87875,-37.45,38.71,-23.088001,19.208,15.080001,inter_set_rest,0,3.0,17507.0,135529.0,222087.0,275551.0,260271.0
2026-04-08 21:33:36.297678,58212,1609503188444442,788411051,0.776896,-0.33184,0.540704,13.02875,-45.22875,44.03875,-22.616001,19.472,14.496,inter_set_rest,0,3.0,17507.0,135529.0,222087.0,275551.0,260271.0
2026-04-08 21:33:36.332569,58223,1609503188459023,788425957,0.84912,-0.324032,0.708576,24.56125,-44.17875,46.6025,-22.616001,19.640001,14.416,inter_set_rest,0,3.0,17342.0,134862.0,221163.0,274643.0,259657.0
2026-04-08 21:33:36.334282,58224,1609503188468005,788434664,0.84912,-0.324032,0.708576,42.28875,-39.99625,44.73,-22.416,19.640001,14.416,inter_set_rest,0,3.0,17342.0,134862.0,221163.0,274643.0,259657.0
2026-04-08 21:33:36.335806,58225,1609503188482519,788449583,0.74176,-0.199104,0.349408,51.0125,-38.45625,42.28875,-22.240002,19.816002,14.128,inter_set_rest,0,3.0,17342.0,134862.0,221163.0,274643.0,259657.0
2026-04-08 21:33:36.340055,58226,1609503188491430,788458273,0.74176,-0.199104,0.349408,43.09375,-41.01125,43.14625,-22.240002,19.816002,14.128,inter_set_rest,0,3.0,17342.0,134862.0,221163.0,274643.0,259657.0
2026-04-08 21:33:36.342512,58227,1609503188500391,788466942,0.706624,-0.203008,0.152256,25.1125,-48.107502,49.8925,-22.288,20.672,13.192,inter_set_rest,0,3.0,17342.0,134862.0,221163.0,274643.0,259657.0
2026-04-08 21:33:36.370921,58228,1609503188514865,788481821,0.706624,-0.203008,0.152256,-2.03,-61.565,55.4925,-22.288,20.672,13.192,inter_set_rest,0,3.0,17342.0,134862.0,221163.0,274643.0,259657.0
2026-04-08 21:33:36.376469,58229,1609503188523789,788490528,0.667584,-0.25376,0.199104,-26.635,-73.56125,54.59125,-22.032001,21.36,12.552001,inter_set_rest,0,3.0,17342.0,134862.0,221163.0,274643.0,259657.0
2026-04-08 21:33:36.377967,58230,1609503188538263,788503404,0.667584,-0.25376,0.199104,-41.37,-79.8,49.6125,-22.032001,21.36,12.552001,inter_set_rest,0,3.0,17342.0,134862.0,221163.0,274643.0,259657.0
2026-04-08 21:33:36.408237,58231,1609503188547410,788514172,0.784704,-0.281088,0.587552,-40.76625,-86.45,47.32,-21.936,21.608002,11.288,inter_set_rest,0,3.0,17342.0,134862.0,221163.0,274643.0,259657.0
2026-04-08 21:33:36.436785,58242,1609503188556463,788522849,0.784704,-0.281088,0.587552,-22.68,-76.01125,40.04875,-21.936,21.608002,11.288,inter_set_rest,0,3.0,17198.0,134140.0,220252.0,273887.0,259202.0
2026-04-08 21:33:36.438246,58243,1609503188570998,788537785,0.71248,-0.277184,0.571936,8.18125,-63.72625,27.8775,-22.184002,21.904001,10.976001,inter_set_rest,0,3.0,17198.0,134140.0,220252.0,273887.0,259202.0
2026-04-08 21:33:36.473233,58244,1609503188579887,788546511,0.540704,-0.132736,0.357216,30.94875,-55.072502,24.675,-22.184002,21.936,11.360001,inter_set_rest,0,3.0,17198.0,134140.0,220252.0,273887.0,259202.0
2026-04-08 21:33:36.475432,58245,1609503188594423,788561439,0.540704,-0.132736,0.357216,39.4275,-51.3625,26.69625,-21.936,21.936,11.360001,inter_set_rest,0,3.0,17198.0,134140.0,220252.0,273887.0,259202.0
2026-04-08 21:33:36.480087,58246,1609503188603407,788570153,0.609024,0.013664,0.521184,42.857502,-42.385,21.3325,-22.344002,21.504002,10.528001,inter_set_rest,0,3.0,17198.0,134140.0,220252.0,273887.0,259202.0
2026-04-08 21:33:36.481778,58247,1609503188617899,788585008,0.609024,0.013664,0.521184,42.23625,-32.7075,5.15375,-22.344002,21.504002,10.528001,inter_set_rest,0,3.0,17198.0,134140.0,220252.0,273887.0,259202.0
2026-04-08 21:33:36.483333,58248,1609503188626843,788593776,0.737856,-0.150304,0.37088,26.81875,-27.44875,-5.3375,-22.376001,21.52,9.624001,inter_set_rest,0,3.0,17198.0,134140.0,220252.0,273887.0,259202.0
2026-04-08 21:33:36.487548,58249,1609503188635748,788602435,0.737856,-0.150304,0.37088,-5.94125,-27.2125,-4.8125,-22.376001,21.52,9.624001,inter_set_rest,0,3.0,17198.0,134140.0,220252.0,273887.0,259202.0
2026-04-08 21:33:36.489258,58250,1609503188650246,788617325,0.638304,-0.376736,0.052704,-44.66,-36.33875,5.705,-22.536001,22.352001,9.184,inter_set_rest,0,3.0,17198.0,134140.0,220252.0,273887.0,259202.0
2026-04-08 21:33:36.517579,58261,1609503188659207,788626033,0.638304,-0.376736,0.052704,-80.99,-46.41,21.53375,-22.536001,22.352001,9.184,inter_set_rest,0,3.0,16956.0,133397.0,219439.0,273597.0,259034.0
2026-04-08 21:33:36.519278,58262,1609503188673790,788638955,0.60512,-0.530944,-0.023424,-102.76875,-59.03625,33.775,-22.28,23.000002,7.568,inter_set_rest,0,3.0,16956.0,133397.0,219439.0,273597.0,259034.0
2026-04-08 21:33:36.520841,58263,1609503188682952,788649788,0.564128,-0.474336,0.150304,-96.7925,-65.24,32.935,-22.528002,23.632002,6.688,inter_set_rest,0,3.0,16956.0,133397.0,219439.0,273597.0,259034.0
2026-04-08 21:33:36.551910,58264,1609503188697454,788662600,0.564128,-0.474336,0.150304,-69.02,-64.75,22.8025,-22.528002,23.632002,6.688,inter_set_rest,0,3.0,16956.0,133397.0,219439.0,273597.0,259034.0
2026-04-08 21:33:36.556360,58265,1609503188706586,788673328,0.560224,-0.447008,0.113216,-36.513752,-63.72625,10.99,-22.920002,23.528002,6.000001,inter_set_rest,0,3.0,16956.0,133397.0,219439.0,273597.0,259034.0
2026-04-08 21:33:36.557829,58266,1609503188715529,788681991,0.560224,-0.447008,0.113216,-16.96625,-62.90375,2.7475,-22.920002,23.528002,6.000001,inter_set_rest,0,3.0,16956.0,133397.0,219439.0,273597.0,259034.0
2026-04-08 21:33:36.591862,58267,1609503188730067,788696891,0.568032,-0.456768,0.255712,-12.95,-64.715004,5.38125,-23.2,24.216002,5.264,inter_set_rest,0,3.0,16956.0,133397.0,219439.0,273597.0,259034.0
2026-04-08 21:33:36.596433,58268,1609503188738969,788705543,0.568032,-0.456768,0.255712,-20.1775,-68.66125,14.7875,-23.2,24.216002,5.264,inter_set_rest,0,3.0,16956.0,133397.0,219439.0,273597.0,259034.0
2026-04-08 21:33:36.622021,58279,1609503188753813,788720974,0.636352,-0.528992,0.36112,-29.54,-70.56875,20.965,-23.36,24.496,5.520001,inter_set_rest,0,3.0,16768.0,132677.0,218465.0,272796.0,258539.0
2026-04-08 21:33:36.626232,58280,1609503188762851,788729679,0.64416,-0.597312,0.142496,-34.615,-71.8375,24.08875,-23.176,24.960001,3.712,inter_set_rest,0,3.0,16768.0,132677.0,218465.0,272796.0,258539.0
2026-04-08 21:33:36.627955,58281,1609503188771854,788738462,0.64416,-0.597312,0.142496,-30.6075,-74.0775,26.94125,-23.176,24.960001,3.712,inter_set_rest,0,3.0,16768.0,132677.0,218465.0,272796.0,258539.0
2026-04-08 21:33:36.630308,58282,1609503188786381,788753334,0.671488,-0.612928,0.212768,-6.685,-75.29375,26.20625,-23.624,24.960001,2.856,inter_set_rest,0,3.0,16768.0,132677.0,218465.0,272796.0,258539.0
2026-04-08 21:33:36.634055,58283,1609503188795349,788762009,0.671488,-0.612928,0.212768,21.84,-74.59375,23.30125,-23.624,24.960001,2.856,inter_set_rest,0,3.0,16768.0,132677.0,218465.0,272796.0,258539.0
2026-04-08 21:33:36.664530,58284,1609503188809841,788776868,0.714432,-0.56608,0.163968,51.33625,-76.1075,15.295,-23.800001,25.504002,2.608,inter_set_rest,0,3.0,16768.0,132677.0,218465.0,272796.0,258539.0
2026-04-08 21:33:36.666730,58285,1609503188818760,788785576,0.714432,-0.56608,0.163968,69.25625,-76.76375,10.99,-23.800001,25.504002,2.608,inter_set_rest,0,3.0,16768.0,132677.0,218465.0,272796.0,258539.0
2026-04-08 21:33:36.671287,58286,1609503188833177,788798472,0.747616,-0.443104,0.208864,76.13375,-75.4425,18.33125,-24.048,25.568,3.048,inter_set_rest,0,3.0,16768.0,132677.0,218465.0,272796.0,258539.0
2026-04-08 21:33:36.699843,58287,1609503188842485,788809195,0.772992,-0.398208,0.28304,75.4075,-73.2375,20.1075,-24.512001,25.824001,3.424,inter_set_rest,0,3.0,16768.0,132677.0,218465.0,272796.0,258539.0
2026-04-08 21:33:36.703331,58288,1609503188851476,788817839,0.772992,-0.398208,0.28304,65.89625,-71.6625,15.96,-24.512001,25.824001,3.424,inter_set_rest,0,3.0,16768.0,132677.0,218465.0,272796.0,258539.0
2026-04-08 21:33:36.731801,58299,1609503188865997,788832742,0.765184,-0.3416,0.271328,55.475,-70.07875,14.35875,-24.896002,26.032001,2.712,inter_set_rest,0,3.0,17117.0,133750.0,219670.0,273634.0,259058.0
2026-04-08 21:33:36.734215,58300,1609503188875092,788841453,0.765184,-0.3416,0.271328,43.75,-68.83625,13.335,-24.896002,26.032001,2.712,inter_set_rest,0,3.0,17117.0,133750.0,219670.0,273634.0,259058.0
2026-04-08 21:33:36.735797,58301,1609503188889648,788856392,0.75152,-0.30256,0.406016,27.895,-68.73125,7.28875,-25.312,26.624,2.304,inter_set_rest,0,3.0,17117.0,133750.0,219670.0,273634.0,259058.0
2026-04-08 21:33:36.740206,58302,1609503188898645,788865067,0.75152,-0.30256,0.406016,9.58125,-68.3375,1.11125,-25.312,26.624,2.304,inter_set_rest,0,3.0,17117.0,133750.0,219670.0,273634.0,259058.0
2026-04-08 21:33:36.774239,58303,1609503188907574,788873750,0.884256,-0.357216,0.513376,-7.1925,-67.865,0.455,-25.768002,26.752,1.496,inter_set_rest,0,3.0,17117.0,133750.0,219670.0,273634.0,259058.0
2026-04-08 21:33:36.776970,58304,1609503188922042,788888731,0.860832,-0.3904,0.304512,-20.53625,-63.9625,3.24625,-26.256,27.160002,-0.256,inter_set_rest,0,3.0,17117.0,133750.0,219670.0,273634.0,259058.0
2026-04-08 21:33:36.782609,58305,1609503188930934,788897382,0.860832,-0.3904,0.304512,-29.855,-56.1925,4.87375,-26.256,27.160002,-0.256,inter_set_rest,0,3.0,17117.0,133750.0,219670.0,273634.0,259058.0
2026-04-08 21:33:36.784218,58306,1609503188945394,788912267,0.86864,-0.347456,0.44896,-35.0525,-48.6325,4.76875,-26.44,27.424002,-0.464,inter_set_rest,0,3.0,17117.0,133750.0,219670.0,273634.0,259058.0
2026-04-08 21:33:36.815680,58317,1609503188954904,788920945,0.86864,-0.347456,0.44896,-35.5775,-42.595,-0.00875,-26.44,27.424002,-0.464,inter_set_rest,0,3.0,17334.0,134290.0,220165.0,273853.0,259225.0
2026-04-08 21:33:36.817400,58318,1609503188963983,788929720,0.825696,-0.41968,0.187392,-32.43625,-37.59,-5.73125,-26.664001,27.808,-0.616,inter_set_rest,0,3.0,17334.0,134290.0,220165.0,273853.0,259225.0
2026-04-08 21:33:36.821208,58319,1609503188978594,788944620,0.825696,-0.41968,0.187392,-28.16625,-32.9875,-4.8825,-26.664001,27.808,-0.616,inter_set_rest,0,3.0,17334.0,134290.0,220165.0,273853.0,259225.0
2026-04-08 21:33:36.826156,58320,1609503188987518,788953293,0.860832,-0.427488,0.316224,-22.5925,-29.96875,0.14,-26.952002,27.6,-0.768,inter_set_rest,0,3.0,17334.0,134290.0,220165.0,273853.0,259225.0
2026-04-08 21:33:36.855174,58321,1609503189002001,788968185,0.860832,-0.411872,0.32208,-14.945,-28.647501,2.94875,-26.952002,27.6,-0.768,inter_set_rest,0,3.0,17334.0,134290.0,220165.0,273853.0,259225.0
2026-04-08 21:33:36.859164,58322,1609503189010885,788976867,0.808128,-0.421632,0.32208,-4.45375,-28.27125,-6.25625,-27.52,28.072,-1.464,inter_set_rest,0,3.0,17334.0,134290.0,220165.0,273853.0,259225.0
2026-04-08 21:33:36.867463,58323,1609503189025394,788991805,0.987712,-0.413824,0.148352,3.36,-23.94,-15.95125,-27.656002,27.616001,-1.688,inter_set_rest,0,3.0,17334.0,134290.0,220165.0,273853.0,259225.0
2026-04-08 21:33:36.871640,58324,1609503189034364,789000471,0.987712,-0.413824,0.148352,13.7725,-20.41375,-15.21625,-27.656002,27.616001,-1.688,inter_set_rest,0,3.0,17334.0,134290.0,220165.0,273853.0,259225.0
2026-04-08 21:33:36.901993,58325,1609503189043240,789009188,1.052128,-0.366976,0.32208,29.5925,-17.85,-19.85375,-28.328001,27.728,-2.048,inter_set_rest,0,3.0,17334.0,134290.0,220165.0,273853.0,259225.0
2026-04-08 21:33:36.930522,58336,1609503189058380,789024171,1.052128,-0.366976,0.32208,42.8925,-15.015,-36.4875,-28.328001,27.728,-2.048,inter_set_rest,0,3.0,17088.0,133341.0,218884.0,272898.0,258624.0
2026-04-08 21:33:36.934013,58337,1609503189067367,789032864,0.76128,-0.359168,-0.003904,43.435,-11.8475,-47.17125,-28.880001,27.208002,-1.304,inter_set_rest,0,3.0,17088.0,133341.0,218884.0,272898.0,258624.0
2026-04-08 21:33:36.936895,58338,1609503189082186,789047751,0.76128,-0.359168,-0.081984,37.1525,-11.2525,-42.02625,-28.880001,27.208002,-1.304,inter_set_rest,0,3.0,17088.0,133341.0,218884.0,272898.0,258624.0
2026-04-08 21:33:36.939050,58339,1609503189091484,789058506,0.767136,-0.415776,-0.089792,39.66375,-14.2975,-30.4675,-29.344002,26.880001,-0.392,inter_set_rest,0,3.0,17088.0,133341.0,218884.0,272898.0,258624.0
2026-04-08 21:33:36.941196,58340,1609503189100457,789067272,0.767136,-0.415776,-0.089792,41.51875,-17.78,-29.33,-29.344002,26.880001,-0.392,inter_set_rest,0,3.0,17088.0,133341.0,218884.0,272898.0,258624.0
2026-04-08 21:33:36.971890,58341,1609503189114892,789080126,0.911584,-0.540704,0.027328,48.09875,-18.12125,-35.7525,-29.984001,26.304,-0.048,inter_set_rest,0,3.0,17088.0,133341.0,218884.0,272898.0,258624.0
2026-04-08 21:33:36.975163,58342,1609503189124102,789090854,1.032608,-0.411872,0.300608,65.58125,-15.785,-38.59625,-29.952002,26.12,-0.44,inter_set_rest,0,3.0,17088.0,133341.0,218884.0,272898.0,258624.0
2026-04-08 21:33:36.978311,58343,1609503189138581,789105703,1.032608,-0.411872,0.300608,75.5125,-9.835,-29.21625,-29.952002,26.12,-0.44,inter_set_rest,0,3.0,17088.0,133341.0,218884.0,272898.0,258624.0
2026-04-08 21:33:37.016031,58344,1609503189147514,789114358,0.925248,-0.275232,0.247904,81.996254,-5.2325,-20.25625,-30.192001,25.592001,1.0,inter_set_rest,0,3.0,17088.0,133341.0,218884.0,272898.0,258624.0
2026-04-08 21:33:37.077032,58355,1609503189156966,789123133,0.925248,-0.275232,0.247904,70.385,-5.2325,-18.4975,-30.192001,25.592001,1.0,inter_set_rest,0,3.0,16812.0,132253.0,217471.0,271751.0,257976.0
2026-04-08 21:33:37.079517,58356,1609503189171511,789138069,0.841312,-0.257664,0.119072,48.2125,-5.0225,-12.0925,-30.160002,25.760002,0.76,inter_set_rest,0,3.0,16812.0,132253.0,217471.0,271751.0,257976.0
2026-04-08 21:33:37.082013,58357,1609503189180420,789146715,0.841312,-0.257664,0.119072,24.272501,-7.49,-7.2625,-30.160002,25.760002,0.76,inter_set_rest,0,3.0,16812.0,132253.0,217471.0,271751.0,257976.0
2026-04-08 21:33:37.084491,58358,1609503189194928,789161744,0.755424,-0.267424,0.154208,0.65625,-13.67625,-6.825,-30.016,25.928001,0.08,inter_set_rest,0,3.0,16812.0,132253.0,217471.0,271751.0,257976.0
2026-04-08 21:33:37.087038,58359,1609503189203858,789170435,0.81984,-0.343552,0.083936,-19.7225,-22.23375,-5.215,-30.000002,26.008001,-1.024,inter_set_rest,0,3.0,16812.0,132253.0,217471.0,271751.0,257976.0
2026-04-08 21:33:37.089528,58360,1609503189212854,789179119,0.81984,-0.343552,0.083936,-36.9075,-30.56375,-1.54,-30.000002,26.008001,-1.024,inter_set_rest,0,3.0,16812.0,132253.0,217471.0,271751.0,257976.0
2026-04-08 21:33:37.093067,58361,1609503189227382,789193972,0.835456,-0.357216,0.197152,-49.6125,-36.88125,2.09125,-30.432001,26.304,-1.52,inter_set_rest,0,3.0,16812.0,132253.0,217471.0,271751.0,257976.0
2026-04-08 21:33:37.095408,58362,1609503189236336,789202721,0.835456,-0.357216,0.197152,-58.05625,-41.71125,3.535,-30.432001,26.304,-1.52,inter_set_rest,0,3.0,16812.0,132253.0,217471.0,271751.0,257976.0
2026-04-08 21:33:37.097389,58363,1609503189250823,789217697,0.853024,-0.435296,0.091744,-59.07125,-43.93375,3.045,-30.272001,25.920002,-2.32,inter_set_rest,0,3.0,16812.0,132253.0,217471.0,271751.0,257976.0
2026-04-08 21:33:37.127037,58374,1609503189260065,789226479,0.853024,-0.435296,0.091744,-51.3625,-43.575,1.645,-30.272001,25.920002,-2.32,inter_set_rest,0,3.0,16769.0,132186.0,217442.0,271630.0,257804.0
2026-04-08 21:33:37.133292,58375,1609503189274652,789241498,0.860832,-0.466528,-0.050752,-36.96,-41.51,-0.77,-30.272001,26.392002,-2.688,inter_set_rest,0,3.0,16769.0,132186.0,217442.0,271630.0,257804.0
2026-04-08 21:33:37.135833,58376,1609503189283625,789250228,0.860832,-0.466528,-0.074176,-16.91375,-37.7825,-3.66625,-30.272001,26.392002,-2.688,inter_set_rest,0,3.0,16769.0,132186.0,217442.0,271630.0,257804.0
2026-04-08 21:33:37.138330,58377,1609503189292525,789258935,0.88816,-0.44896,-0.074176,3.78,-33.31125,-6.0025,-30.544,26.024002,-2.824,inter_set_rest,0,3.0,16769.0,132186.0,217442.0,271630.0,257804.0
2026-04-08 21:33:37.145788,58378,1609503189307020,789273861,0.831552,-0.363072,-0.0976,25.82125,-27.72,-9.17,-30.760002,26.080002,-2.36,inter_set_rest,0,3.0,16769.0,132186.0,217442.0,271630.0,257804.0
2026-04-08 21:33:37.176417,58379,1609503189315999,789282546,0.831552,-0.363072,-0.0976,40.50375,-24.4475,-12.78375,-30.760002,26.080002,-2.36,inter_set_rest,0,3.0,16769.0,132186.0,217442.0,271630.0,257804.0
2026-04-08 21:33:37.179644,58380,1609503189330499,789297415,0.872544,-0.304512,0.134688,48.86875,-21.428751,-17.94625,-30.928001,26.008001,-2.472,inter_set_rest,0,3.0,16769.0,132186.0,217442.0,271630.0,257804.0
2026-04-08 21:33:37.182168,58381,1609503189339391,789306089,0.872544,-0.304512,0.134688,51.23125,-17.92,-20.335001,-30.928001,26.008001,-2.472,inter_set_rest,0,3.0,16769.0,132186.0,217442.0,271630.0,257804.0
2026-04-08 21:33:37.212314,58382,1609503189353875,789321008,0.84912,-0.259616,0.046848,45.52625,-16.94875,-19.1275,-31.04,25.784,-1.8,inter_set_rest,0,3.0,16769.0,132186.0,217442.0,271630.0,257804.0
2026-04-08 21:33:37.240802,58393,1609503189362861,789329807,0.84912,-0.259616,0.046848,38.3425,-15.53125,-18.1825,-31.04,25.784,-1.8,inter_set_rest,0,3.0,16971.0,132824.0,218199.0,272065.0,258043.0
2026-04-08 21:33:37.243317,58394,1609503189371772,789338442,0.884256,-0.26352,0.027328,27.5625,-14.1575,-17.29,-31.616001,25.432001,-3.904,inter_set_rest,0,3.0,16971.0,132824.0,218199.0,272065.0,258043.0
2026-04-08 21:33:37.245839,58395,1609503189386318,789353314,0.876448,-0.30256,-0.080032,15.61875,-12.792501,-15.89875,-31.736002,25.432001,-2.672,inter_set_rest,0,3.0,16971.0,132824.0,218199.0,272065.0,258043.0
2026-04-08 21:33:37.248832,58396,1609503189395287,789362005,0.876448,-0.30256,-0.080032,1.9775,-11.08625,-13.27375,-31.736002,25.432001,-2.672,inter_set_rest,0,3.0,16971.0,132824.0,218199.0,272065.0,258043.0
2026-04-08 21:33:37.250801,58397,1609503189409823,789376896,0.776896,-0.306464,0.072224,-7.69125,-10.42125,-11.2875,-31.344002,25.088001,-2.8,inter_set_rest,0,3.0,16971.0,132824.0,218199.0,272065.0,258043.0
2026-04-08 21:33:37.257256,58398,1609503189418756,789385609,0.776896,-0.306464,0.072224,-12.792501,-11.2175,-10.2375,-31.344002,25.088001,-2.8,inter_set_rest,0,3.0,16971.0,132824.0,218199.0,272065.0,258043.0
2026-04-08 21:33:37.287326,58399,1609503189433288,789398435,0.815936,-0.382592,-0.066368,-11.9,-12.18,-10.22,-31.256002,25.328001,-2.792,inter_set_rest,0,3.0,16971.0,132824.0,218199.0,272065.0,258043.0
2026-04-08 21:33:37.290872,58400,1609503189442396,789409163,0.815936,-0.382592,-0.066368,-7.88375,-12.7225,-10.87625,-31.256002,25.328001,-2.792,inter_set_rest,0,3.0,16971.0,132824.0,218199.0,272065.0,258043.0
2026-04-08 21:33:37.293384,58401,1609503189451277,789417805,0.921344,-0.366976,0.119072,-3.40375,-11.29625,-13.06375,-31.808,25.2,-2.688,inter_set_rest,0,3.0,16971.0,132824.0,218199.0,272065.0,258043.0
2026-04-08 21:33:37.320814,58412,1609503189466276,789433031,0.862784,-0.374784,-0.06832,1.26,-9.24875,-14.91875,-31.912,25.04,-3.432,inter_set_rest,0,3.0,17078.0,133118.0,218416.0,272097.0,258009.0
2026-04-08 21:33:37.323308,58413,1609503189475230,789441843,0.862784,-0.374784,-0.06832,4.375,-7.6125,-14.41125,-31.912,25.04,-3.432,inter_set_rest,0,3.0,17078.0,133118.0,218416.0,272097.0,258009.0
2026-04-08 21:33:37.328975,58414,1609503189489816,789456706,0.7808,-0.30256,0.015616,5.5475,-6.9475,-14.42,-32.144,24.808,-2.784,inter_set_rest,0,3.0,17078.0,133118.0,218416.0,272097.0,258009.0
2026-04-08 21:33:37.370994,58415,1609503189498728,789465416,0.7808,-0.30256,0.015616,5.80125,-7.1225,-15.3125,-32.144,24.808,-2.784,inter_set_rest,0,3.0,17078.0,133118.0,218416.0,272097.0,258009.0
2026-04-08 21:33:37.374560,58416,1609503189507723,789474077,0.831552,-0.335744,-0.111264,6.86,-8.3475,-16.205,-31.984001,24.416,-2.944,inter_set_rest,0,3.0,17078.0,133118.0,218416.0,272097.0,258009.0
2026-04-08 21:33:37.377061,58417,1609503189522185,789488928,0.831552,-0.335744,-0.111264,7.875,-10.21125,-16.135,-31.984001,24.416,-2.944,inter_set_rest,0,3.0,17078.0,133118.0,218416.0,272097.0,258009.0
2026-04-08 21:33:37.379808,58418,1609503189531129,789497579,0.802272,-0.327936,-0.10736,9.948751,-12.66125,-16.68625,-32.392002,24.584002,-3.024,inter_set_rest,0,3.0,17078.0,133118.0,218416.0,272097.0,258009.0
2026-04-08 21:33:37.382085,58419,1609503189545588,789512466,0.802272,-0.333792,0.101504,13.0725,-13.97375,-18.27875,-32.392002,24.584002,-3.024,inter_set_rest,0,3.0,17078.0,133118.0,218416.0,272097.0,258009.0
2026-04-08 21:33:37.413176,58420,1609503189554530,789521145,0.919392,-0.333792,0.101504,16.45875,-13.9125,-21.48125,-32.72,24.52,-2.672,inter_set_rest,0,3.0,17078.0,133118.0,218416.0,272097.0,258009.0
2026-04-08 21:33:37.444565,58431,1609503189569072,789536043,0.894016,-0.30256,-0.095648,19.11,-13.0375,-22.67125,-32.968002,24.128,-3.056,inter_set_rest,0,3.0,17099.0,133036.0,218190.0,271837.0,257793.0
2026-04-08 21:33:37.447123,58432,1609503189578014,789544717,0.894016,-0.30256,-0.095648,21.2625,-12.50375,-20.265,-32.968002,24.128,-3.056,inter_set_rest,0,3.0,17099.0,133036.0,218190.0,271837.0,257793.0
2026-04-08 21:33:37.449569,58433,1609503189586962,789553396,0.94672,-0.279136,0.076128,22.1375,-11.5675,-18.0425,-33.488003,23.984001,-2.112,inter_set_rest,0,3.0,17099.0,133036.0,218190.0,271837.0,257793.0
2026-04-08 21:33:37.452016,58434,1609503189601453,789568360,0.94672,-0.279136,0.076128,19.99375,-10.6925,-14.41125,-33.488003,23.984001,-2.112,inter_set_rest,0,3.0,17099.0,133036.0,218190.0,271837.0,257793.0
2026-04-08 21:33:37.454590,58435,1609503189610399,789577059,0.931104,-0.259616,0.01952,20.02,-10.03625,-12.04,-33.472,23.936,-2.872,inter_set_rest,0,3.0,17099.0,133036.0,218190.0,271837.0,257793.0
2026-04-08 21:33:37.484798,58436,1609503189624858,789591952,0.931104,-0.259616,0.01952,17.45625,-8.86375,-10.8325,-33.472,23.936,-2.872,inter_set_rest,0,3.0,17099.0,133036.0,218190.0,271837.0,257793.0
2026-04-08 21:33:37.489284,58437,1609503189633767,789600640,0.964288,-0.25376,0.076128,18.66375,-8.51375,-12.22375,-33.304,24.232,-2.28,inter_set_rest,0,3.0,17099.0,133036.0,218190.0,271837.0,257793.0
2026-04-08 21:33:37.490828,58438,1609503189648237,789613453,0.876448,-0.158112,0.130784,15.190001,-5.215,-12.80125,-33.08,23.912,-2.632,inter_set_rest,0,3.0,17099.0,133036.0,218190.0,271837.0,257793.0
2026-04-08 21:33:37.518364,58449,1609503189657425,789624197,0.876448,-0.158112,0.130784,9.7475,-2.96625,-7.04375,-33.08,23.912,-2.632,inter_set_rest,0,3.0,17117.0,132885.0,217831.0,271597.0,257642.0
2026-04-08 21:33:37.520845,58450,1609503189666513,789632933,0.845216,-0.212768,-0.144448,4.08625,-1.68875,-3.0975,-33.08,23.912,-0.936,inter_set_rest,0,3.0,17117.0,132885.0,217831.0,271597.0,257642.0
2026-04-08 21:33:37.523345,58451,1609503189681055,789647917,0.843264,-0.212768,-0.144448,-2.94875,-1.44375,-2.56375,-33.296,24.008001,-0.936,inter_set_rest,0,3.0,17117.0,132885.0,217831.0,271597.0,257642.0
2026-04-08 21:33:37.528284,58452,1609503189690014,789656588,0.892064,-0.279136,0.152256,-8.785,-2.555,-2.3975,-33.456,23.936,-2.136,inter_set_rest,0,3.0,17117.0,132885.0,217831.0,271597.0,257642.0
2026-04-08 21:33:37.558503,58453,1609503189704534,789671447,0.892064,-0.279136,0.152256,-10.4475,-3.10625,-1.9775,-33.456,23.936,-2.136,inter_set_rest,0,3.0,17117.0,132885.0,217831.0,271597.0,257642.0
2026-04-08 21:33:37.562033,58454,1609503189713424,789680166,0.944768,-0.290848,0.210816,-7.00875,-2.835,-2.345,-33.336002,23.792002,-3.528,inter_set_rest,0,3.0,17117.0,132885.0,217831.0,271597.0,257642.0
2026-04-08 21:33:37.564557,58455,1609503189722327,789688812,0.944768,-0.290848,0.210816,-3.28125,-0.5775,-2.4325,-33.336002,23.792002,-3.528,inter_set_rest,0,3.0,17117.0,132885.0,217831.0,271597.0,257642.0
2026-04-08 21:33:37.594814,58456,1609503189736877,789703684,0.853024,-0.220576,0.017568,0.41125,1.365,-1.33,-32.800003,23.664001,-3.264,inter_set_rest,0,3.0,17117.0,132885.0,217831.0,271597.0,257642.0
2026-04-08 21:33:37.598362,58457,1609503189745792,789712341,0.853024,-0.220576,0.017568,1.925,2.835,0.035,-32.800003,23.664001,-3.264,inter_set_rest,0,3.0,17117.0,132885.0,217831.0,271597.0,257642.0
2026-04-08 21:33:37.625779,58468,1609503189760331,789727291,0.895968,-0.232288,0.046848,-1.54875,2.86125,1.09375,-33.176003,23.992,-3.152,inter_set_rest,0,3.0,17123.0,132730.0,217539.0,271328.0,257460.0
2026-04-08 21:33:37.628304,58469,1609503189769373,789736013,0.923296,-0.294752,0.162016,-7.09625,1.2075,0.81375,-33.512,23.816002,-3.416,inter_set_rest,0,3.0,17123.0,132730.0,217539.0,271328.0,257460.0
2026-04-08 21:33:37.630818,58470,1609503189783983,789750985,0.923296,-0.294752,0.162016,-11.261251,-0.62125,0.65625,-33.512,23.816002,-3.416,inter_set_rest,0,3.0,17123.0,132730.0,217539.0,271328.0,257460.0
2026-04-08 21:33:37.633289,58471,1609503189792893,789759657,0.841312,-0.333792,-0.0488,-10.87625,-1.02375,0.4375,-33.104,24.168001,-3.2,inter_set_rest,0,3.0,17123.0,132730.0,217539.0,271328.0,257460.0
2026-04-08 21:33:37.638337,58472,1609503189801832,789768343,0.841312,-0.333792,-0.0488,-6.79875,0.09625,0.06125,-33.104,24.168001,-3.2,inter_set_rest,0,3.0,17123.0,132730.0,217539.0,271328.0,257460.0
2026-04-08 21:33:37.672350,58473,1609503189816315,789783243,0.870592,-0.294752,0.0976,-0.7525,1.9075,0.04375,-33.048,24.320002,-2.568,inter_set_rest,0,3.0,17123.0,132730.0,217539.0,271328.0,257460.0
2026-04-08 21:33:37.675913,58474,1609503189825235,789791905,0.870592,-0.294752,0.0976,4.52375,3.52625,0.44625,-33.048,24.320002,-2.568,inter_set_rest,0,3.0,17123.0,132730.0,217539.0,271328.0,257460.0
2026-04-08 21:33:37.678217,58475,1609503189839716,789806761,0.854976,-0.277184,-0.01952,7.74375,4.76,1.75,-32.848003,24.344002,-2.936,inter_set_rest,0,3.0,17123.0,132730.0,217539.0,271328.0,257460.0
2026-04-08 21:33:37.687068,58476,1609503189848677,789815432,0.884256,-0.32208,-0.00976,9.59875,4.82125,3.17625,-33.152,24.160002,-1.464,inter_set_rest,0,3.0,17123.0,132730.0,217539.0,271328.0,257460.0
2026-04-08 21:33:37.743311,58487,1609503189863371,789830360,0.884256,-0.32208,-0.00976,10.15,4.375,0.79625,-33.152,24.160002,-1.464,inter_set_rest,0,3.0,17148.0,132735.0,217473.0,271187.0,257368.0
2026-04-08 21:33:37.745799,58488,1609503189872356,789839078,0.827648,-0.290848,-0.062464,8.09375,6.0725,2.38,-32.776,24.144001,-2.568,inter_set_rest,0,3.0,17148.0,132735.0,217473.0,271187.0,257368.0
2026-04-08 21:33:37.748282,58489,1609503189881254,789847725,0.827648,-0.290848,-0.062464,9.98375,5.31125,3.185,-32.776,24.144001,-2.568,inter_set_rest,0,3.0,17148.0,132735.0,217473.0,271187.0,257368.0
2026-04-08 21:33:37.750779,58490,1609503189895723,789862621,0.856928,-0.261568,0.08784,10.52625,5.36375,-0.21,-32.960003,24.336,-2.04,inter_set_rest,0,3.0,17148.0,132735.0,217473.0,271187.0,257368.0
2026-04-08 21:33:37.753219,58491,1609503189904729,789871306,0.856928,-0.261568,0.08784,5.32,5.69625,3.045,-32.960003,24.336,-2.04,inter_set_rest,0,3.0,17148.0,132735.0,217473.0,271187.0,257368.0
2026-04-08 21:33:37.757023,58492,1609503189919245,789886184,0.935008,-0.300608,0.062464,6.0375,2.94875,4.62875,-33.296,24.144001,-2.048,inter_set_rest,0,3.0,17148.0,132735.0,217473.0,271187.0,257368.0
2026-04-08 21:33:37.787229,58493,1609503189928211,789894872,0.847168,-0.288896,-0.042944,3.80625,2.03875,1.5575,-33.296,24.144001,-3.496,inter_set_rest,0,3.0,17148.0,132735.0,217473.0,271187.0,257368.0
2026-04-08 21:33:37.790835,58494,1609503189942712,789909851,0.847168,-0.288896,-0.042944,1.3125,0.9975,2.1175,-33.192,24.448002,-3.496,inter_set_rest,0,3.0,17148.0,132735.0,217473.0,271187.0,257368.0
2026-04-08 21:33:37.793299,58495,1609503189951607,789918522,0.823744,-0.279136,0.031232,5.43375,-0.72625,2.52,-33.2,24.504002,-2.552,inter_set_rest,0,3.0,17148.0,132735.0,217473.0,271187.0,257368.0
2026-04-08 21:33:37.820746,58506,1609503189961052,789927460,0.823744,-0.279136,0.031232,4.13,-3.05375,-0.63,-33.2,24.504002,-2.552,inter_set_rest,0,3.0,17144.0,132575.0,217177.0,270918.0,257174.0
2026-04-08 21:33:37.824019,58507,1609503189975613,789942399,0.833504,-0.2928,-0.066368,1.33875,-5.8625,-1.75,-33.16,24.464,-1.592,inter_set_rest,0,3.0,17144.0,132575.0,217177.0,270918.0,257174.0
2026-04-08 21:33:37.825727,58508,1609503189984539,789951104,0.833504,-0.2928,-0.066368,1.25125,-10.15875,-1.47,-33.16,24.464,-1.592,inter_set_rest,0,3.0,17144.0,132575.0,217177.0,270918.0,257174.0
2026-04-08 21:33:37.855977,58509,1609503189998987,789965999,0.817888,-0.267424,0.017568,-0.1575,-14.67375,-2.17875,-33.184002,24.6,-1.792,inter_set_rest,0,3.0,17144.0,132575.0,217177.0,270918.0,257174.0
2026-04-08 21:33:37.859536,58510,1609503190007924,789974662,0.817888,-0.267424,0.017568,-1.79375,-19.20625,-3.08,-33.184002,24.6,-1.792,inter_set_rest,0,3.0,17144.0,132575.0,217177.0,270918.0,257174.0
2026-04-08 21:33:37.862035,58511,1609503190016846,789983312,0.929152,-0.304512,0.179584,1.085,-21.9975,-2.8175,-33.032,24.704,-2.152,inter_set_rest,0,3.0,17144.0,132575.0,217177.0,270918.0,257174.0
2026-04-08 21:33:37.868353,58512,1609503190031353,789998215,0.843264,-0.290848,0.01952,8.2425,-23.10875,-3.31625,-33.120003,24.192001,-2.96,inter_set_rest,0,3.0,17144.0,132575.0,217177.0,270918.0,257174.0
2026-04-08 21:33:37.900991,58513,1609503190040302,790006897,0.843264,-0.290848,0.01952,18.34875,-21.84875,-5.1975,-33.120003,24.192001,-2.96,inter_set_rest,0,3.0,17144.0,132575.0,217177.0,270918.0,257174.0
2026-04-08 21:33:37.904478,58514,1609503190054755,790021761,0.93696,-0.279136,0.095648,25.48,-20.85125,-8.14625,-33.088,24.400002,-2.688,inter_set_rest,0,3.0,17144.0,132575.0,217177.0,270918.0,257174.0
2026-04-08 21:33:37.932164,58525,1609503190064262,790030477,0.93696,-0.279136,0.095648,30.161251,-20.5625,-10.03625,-33.088,24.400002,-2.688,inter_set_rest,0,3.0,17200.0,132608.0,217080.0,270757.0,257043.0
2026-04-08 21:33:37.934528,58526,1609503190073168,790039250,0.851072,-0.26352,-0.138592,35.56875,-20.3525,-11.6025,-33.304,24.376001,-2.608,inter_set_rest,0,3.0,17200.0,132608.0,217080.0,270757.0,257043.0
2026-04-08 21:33:37.937059,58527,1609503190087627,790054204,0.851072,-0.26352,-0.138592,35.7525,-20.23,-11.7775,-33.304,24.376001,-2.608,inter_set_rest,0,3.0,17200.0,132608.0,217080.0,270757.0,257043.0
2026-04-08 21:33:37.939589,58528,1609503190096549,790062877,0.831552,-0.240096,-0.12688,35.07875,-20.8775,-12.04875,-33.352,23.992,-4.52,inter_set_rest,0,3.0,17200.0,132608.0,217080.0,270757.0,257043.0
2026-04-08 21:33:37.977254,58529,1609503190111061,790077734,0.841312,-0.228384,-0.05856,31.57,-20.48375,-13.1425,-33.712,23.752,-1.128,inter_set_rest,0,3.0,17200.0,132608.0,217080.0,270757.0,257043.0
2026-04-08 21:33:37.984288,58530,1609503190119989,790086422,0.841312,-0.228384,-0.05856,25.83875,-21.20125,-12.25875,-33.712,23.752,-1.128,inter_set_rest,0,3.0,17200.0,132608.0,217080.0,270757.0,257043.0
2026-04-08 21:33:37.985853,58531,1609503190134453,790101290,0.915488,-0.247904,0.119072,20.67625,-22.085001,-11.261251,-34.104,24.000002,-2.448,inter_set_rest,0,3.0,17200.0,132608.0,217080.0,270757.0,257043.0
2026-04-08 21:33:37.988274,58532,1609503190143354,790109949,0.915488,-0.247904,0.119072,15.417501,-22.39125,-9.89625,-34.104,24.000002,-2.448,inter_set_rest,0,3.0,17200.0,132608.0,217080.0,270757.0,257043.0
2026-04-08 21:33:38.018519,58533,1609503190157845,790124867,0.866688,-0.249856,0.072224,11.2175,-22.26,-8.575,-33.856003,23.824001,-3.184,inter_set_rest,0,3.0,17200.0,132608.0,217080.0,270757.0,257043.0
2026-04-08 21:33:38.049504,58545,1609503190166874,790133604,0.866688,-0.249856,0.072224,8.11125,-21.76125,-7.67375,-33.856003,23.824001,-3.184,inter_set_rest,0,3.0,17202.0,132390.0,216744.0,270474.0,256846.0
2026-04-08 21:33:38.052115,58546,1609503190175918,790142303,0.847168,-0.27328,-0.11712,6.1075,-21.32375,-6.5975,-34.184002,23.728,-3.176,inter_set_rest,0,3.0,17202.0,132390.0,216744.0,270474.0,256846.0
2026-04-08 21:33:38.054672,58547,1609503190190385,790157203,0.88816,-0.232288,0.05856,6.50125,-20.09,-5.2325,-34.208,23.976002,-2.032,inter_set_rest,0,3.0,17202.0,132390.0,216744.0,270474.0,256846.0
2026-04-08 21:33:38.057009,58548,1609503190199430,790165917,0.88816,-0.232288,0.05856,7.69125,-19.075,-4.1125,-34.208,23.976002,-2.032,inter_set_rest,0,3.0,17202.0,132390.0,216744.0,270474.0,256846.0
2026-04-08 21:33:38.059505,58549,1609503190213948,790180812,0.876448,-0.267424,-0.1464,7.00875,-18.025,-3.465,-34.376003,23.616001,-2.504,inter_set_rest,0,3.0,17202.0,132390.0,216744.0,270474.0,256846.0
2026-04-08 21:33:38.062028,58550,1609503190222917,790189416,0.876448,-0.267424,-0.1464,6.15125,-17.36875,-3.2025,-34.376003,23.616001,-2.504,inter_set_rest,0,3.0,17202.0,132390.0,216744.0,270474.0,256846.0
2026-04-08 21:33:38.068374,58551,1609503190231868,790198126,0.837408,-0.25376,-0.16592,6.0725,-16.6425,-2.5725,-34.352,23.984001,-3.304,inter_set_rest,0,3.0,17202.0,132390.0,216744.0,270474.0,256846.0
2026-04-08 21:33:38.098484,58552,1609503190246349,790213018,0.837408,-0.25376,-0.16592,6.90375,-15.365,-3.4125,-34.352,23.984001,-3.304,inter_set_rest,0,3.0,17202.0,132390.0,216744.0,270474.0,256846.0
2026-04-08 21:33:38.102023,58553,1609503190255245,790221664,0.938912,-0.251808,0.091744,6.9125,-14.0875,-2.5725,-34.088,23.568,-3.504,inter_set_rest,0,3.0,17202.0,132390.0,216744.0,270474.0,256846.0
2026-04-08 21:33:38.129574,58564,1609503190270343,790236624,0.938912,-0.288896,-0.060512,5.24125,-12.97625,-2.00375,-34.088,23.568,-3.6,inter_set_rest,0,3.0,17170.0,132201.0,216366.0,270146.0,256604.0
2026-04-08 21:33:38.132894,58565,1609503190279429,790245308,0.940864,-0.288896,-0.060512,3.52625,-11.917501,-1.72375,-34.512,24.176,-3.6,inter_set_rest,0,3.0,17170.0,132201.0,216366.0,270146.0,256604.0
2026-04-08 21:33:38.134608,58566,1609503190288365,790254250,0.940864,-0.288896,-0.060512,2.0475,-10.823751,-1.72375,-34.512,24.176,-3.6,inter_set_rest,0,3.0,17170.0,132201.0,216366.0,270146.0,256604.0
2026-04-08 21:33:38.139503,58567,1609503190302909,790269172,0.84912,-0.269376,-0.177632,2.26625,-10.0275,-1.6275,-34.048,23.632002,-3.256,inter_set_rest,0,3.0,17170.0,132201.0,216366.0,270146.0,256604.0
2026-04-08 21:33:38.169727,58568,1609503190311809,790277834,0.913536,-0.275232,-0.060512,3.99875,-9.1175,-0.90125,-34.104,24.000002,-3.76,inter_set_rest,0,3.0,17170.0,132201.0,216366.0,270146.0,256604.0
2026-04-08 21:33:38.182246,58569,1609503190326298,790292680,0.913536,-0.275232,-0.060512,5.27625,-8.47875,-0.14,-34.104,24.000002,-3.76,inter_set_rest,0,3.0,17170.0,132201.0,216366.0,270146.0,256604.0
2026-04-08 21:33:38.184565,58570,1609503190335214,790301413,0.854976,-0.249856,-0.148352,6.32625,-7.58625,-0.67375,-34.136,23.768002,-3.68,inter_set_rest,0,3.0,17170.0,132201.0,216366.0,270146.0,256604.0
2026-04-08 21:33:38.187047,58571,1609503190349695,790316277,0.854976,-0.249856,-0.148352,7.2275,-6.36125,-0.63875,-34.136,23.768002,-3.68,inter_set_rest,0,3.0,17170.0,132201.0,216366.0,270146.0,256604.0
2026-04-08 21:33:38.217245,58572,1609503190358759,790324943,0.940864,-0.27328,-0.08784,5.83625,-5.39,0.35875,-34.152,23.68,-3.488,inter_set_rest,0,3.0,17170.0,132201.0,216366.0,270146.0,256604.0
2026-04-08 21:33:38.318322,58583,1609503190367850,790333651,0.940864,-0.27328,-0.08784,3.325,-4.8475,0.83125,-34.152,23.68,-3.488,inter_set_rest,0,3.0,17187.0,132154.0,216255.0,269991.0,256487.0
2026-04-08 21:33:38.320873,58584,1609503190382348,790348598,0.884256,-0.259616,-0.015616,1.12,-4.935,1.09375,-33.928,23.976002,-4.064,inter_set_rest,0,3.0,17187.0,132154.0,216255.0,269991.0,256487.0
2026-04-08 21:33:38.323299,58585,1609503190391291,790357281,0.944768,-0.288896,-0.02928,1.4525,-4.59375,1.19875,-33.928,23.832,-3.336,inter_set_rest,0,3.0,17187.0,132154.0,216255.0,269991.0,256487.0
2026-04-08 21:33:38.325916,58586,1609503190405796,790372150,0.944768,-0.288896,-0.02928,4.2175,-3.94625,1.1375,-33.984,23.832,-3.336,inter_set_rest,0,3.0,17187.0,132154.0,216255.0,269991.0,256487.0
2026-04-08 21:33:38.328291,58587,1609503190414703,790380837,0.876448,-0.244,-0.052704,6.3525,-2.87875,1.30375,-33.832,24.184002,-2.832,inter_set_rest,0,3.0,17187.0,132154.0,216255.0,269991.0,256487.0
2026-04-08 21:33:38.330802,58588,1609503190429224,790395736,0.876448,-0.244,-0.052704,5.95875,-0.77875,1.4,-33.832,24.184002,-2.832,inter_set_rest,0,3.0,17187.0,132154.0,216255.0,269991.0,256487.0
2026-04-08 21:33:38.333278,58589,1609503190438133,790404407,0.903776,-0.269376,-0.124928,2.9225,0.1225,2.89625,-34.08,24.152,-3.84,inter_set_rest,0,3.0,17187.0,132154.0,216255.0,269991.0,256487.0
2026-04-08 21:33:38.335741,58590,1609503190447073,790413073,0.903776,-0.269376,-0.124928,-1.9775,-0.2275,3.9725,-34.08,24.152,-3.84,inter_set_rest,0,3.0,17187.0,132154.0,216255.0,269991.0,256487.0
2026-04-08 21:33:38.363331,58601,1609503190461530,790427904,0.843264,-0.249856,0.007808,-5.46875,-0.7,4.795,-33.608,24.504002,-4.104,inter_set_rest,0,3.0,17061.0,131562.0,215438.0,269342.0,256080.0
2026-04-08 21:33:38.365850,58602,1609503190470467,790436553,0.843264,-0.249856,0.007808,-5.9325,-0.735,4.9875,-33.608,24.504002,-4.104,inter_set_rest,0,3.0,17061.0,131562.0,215438.0,269342.0,256080.0
2026-04-08 21:33:38.368283,58603,1609503190484954,790451387,0.899872,-0.31232,-0.148352,-4.0075,-0.5425,5.6,-33.744003,23.952002,-2.368,inter_set_rest,0,3.0,17061.0,131562.0,215438.0,269342.0,256080.0
2026-04-08 21:33:38.370786,58604,1609503190493905,790460110,0.872544,-0.27328,-0.119072,-0.9625,0.11375,5.2675,-33.704002,24.528002,-3.472,inter_set_rest,0,3.0,17061.0,131562.0,215438.0,269342.0,256080.0
2026-04-08 21:33:38.374274,58605,1609503190508388,790474997,0.872544,-0.27328,-0.119072,1.26,1.505,5.74875,-33.704002,24.528002,-3.472,inter_set_rest,0,3.0,17061.0,131562.0,215438.0,269342.0,256080.0
2026-04-08 21:33:38.376789,58606,1609503190517346,790483722,0.901824,-0.240096,0.021472,1.58375,2.10875,6.29125,-33.872,24.664001,-3.36,inter_set_rest,0,3.0,17061.0,131562.0,215438.0,269342.0,256080.0
2026-04-08 21:33:38.378518,58607,1609503190526279,790492421,0.901824,-0.240096,0.021472,-0.27125,2.33625,6.74625,-33.872,24.664001,-3.36,inter_set_rest,0,3.0,17061.0,131562.0,215438.0,269342.0,256080.0
2026-04-08 21:33:38.380765,58608,1609503190540791,790507350,0.845216,-0.247904,-0.015616,-4.725,1.9775,7.1575,-33.592003,23.936,-4.28,inter_set_rest,0,3.0,17061.0,131562.0,215438.0,269342.0,256080.0
2026-04-08 21:33:38.387205,58609,1609503190549728,790516088,0.845216,-0.247904,-0.015616,-8.91625,0.48125,7.07,-33.592003,23.936,-4.28,inter_set_rest,0,3.0,17061.0,131562.0,215438.0,269342.0,256080.0
2026-04-08 21:33:38.423726,58620,1609503190564449,790531070,0.854976,-0.31232,-0.140544,-11.8825,-0.595,5.97625,-33.888,24.672,-2.6,inter_set_rest,0,3.0,17131.0,131795.0,215695.0,269449.0,256093.0
2026-04-08 21:33:38.425992,58621,1609503190573442,790539808,0.915488,-0.314272,-0.056608,-10.61375,-0.60375,4.62875,-33.464,24.728,-7.304,inter_set_rest,0,3.0,17131.0,131795.0,215695.0,269449.0,256093.0
2026-04-08 21:33:38.428425,58622,1609503190587916,790554745,0.915488,-0.314272,-0.056608,-8.12,0.21,4.31375,-33.464,24.728,-7.304,inter_set_rest,0,3.0,17131.0,131795.0,215695.0,269449.0,256093.0
2026-04-08 21:33:38.434723,58623,1609503190596927,790563458,0.825696,-0.28304,-0.138592,-3.8325,1.0325,3.955,-33.728,24.616001,-3.696,inter_set_rest,0,3.0,17131.0,131795.0,215695.0,269449.0,256093.0
2026-04-08 21:33:38.464815,58624,1609503190605842,790572126,0.825696,-0.28304,-0.138592,-1.8025,1.435,3.8675,-33.728,24.616001,-3.696,inter_set_rest,0,3.0,17131.0,131795.0,215695.0,269449.0,256093.0
2026-04-08 21:33:38.468321,58625,1609503190620314,790586979,0.8296,-0.275232,-0.040992,-1.4175,1.19875,3.40375,-33.264,24.656002,-3.648,inter_set_rest,0,3.0,17131.0,131795.0,215695.0,269449.0,256093.0
2026-04-08 21:33:38.470816,58626,1609503190629328,790595649,0.8296,-0.275232,-0.040992,-2.485,0.5775,1.86375,-33.264,24.656002,-3.648,inter_set_rest,0,3.0,17131.0,131795.0,215695.0,269449.0,256093.0
2026-04-08 21:33:38.501027,58627,1609503190643836,790610501,0.827648,-0.306464,-0.171776,-3.3075,-0.3675,1.54875,-33.584003,24.768002,-4.024,inter_set_rest,0,3.0,17131.0,131795.0,215695.0,269449.0,256093.0
2026-04-08 21:33:38.505159,58628,1609503190652766,790619194,0.931104,-0.310368,0.011712,-3.82375,-0.76125,0.90125,-33.584003,25.080002,-3.288,inter_set_rest,0,3.0,17131.0,131795.0,215695.0,269449.0,256093.0
2026-04-08 21:33:38.539540,58639,1609503190667434,790634254,0.931104,-0.310368,0.011712,-4.1825,-0.84875,0.51625,-33.552002,25.080002,-3.288,inter_set_rest,0,3.0,17211.0,132014.0,215921.0,269539.0,256112.0
2026-04-08 21:33:38.583751,58640,1609503190676371,790642959,0.85888,-0.275232,0.03904,-4.80375,-0.97125,0.84,-33.616,25.112001,-3.536,inter_set_rest,0,3.0,17211.0,132014.0,215921.0,269539.0,256112.0
2026-04-08 21:33:38.589347,58641,1609503190685327,790651637,0.85888,-0.275232,0.03904,-5.52125,-1.4875,0.98,-33.616,25.112001,-3.536,inter_set_rest,0,3.0,17211.0,132014.0,215921.0,269539.0,256112.0
2026-04-08 21:33:38.595597,58642,1609503190699836,790666509,0.845216,-0.306464,-0.113216,-6.825,-2.275,1.53125,-33.512,24.896002,-3.448,inter_set_rest,0,3.0,17211.0,132014.0,215921.0,269539.0,256112.0
2026-04-08 21:33:38.595791,58643,1609503190708754,790675189,0.845216,-0.306464,-0.113216,-6.7375,-2.72125,1.785,-33.512,24.896002,-3.448,inter_set_rest,0,3.0,17211.0,132014.0,215921.0,269539.0,256112.0
2026-04-08 21:33:38.596000,58644,1609503190723261,790690081,0.88816,-0.30256,-0.089792,-7.21,-3.325,1.68,-33.312,25.232,-3.848,inter_set_rest,0,3.0,17211.0,132014.0,215921.0,269539.0,256112.0
2026-04-08 21:33:38.596074,58645,1609503190732190,790698734,0.88816,-0.30256,-0.089792,-6.3875,-3.115,0.70875,-33.312,25.232,-3.848,inter_set_rest,0,3.0,17211.0,132014.0,215921.0,269539.0,256112.0
2026-04-08 21:33:38.596199,58646,1609503190741140,790707419,1.003328,-0.23424,0.122976,-2.345,0.0175,-1.3125,-33.496002,24.848001,-5.672,inter_set_rest,0,3.0,17211.0,132014.0,215921.0,269539.0,256112.0
2026-04-08 21:33:38.596245,58647,1609503190755684,790722414,0.905728,-0.150304,-0.076128,2.94,4.97,-5.60875,-33.52,24.736002,-4.328,inter_set_rest,0,3.0,17211.0,132014.0,215921.0,269539.0,256112.0
2026-04-08 21:33:38.635623,58658,1609503190765539,790731718,0.905728,-0.150304,-0.076128,-1.9075,7.11375,-10.52625,-33.52,24.736002,-4.328,inter_set_rest,0,3.0,17128.0,131733.0,215519.0,269257.0,255933.0
2026-04-08 21:33:38.639854,58659,1609503190780278,790746702,0.86864,-0.247904,-0.154208,-12.11875,6.335,-13.76375,-33.256,24.720001,-4.648,inter_set_rest,0,3.0,17128.0,131733.0,215519.0,269257.0,255933.0
2026-04-08 21:33:38.640049,58660,1609503190789212,790755422,0.86864,-0.247904,-0.154208,-24.85,2.84375,-12.67875,-33.256,24.720001,-4.648,inter_set_rest,0,3.0,17128.0,131733.0,215519.0,269257.0,255933.0
2026-04-08 21:33:38.643767,58661,1609503190798142,790764081,0.802272,-0.26352,-0.148352,-31.80625,1.0325,-7.63875,-33.608,24.504002,-3.288,inter_set_rest,0,3.0,17128.0,131733.0,215519.0,269257.0,255933.0
2026-04-08 21:33:38.652925,58662,1609503190813646,790779029,0.802272,-0.26352,-0.148352,-32.75125,1.2775,-6.11625,-33.608,24.504002,-3.288,inter_set_rest,0,3.0,17128.0,131733.0,215519.0,269257.0,255933.0
2026-04-08 21:33:38.681041,58663,1609503190823042,790789832,0.8296,-0.28304,0.037088,-30.56375,1.645,-10.22,-33.480003,24.304,-2.888,inter_set_rest,0,3.0,17128.0,131733.0,215519.0,269257.0,255933.0
2026-04-08 21:33:38.684638,58664,1609503190831975,790798502,0.8296,-0.28304,0.037088,-27.7375,0.665,-13.0025,-33.480003,24.304,-2.888,inter_set_rest,0,3.0,17128.0,131733.0,215519.0,269257.0,255933.0
2026-04-08 21:33:38.687108,58665,1609503190846460,790813354,0.802272,-0.337696,-0.210816,-23.835001,-1.0675,-14.1575,-33.704002,23.68,-5.656,inter_set_rest,0,3.0,17128.0,131733.0,215519.0,269257.0,255933.0
2026-04-08 21:33:38.693384,58666,1609503190855412,790822029,0.856928,-0.314272,-0.025376,-17.92,-1.74125,-14.70875,-33.664,23.696001,-4.648,inter_set_rest,0,3.0,17128.0,131733.0,215519.0,269257.0,255933.0
2026-04-08 21:33:38.749551,58677,1609503190870077,790837030,0.856928,-0.314272,-0.025376,-12.53875,-2.135,-14.21875,-33.664,23.696001,-4.648,inter_set_rest,0,3.0,16992.0,131305.0,215043.0,268893.0,255668.0
2026-04-08 21:33:38.752063,58678,1609503190878988,790845698,0.882304,-0.325984,-0.046848,-8.98625,-3.05375,-13.08125,-33.856003,23.424002,-4.84,inter_set_rest,0,3.0,16992.0,131305.0,215043.0,268893.0,255668.0
2026-04-08 21:33:38.754536,58679,1609503190893484,790860547,0.882304,-0.325984,-0.046848,-4.9525,-3.54375,-9.87875,-33.856003,23.424002,-4.84,inter_set_rest,0,3.0,16992.0,131305.0,215043.0,268893.0,255668.0
2026-04-08 21:33:38.757009,58680,1609503190902509,790869248,0.837408,-0.308416,-0.191296,-1.5925,-4.3575,-11.2,-34.208,23.272001,-4.992,inter_set_rest,0,3.0,16992.0,131305.0,215043.0,268893.0,255668.0
2026-04-08 21:33:38.759603,58681,1609503190911494,790877952,0.837408,-0.308416,-0.191296,-1.1725,-5.36375,-12.99375,-34.208,23.272001,-4.992,inter_set_rest,0,3.0,16992.0,131305.0,215043.0,268893.0,255668.0
2026-04-08 21:33:38.763427,58682,1609503190926014,790892895,0.876448,-0.27328,-0.076128,-1.98625,-6.58875,-11.5675,-33.864002,23.240002,-4.256,inter_set_rest,0,3.0,16992.0,131305.0,215043.0,268893.0,255668.0
2026-04-08 21:33:38.794760,58683,1609503190934931,790901584,0.894016,-0.296704,-0.171776,-2.93125,-7.39375,-9.79125,-34.328003,23.032001,-5.032,inter_set_rest,0,3.0,16992.0,131305.0,215043.0,268893.0,255668.0
2026-04-08 21:33:38.798413,58684,1609503190949410,790916469,0.894016,-0.296704,-0.171776,-4.235,-7.84,-8.9425,-34.328003,23.032001,-5.032,inter_set_rest,0,3.0,16992.0,131305.0,215043.0,268893.0,255668.0
2026-04-08 21:33:38.804581,58685,1609503190958333,790925132,0.892064,-0.32208,-0.160064,-5.8625,-8.02375,-6.62375,-34.152,23.024,-4.968,inter_set_rest,0,3.0,16992.0,131305.0,215043.0,268893.0,255668.0
2026-04-08 21:33:38.832039,58696,1609503190972838,790938081,0.892064,-0.32208,-0.160064,-6.51875,-9.70375,-4.9875,-34.152,23.024,-4.968,inter_set_rest,0,3.0,16965.0,131294.0,215047.0,268969.0,255726.0
2026-04-08 21:33:38.834550,58697,1609503190982170,790948853,0.876448,-0.316224,-0.132736,-4.85625,-10.22,-3.955,-34.472,22.984001,-4.072,inter_set_rest,0,3.0,16965.0,131294.0,215047.0,268969.0,255726.0
2026-04-08 21:33:38.869793,58698,1609503190991140,790957547,0.876448,-0.316224,-0.132736,-3.64875,-11.36625,-2.37125,-34.472,22.984001,-4.072,inter_set_rest,0,3.0,16965.0,131294.0,215047.0,268969.0,255726.0
2026-04-08 21:33:38.875426,58699,1609503191005653,790972414,0.923296,-0.294752,-0.08784,-1.42625,-11.78625,-1.58375,-34.640003,22.872002,-4.44,inter_set_rest,0,3.0,16965.0,131294.0,215047.0,268969.0,255726.0
2026-04-08 21:33:38.875820,58700,1609503191014595,790981221,0.923296,-0.284992,-0.121024,0.805,-11.71625,-1.61,-34.640003,22.872002,-4.44,inter_set_rest,0,3.0,16965.0,131294.0,215047.0,268969.0,255726.0
2026-04-08 21:33:38.878350,58701,1609503191029059,790996084,0.944768,-0.284992,-0.121024,2.65125,-11.095,-1.3125,-34.096,23.072,-3.912,inter_set_rest,0,3.0,16965.0,131294.0,215047.0,268969.0,255726.0
2026-04-08 21:33:38.880762,58702,1609503191037952,791004757,0.847168,-0.26352,-0.183488,1.84625,-11.10375,-1.015,-34.56,23.072,-5.664,inter_set_rest,0,3.0,16965.0,131294.0,215047.0,268969.0,255726.0
2026-04-08 21:33:38.884559,58703,1609503191046895,791013424,0.847168,-0.26352,-0.183488,-0.9275,-10.80625,-1.3125,-34.56,23.072,-5.664,inter_set_rest,0,3.0,16965.0,131294.0,215047.0,268969.0,255726.0
2026-04-08 21:33:38.914919,58704,1609503191061384,791028322,0.90768,-0.288896,-0.140544,-2.82625,-10.66625,-1.54875,-34.672,23.096,-5.024,inter_set_rest,0,3.0,16965.0,131294.0,215047.0,268969.0,255726.0
2026-04-08 21:33:38.943281,58715,1609503191070423,791037364,0.90768,-0.288896,-0.140544,-0.9625,-9.63375,-1.785,-34.672,23.096,-5.024,inter_set_rest,0,3.0,16979.0,131368.0,215133.0,269145.0,255842.0
2026-04-08 21:33:38.945753,58716,1609503191084939,791050222,0.886208,-0.249856,-0.1464,6.16875,-7.2625,-2.835,-34.336002,23.208,-5.464,inter_set_rest,0,3.0,16979.0,131368.0,215133.0,269145.0,255842.0
2026-04-08 21:33:38.948275,58717,1609503191094219,791060993,0.886208,-0.249856,-0.1464,11.1125,-5.215,-4.38375,-34.336002,23.208,-5.464,inter_set_rest,0,3.0,16979.0,131368.0,215133.0,269145.0,255842.0
2026-04-08 21:33:38.950789,58718,1609503191108774,791075921,0.909632,-0.238144,-0.021472,10.66625,-4.26125,-5.3725,-34.176003,22.696001,-3.824,inter_set_rest,0,3.0,16979.0,131368.0,215133.0,269145.0,255842.0
2026-04-08 21:33:38.954631,58719,1609503191117696,791084624,0.903776,-0.259616,-0.105408,7.23625,-3.52625,-5.425,-34.2,22.728,-4.656,inter_set_rest,0,3.0,16979.0,131368.0,215133.0,269145.0,255842.0
2026-04-08 21:33:38.985271,58720,1609503191126656,791093310,0.903776,-0.259616,-0.105408,2.87875,-3.5525,-5.985,-34.2,22.728,-4.656,inter_set_rest,0,3.0,16979.0,131368.0,215133.0,269145.0,255842.0
2026-04-08 21:33:38.988518,58721,1609503191141140,791108175,0.90768,-0.277184,-0.027328,-2.625,-3.99875,-5.94125,-34.320004,22.904001,-5.192,inter_set_rest,0,3.0,16979.0,131368.0,215133.0,269145.0,255842.0
2026-04-08 21:33:38.990932,58722,1609503191150038,791116817,0.90768,-0.277184,-0.027328,-6.09875,-4.62875,-5.32,-34.320004,22.904001,-5.192,inter_set_rest,0,3.0,16979.0,131368.0,215133.0,269145.0,255842.0
2026-04-08 21:33:39.021109,58723,1609503191164566,791129730,0.915488,-0.318176,-0.056608,-6.3,-4.165,-4.38375,-34.280003,22.904001,-5.032,inter_set_rest,0,3.0,16979.0,131368.0,215133.0,269145.0,255842.0
2026-04-08 21:33:39.052068,58734,1609503191173738,791140551,0.915488,-0.318176,-0.056608,-3.54375,-3.185,-3.6925,-34.280003,22.904001,-5.032,inter_set_rest,0,3.0,16981.0,131397.0,215160.0,269194.0,255890.0
2026-04-08 21:33:39.054536,58735,1609503191182656,791149232,0.813984,-0.27328,-0.169824,-0.56875,-2.17875,-3.73625,-34.392002,22.976002,-4.528,inter_set_rest,0,3.0,16981.0,131397.0,215160.0,269194.0,255890.0
2026-04-08 21:33:39.056994,58736,1609503191197172,791164181,0.913536,-0.265472,-0.158112,0.93625,-0.88375,-3.61375,-34.544003,22.808,-5.824,inter_set_rest,0,3.0,16981.0,131397.0,215160.0,269194.0,255890.0
2026-04-08 21:33:39.059473,58737,1609503191206209,791172851,0.913536,-0.265472,-0.158112,-0.525,-1.12875,-3.5875,-34.544003,22.808,-5.824,inter_set_rest,0,3.0,16981.0,131397.0,215160.0,269194.0,255890.0
2026-04-08 21:33:39.061999,58738,1609503191220790,791187808,0.964288,-0.25376,-0.046848,-5.50375,-1.23375,-2.80875,-34.72,22.624,-5.952,inter_set_rest,0,3.0,16981.0,131397.0,215160.0,269194.0,255890.0
2026-04-08 21:33:39.069527,58739,1609503191229718,791196511,0.964288,-0.25376,-0.046848,-9.6425,-1.61875,-2.415,-34.72,22.624,-5.952,inter_set_rest,0,3.0,16981.0,131397.0,215160.0,269194.0,255890.0
2026-04-08 21:33:39.103440,58740,1609503191244157,791209340,0.925248,-0.265472,0.021472,-10.3775,-1.28625,-2.42375,-34.440002,22.912,-5.8,inter_set_rest,0,3.0,16981.0,131397.0,215160.0,269194.0,255890.0
2026-04-08 21:33:39.107002,58741,1609503191253395,791220105,0.925248,-0.265472,0.021472,-9.93125,-1.5575,-2.6775,-34.440002,22.912,-5.8,inter_set_rest,0,3.0,16981.0,131397.0,215160.0,269194.0,255890.0
2026-04-08 21:33:39.109495,58742,1609503191262352,791228816,0.913536,-0.28304,-0.007808,-6.8775,-1.47,-1.05,-34.344,22.848001,-5.64,inter_set_rest,0,3.0,16981.0,131397.0,215160.0,269194.0,255890.0
2026-04-08 21:33:39.139606,58753,1609503191276907,791243729,0.847168,-0.269376,-0.187392,-3.7975,-1.365,-0.35,-34.272003,22.84,-6.368001,inter_set_rest,0,3.0,17018.0,131508.0,215319.0,269335.0,256000.0
2026-04-08 21:33:39.173491,58754,1609503191285966,791252433,0.847168,-0.269376,-0.187392,-1.9075,-1.09375,-0.44625,-34.272003,22.84,-6.368001,inter_set_rest,0,3.0,17018.0,131508.0,215319.0,269335.0,256000.0
2026-04-08 21:33:39.177104,58755,1609503191300440,791267306,0.905728,-0.23424,-0.007808,-1.14625,-0.51625,-0.14875,-34.312,23.224,-5.712,inter_set_rest,0,3.0,17018.0,131508.0,215319.0,269335.0,256000.0
2026-04-08 21:33:39.179511,58756,1609503191309373,791276012,0.905728,-0.23424,-0.007808,-1.5225,-0.63,0.14,-34.312,23.224,-5.712,inter_set_rest,0,3.0,17018.0,131508.0,215319.0,269335.0,256000.0
2026-04-08 21:33:39.182001,58757,1609503191318270,791284701,0.911584,-0.28304,-0.115168,-4.15625,-1.26,-0.84,-34.176003,22.768002,-5.616,inter_set_rest,0,3.0,17018.0,131508.0,215319.0,269335.0,256000.0
2026-04-08 21:33:39.184525,58758,1609503191332736,791299570,0.911584,-0.28304,-0.115168,-6.81625,-2.02125,-0.60375,-34.176003,22.768002,-5.616,inter_set_rest,0,3.0,17018.0,131508.0,215319.0,269335.0,256000.0
2026-04-08 21:33:39.187041,58759,1609503191341660,791308232,0.899872,-0.298656,-0.154208,-7.02625,-2.28375,0.02625,-34.696003,22.984001,-6.104,inter_set_rest,0,3.0,17018.0,131508.0,215319.0,269335.0,256000.0
2026-04-08 21:33:39.193283,58760,1609503191356157,791323151,0.899872,-0.298656,-0.154208,-4.62875,-2.51125,0.32375,-34.696003,22.984001,-6.104,inter_set_rest,0,3.0,17018.0,131508.0,215319.0,269335.0,256000.0
2026-04-08 21:33:39.224647,58761,1609503191365127,791331813,0.919392,-0.281088,-0.0488,-1.49625,-2.02125,-0.035,-34.448,22.984001,-5.944,inter_set_rest,0,3.0,17018.0,131508.0,215319.0,269335.0,256000.0
2026-04-08 21:33:39.252036,58772,1609503191379717,791346745,0.86864,-0.30256,-0.228384,0.9275,-1.75,-0.53375,-34.072002,23.376001,-5.728,inter_set_rest,0,3.0,17132.0,131880.0,215773.0,269700.0,256218.0
2026-04-08 21:33:39.254495,58773,1609503191388618,791355383,0.86864,-0.30256,-0.228384,2.37125,-2.12625,-0.39375,-34.072002,23.376001,-5.728,inter_set_rest,0,3.0,17132.0,131880.0,215773.0,269700.0,256218.0
2026-04-08 21:33:39.257060,58774,1609503191403113,791370288,0.796416,-0.300608,-0.197152,4.305,-2.3975,0.35,-34.504,22.904001,-4.952,inter_set_rest,0,3.0,17132.0,131880.0,215773.0,269700.0,256218.0
2026-04-08 21:33:39.259510,58775,1609503191412096,791378987,0.796416,-0.300608,-0.197152,6.36125,-3.22875,0.93625,-34.504,22.904001,-4.952,inter_set_rest,0,3.0,17132.0,131880.0,215773.0,269700.0,256218.0
2026-04-08 21:33:39.262059,58776,1609503191421082,791387715,0.892064,-0.374784,-0.11712,11.0075,-3.75375,1.6275,-34.368,22.912,-4.976,inter_set_rest,0,3.0,17132.0,131880.0,215773.0,269700.0,256218.0
2026-04-08 21:33:39.292302,58777,1609503191435660,791402605,0.892064,-0.374784,-0.11712,17.68375,-4.76,2.68625,-34.368,22.912,-4.976,inter_set_rest,0,3.0,17132.0,131880.0,215773.0,269700.0,256218.0
2026-04-08 21:33:39.295821,58778,1609503191444570,791411278,0.864736,-0.411872,-0.212768,26.04875,-6.3875,3.28125,-34.344,23.44,-5.232,inter_set_rest,0,3.0,17132.0,131880.0,215773.0,269700.0,256218.0
2026-04-08 21:33:39.298513,58779,1609503191459041,791426139,0.80032,-0.384544,-0.304512,37.14375,-8.26,4.3575,-33.944,23.896002,-5.304,inter_set_rest,0,3.0,17132.0,131880.0,215773.0,269700.0,256218.0
2026-04-08 21:33:39.329717,58790,1609503191468206,791435371,0.80032,-0.384544,-0.304512,48.48375,-8.98625,7.81375,-33.944,23.896002,-5.304,inter_set_rest,0,3.0,17448.0,132947.0,217016.0,270504.0,256751.0
2026-04-08 21:33:39.332229,58791,1609503191477182,791444128,0.80032,-0.384544,-0.206912,56.48125,-8.33,12.5825,-33.944,23.896002,-5.304,inter_set_rest,0,3.0,17448.0,132947.0,217016.0,270504.0,256751.0
2026-04-08 21:33:39.334529,58792,1609503191491732,791457002,0.784704,-0.300608,-0.206912,59.3775,-7.81375,13.405,-34.288002,23.952002,-3.176,inter_set_rest,0,3.0,17448.0,132947.0,217016.0,270504.0,256751.0
2026-04-08 21:33:39.338312,58793,1609503191500965,791467739,0.83936,-0.171776,-0.122976,55.44,-7.91875,14.5775,-33.944,24.616001,-4.248,inter_set_rest,0,3.0,17448.0,132947.0,217016.0,270504.0,256751.0
2026-04-08 21:33:39.368654,58794,1609503191515457,791480618,0.83936,-0.171776,-0.122976,41.01125,-9.77375,20.755,-33.944,24.616001,-4.248,inter_set_rest,0,3.0,17448.0,132947.0,217016.0,270504.0,256751.0
2026-04-08 21:33:39.372153,58795,1609503191524628,791491369,0.905728,-0.228384,-0.169824,25.73375,-10.885,15.05875,-33.968002,24.856,-4.568,inter_set_rest,0,3.0,17448.0,132947.0,217016.0,270504.0,256751.0
2026-04-08 21:33:39.374617,58796,1609503191533592,791500073,0.905728,-0.228384,-0.169824,13.265,-11.7425,13.64125,-33.968002,24.856,-4.568,inter_set_rest,0,3.0,17448.0,132947.0,217016.0,270504.0,256751.0
2026-04-08 21:33:39.404813,58797,1609503191548072,791514941,0.96624,-0.232288,-0.144448,3.19375,-10.167501,11.4275,-34.048,24.696001,-4.976,inter_set_rest,0,3.0,17448.0,132947.0,217016.0,270504.0,256751.0
2026-04-08 21:33:39.408326,58798,1609503191557005,791523602,0.96624,-0.232288,-0.144448,0.1225,-7.84,7.105,-34.048,24.696001,-4.976,inter_set_rest,0,3.0,17448.0,132947.0,217016.0,270504.0,256751.0
2026-04-08 21:33:39.435801,58809,1609503191572101,791538501,1.001376,-0.189344,-0.046848,-0.18375,-6.04625,10.3075,-33.56,25.112001,-4.224,inter_set_rest,0,3.0,17361.0,132517.0,216411.0,270009.0,256468.0
2026-04-08 21:33:39.438323,58810,1609503191581214,791547250,0.876448,-0.191296,0.07808,-5.0575,-3.01,13.32625,-33.664,25.664001,-4.824,inter_set_rest,0,3.0,17361.0,132517.0,216411.0,270009.0,256468.0
2026-04-08 21:33:39.472295,58811,1609503191590244,791555925,0.876448,-0.191296,0.07808,-13.5625,-1.4875,10.52625,-33.664,25.664001,-4.824,inter_set_rest,0,3.0,17361.0,132517.0,216411.0,270009.0,256468.0
2026-04-08 21:33:39.475811,58812,1609503191604764,791570812,0.894016,-0.2928,0.037088,-21.665,-4.20875,8.93375,-33.624,25.888,-4.592,inter_set_rest,0,3.0,17361.0,132517.0,216411.0,270009.0,256468.0
2026-04-08 21:33:39.478363,58813,1609503191613683,791579554,0.894016,-0.2928,0.037088,-21.8575,-5.18875,9.765,-33.624,25.888,-4.592,inter_set_rest,0,3.0,17361.0,132517.0,216411.0,270009.0,256468.0
2026-04-08 21:33:39.480810,58814,1609503191628145,791594418,0.93696,-0.36112,0.005856,-16.975,-4.61125,6.25625,-33.136,25.952002,-5.768,inter_set_rest,0,3.0,17361.0,132517.0,216411.0,270009.0,256468.0
2026-04-08 21:33:39.483299,58815,1609503191637071,791603079,0.93696,-0.36112,0.005856,-10.9025,-3.92,3.05375,-33.136,25.952002,-5.768,inter_set_rest,0,3.0,17361.0,132517.0,216411.0,270009.0,256468.0
2026-04-08 21:33:39.489535,58816,1609503191651558,791617970,0.933056,-0.335744,0.001952,-3.29,-2.625,0.84875,-33.256,25.272001,-4.912,inter_set_rest,0,3.0,17361.0,132517.0,216411.0,270009.0,256468.0
2026-04-08 21:33:39.519736,58817,1609503191660469,791626682,0.913536,-0.300608,-0.017568,2.14375,-1.61875,-1.09375,-33.184002,25.552002,-5.4,inter_set_rest,0,3.0,17361.0,132517.0,216411.0,270009.0,256468.0
2026-04-08 21:33:39.548297,58828,1609503191669932,791635396,0.913536,-0.300608,-0.017568,6.09,-0.595,-3.08,-33.184002,25.552002,-5.4,inter_set_rest,0,3.0,17265.0,131994.0,215622.0,269275.0,255977.0
2026-04-08 21:33:39.551339,58829,1609503191684710,791650328,0.874496,-0.281088,0.025376,8.1375,-0.1225,-4.165,-33.216003,25.408,-5.36,inter_set_rest,0,3.0,17265.0,131994.0,215622.0,269275.0,255977.0
2026-04-08 21:33:39.553349,58830,1609503191694089,791661173,0.874496,-0.281088,0.025376,8.11125,-0.665,-4.31375,-33.216003,25.408,-5.36,inter_set_rest,0,3.0,17265.0,131994.0,215622.0,269275.0,255977.0
2026-04-08 21:33:39.589675,58831,1609503191708603,791674037,0.88816,-0.316224,-0.158112,6.65875,-1.63625,-3.38625,-33.52,25.560001,-5.072,inter_set_rest,0,3.0,17265.0,131994.0,215622.0,269275.0,255977.0
2026-04-08 21:33:39.592091,58832,1609503191717775,791684768,0.88816,-0.316224,-0.158112,4.08625,-2.77375,-2.9925,-33.52,25.560001,-5.072,inter_set_rest,0,3.0,17265.0,131994.0,215622.0,269275.0,255977.0
2026-04-08 21:33:39.594611,58833,1609503191726724,791693464,0.823744,-0.32208,-0.22448,0.8225,-3.96375,-2.485,-33.656002,25.528002,-3.088,inter_set_rest,0,3.0,17265.0,131994.0,215622.0,269275.0,255977.0
2026-04-08 21:33:39.598036,58834,1609503191741212,791708275,0.901824,-0.353312,-0.111264,-2.59875,-4.6725,-1.715,-33.208,25.632002,-6.12,inter_set_rest,0,3.0,17265.0,131994.0,215622.0,269275.0,255977.0
2026-04-08 21:33:39.599651,58835,1609503191750092,791716939,0.901824,-0.353312,-0.111264,-4.90875,-5.285,-1.0675,-33.208,25.632002,-6.12,inter_set_rest,0,3.0,17265.0,131994.0,215622.0,269275.0,255977.0
2026-04-08 21:33:39.602140,58836,1609503191764574,791729755,0.853024,-0.306464,-0.031232,-6.79,-5.50375,-1.05875,-33.480003,25.504002,-5.144,inter_set_rest,0,3.0,17265.0,131994.0,215622.0,269275.0,255977.0
2026-04-08 21:33:39.637073,58847,1609503191773914,791741069,0.853024,-0.306464,-0.031232,-7.74375,-5.45125,-0.84875,-33.480003,25.504002,-5.144,inter_set_rest,0,3.0,17218.0,131708.0,215160.0,268867.0,255679.0
2026-04-08 21:33:39.639629,58848,1609503191782964,791749782,0.89792,-0.337696,-0.167872,-8.1375,-5.845,-1.28625,-33.656002,25.128,-5.864,inter_set_rest,0,3.0,17218.0,131708.0,215160.0,268867.0,255679.0
2026-04-08 21:33:39.642125,58849,1609503191797461,791762636,0.89792,-0.337696,-0.167872,-5.85375,-5.845,-1.295,-33.656002,25.128,-5.864,inter_set_rest,0,3.0,17218.0,131708.0,215160.0,268867.0,255679.0
2026-04-08 21:33:39.644586,58850,1609503191806663,791773397,0.90768,-0.329888,-0.160064,-1.47875,-5.0575,-1.30375,-33.224003,25.240002,-4.704,inter_set_rest,0,3.0,17218.0,131708.0,215160.0,268867.0,255679.0
2026-04-08 21:33:39.674753,58851,1609503191821199,791788256,0.929152,-0.343552,-0.119072,0.74375,-4.92625,-1.54,-33.128002,25.872002,-3.736,inter_set_rest,0,3.0,17218.0,131708.0,215160.0,268867.0,255679.0
2026-04-08 21:33:39.678293,58852,1609503191830111,791796904,0.929152,-0.343552,-0.119072,0.035,-5.06625,-1.96,-33.128002,25.872002,-3.736,inter_set_rest,0,3.0,17218.0,131708.0,215160.0,268867.0,255679.0
2026-04-08 21:33:39.680832,58853,1609503191839003,791805557,0.929152,-0.343552,-0.119072,1.09375,-5.3025,-2.56375,-33.128002,25.872002,-3.736,inter_set_rest,0,3.0,17218.0,131708.0,215160.0,268867.0,255679.0
2026-04-08 21:33:39.712021,58854,1609503191853503,791820438,0.91744,-0.310368,-0.013664,1.785,-4.90875,-3.31625,-33.416,26.000002,-4.072,inter_set_rest,0,3.0,17218.0,131708.0,215160.0,268867.0,255679.0
2026-04-08 21:33:39.716484,58855,1609503191862455,791829106,0.880352,-0.320128,-0.066368,4.22625,-4.3225,-4.025,-33.576,25.480001,-5.944,inter_set_rest,0,3.0,17218.0,131708.0,215160.0,268867.0,255679.0
2026-04-08 21:33:39.775768,58866,1609503191876989,791844063,0.880352,-0.320128,-0.066368,8.54,-3.64,-5.18875,-33.576,25.480001,-5.944,inter_set_rest,0,3.0,17168.0,131454.0,214843.0,268541.0,255473.0
2026-04-08 21:33:39.778011,58867,1609503191885957,791852796,0.833504,-0.310368,-0.20496,8.8725,-3.43,-5.425,-33.4,25.400002,-5.664,inter_set_rest,0,3.0,17168.0,131454.0,214843.0,268541.0,255473.0
2026-04-08 21:33:39.782650,58868,1609503191900446,791865624,0.905728,-0.33184,-0.160064,6.69375,-3.84125,-5.2325,-33.4,25.896002,-4.504,inter_set_rest,0,3.0,17168.0,131454.0,214843.0,268541.0,255473.0
2026-04-08 21:33:39.784286,58869,1609503191909632,791876367,0.905728,-0.33184,-0.160064,3.6575,-3.82375,-4.92625,-33.632,25.896002,-4.504,inter_set_rest,0,3.0,17168.0,131454.0,214843.0,268541.0,255473.0
2026-04-08 21:33:39.786774,58870,1609503191918592,791885076,0.905728,-0.33184,-0.160064,1.995,-3.6575,-5.13625,-33.632,25.896002,-4.504,inter_set_rest,0,3.0,17168.0,131454.0,214843.0,268541.0,255473.0
2026-04-08 21:33:39.788308,58871,1609503191933036,791899923,0.913536,-0.310368,-0.017568,1.8725,-3.22,-4.55,-33.712,25.528002,-5.44,inter_set_rest,0,3.0,17168.0,131454.0,214843.0,268541.0,255473.0
2026-04-08 21:33:39.792419,58872,1609503191941953,791908624,0.890112,-0.296704,-0.042944,1.575,-3.0975,-4.1475,-33.592003,25.336,-7.544,inter_set_rest,0,3.0,17168.0,131454.0,214843.0,268541.0,255473.0
2026-04-08 21:33:39.796217,58873,1609503191956478,791923484,0.890112,-0.296704,-0.042944,0.9275,-2.45,-3.6225,-33.592003,25.336,-7.544,inter_set_rest,0,3.0,17168.0,131454.0,214843.0,268541.0,255473.0
2026-04-08 21:33:39.824755,58874,1609503191965409,791932190,0.903776,-0.306464,0.0,-0.34125,-2.17,-3.2725,-33.744003,25.176,-5.104,inter_set_rest,0,3.0,17168.0,131454.0,214843.0,268541.0,255473.0
2026-04-08 21:33:39.854350,58885,1609503191979979,791947083,0.903776,-0.306464,0.0,-0.76125,-1.49625,-2.8875,-33.744003,25.176,-5.104,inter_set_rest,0,3.0,17132.0,131300.0,214616.0,268322.0,255309.0
2026-04-08 21:33:39.855894,58886,1609503191988918,791955727,0.895968,-0.308416,-0.023424,-1.30375,-1.365,-2.625,-33.544003,25.592001,-5.648,inter_set_rest,0,3.0,17132.0,131300.0,214616.0,268322.0,255309.0
2026-04-08 21:33:39.860068,58887,1609503191997833,791964423,0.895968,-0.308416,-0.023424,-1.8025,-1.35625,-2.52,-33.544003,25.592001,-5.648,inter_set_rest,0,3.0,17132.0,131300.0,214616.0,268322.0,255309.0
2026-04-08 21:33:39.861852,58888,1609503192012342,791979309,0.812032,-0.294752,-0.138592,-2.59,-1.0675,-2.68625,-33.728,25.568,-4.712,inter_set_rest,0,3.0,17132.0,131300.0,214616.0,268322.0,255309.0
2026-04-08 21:33:39.863368,58889,1609503192021365,791988085,0.890112,-0.343552,-0.206912,-2.89625,-1.39125,-2.2575,-33.600002,25.392002,-4.592,inter_set_rest,0,3.0,17132.0,131300.0,214616.0,268322.0,255309.0
2026-04-08 21:33:39.894459,58890,1609503192035876,792002985,0.890112,-0.343552,-0.206912,-2.94,-1.61,-2.3625,-33.600002,25.392002,-4.592,inter_set_rest,0,3.0,17132.0,131300.0,214616.0,268322.0,255309.0
2026-04-08 21:33:39.898916,58891,1609503192044827,792011637,0.880352,-0.324032,-0.18544,-2.205,-1.35625,-2.87,-33.824,25.240002,-5.84,inter_set_rest,0,3.0,17132.0,131300.0,214616.0,268322.0,255309.0
2026-04-08 21:33:39.900486,58892,1609503192059333,792024495,0.880352,-0.324032,-0.18544,-1.95125,-0.595,-2.94,-33.824,25.240002,-5.84,inter_set_rest,0,3.0,17132.0,131300.0,214616.0,268322.0,255309.0
2026-04-08 21:33:39.911239,58893,1609503192068513,792035247,0.925248,-0.314272,-0.007808,-2.275,-0.70875,-2.9225,-33.656002,25.160002,-7.072001,inter_set_rest,0,3.0,17132.0,131300.0,214616.0,268322.0,255309.0
2026-04-08 21:33:39.938079,58904,1609503192077460,792044010,0.925248,-0.314272,-0.007808,-1.2075,-0.93625,-3.08,-33.656002,25.160002,-7.072001,inter_set_rest,0,3.0,17108.0,131184.0,214463.0,268180.0,255205.0
2026-04-08 21:33:39.939614,58905,1609503192091981,792058918,0.817888,-0.298656,-0.17568,-0.84,-1.18125,-3.2025,-33.656002,25.208002,-5.368,inter_set_rest,0,3.0,17108.0,131184.0,214463.0,268180.0,255205.0
2026-04-08 21:33:39.943990,58906,1609503192100897,792067634,0.817888,-0.298656,-0.0976,0.11375,-1.82875,-3.4475,-33.656002,25.208002,-5.368,inter_set_rest,0,3.0,17108.0,131184.0,214463.0,268180.0,255205.0
2026-04-08 21:33:39.975740,58907,1609503192115402,792082542,0.921344,-0.33184,-0.109312,-0.44625,-2.345,-2.9575,-33.544003,25.408,-6.84,inter_set_rest,0,3.0,17108.0,131184.0,214463.0,268180.0,255205.0
2026-04-08 21:33:39.980182,58908,1609503192124318,792091203,0.925248,-0.318176,-0.042944,0.25375,-2.1,-2.91375,-33.448,25.208002,-5.696,inter_set_rest,0,3.0,17108.0,131184.0,214463.0,268180.0,255205.0
2026-04-08 21:33:39.981668,58909,1609503192138801,792104007,0.925248,-0.318176,-0.042944,1.9425,-1.95125,-3.57875,-33.448,25.208002,-5.696,inter_set_rest,0,3.0,17108.0,131184.0,214463.0,268180.0,255205.0
2026-04-08 21:33:39.987516,58910,1609503192148030,792114741,0.903776,-0.324032,-0.163968,3.6575,-2.30125,-4.50625,-33.56,25.584002,-5.856,inter_set_rest,0,3.0,17108.0,131184.0,214463.0,268180.0,255205.0
2026-04-08 21:33:40.016000,58911,1609503192157004,792123396,0.903776,-0.324032,-0.163968,5.53875,-2.6075,-4.57625,-33.56,25.584002,-5.856,inter_set_rest,0,3.0,17108.0,131184.0,214463.0,268180.0,255205.0
2026-04-08 21:33:40.076730,58922,1609503192171713,792138352,0.860832,-0.318176,-0.247904,5.0925,-2.52,-4.5675,-33.888,25.576002,-5.728,inter_set_rest,0,3.0,17057.0,131027.0,214300.0,268048.0,255094.0
2026-04-08 21:33:40.081378,58923,1609503192180755,792147070,0.860832,-0.318176,-0.247904,4.59375,-2.87,-4.54125,-33.888,25.576002,-5.728,inter_set_rest,0,3.0,17057.0,131027.0,214300.0,268048.0,255094.0
2026-04-08 21:33:40.083035,58924,1609503192195307,792161984,0.935008,-0.33184,-0.07808,5.13625,-2.51125,-4.41875,-33.712,25.456001,-5.688,inter_set_rest,0,3.0,17057.0,131027.0,214300.0,268048.0,255094.0
2026-04-08 21:33:40.084626,58925,1609503192204262,792170674,0.886208,-0.2928,-0.005856,6.405,-2.1,-4.24375,-33.808002,25.304,-4.872,inter_set_rest,0,3.0,17057.0,131027.0,214300.0,268048.0,255094.0
2026-04-08 21:33:40.088824,58926,1609503192213201,792179379,0.886208,-0.2928,-0.005856,7.0525,-1.77625,-4.025,-33.808002,25.304,-4.872,inter_set_rest,0,3.0,17057.0,131027.0,214300.0,268048.0,255094.0
2026-04-08 21:33:40.090600,58927,1609503192227758,792194217,0.899872,-0.298656,0.007808,6.62375,-1.23375,-3.80625,-33.944,25.048,-5.728,inter_set_rest,0,3.0,17057.0,131027.0,214300.0,268048.0,255094.0
2026-04-08 21:33:40.092276,58928,1609503192236730,792202904,0.899872,-0.298656,0.007808,5.4775,-1.14625,-3.4125,-33.944,25.048,-5.728,inter_set_rest,0,3.0,17057.0,131027.0,214300.0,268048.0,255094.0
2026-04-08 21:33:40.096354,58929,1609503192251206,792217781,0.903776,-0.30256,0.001952,3.87625,-1.4,-3.26375,-33.792,25.272001,-5.488,inter_set_rest,0,3.0,17057.0,131027.0,214300.0,268048.0,255094.0
2026-04-08 21:33:40.097885,58930,1609503192260157,792226479,0.903776,-0.30256,0.001952,2.72125,-1.40875,-3.7975,-33.792,25.272001,-5.488,inter_set_rest,0,3.0,17057.0,131027.0,214300.0,268048.0,255094.0
2026-04-08 21:33:40.155892,58941,1609503192275263,792241534,0.823744,-0.314272,-0.22448,1.88125,-1.65375,-3.91125,-34.216003,25.336,-5.072,inter_set_rest,0,3.0,16933.0,130531.0,213589.0,267467.0,254756.0
2026-04-08 21:33:40.160136,58942,1609503192284221,792250237,0.903776,-0.324032,-0.134688,0.93625,-0.98875,-4.0775,-34.064003,25.088001,-5.504,inter_set_rest,0,3.0,16933.0,130531.0,213589.0,267467.0,254756.0
2026-04-08 21:33:40.161870,58943,1609503192293128,792258884,0.903776,-0.324032,-0.134688,0.5775,-0.7525,-3.7275,-34.064003,25.088001,-5.504,inter_set_rest,0,3.0,16933.0,130531.0,213589.0,267467.0,254756.0
2026-04-08 21:33:40.163389,58944,1609503192307628,792273792,0.874496,-0.310368,-0.212768,0.44625,-0.4025,-3.815,-33.752003,25.104002,-5.104,inter_set_rest,0,3.0,16933.0,130531.0,213589.0,267467.0,254756.0
2026-04-08 21:33:40.167613,58945,1609503192316693,792282496,0.874496,-0.310368,-0.212768,-0.8225,-0.07,-4.0075,-33.752003,25.104002,-5.104,inter_set_rest,0,3.0,16933.0,130531.0,213589.0,267467.0,254756.0
2026-04-08 21:33:40.170093,58946,1609503192331187,792297374,0.895968,-0.324032,-0.212768,-1.82,0.27125,-4.31375,-33.448,25.456001,-4.832,inter_set_rest,0,3.0,16933.0,130531.0,213589.0,267467.0,254756.0
2026-04-08 21:33:40.198548,58947,1609503192340131,792306024,0.895968,-0.324032,-0.212768,-1.02375,1.05875,-4.85625,-33.448,25.456001,-4.832,inter_set_rest,0,3.0,16933.0,130531.0,213589.0,267467.0,254756.0
2026-04-08 21:33:40.202152,58948,1609503192349026,792314677,0.933056,-0.314272,-0.02928,-0.16625,1.82,-4.6725,-33.824,25.248001,-5.304,inter_set_rest,0,3.0,16933.0,130531.0,213589.0,267467.0,254756.0
2026-04-08 21:33:40.206224,58949,1609503192363482,792329578,0.905728,-0.281088,0.025376,0.3325,1.4175,-5.36375,-33.792,24.928001,-8.272,inter_set_rest,0,3.0,16933.0,130531.0,213589.0,267467.0,254756.0
2026-04-08 21:33:40.235594,58960,1609503192372804,792338259,0.905728,-0.281088,0.025376,0.6825,1.61875,-5.60875,-33.792,24.928001,-8.272,inter_set_rest,0,3.0,16850.0,130171.0,213116.0,267115.0,254529.0
2026-04-08 21:33:40.237170,58961,1609503192387568,792353175,0.915488,-0.290848,0.01952,0.48125,2.0825,-5.3375,-33.984,24.840002,-5.664,inter_set_rest,0,3.0,16850.0,130171.0,213116.0,267115.0,254529.0
2026-04-08 21:33:40.241214,58962,1609503192396957,792363913,0.915488,-0.290848,0.01952,0.14,2.4675,-5.17125,-33.984,24.840002,-5.664,inter_set_rest,0,3.0,16850.0,130171.0,213116.0,267115.0,254529.0
2026-04-08 21:33:40.246276,58963,1609503192405914,792372617,0.91744,-0.30256,-0.01952,-0.805,2.3975,-5.17125,-33.512,24.912,-5.176,inter_set_rest,0,3.0,16850.0,130171.0,213116.0,267115.0,254529.0
2026-04-08 21:33:40.274765,58964,1609503192420394,792387531,0.91744,-0.30256,-0.01952,-2.51125,2.30125,-4.68125,-33.512,24.912,-5.176,inter_set_rest,0,3.0,16850.0,130171.0,213116.0,267115.0,254529.0
2026-04-08 21:33:40.279379,58965,1609503192429299,792396217,0.903776,-0.290848,-0.033184,-4.85625,1.88125,-4.47125,-34.152,25.144001,-5.272,inter_set_rest,0,3.0,16850.0,130171.0,213116.0,267115.0,254529.0
2026-04-08 21:33:40.281643,58966,1609503192443743,792409023,0.856928,-0.324032,-0.244,-8.84625,1.05875,-2.84375,-34.152,25.112001,-4.696,inter_set_rest,0,3.0,16850.0,130171.0,213116.0,267115.0,254529.0
2026-04-08 21:33:40.312087,58967,1609503192453083,792419784,0.856928,-0.324032,-0.244,-7.98875,-0.11375,-3.43,-33.952003,25.112001,-4.696,inter_set_rest,0,3.0,16850.0,130171.0,213116.0,267115.0,254529.0
2026-04-08 21:33:40.314308,58968,1609503192462007,792428435,0.856928,-0.324032,-0.244,-6.055,0.27125,-4.57625,-33.952003,25.112001,-4.696,inter_set_rest,0,3.0,16850.0,130171.0,213116.0,267115.0,254529.0
2026-04-08 21:33:40.377241,58979,1609503192476757,792443437,0.903776,-0.329888,-0.18544,-3.61375,0.34125,-4.235,-34.368,25.112001,-2.408,inter_set_rest,0,3.0,16803.0,130030.0,212915.0,266981.0,254475.0
2026-04-08 21:33:40.379664,58980,1609503192485756,792452203,0.837408,-0.298656,-0.210816,-2.6075,-0.02625,-3.43,-34.128002,24.832,-5.584,inter_set_rest,0,3.0,16803.0,130030.0,212915.0,266981.0,254475.0
2026-04-08 21:33:40.382198,58981,1609503192500265,792467091,0.837408,-0.298656,-0.210816,-3.35125,-0.42875,-3.21125,-34.128002,24.832,-5.584,inter_set_rest,0,3.0,16803.0,130030.0,212915.0,266981.0,254475.0
2026-04-08 21:33:40.384700,58982,1609503192509208,792475758,0.837408,-0.296704,-0.212768,-4.90875,-0.42875,-3.12375,-33.992,24.704,-5.336,inter_set_rest,0,3.0,16803.0,130030.0,212915.0,266981.0,254475.0
2026-04-08 21:33:40.387136,58983,1609503192523671,792490617,0.837408,-0.296704,-0.216672,-4.15625,-0.27125,-2.9225,-33.992,24.704,-5.336,inter_set_rest,0,3.0,16803.0,130030.0,212915.0,266981.0,254475.0
2026-04-08 21:33:40.389623,58984,1609503192532573,792499324,0.812032,-0.290848,-0.216672,-3.3775,-0.65625,-3.395,-33.704002,24.768002,-4.744,inter_set_rest,0,3.0,16803.0,130030.0,212915.0,266981.0,254475.0
2026-04-08 21:33:40.392163,58985,1609503192541470,792507975,0.812032,-0.290848,-0.216672,-1.91625,-0.9275,-3.675,-33.704002,24.768002,-4.744,inter_set_rest,0,3.0,16803.0,130030.0,212915.0,266981.0,254475.0
2026-04-08 21:33:40.394661,58986,1609503192555981,792522861,0.895968,-0.308416,-0.171776,-1.04125,-0.7175,-4.095,-34.192,24.920002,-5.216,inter_set_rest,0,3.0,16803.0,130030.0,212915.0,266981.0,254475.0
2026-04-08 21:33:40.424893,58987,1609503192564922,792531524,0.85888,-0.308416,-0.238144,-0.74375,-1.04125,-4.22625,-34.072002,25.096,-5.136,inter_set_rest,0,3.0,16803.0,130030.0,212915.0,266981.0,254475.0
2026-04-08 21:33:40.453394,58998,1609503192579562,792546510,0.85888,-0.308416,-0.238144,-0.665,-0.90125,-4.27,-34.072002,25.096,-5.136,inter_set_rest,0,3.0,16829.0,130063.0,212974.0,267004.0,254466.0
2026-04-08 21:33:40.455886,58999,1609503192588498,792555169,0.872544,-0.318176,-0.220576,-0.14,-1.09375,-3.47375,-33.728,24.768002,-5.232,inter_set_rest,0,3.0,16829.0,130063.0,212974.0,267004.0,254466.0
2026-04-08 21:33:40.458408,59000,1609503192603077,792570168,0.872544,-0.318176,-0.220576,-1.085,-0.6475,-3.17625,-33.728,24.768002,-5.232,inter_set_rest,0,3.0,16829.0,130063.0,212974.0,267004.0,254466.0
2026-04-08 21:33:40.467151,59001,1609503192611993,792578866,0.856928,-0.265472,-0.033184,-1.23375,-0.42875,-3.84125,-33.928,24.872002,-5.664,inter_set_rest,0,3.0,16829.0,130063.0,212974.0,267004.0,254466.0
2026-04-08 21:33:40.469715,59002,1609503192620933,792587513,0.856928,-0.265472,-0.033184,-1.2425,-0.4025,-3.2375,-33.928,24.872002,-5.664,inter_set_rest,0,3.0,16829.0,130063.0,212974.0,267004.0,254466.0
2026-04-08 21:33:40.472821,59003,1609503192635418,792602410,0.831552,-0.296704,-0.249856,-1.9075,-0.14,-3.47375,-33.648003,24.696001,-5.44,inter_set_rest,0,3.0,16829.0,130063.0,212974.0,267004.0,254466.0
2026-04-08 21:33:40.502555,59004,1609503192644335,792611102,0.831552,-0.296704,-0.15616,-3.73625,0.21875,-2.54625,-33.648003,24.696001,-5.44,inter_set_rest,0,3.0,16829.0,130063.0,212974.0,267004.0,254466.0
2026-04-08 21:33:40.505884,59005,1609503192658830,792625936,0.931104,-0.32208,-0.150304,-3.85,-0.13125,-2.10875,-34.056,25.272001,-5.728,inter_set_rest,0,3.0,16829.0,130063.0,212974.0,267004.0,254466.0
2026-04-08 21:33:40.508339,59006,1609503192667785,792634589,0.835456,-0.298656,-0.236192,-2.6775,0.21,-2.6425,-33.992,24.664001,-5.752,inter_set_rest,0,3.0,16829.0,130063.0,212974.0,267004.0,254466.0
2026-04-08 21:33:40.538324,59017,1609503192677311,792643607,0.835456,-0.298656,-0.236192,-1.58375,0.48125,-3.6225,-33.992,24.664001,-5.752,inter_set_rest,0,3.0,16891.0,130254.0,213174.0,267152.0,254535.0
2026-04-08 21:33:40.540829,59018,1609503192691846,792658505,0.821792,-0.265472,-0.12688,-1.56625,0.4725,-3.12375,-34.008003,24.736002,-5.688,inter_set_rest,0,3.0,16891.0,130254.0,213174.0,267152.0,254535.0
2026-04-08 21:33:40.543323,59019,1609503192700826,792667181,0.821792,-0.265472,-0.12688,-1.89,0.20125,-2.38,-34.008003,24.736002,-5.688,inter_set_rest,0,3.0,16891.0,130254.0,213174.0,267152.0,254535.0
2026-04-08 21:33:40.557248,59020,1609503192715298,792682026,0.86864,-0.269376,-0.011712,-2.3275,0.46375,-2.52875,-33.84,25.032001,-5.248,inter_set_rest,0,3.0,16891.0,130254.0,213174.0,267152.0,254535.0
2026-04-08 21:33:40.560925,59021,1609503192724226,792690769,0.86864,-0.269376,-0.011712,-2.23125,1.05,-2.42375,-33.84,25.032001,-5.248,inter_set_rest,0,3.0,16891.0,130254.0,213174.0,267152.0,254535.0
2026-04-08 21:33:40.591134,59022,1609503192738693,792705643,0.925248,-0.318176,-0.115168,-2.16125,0.8575,-2.3275,-33.976,24.568,-6.568,inter_set_rest,0,3.0,16891.0,130254.0,213174.0,267152.0,254535.0
2026-04-08 21:33:40.594620,59023,1609503192747615,792714320,0.901824,-0.2928,-0.070272,-1.5225,0.595,-2.58125,-34.048,24.992,-5.696,inter_set_rest,0,3.0,16891.0,130254.0,213174.0,267152.0,254535.0
2026-04-08 21:33:40.597138,59024,1609503192756501,792722997,0.901824,-0.2928,-0.070272,-1.44375,0.06125,-2.38,-34.048,24.992,-5.696,inter_set_rest,0,3.0,16891.0,130254.0,213174.0,267152.0,254535.0
2026-04-08 21:33:40.627353,59025,1609503192770980,792737854,0.870592,-0.269376,-0.001952,-1.51375,-0.30625,-2.59,-34.112003,25.008001,-5.36,inter_set_rest,0,3.0,16891.0,130254.0,213174.0,267152.0,254535.0
2026-04-08 21:33:40.688733,59036,1609503192780012,792746612,0.870592,-0.269376,-0.001952,-1.56625,-0.49,-2.51125,-34.112003,25.008001,-5.36,inter_set_rest,0,3.0,16911.0,130313.0,213247.0,267189.0,254564.0
2026-04-08 21:33:40.691706,59037,1609503192794492,792761503,0.88816,-0.320128,-0.189344,-1.98625,-0.88375,-2.31875,-34.056,25.088001,-5.416,inter_set_rest,0,3.0,16911.0,130313.0,213247.0,267189.0,254564.0
2026-04-08 21:33:40.693466,59038,1609503192803390,792770218,0.88816,-0.320128,-0.189344,-2.555,-1.4175,-1.785,-34.056,25.088001,-5.416,inter_set_rest,0,3.0,16911.0,130313.0,213247.0,267189.0,254564.0
2026-04-08 21:33:40.695894,59039,1609503192817966,792783130,0.91744,-0.300608,-0.017568,-2.03875,-1.295,-1.82,-34.064003,24.856,-4.36,inter_set_rest,0,3.0,16911.0,130313.0,213247.0,267189.0,254564.0
2026-04-08 21:33:40.698316,59040,1609503192827164,792793859,0.91744,-0.316224,-0.152256,-1.505,-1.05875,-1.65375,-33.648003,25.072,-6.448,inter_set_rest,0,3.0,16911.0,130313.0,213247.0,267189.0,254564.0
2026-04-08 21:33:40.700837,59041,1609503192836180,792802606,0.91744,-0.316224,-0.152256,-1.26875,-1.26,-1.5225,-33.648003,25.072,-6.448,inter_set_rest,0,3.0,16911.0,130313.0,213247.0,267189.0,254564.0
2026-04-08 21:33:40.703333,59042,1609503192850721,792817519,0.813984,-0.275232,-0.191296,-1.015,-0.9625,-1.67125,-34.024002,25.240002,-5.272,inter_set_rest,0,3.0,16911.0,130313.0,213247.0,267189.0,254564.0
2026-04-08 21:33:40.705889,59043,1609503192859644,792826195,0.813984,-0.275232,-0.191296,-1.3475,-1.1725,-1.2075,-34.024002,25.240002,-5.272,inter_set_rest,0,3.0,16911.0,130313.0,213247.0,267189.0,254564.0
2026-04-08 21:33:40.736286,59054,1609503192874201,792841114,0.876448,-0.304512,-0.13664,-2.38875,-1.44375,-1.00625,-33.88,25.304,-5.128,inter_set_rest,0,3.0,16924.0,130305.0,213203.0,267113.0,254496.0
2026-04-08 21:33:40.742212,59055,1609503192883139,792849853,0.876448,-0.304512,-0.13664,-2.73,-1.925,-1.0675,-33.88,25.304,-5.128,inter_set_rest,0,3.0,16924.0,130305.0,213203.0,267113.0,254496.0
2026-04-08 21:33:40.748421,59056,1609503192892141,792858558,0.83936,-0.284992,-0.154208,-2.4675,-1.96,-1.04125,-33.912003,25.168001,-5.008,inter_set_rest,0,3.0,16924.0,130305.0,213203.0,267113.0,254496.0
2026-04-08 21:33:40.750874,59057,1609503192906625,792873440,0.854976,-0.279136,-0.109312,-1.53125,-1.84625,-1.2775,-33.912003,25.168001,-5.704001,inter_set_rest,0,3.0,16924.0,130305.0,213203.0,267113.0,254496.0
2026-04-08 21:33:40.753427,59058,1609503192915572,792882131,0.854976,-0.279136,-0.109312,-0.88375,-1.5925,-1.26,-34.272003,25.144001,-5.704001,inter_set_rest,0,3.0,16924.0,130305.0,213203.0,267113.0,254496.0
2026-04-08 21:33:40.783675,59059,1609503192930060,792897032,0.823744,-0.296704,-0.238144,-1.4875,-0.97125,-0.84875,-34.256,25.232,-5.784,inter_set_rest,0,3.0,16924.0,130305.0,213203.0,267113.0,254496.0
2026-04-08 21:33:40.787231,59060,1609503192938982,792905712,0.823744,-0.296704,-0.238144,-1.6625,-0.76125,-0.7175,-34.256,25.232,-5.784,inter_set_rest,0,3.0,16924.0,130305.0,213203.0,267113.0,254496.0
2026-04-08 21:33:40.789654,59061,1609503192953411,792918549,0.83936,-0.308416,-0.247904,-1.32125,-1.12,-0.6475,-33.84,24.952002,-6.432,inter_set_rest,0,3.0,16924.0,130305.0,213203.0,267113.0,254496.0
2026-04-08 21:33:40.819937,59062,1609503192962553,792929280,0.83936,-0.308416,-0.247904,-0.7175,-1.4875,-0.49875,-33.84,24.952002,-6.432,inter_set_rest,0,3.0,16924.0,130305.0,213203.0,267113.0,254496.0
2026-04-08 21:33:40.823509,59063,1609503192971474,792937985,0.84912,-0.310368,-0.251808,-0.44625,-1.54,-0.56875,-34.08,25.048,-5.392,inter_set_rest,0,3.0,16924.0,130305.0,213203.0,267113.0,254496.0
2026-04-08 21:33:40.892514,59074,1609503192986027,792952868,0.84912,-0.310368,-0.251808,-0.37625,-1.26,-0.63875,-34.08,25.048,-5.392,inter_set_rest,0,3.0,16954.0,130413.0,213308.0,267179.0,254541.0
2026-04-08 21:33:40.896508,59075,1609503192994960,792961555,0.895968,-0.320128,-0.20496,-1.05,-1.39125,-0.58625,-33.84,24.952002,-5.712,inter_set_rest,0,3.0,16954.0,130413.0,213308.0,267179.0,254541.0
2026-04-08 21:33:40.898147,59076,1609503193009487,792976476,0.919392,-0.288896,0.005856,-0.8925,-1.12875,-0.60375,-34.144,24.968,-5.456,inter_set_rest,0,3.0,16954.0,130413.0,213308.0,267179.0,254541.0
2026-04-08 21:33:40.899705,59077,1609503193018453,792985261,0.919392,-0.288896,0.005856,-0.735,-0.56875,-0.72625,-34.144,24.968,-5.456,inter_set_rest,0,3.0,16954.0,130413.0,213308.0,267179.0,254541.0
2026-04-08 21:33:40.904074,59078,1609503193032921,792998072,0.847168,-0.298656,-0.1952,-1.09375,-0.20125,-0.21,-33.944,25.144001,-5.552,inter_set_rest,0,3.0,16954.0,130413.0,213308.0,267179.0,254541.0
2026-04-08 21:33:40.905745,59079,1609503193042149,793008824,0.847168,-0.298656,-0.1952,-1.09375,-0.3675,-0.2625,-33.944,25.144001,-5.552,inter_set_rest,0,3.0,16954.0,130413.0,213308.0,267179.0,254541.0
2026-04-08 21:33:40.908150,59080,1609503193051166,793017503,0.9272,-0.318176,-0.103456,-2.135,-0.55125,-0.735,-33.984,25.296001,-4.904,inter_set_rest,0,3.0,16954.0,130413.0,213308.0,267179.0,254541.0
2026-04-08 21:33:40.909743,59081,1609503193065719,793032421,0.9272,-0.318176,-0.103456,-1.42625,-0.83125,-0.56875,-33.984,25.296001,-4.904,inter_set_rest,0,3.0,16954.0,130413.0,213308.0,267179.0,254541.0
2026-04-08 21:33:40.939115,59092,1609503193074666,793041637,0.901824,-0.304512,-0.121024,-1.09375,-0.3325,-0.3675,-33.872,25.28,-5.136,inter_set_rest,0,3.0,16975.0,130520.0,213413.0,267216.0,254534.0
2026-04-08 21:33:40.941730,59093,1609503193089306,793054518,0.843264,-0.2928,-0.173728,-1.9425,-0.09625,-0.5075,-34.04,25.36,-3.568,inter_set_rest,0,3.0,16975.0,130520.0,213413.0,267216.0,254534.0
2026-04-08 21:33:40.974495,59094,1609503193098589,793065269,0.843264,-0.2928,-0.173728,-2.54625,-0.665,-1.02375,-34.04,25.36,-3.568,inter_set_rest,0,3.0,16975.0,130520.0,213413.0,267216.0,254534.0
2026-04-08 21:33:40.978281,59095,1609503193107586,793073946,0.843264,-0.324032,-0.232288,-2.49375,-0.88375,-0.91875,-34.04,25.36,-3.568,inter_set_rest,0,3.0,16975.0,130520.0,213413.0,267216.0,254534.0
2026-04-08 21:33:40.979608,59096,1609503193122064,793088824,0.864736,-0.316224,-0.232288,-2.51125,-0.8925,-1.02375,-34.0,25.36,-5.128,inter_set_rest,0,3.0,16975.0,130520.0,213413.0,267216.0,254534.0
2026-04-08 21:33:40.983985,59097,1609503193130969,793097518,0.841312,-0.27328,-0.05856,-2.5025,-1.0325,-0.76125,-33.808002,25.168001,-5.6,inter_set_rest,0,3.0,16975.0,130520.0,213413.0,267216.0,254534.0
2026-04-08 21:33:40.986432,59098,1609503193145438,793112405,0.841312,-0.27328,-0.05856,-2.3275,-1.30375,-1.2425,-33.808002,25.168001,-5.6,inter_set_rest,0,3.0,16975.0,130520.0,213413.0,267216.0,254534.0
2026-04-08 21:33:41.015305,59099,1609503193154355,793121079,0.860832,-0.27328,-0.035136,-2.5725,-1.68,-1.14625,-33.864002,25.016,-5.656,inter_set_rest,0,3.0,16975.0,130520.0,213413.0,267216.0,254534.0
2026-04-08 21:33:41.018787,59100,1609503193168830,793135942,0.876448,-0.279136,0.007808,-2.3275,-1.84625,-0.95375,-33.728,24.880001,-5.792,inter_set_rest,0,3.0,16975.0,130520.0,213413.0,267216.0,254534.0
2026-04-08 21:33:41.049626,59111,1609503193178060,793144671,0.876448,-0.279136,0.007808,-2.58125,-2.09125,-1.49625,-33.728,24.880001,-5.792,inter_set_rest,0,3.0,16988.0,130479.0,213332.0,267159.0,254481.0
2026-04-08 21:33:41.052134,59112,1609503193187099,793153357,0.876448,-0.279136,0.007808,-3.115,-1.91625,-1.2775,-33.728,24.880001,-5.792,inter_set_rest,0,3.0,16988.0,130479.0,213332.0,267159.0,254481.0
2026-04-08 21:33:41.054602,59113,1609503193201637,793168271,0.831552,-0.286944,-0.101504,-3.815,-1.72375,-0.9625,-33.824,25.056002,-5.344,inter_set_rest,0,3.0,16988.0,130479.0,213332.0,267159.0,254481.0
2026-04-08 21:33:41.057105,59114,1609503193210568,793176958,0.843264,-0.310368,-0.238144,-5.29375,-1.715,-0.88375,-33.912003,25.192001,-5.624,inter_set_rest,0,3.0,16988.0,130479.0,213332.0,267159.0,254481.0
2026-04-08 21:33:41.063399,59115,1609503193225121,793191814,0.843264,-0.310368,-0.238144,-7.49875,-1.16375,-0.945,-33.912003,25.192001,-5.624,inter_set_rest,0,3.0,16988.0,130479.0,213332.0,267159.0,254481.0
2026-04-08 21:33:41.093643,59116,1609503193234042,793200551,0.909632,-0.298656,0.007808,-9.205,-1.40875,-1.26,-33.832,25.368002,-5.728,inter_set_rest,0,3.0,16988.0,130479.0,213332.0,267159.0,254481.0
2026-04-08 21:33:41.097202,59117,1609503193242962,793209195,0.909632,-0.298656,0.007808,-9.31,-1.295,-1.23375,-33.832,25.368002,-5.728,inter_set_rest,0,3.0,16988.0,130479.0,213332.0,267159.0,254481.0
2026-04-08 21:33:41.099657,59118,1609503193257454,793224052,0.919392,-0.333792,-0.150304,-8.8375,-1.7675,-1.33875,-34.168003,25.240002,-5.824,inter_set_rest,0,3.0,16988.0,130479.0,213332.0,267159.0,254481.0
2026-04-08 21:33:41.104629,59119,1609503193266368,793232715,0.919392,-0.333792,-0.150304,-7.8225,-2.38875,-1.0325,-34.168003,25.240002,-5.824,inter_set_rest,0,3.0,16988.0,130479.0,213332.0,267159.0,254481.0
2026-04-08 21:33:41.163482,59130,1609503193281071,793247630,0.821792,-0.294752,-0.222528,-5.88,-2.12625,-1.14625,-33.832,25.304,-5.592001,inter_set_rest,0,3.0,16937.0,130247.0,213033.0,266936.0,254363.0
2026-04-08 21:33:41.166041,59131,1609503193290029,793256335,0.884256,-0.28304,-0.015616,-4.55875,-2.21375,-0.95375,-33.984,25.656002,-5.976,inter_set_rest,0,3.0,16937.0,130247.0,213033.0,266936.0,254363.0
2026-04-08 21:33:41.168595,59132,1609503193304490,793271183,0.884256,-0.28304,-0.015616,-2.28375,-1.96875,-1.3125,-33.984,25.656002,-5.976,inter_set_rest,0,3.0,16937.0,130247.0,213033.0,266936.0,254363.0
2026-04-08 21:33:41.171069,59133,1609503193313436,793279877,0.831552,-0.30256,-0.245952,-1.9425,-1.79375,-1.3125,-34.024002,25.528002,-5.328,inter_set_rest,0,3.0,16937.0,130247.0,213033.0,266936.0,254363.0
2026-04-08 21:33:41.173449,59134,1609503193322399,793288591,0.831552,-0.30256,-0.245952,-3.2725,-2.135,-1.715,-34.024002,25.528002,-5.328,inter_set_rest,0,3.0,16937.0,130247.0,213033.0,266936.0,254363.0
2026-04-08 21:33:41.176049,59135,1609503193336938,793303516,0.876448,-0.284992,-0.011712,-4.165,-2.19625,-2.0125,-33.816,25.304,-5.784,inter_set_rest,0,3.0,16937.0,130247.0,213033.0,266936.0,254363.0
2026-04-08 21:33:41.206533,59136,1609503193345848,793312205,0.876448,-0.284992,-0.011712,-4.05125,-2.12625,-2.0825,-33.816,25.304,-5.784,inter_set_rest,0,3.0,16937.0,130247.0,213033.0,266936.0,254363.0
2026-04-08 21:33:41.209721,59137,1609503193360396,793327072,0.929152,-0.324032,-0.095648,-3.3425,-2.205,-2.12625,-34.056,25.336,-6.232,inter_set_rest,0,3.0,16937.0,130247.0,213033.0,266936.0,254363.0
2026-04-08 21:33:41.212133,59138,1609503193369316,793335732,0.929152,-0.286944,-0.201056,-2.3975,-1.95125,-1.925,-34.056,25.336,-6.232,inter_set_rest,0,3.0,16937.0,130247.0,213033.0,266936.0,254363.0
2026-04-08 21:33:41.274688,59149,1609503193383896,793350728,0.815936,-0.286944,-0.201056,-1.8025,-1.1375,-2.0475,-33.640003,25.264002,-7.520001,inter_set_rest,0,3.0,16923.0,130165.0,212896.0,266856.0,254317.0
2026-04-08 21:33:41.276831,59150,1609503193392887,793359429,0.9272,-0.314272,-0.050752,-1.96,-1.00625,-2.02125,-33.736,25.192001,-5.304,inter_set_rest,0,3.0,16923.0,130165.0,212896.0,266856.0,254317.0
2026-04-08 21:33:41.280805,59151,1609503193401799,793368093,0.9272,-0.314272,-0.050752,-2.75625,-1.56625,-1.82,-33.736,25.192001,-5.304,inter_set_rest,0,3.0,16923.0,130165.0,212896.0,266856.0,254317.0
2026-04-08 21:33:41.282169,59152,1609503193416267,793382952,0.84912,-0.320128,-0.251808,-3.0625,-1.54,-1.5575,-34.16,25.000002,-5.688,inter_set_rest,0,3.0,16923.0,130165.0,212896.0,266856.0,254317.0
2026-04-08 21:33:41.284657,59153,1609503193425180,793391659,0.84912,-0.320128,-0.251808,-2.37125,-1.19875,-1.89875,-34.16,25.000002,-5.688,inter_set_rest,0,3.0,16923.0,130165.0,212896.0,266856.0,254317.0
2026-04-08 21:33:41.287182,59154,1609503193439639,793406540,0.933056,-0.327936,-0.062464,-2.3625,-1.00625,-1.435,-33.776,25.224,-6.048,inter_set_rest,0,3.0,16923.0,130165.0,212896.0,266856.0,254317.0
2026-04-08 21:33:41.289654,59155,1609503193448592,793415217,0.933056,-0.327936,-0.062464,-2.3275,-1.0325,-1.33,-33.776,25.224,-6.048,inter_set_rest,0,3.0,16923.0,130165.0,212896.0,266856.0,254317.0
2026-04-08 21:33:41.322337,59156,1609503193463131,793430123,0.85888,-0.296704,-0.10736,-2.1,-0.77,-1.63625,-34.16,25.192001,-5.792,inter_set_rest,0,3.0,16923.0,130165.0,212896.0,266856.0,254317.0
2026-04-08 21:33:41.325876,59157,1609503193472040,793438811,0.8784,-0.279136,-0.003904,-2.03,-0.875,-1.7675,-33.648003,25.296001,-6.384,inter_set_rest,0,3.0,16923.0,130165.0,212896.0,266856.0,254317.0
2026-04-08 21:33:41.353437,59168,1609503193481408,793447919,0.8784,-0.279136,-0.003904,-1.91625,-0.60375,-1.51375,-33.648003,25.296001,-6.384,inter_set_rest,0,3.0,16944.0,130154.0,212829.0,266761.0,254251.0
2026-04-08 21:33:41.355882,59169,1609503193495886,793462832,0.866688,-0.318176,-0.228384,-2.28375,-0.175,-1.79375,-33.888,25.416,-5.88,inter_set_rest,0,3.0,16944.0,130154.0,212829.0,266761.0,254251.0
2026-04-08 21:33:41.358397,59170,1609503193504870,793471523,0.866688,-0.318176,-0.228384,-3.1325,0.27125,-1.435,-33.888,25.416,-5.88,inter_set_rest,0,3.0,16944.0,130154.0,212829.0,266761.0,254251.0
2026-04-08 21:33:41.360899,59171,1609503193519468,793486384,0.86864,-0.288896,-0.060512,-4.10375,0.37625,-1.0325,-33.432003,25.296001,-5.248,inter_set_rest,0,3.0,16944.0,130154.0,212829.0,266761.0,254251.0
2026-04-08 21:33:41.365935,59172,1609503193528419,793495120,0.86864,-0.288896,-0.060512,-5.46,0.385,-1.12,-33.432003,25.296001,-5.248,inter_set_rest,0,3.0,16944.0,130154.0,212829.0,266761.0,254251.0
2026-04-08 21:33:41.396324,59173,1609503193537361,793503842,0.856928,-0.300608,-0.144448,-5.41625,1.05875,-0.55125,-34.016003,25.056002,-4.512,inter_set_rest,0,3.0,16944.0,130154.0,212829.0,266761.0,254251.0
2026-04-08 21:33:41.400735,59174,1609503193551846,793518688,0.84912,-0.314272,-0.249856,-5.88,1.61875,-0.1225,-33.728,25.656002,-8.68,inter_set_rest,0,3.0,16944.0,130154.0,212829.0,266761.0,254251.0
2026-04-08 21:33:41.402250,59175,1609503193560822,793527345,0.84912,-0.314272,-0.249856,-5.5125,2.23125,-0.00875,-33.728,25.656002,-8.68,inter_set_rest,0,3.0,16944.0,130154.0,212829.0,266761.0,254251.0
2026-04-08 21:33:41.432823,59176,1609503193575312,793542238,0.827648,-0.271328,-0.08784,-6.1075,2.66,0.16625,-33.736,25.080002,-6.312,inter_set_rest,0,3.0,16944.0,130154.0,212829.0,266761.0,254251.0
2026-04-08 21:33:41.463485,59187,1609503193584416,793550993,0.827648,-0.271328,-0.08784,-7.56875,3.3775,0.76125,-33.736,25.080002,-6.312,inter_set_rest,0,3.0,16942.0,130112.0,212782.0,266748.0,254224.0
2026-04-08 21:33:41.466003,59188,1609503193598905,793565835,0.919392,-0.33184,-0.122976,-8.88125,2.49375,1.47875,-33.704002,25.288002,-6.2,inter_set_rest,0,3.0,16942.0,130112.0,212782.0,266748.0,254224.0
2026-04-08 21:33:41.468579,59189,1609503193607978,793574498,0.919392,-0.33184,-0.122976,-10.4825,1.225,1.81125,-33.704002,25.288002,-6.2,inter_set_rest,0,3.0,16942.0,130112.0,212782.0,266748.0,254224.0
2026-04-08 21:33:41.471128,59190,1609503193616919,793583178,0.921344,-0.324032,-0.046848,-9.89625,0.805,1.61,-33.736,25.872002,-5.288,inter_set_rest,0,3.0,16942.0,130112.0,212782.0,266748.0,254224.0
2026-04-08 21:33:41.473460,59191,1609503193631372,793598057,0.89792,-0.327936,-0.150304,-8.82875,1.14625,2.07375,-33.736,25.624,-5.536,inter_set_rest,0,3.0,16942.0,130112.0,212782.0,266748.0,254224.0
2026-04-08 21:33:41.478422,59192,1609503193640310,793606761,0.89792,-0.327936,-0.150304,-7.69125,1.54875,2.45,-33.864002,25.624,-5.536,inter_set_rest,0,3.0,16942.0,130112.0,212782.0,266748.0,254224.0
2026-04-08 21:33:41.508741,59193,1609503193654799,793621637,0.909632,-0.325984,-0.074176,-7.2975,1.26875,2.345,-33.512,25.712002,-6.264,inter_set_rest,0,3.0,16942.0,130112.0,212782.0,266748.0,254224.0
2026-04-08 21:33:41.512240,59194,1609503193663705,793630284,0.909632,-0.325984,-0.074176,-6.6675,1.1025,2.3975,-33.512,25.712002,-6.264,inter_set_rest,0,3.0,16942.0,130112.0,212782.0,266748.0,254224.0
2026-04-08 21:33:41.577437,59205,1609503193678168,793645101,0.876448,-0.3416,-0.247904,-6.265,1.4,2.2925,-33.368,25.792002,-7.176,inter_set_rest,0,3.0,16929.0,130057.0,212691.0,266693.0,254221.0
2026-04-08 21:33:41.580911,59206,1609503193687155,793653795,0.876448,-0.3416,-0.247904,-4.655,2.17,2.31,-33.368,25.792002,-7.176,inter_set_rest,0,3.0,16929.0,130057.0,212691.0,266693.0,254221.0
2026-04-08 21:33:41.583434,59207,1609503193696163,793662509,0.85888,-0.286944,-0.03904,-3.35125,3.115,2.5025,-33.496002,25.536001,-5.992,inter_set_rest,0,3.0,16929.0,130057.0,212691.0,266693.0,254221.0
2026-04-08 21:33:41.585908,59208,1609503193710669,793677407,0.85888,-0.286944,-0.03904,-2.09125,4.08625,2.625,-33.496002,25.536001,-5.992,inter_set_rest,0,3.0,16929.0,130057.0,212691.0,266693.0,254221.0
2026-04-08 21:33:41.588394,59209,1609503193719601,793686073,0.835456,-0.308416,-0.197152,-1.2775,5.46,3.31625,-33.336002,25.688002,-5.344,inter_set_rest,0,3.0,16929.0,130057.0,212691.0,266693.0,254221.0
2026-04-08 21:33:41.590892,59210,1609503193734065,793700919,0.91744,-0.37088,-0.20496,1.2425,7.25375,2.9575,-33.224003,25.784,-5.84,inter_set_rest,0,3.0,16929.0,130057.0,212691.0,266693.0,254221.0
2026-04-08 21:33:41.593422,59211,1609503193742955,793709572,0.91744,-0.37088,-0.20496,2.555,10.66625,3.78,-33.224003,25.784,-5.84,inter_set_rest,0,3.0,16929.0,130057.0,212691.0,266693.0,254221.0
2026-04-08 21:33:41.595901,59212,1609503193757433,793724450,0.909632,-0.2928,-0.070272,7.525,15.846251,3.78875,-33.288002,26.28,-5.72,inter_set_rest,0,3.0,16929.0,130057.0,212691.0,266693.0,254221.0
2026-04-08 21:33:41.626488,59213,1609503193766375,793733147,0.909632,-0.2928,-0.070272,13.64125,21.2625,3.64875,-33.288002,26.28,-5.72,inter_set_rest,0,3.0,16929.0,130057.0,212691.0,266693.0,254221.0
2026-04-08 21:33:41.629927,59214,1609503193775316,793741817,0.882304,-0.300608,-0.261568,13.448751,27.64125,2.695,-33.088,26.128002,-4.896,inter_set_rest,0,3.0,16929.0,130057.0,212691.0,266693.0,254221.0
2026-04-08 21:33:41.659790,59225,1609503193789916,793756750,0.882304,-0.300608,-0.261568,13.448751,31.77125,2.2925,-33.088,26.128002,-4.896,inter_set_rest,0,3.0,16989.0,130297.0,212982.0,266808.0,254269.0
2026-04-08 21:33:41.662412,59226,1609503193798840,793765415,0.901824,-0.343552,-0.189344,11.8125,32.22625,5.1625,-33.032,26.072,-2.896,inter_set_rest,0,3.0,16989.0,130297.0,212982.0,266808.0,254269.0
2026-04-08 21:33:41.664705,59227,1609503193813520,793780326,0.83936,-0.363072,-0.085888,8.98625,32.025,11.515,-33.08,26.568,-3.904,inter_set_rest,0,3.0,16989.0,130297.0,212982.0,266808.0,254269.0
2026-04-08 21:33:41.667857,59228,1609503193822467,793789054,0.83936,-0.363072,-0.085888,0.11375,30.31875,10.9725,-33.08,26.568,-3.904,inter_set_rest,0,3.0,16989.0,130297.0,212982.0,266808.0,254269.0
2026-04-08 21:33:41.670001,59229,1609503193831401,793797761,0.83936,-0.363072,-0.085888,-0.98875,29.40875,3.43875,-33.08,26.568,-3.904,inter_set_rest,0,3.0,16989.0,130297.0,212982.0,266808.0,254269.0
2026-04-08 21:33:41.700883,59230,1609503193845894,793812640,0.91744,-0.431392,-0.076128,3.15,28.25375,0.9625,-32.888,26.504002,-2.816,inter_set_rest,0,3.0,16989.0,130297.0,212982.0,266808.0,254269.0
2026-04-08 21:33:41.703052,59231,1609503193854807,793821291,0.866688,-0.349408,0.07808,5.4775,26.76625,3.395,-32.696003,26.368002,-3.76,inter_set_rest,0,3.0,16989.0,130297.0,212982.0,266808.0,254269.0
2026-04-08 21:33:41.707621,59232,1609503193869343,793836162,0.866688,-0.349408,0.07808,3.3075,22.4525,1.365,-32.696003,26.368002,-3.76,inter_set_rest,0,3.0,16989.0,130297.0,212982.0,266808.0,254269.0
2026-04-08 21:33:41.736073,59233,1609503193878284,793844861,0.786656,-0.335744,-0.109312,0.70875,16.6775,-0.49,-32.504,26.456001,-3.264,inter_set_rest,0,3.0,16989.0,130297.0,212982.0,266808.0,254269.0
2026-04-08 21:33:41.764675,59244,1609503193892848,793859763,0.89792,-0.333792,0.02928,-1.37375,11.2175,-1.295,-32.504,26.456001,-3.144,inter_set_rest,0,3.0,16957.0,130217.0,212910.0,266760.0,254253.0
2026-04-08 21:33:41.768979,59245,1609503193901844,793868427,0.89792,-0.333792,0.02928,-4.66375,6.195,-3.21125,-32.408,26.52,-3.144,inter_set_rest,0,3.0,16957.0,130217.0,212910.0,266760.0,254253.0
2026-04-08 21:33:41.770645,59246,1609503193910897,793877107,0.89792,-0.333792,0.02928,-6.93875,1.2425,-4.82125,-32.408,26.52,-3.144,inter_set_rest,0,3.0,16957.0,130217.0,212910.0,266760.0,254253.0
2026-04-08 21:33:41.772180,59247,1609503193925399,793892009,0.89792,-0.318176,0.124928,-7.44625,-2.7475,-4.585,-32.856003,26.296001,-3.048,inter_set_rest,0,3.0,16957.0,130217.0,212910.0,266760.0,254253.0
2026-04-08 21:33:41.776250,59248,1609503193934348,793900712,0.833504,-0.310368,-0.091744,-7.20125,-5.27625,-5.03125,-32.648003,26.176,-7.920001,inter_set_rest,0,3.0,16957.0,130217.0,212910.0,266760.0,254253.0
2026-04-08 21:33:41.804858,59249,1609503193948891,793915585,0.833504,-0.310368,-0.091744,-6.44,-7.11375,-4.8125,-32.648003,26.176,-7.920001,inter_set_rest,0,3.0,16957.0,130217.0,212910.0,266760.0,254253.0
2026-04-08 21:33:41.809337,59250,1609503193957831,793924243,0.925248,-0.33184,0.023424,-5.1275,-7.245,-4.38375,-32.504,26.168001,-4.032,inter_set_rest,0,3.0,16957.0,130217.0,212910.0,266760.0,254253.0
2026-04-08 21:33:41.810939,59251,1609503193972307,793939102,0.925248,-0.33184,0.023424,-2.87,-7.245,-4.90875,-32.504,26.168001,-4.032,inter_set_rest,0,3.0,16957.0,130217.0,212910.0,266760.0,254253.0
2026-04-08 21:33:41.880547,59262,1609503193981298,793947847,0.899872,-0.324032,0.060512,0.00875,-7.5775,-5.5825,-32.800003,26.072,-1.728,inter_set_rest,0,3.0,16818.0,129598.0,212031.0,266093.0,253881.0
2026-04-08 21:33:41.885185,59263,1609503193990467,793956564,0.899872,-0.324032,0.060512,3.45625,-6.99125,-5.635,-32.800003,26.072,-1.728,inter_set_rest,0,3.0,16818.0,129598.0,212031.0,266093.0,253881.0
2026-04-08 21:33:41.886852,59264,1609503194004979,793971550,0.835456,-0.337696,-0.208864,6.57125,-4.55875,-5.81875,-32.712,26.336,-2.8,inter_set_rest,0,3.0,16818.0,129598.0,212031.0,266093.0,253881.0
2026-04-08 21:33:41.889126,59265,1609503194013912,793980248,0.827648,-0.265472,-0.171776,7.2975,-0.60375,-4.17375,-32.776,26.2,-4.08,inter_set_rest,0,3.0,16818.0,129598.0,212031.0,266093.0,253881.0
2026-04-08 21:33:41.892720,59266,1609503194028368,793995094,0.827648,-0.265472,-0.171776,3.87625,3.325,-4.4275,-32.776,26.2,-4.08,inter_set_rest,0,3.0,16818.0,129598.0,212031.0,266093.0,253881.0
2026-04-08 21:33:41.894299,59267,1609503194037268,794003748,0.870592,-0.365024,-0.212768,-5.3725,8.21625,-6.02,-32.944,26.112001,-4.104,inter_set_rest,0,3.0,16818.0,129598.0,212031.0,266093.0,253881.0
2026-04-08 21:33:41.897202,59268,1609503194051798,794018705,0.870592,-0.365024,-0.212768,-4.865,12.1625,-5.1625,-32.944,26.112001,-4.104,inter_set_rest,0,3.0,16818.0,129598.0,212031.0,266093.0,253881.0
2026-04-08 21:33:41.901314,59269,1609503194060768,794027406,0.884256,-0.333792,-0.083936,-3.605,19.9325,-3.9025,-33.08,26.216002,-3.64,inter_set_rest,0,3.0,16818.0,129598.0,212031.0,266093.0,253881.0
2026-04-08 21:33:41.929839,59270,1609503194069732,794036079,0.884256,-0.333792,-0.083936,-5.285,28.7175,-4.69875,-33.08,26.216002,-3.64,inter_set_rest,0,3.0,16818.0,129598.0,212031.0,266093.0,253881.0
2026-04-08 21:33:41.958482,59281,1609503194084859,794050968,0.9272,-0.404064,-0.10736,4.08625,36.18125,-4.48,-32.56,26.512001,-2.552,inter_set_rest,0,3.0,16662.0,128998.0,211272.0,265524.0,253531.0
2026-04-08 21:33:41.962746,59282,1609503194093780,794059731,0.9272,-0.357216,-0.040992,9.56375,42.4375,-5.145,-32.56,26.512001,-2.552,inter_set_rest,0,3.0,16662.0,128998.0,211272.0,265524.0,253531.0
2026-04-08 21:33:41.964415,59283,1609503194108315,794074655,0.89792,-0.353312,-0.040992,14.4725,47.34625,-4.85625,-32.552002,25.904001,-1.832,inter_set_rest,0,3.0,16662.0,128998.0,211272.0,265524.0,253531.0
2026-04-08 21:33:41.965969,59284,1609503194117307,794083334,0.954528,-0.335744,-0.064416,18.20875,51.8175,-3.2375,-32.248,25.824001,-1.08,inter_set_rest,0,3.0,16662.0,128998.0,211272.0,265524.0,253531.0
2026-04-08 21:33:41.970040,59285,1609503194126238,794091986,0.954528,-0.335744,-0.064416,13.97375,54.69625,-5.04875,-32.248,25.824001,-1.08,inter_set_rest,0,3.0,16662.0,128998.0,211272.0,265524.0,253531.0
2026-04-08 21:33:41.998630,59286,1609503194140732,794106924,0.931104,-0.38064,-0.001952,22.53125,58.73875,-6.09,-32.52,25.752,-0.376,inter_set_rest,0,3.0,16662.0,128998.0,211272.0,265524.0,253531.0
2026-04-08 21:33:42.004100,59287,1609503194149637,794115616,0.931104,-0.38064,-0.001952,27.4225,64.7325,-1.60125,-32.52,25.752,-0.376,inter_set_rest,0,3.0,16662.0,128998.0,211272.0,265524.0,253531.0
2026-04-08 21:33:42.005565,59288,1609503194164101,794130454,0.84912,-0.40992,-0.134688,32.935,68.95,-3.3775,-31.736002,25.528002,0.968,inter_set_rest,0,3.0,16662.0,128998.0,211272.0,265524.0,253531.0
2026-04-08 21:33:42.012583,59289,1609503194173019,794139148,0.84912,-0.40992,-0.134688,41.6325,72.275,-10.00125,-31.736002,25.528002,0.968,inter_set_rest,0,3.0,16662.0,128998.0,211272.0,265524.0,253531.0
2026-04-08 21:33:42.046481,59300,1609503194187646,794154130,0.8784,-0.38064,0.128832,31.9725,71.96,-7.735,-32.056,25.384,0.584,inter_set_rest,0,3.0,16381.0,127969.0,209929.0,264617.0,253027.0
2026-04-08 21:33:42.048182,59301,1609503194196658,794162799,0.786656,-0.240096,0.210816,39.515,71.96,-2.0125,-31.376001,25.36,2.8,inter_set_rest,0,3.0,16381.0,127969.0,209929.0,264617.0,253027.0
2026-04-08 21:33:42.049923,59302,1609503194205598,794171537,0.786656,-0.240096,0.210816,32.71625,63.58625,-5.3025,-31.376001,25.36,2.8,inter_set_rest,0,3.0,16381.0,127969.0,209929.0,264617.0,253027.0
2026-04-08 21:33:42.080760,59303,1609503194220108,794186418,0.726144,-0.279136,0.236192,30.73875,52.3425,-11.3925,-31.536001,25.664001,4.016,inter_set_rest,0,3.0,16381.0,127969.0,209929.0,264617.0,253027.0
2026-04-08 21:33:42.085234,59304,1609503194229057,794195113,0.726144,-0.279136,0.236192,29.68,44.98375,-12.17125,-31.536001,25.664001,4.016,inter_set_rest,0,3.0,16381.0,127969.0,209929.0,264617.0,253027.0
2026-04-08 21:33:42.087687,59305,1609503194243541,794209981,0.802272,-0.193248,0.167872,17.8325,33.36375,-8.84625,-31.432001,24.960001,3.792,inter_set_rest,0,3.0,16381.0,127969.0,209929.0,264617.0,253027.0
2026-04-08 21:33:42.091501,59306,1609503194252488,794218693,0.802272,-0.193248,0.167872,6.2825,23.1,-10.91125,-31.432001,24.960001,3.792,inter_set_rest,0,3.0,16381.0,127969.0,209929.0,264617.0,253027.0
2026-04-08 21:33:42.163799,59307,1609503194267014,794233552,0.8784,-0.240096,0.320128,-8.98625,13.86,-15.81125,-31.464,25.088001,3.288,inter_set_rest,0,3.0,16381.0,127969.0,209929.0,264617.0,253027.0
2026-04-08 21:33:42.165647,59308,1609503194275925,794242223,0.763232,-0.28304,0.128832,-19.11875,6.8075,-14.49875,-31.04,25.184002,2.664,inter_set_rest,0,3.0,16381.0,127969.0,209929.0,264617.0,253027.0
2026-04-08 21:33:42.205901,59319,1609503194285462,794250953,0.763232,-0.28304,0.128832,-18.26125,0.49875,-10.49125,-31.04,25.184002,2.664,inter_set_rest,0,3.0,16410.0,128188.0,210271.0,265125.0,253427.0
2026-04-08 21:33:42.207392,59320,1609503194300220,794265808,0.755424,-0.236192,0.173728,-17.1325,-6.37,-8.8725,-31.632002,25.232,3.12,inter_set_rest,0,3.0,16410.0,128188.0,210271.0,265125.0,253427.0
2026-04-08 21:33:42.214183,59321,1609503194309525,794276555,0.755424,-0.236192,0.173728,-13.93875,-12.60875,-10.9025,-31.632002,25.232,3.12,inter_set_rest,0,3.0,16410.0,128188.0,210271.0,265125.0,253427.0
2026-04-08 21:33:42.215767,59322,1609503194318443,794285206,0.890112,-0.228384,0.314272,-13.72,-18.97875,-11.2875,-31.488,24.904001,2.752,inter_set_rest,0,3.0,16410.0,128188.0,210271.0,265125.0,253427.0
2026-04-08 21:33:42.217405,59323,1609503194332920,794300098,0.890112,-0.228384,0.314272,-15.435,-24.9025,-10.77125,-31.488,24.904001,2.752,inter_set_rest,0,3.0,16410.0,128188.0,210271.0,265125.0,253427.0
2026-04-08 21:33:42.221648,59324,1609503194341898,794308815,0.921344,-0.286944,0.158112,-17.57,-28.77875,-12.5475,-32.2,25.176,2.712,inter_set_rest,0,3.0,16410.0,128188.0,210271.0,265125.0,253427.0
2026-04-08 21:33:42.223215,59325,1609503194356408,794321669,0.854976,-0.290848,0.02928,-17.33375,-29.82,-12.83625,-32.192,24.888,1.832,inter_set_rest,0,3.0,16410.0,128188.0,210271.0,265125.0,253427.0
2026-04-08 21:33:42.224726,59326,1609503194365851,794332419,0.854976,-0.290848,0.02928,-13.5625,-28.35,-8.49625,-32.192,24.888,1.832,inter_set_rest,0,3.0,16410.0,128188.0,210271.0,265125.0,253427.0
2026-04-08 21:33:42.228951,59327,1609503194374866,794341195,0.854976,-0.290848,0.02928,-8.5575,-25.05125,-5.55625,-32.192,24.888,1.832,inter_set_rest,0,3.0,16410.0,128188.0,210271.0,265125.0,253427.0
2026-04-08 21:33:42.255740,59338,1609503194389423,794356105,0.798368,-0.277184,0.052704,-3.99,-22.14625,-5.08375,-32.096,24.752,4.416,inter_set_rest,0,3.0,16567.0,128803.0,211138.0,265718.0,253806.0
2026-04-08 21:33:42.257156,59339,1609503194398348,794364826,0.802272,-0.238144,0.0488,-1.0675,-21.16625,-4.2875,-32.544003,24.928001,1.728,inter_set_rest,0,3.0,16567.0,128803.0,211138.0,265718.0,253806.0
2026-04-08 21:33:42.259671,59340,1609503194412916,794379730,0.802272,-0.238144,0.0488,-2.14375,-21.7,-6.81625,-32.544003,24.928001,1.728,inter_set_rest,0,3.0,16567.0,128803.0,211138.0,265718.0,253806.0
2026-04-08 21:33:42.262148,59341,1609503194421848,794388443,0.872544,-0.316224,-0.081984,-7.1925,-21.455,-9.14375,-32.4,24.496,1.304,inter_set_rest,0,3.0,16567.0,128803.0,211138.0,265718.0,253806.0
2026-04-08 21:33:42.292430,59342,1609503194436350,794403321,0.862784,-0.25376,0.121024,-7.41125,-19.4075,-8.96875,-32.4,24.904001,3.512,inter_set_rest,0,3.0,16567.0,128803.0,211138.0,265718.0,253806.0
2026-04-08 21:33:42.295961,59343,1609503194445269,794411981,0.862784,-0.25376,0.121024,-10.22875,-18.1125,-8.6975,-32.888,24.904001,3.512,inter_set_rest,0,3.0,16567.0,128803.0,211138.0,265718.0,253806.0
2026-04-08 21:33:42.298464,59344,1609503194454208,794420646,0.862784,-0.25376,0.121024,-12.71375,-15.81125,-6.92125,-32.888,24.904001,3.512,inter_set_rest,0,3.0,16567.0,128803.0,211138.0,265718.0,253806.0
2026-04-08 21:33:42.328597,59345,1609503194468744,794435534,0.86864,-0.31232,-0.070272,-16.975,-14.77,-6.08125,-32.696003,24.872002,2.04,inter_set_rest,0,3.0,16567.0,128803.0,211138.0,265718.0,253806.0
2026-04-08 21:33:42.332216,59346,1609503194477675,794444206,0.884256,-0.320128,-0.081984,-19.95875,-13.0375,-3.7975,-32.672,25.168001,1.84,inter_set_rest,0,3.0,16567.0,128803.0,211138.0,265718.0,253806.0
2026-04-08 21:33:42.359675,59357,1609503194492565,794459330,0.884256,-0.320128,-0.081984,-17.85875,-12.11875,-4.305,-32.672,25.168001,1.84,inter_set_rest,0,3.0,16564.0,128888.0,211283.0,265743.0,253814.0
2026-04-08 21:33:42.362104,59358,1609503194501567,794468010,0.884256,-0.275232,0.132736,-17.19375,-10.815,-5.635,-32.952,24.52,0.384,inter_set_rest,0,3.0,16564.0,128888.0,211283.0,265743.0,253814.0
2026-04-08 21:33:42.364641,59359,1609503194510541,794476702,0.884256,-0.275232,0.132736,-15.4525,-11.0775,-5.22375,-32.952,24.52,0.384,inter_set_rest,0,3.0,16564.0,128888.0,211283.0,265743.0,253814.0
2026-04-08 21:33:42.367183,59360,1609503194525104,794491619,0.905728,-0.320128,-0.001952,-13.41375,-10.99875,-5.075,-33.056,24.888,0.928,inter_set_rest,0,3.0,16564.0,128888.0,211283.0,265743.0,253814.0
2026-04-08 21:33:42.370836,59361,1609503194534155,794500326,0.905728,-0.320128,-0.001952,-10.1325,-9.59,-3.94625,-33.056,24.888,0.928,inter_set_rest,0,3.0,16564.0,128888.0,211283.0,265743.0,253814.0
2026-04-08 21:33:42.402353,59362,1609503194548646,794515211,0.94672,-0.28304,0.20496,-7.39375,-7.5075,-3.8675,-33.2,24.688002,0.544,inter_set_rest,0,3.0,16564.0,128888.0,211283.0,265743.0,253814.0
2026-04-08 21:33:42.405959,59363,1609503194557546,794523871,0.948672,-0.32208,0.128832,-4.4975,-4.59375,-4.655,-33.08,24.688002,0.36,inter_set_rest,0,3.0,16564.0,128888.0,211283.0,265743.0,253814.0
2026-04-08 21:33:42.410902,59364,1609503194572032,794538725,0.948672,-0.32208,0.128832,-0.55125,-2.3625,-4.43625,-33.08,24.688002,0.36,inter_set_rest,0,3.0,16564.0,128888.0,211283.0,265743.0,253814.0
2026-04-08 21:33:42.417166,59365,1609503194580948,794547427,0.895968,-0.288896,0.21472,4.43625,0.105,-4.515,-33.024002,24.888,-0.24,inter_set_rest,0,3.0,16564.0,128888.0,211283.0,265743.0,253814.0
2026-04-08 21:33:42.479688,59376,1609503194590008,794556165,0.895968,-0.288896,0.21472,6.58,1.70625,-5.635,-33.024002,24.888,-0.24,inter_set_rest,0,3.0,16501.0,128483.0,210719.0,265263.0,253501.0
2026-04-08 21:33:42.482163,59377,1609503194604541,794571083,0.892064,-0.26352,0.085888,5.34625,2.58125,-8.04125,-33.04,24.696001,-0.016,inter_set_rest,0,3.0,16501.0,128483.0,210719.0,265263.0,253501.0
2026-04-08 21:33:42.484648,59378,1609503194613532,794579764,0.892064,-0.26352,0.085888,0.72625,0.0,-10.745,-33.04,24.696001,-0.016,inter_set_rest,0,3.0,16501.0,128483.0,210719.0,265263.0,253501.0
2026-04-08 21:33:42.487175,59379,1609503194628026,794594635,0.80032,-0.201056,-0.011712,-4.4625,-2.24875,-11.042501,-33.256,24.656002,-0.52,inter_set_rest,0,3.0,16501.0,128483.0,210719.0,265263.0,253501.0
2026-04-08 21:33:42.489675,59380,1609503194636943,794603286,0.80032,-0.201056,-0.011712,-9.695,-6.1425,-10.31625,-33.256,24.656002,-0.52,inter_set_rest,0,3.0,16501.0,128483.0,210719.0,265263.0,253501.0
2026-04-08 21:33:42.492197,59381,1609503194651421,794618155,0.825696,-0.23424,-0.003904,-15.46125,-8.645,-12.46875,-33.384003,24.376001,2.416,inter_set_rest,0,3.0,16501.0,128483.0,210719.0,265263.0,253501.0
2026-04-08 21:33:42.498421,59382,1609503194660354,794626827,0.854976,-0.199104,0.003904,-14.90125,-10.54375,-14.48125,-33.864002,24.208002,-0.328,inter_set_rest,0,3.0,16501.0,128483.0,210719.0,265263.0,253501.0
2026-04-08 21:33:42.528924,59383,1609503194669297,794635441,0.854976,-0.199104,0.003904,-21.0525,-14.7175,-13.83375,-33.864002,24.208002,-0.328,inter_set_rest,0,3.0,16501.0,128483.0,210719.0,265263.0,253501.0
2026-04-08 21:33:42.557203,59394,1609503194683767,794650343,0.925248,-0.220576,0.040992,-25.96125,-22.02375,-13.6325,-34.008003,24.488,-1.264,inter_set_rest,0,3.0,16548.0,128785.0,211142.0,265584.0,253631.0
2026-04-08 21:33:42.559674,59395,1609503194692764,794659036,0.925248,-0.220576,0.040992,-36.19,-32.36625,-13.67625,-34.008003,24.488,-1.264,inter_set_rest,0,3.0,16548.0,128785.0,211142.0,265584.0,253631.0
2026-04-08 21:33:42.562185,59396,1609503194707282,794673978,0.794464,-0.187392,0.212768,-50.60125,-44.79125,-12.18875,-34.416,24.224,-2.536,inter_set_rest,0,3.0,16548.0,128785.0,211142.0,265584.0,253631.0
2026-04-08 21:33:42.564684,59397,1609503194716219,794682658,0.794464,-0.187392,0.212768,-60.69875,-56.28,-9.30125,-34.416,24.224,-2.536,inter_set_rest,0,3.0,16548.0,128785.0,211142.0,265584.0,253631.0
2026-04-08 21:33:42.569611,59398,1609503194730769,794697532,0.923296,-0.281088,0.242048,-59.99,-64.96875,-5.4075,-34.456,24.152,-3.656,inter_set_rest,0,3.0,16548.0,128785.0,211142.0,265584.0,253631.0
2026-04-08 21:33:42.599872,59399,1609503194739701,794706235,0.948672,-0.386496,0.171776,-51.695,-70.621254,-6.5975,-34.760002,24.400002,-3.84,inter_set_rest,0,3.0,16548.0,128785.0,211142.0,265584.0,253631.0
2026-04-08 21:33:42.603529,59400,1609503194748598,794714881,0.948672,-0.386496,0.171776,-28.455,-72.58125,-14.7175,-34.760002,24.400002,-3.84,inter_set_rest,0,3.0,16548.0,128785.0,211142.0,265584.0,253631.0
2026-04-08 21:33:42.605990,59401,1609503194763083,794729740,0.892064,-0.415776,-0.066368,5.60875,-71.277504,-25.87375,-35.264,23.640001,-4.856,inter_set_rest,0,3.0,16548.0,128785.0,211142.0,265584.0,253631.0
2026-04-08 21:33:42.610910,59402,1609503194772025,794738401,0.892064,-0.415776,-0.066368,37.826252,-68.92375,-33.64375,-35.264,23.640001,-4.856,inter_set_rest,0,3.0,16548.0,128785.0,211142.0,265584.0,253631.0
2026-04-08 21:33:42.669689,59414,1609503194786577,794753365,0.860832,-0.281088,-0.179584,63.81375,-63.02625,-35.3675,-35.128002,23.024,-4.096,inter_set_rest,0,3.0,16812.0,129726.0,212339.0,266389.0,254016.0
2026-04-08 21:33:42.672167,59415,1609503194795594,794762124,0.860832,-0.281088,-0.179584,73.6225,-60.2,-37.52,-35.128002,23.024,-4.096,inter_set_rest,0,3.0,16812.0,129726.0,212339.0,266389.0,254016.0
2026-04-08 21:33:42.680934,59416,1609503194810140,794777010,0.833504,-0.208864,-0.0488,69.65875,-62.41375,-41.13375,-35.424,22.688002,-4.88,inter_set_rest,0,3.0,16812.0,129726.0,212339.0,266389.0,254016.0
2026-04-08 21:33:42.683393,59417,1609503194819090,794785680,0.919392,-0.169824,-0.08784,57.75,-60.6725,-36.6625,-35.848003,22.328001,-6.152,inter_set_rest,0,3.0,16812.0,129726.0,212339.0,266389.0,254016.0
2026-04-08 21:33:42.685910,59418,1609503194828028,794794357,0.919392,-0.169824,-0.08784,42.97125,-59.87625,-29.07625,-35.848003,22.328001,-6.152,inter_set_rest,0,3.0,16812.0,129726.0,212339.0,266389.0,254016.0
2026-04-08 21:33:42.688370,59419,1609503194842633,794809244,0.915488,-0.199104,-0.089792,27.755001,-59.8675,-29.32125,-36.136,22.008001,-5.688,inter_set_rest,0,3.0,16812.0,129726.0,212339.0,266389.0,254016.0
2026-04-08 21:33:42.690900,59420,1609503194851560,794817991,0.915488,-0.199104,-0.089792,14.4025,-54.69625,-26.06625,-36.136,22.008001,-5.688,inter_set_rest,0,3.0,16812.0,129726.0,212339.0,266389.0,254016.0
2026-04-08 21:33:42.721175,59421,1609503194866085,794832880,0.864736,-0.206912,-0.320128,9.948751,-50.89,-18.725,-36.480003,21.960001,-6.688,inter_set_rest,0,3.0,16812.0,129726.0,212339.0,266389.0,254016.0
2026-04-08 21:33:42.724861,59422,1609503194875087,794841544,0.864736,-0.206912,-0.320128,6.99125,-47.80125,-16.66875,-36.480003,21.960001,-6.688,inter_set_rest,0,3.0,16812.0,129726.0,212339.0,266389.0,254016.0
