pc_time,serial_num,sensor_ts,host_ts,ax,ay,az,gx,gy,gz,mx,my,mz,phase,rpe,weight_kg,ppg_a,ppg_b,ppg_c,ppg_d,ppg_e
2026-04-09 22:23:17.277314,380097,2327246598,2327248204,-0.993568,0.027328,-0.201056,-10.87625,4.62,4.92625,16.112001,-2.76,12.104001,eccentric,6,5.0,18655.0,403431.0,207772.0,70228.0,4081.0
2026-04-09 22:23:17.345934,380108,2327255961,2327257257,-1.032608,-0.023424,-0.33184,-12.18875,4.3925,6.39625,15.176001,-2.84,12.016001,eccentric,6,5.0,18506.0,403431.0,208872.0,71561.0,4568.0
2026-04-09 22:23:17.348490,380109,2327264913,2327266000,-1.032608,-0.023424,-0.33184,-13.09875,1.33,6.29125,15.176001,-2.84,12.016001,eccentric,6,5.0,18506.0,403431.0,208872.0,71561.0,4568.0
2026-04-09 22:23:17.351820,380110,2327273877,2327274697,-0.931104,-0.208864,-0.074176,-13.886251,-2.7475,7.035,15.816001,-2.176,11.592001,eccentric,6,5.0,18506.0,403431.0,208872.0,71561.0,4568.0
2026-04-09 22:23:17.353277,380111,2327288398,2327289691,-0.931104,-0.208864,-0.074176,-11.52375,-2.73875,7.8925,15.816001,-2.176,11.592001,eccentric,6,5.0,18506.0,403431.0,208872.0,71561.0,4568.0
2026-04-09 22:23:17.357600,380112,2327297406,2327298432,-0.972096,-0.017568,-0.050752,-7.1575,1.365,10.045,16.52,-2.968,11.656,eccentric,6,5.0,18506.0,403431.0,208872.0,71561.0,4568.0
2026-04-09 22:23:17.359326,380113,2327306367,2327307178,-0.972096,-0.017568,-0.050752,-0.37625,8.0325,12.52125,16.52,-2.968,11.656,eccentric,6,5.0,18506.0,403431.0,208872.0,71561.0,4568.0
2026-04-09 22:23:17.361027,380114,2327320911,2327322129,-1.085312,0.122976,-0.269376,1.5925,12.0925,13.2475,15.592001,-3.344,12.536,eccentric,6,5.0,18506.0,403431.0,208872.0,71561.0,4568.0
2026-04-09 22:23:17.365090,380115,2327329792,2327330834,-1.085312,0.122976,-0.269376,-7.9275,8.89,8.37375,15.592001,-3.344,12.536,eccentric,6,5.0,18506.0,403431.0,208872.0,71561.0,4568.0
2026-04-09 22:23:17.369175,380116,2327338753,2327339618,-1.01504,-0.163968,-0.304512,-25.375,1.855,7.34125,15.728001,-3.168,12.736001,eccentric,6,5.0,18506.0,403431.0,208872.0,71561.0,4568.0
2026-04-09 22:23:17.419631,380117,2327353264,2327354558,-1.065792,-0.191296,-0.060512,-31.33375,-5.17125,11.03375,16.432001,-3.2,11.920001,eccentric,6,5.0,18506.0,403431.0,208872.0,71561.0,4568.0
2026-04-09 22:23:17.448631,380127,2327362208,2327363277,-1.065792,-0.191296,-0.060512,-19.85375,-7.6125,13.74625,16.432001,-3.2,11.920001,eccentric,6,5.0,18400.0,403431.0,210418.0,72719.0,4805.0
2026-04-09 22:23:17.452666,380128,2327371154,2327371966,-1.065792,-0.191296,-0.060512,-3.49125,-5.845,21.27125,16.432001,-3.2,11.920001,eccentric,6,5.0,18400.0,403431.0,210418.0,72719.0,4805.0
2026-04-09 22:23:17.454270,380129,2327380131,2327380692,-1.007232,0.122976,-0.0976,9.1875,-3.03625,24.29,16.512001,-3.336,12.464001,eccentric,6,5.0,18400.0,403431.0,210418.0,72719.0,4805.0
2026-04-09 22:23:17.456773,380130,2327394856,2327395581,-1.069696,0.007808,-0.281088,1.54875,-3.36875,17.1675,16.928001,-3.832,11.920001,eccentric,6,5.0,18400.0,403431.0,210418.0,72719.0,4805.0
2026-04-09 22:23:17.458356,380131,2327404320,2327406363,-1.069696,0.007808,-0.281088,-17.9375,-5.31125,15.9775,16.928001,-3.832,11.920001,eccentric,6,5.0,18400.0,403431.0,210418.0,72719.0,4805.0
2026-04-09 22:23:17.462776,380132,2327413391,2327415129,-1.134112,-0.081984,-0.109312,-29.91625,-7.86625,17.272501,16.512001,-3.36,12.200001,eccentric,6,5.0,18400.0,403431.0,210418.0,72719.0,4805.0
2026-04-09 22:23:17.464226,380133,2327428053,2327430136,-1.134112,-0.081984,-0.109312,-23.68625,-7.23625,15.46125,16.512001,-3.36,12.200001,eccentric,6,5.0,18400.0,403431.0,210418.0,72719.0,4805.0
2026-04-09 22:23:17.470016,380134,2327437010,2327438842,-0.979904,-0.037088,-0.046848,-12.15375,-3.9725,18.8475,15.568001,-3.672,12.68,eccentric,6,5.0,18400.0,403431.0,210418.0,72719.0,4805.0
2026-04-09 22:23:17.501595,380135,2327445957,2327447535,-0.979904,-0.037088,-0.046848,-11.97,-2.8875,16.2575,15.568001,-3.672,12.68,eccentric,6,5.0,18400.0,403431.0,210418.0,72719.0,4805.0
2026-04-09 22:23:17.539539,380145,2327454884,2327456228,-1.110688,0.037088,-0.201056,-17.29,-0.8925,16.16125,17.008001,-3.8,11.960001,eccentric,6,5.0,18365.0,403431.0,210640.0,72772.0,4741.0
2026-04-09 22:23:17.547088,380146,2327469389,2327471129,-1.110688,0.037088,-0.201056,-20.06375,-0.175,20.0375,17.008001,-3.8,11.960001,eccentric,6,5.0,18365.0,403431.0,210640.0,72772.0,4741.0
2026-04-09 22:23:17.548112,380147,2327478389,2327479830,-1.1224,0.023424,-0.160064,-22.46125,-2.93125,18.9875,17.104,-4.128,11.912001,eccentric,6,5.0,18365.0,403431.0,210640.0,72772.0,4741.0
2026-04-09 22:23:17.549635,380148,2327487312,2327488571,-1.1224,0.023424,-0.160064,-18.06,-3.47375,17.12375,17.104,-4.128,11.912001,eccentric,6,5.0,18365.0,403431.0,210640.0,72772.0,4741.0
2026-04-09 22:23:17.554738,380149,2327501859,2327503545,-1.01504,-0.070272,-0.085888,-17.14125,-3.045,10.2725,17.344002,-4.528,12.392,eccentric,6,5.0,18365.0,403431.0,210640.0,72772.0,4741.0
2026-04-09 22:23:17.555655,380150,2327510908,2327512300,-1.01504,-0.070272,-0.085888,-20.9125,-3.08875,12.775,17.344002,-4.528,12.392,eccentric,6,5.0,18365.0,403431.0,210640.0,72772.0,4741.0
2026-04-09 22:23:17.557202,380151,2327519899,2327521050,-1.124352,0.015616,-0.208864,-17.84125,-4.12125,16.905,17.088001,-4.552,13.216001,eccentric,6,5.0,18365.0,403431.0,210640.0,72772.0,4741.0
2026-04-09 22:23:17.588316,380152,2327534448,2327535993,-1.095072,0.027328,-0.249856,-15.82875,-6.37875,16.59875,17.92,-4.784,13.120001,eccentric,6,5.0,18365.0,403431.0,210640.0,72772.0,4741.0
2026-04-09 22:23:17.592684,380153,2327543423,2327544704,-1.095072,0.027328,-0.249856,-12.425,-11.445,18.3925,17.92,-4.784,13.120001,eccentric,6,5.0,18365.0,403431.0,210640.0,72772.0,4741.0
2026-04-09 22:23:17.594352,380154,2327552371,2327553462,-1.095072,0.027328,-0.249856,-9.91375,-16.52,16.1175,17.92,-4.784,13.120001,eccentric,6,5.0,18365.0,403431.0,210640.0,72772.0,4741.0
2026-04-09 22:23:17.622657,380165,2327561372,2327562173,-1.001376,-0.062464,-0.12688,-9.065,-19.38125,15.28625,18.016,-4.4,11.224001,eccentric,6,5.0,18289.0,403431.0,212074.0,73889.0,5038.0
2026-04-09 22:23:17.624298,380166,2327575886,2327577122,-1.079456,0.080032,-0.062464,-4.4975,-19.90625,17.73625,17.904001,-4.176,13.240001,eccentric,6,5.0,18289.0,403431.0,212074.0,73889.0,5038.0
2026-04-09 22:23:17.625884,380167,2327584819,2327585867,-1.079456,0.080032,-0.062464,1.8725,-17.98125,18.10375,17.904001,-4.176,13.240001,eccentric,6,5.0,18289.0,403431.0,212074.0,73889.0,5038.0
2026-04-09 22:23:17.630038,380168,2327593733,2327594653,-1.059936,0.13664,-0.16592,7.77875,-15.6625,18.52375,17.92,-4.624,14.72,eccentric,6,5.0,18289.0,403431.0,212074.0,73889.0,5038.0
2026-04-09 22:23:17.658596,380169,2327608227,2327609583,-1.059936,0.13664,-0.16592,1.54875,-16.0825,14.3325,17.92,-4.624,14.72,eccentric,6,5.0,18289.0,403431.0,212074.0,73889.0,5038.0
2026-04-09 22:23:17.663256,380170,2327617140,2327618276,-1.046272,0.005856,-0.16592,-10.1325,-19.66125,13.20375,19.096,-5.048,13.128,eccentric,6,5.0,18289.0,403431.0,212074.0,73889.0,5038.0
2026-04-09 22:23:17.670189,380171,2327626043,2327626970,-1.046272,0.005856,-0.16592,-11.2,-22.68,13.51875,19.096,-5.048,13.128,eccentric,6,5.0,18289.0,403431.0,212074.0,73889.0,5038.0
2026-04-09 22:23:17.672567,380172,2327640613,2327642605,-1.08336,-0.003904,-0.083936,-5.38125,-24.36,10.84125,18.888,-5.112001,13.984,eccentric,6,5.0,18289.0,403431.0,212074.0,73889.0,5038.0
2026-04-09 22:23:17.721590,380173,2327649563,2327651322,-1.08336,-0.003904,-0.083936,6.2825,-23.82625,13.16,18.888,-5.112001,13.984,eccentric,6,5.0,18289.0,403431.0,212074.0,73889.0,5038.0
2026-04-09 22:23:17.745665,380183,2327659068,2327660109,-1.095072,0.154208,-0.081984,15.26875,-22.79375,15.82,19.448002,-4.984,13.736001,eccentric,6,5.0,18218.0,403431.0,212583.0,74204.0,5073.0
2026-04-09 22:23:17.747156,380184,2327667994,2327668795,-1.095072,0.154208,-0.081984,15.35625,-20.7025,15.21625,19.448002,-4.984,13.736001,eccentric,6,5.0,18218.0,403431.0,212583.0,74204.0,5073.0
2026-04-09 22:23:17.751409,380185,2327682470,2327683739,-0.993568,0.115168,-0.007808,10.54375,-19.53875,12.53,19.032001,-5.016,13.416,eccentric,6,5.0,18218.0,403431.0,212583.0,74204.0,5073.0
2026-04-09 22:23:17.753043,380186,2327691437,2327692487,-0.993568,0.115168,-0.007808,-1.0325,-18.55,9.31,19.032001,-5.016,13.416,eccentric,6,5.0,18218.0,403431.0,212583.0,74204.0,5073.0
2026-04-09 22:23:17.760210,380187,2327700392,2327701249,-1.087264,0.105408,-0.056608,-8.33875,-17.10625,10.05375,16.880001,-5.232,17.152,eccentric,6,5.0,18218.0,403431.0,212583.0,74204.0,5073.0
2026-04-09 22:23:17.761884,380188,2327714990,2327716240,-1.0248,0.122976,-0.095648,-5.83625,-16.397501,11.305,19.336,-4.648,15.136001,eccentric,6,5.0,18218.0,403431.0,212583.0,74204.0,5073.0
2026-04-09 22:23:17.764451,380189,2327723925,2327725000,-1.0248,0.122976,-0.095648,-2.03875,-16.6425,10.325,19.336,-4.648,15.136001,eccentric,6,5.0,18218.0,403431.0,212583.0,74204.0,5073.0
2026-04-09 22:23:17.766715,380190,2327732865,2327733785,-1.0248,0.122976,-0.095648,-0.14,-17.57,9.91375,19.336,-4.648,15.136001,eccentric,6,5.0,18218.0,403431.0,212583.0,74204.0,5073.0
2026-04-09 22:23:17.819576,380191,2327747359,2327748728,-1.03456,0.101504,-0.105408,0.60375,-19.3725,11.7775,20.416,-5.256,14.584001,eccentric,6,5.0,18218.0,403431.0,212583.0,74204.0,5073.0
2026-04-09 22:23:17.852145,380201,2327756257,2327757858,-1.059936,0.083936,-0.06832,0.245,-21.62125,11.82125,20.472,-5.688,15.016001,eccentric,6,5.0,18260.0,403431.0,212480.0,74282.0,5179.0
2026-04-09 22:23:17.856456,380202,2327765196,2327766626,-1.059936,0.083936,-0.06832,1.51375,-24.1325,11.13,20.472,-5.688,15.016001,eccentric,6,5.0,18260.0,403431.0,212480.0,74282.0,5179.0
2026-04-09 22:23:17.858875,380203,2327774214,2327775327,-1.139968,0.162016,-0.119072,9.5025,-25.8125,15.28625,20.472,-5.688,14.744,eccentric,6,5.0,18260.0,403431.0,212480.0,74282.0,5179.0
2026-04-09 22:23:17.865288,380204,2327788673,2327790243,-1.139968,0.162016,-0.119072,13.74625,-29.575,19.04,20.68,-4.816001,14.744,eccentric,6,5.0,18260.0,403431.0,212480.0,74282.0,5179.0
2026-04-09 22:23:17.867960,380205,2327797606,2327799007,-1.016992,0.08784,-0.046848,10.21125,-34.65,18.8125,20.36,-4.92,15.112,eccentric,6,5.0,18260.0,403431.0,212480.0,74282.0,5179.0
2026-04-09 22:23:17.868449,380206,2327806539,2327807777,-1.016992,0.08784,-0.046848,9.12625,-37.625,17.3075,20.36,-4.92,15.112,eccentric,6,5.0,18260.0,403431.0,212480.0,74282.0,5179.0
2026-04-09 22:23:17.875442,380207,2327821123,2327822783,-1.10288,0.179584,-0.017568,13.2475,-39.47125,18.8125,21.664001,-5.2,13.712001,eccentric,6,5.0,18260.0,403431.0,212480.0,74282.0,5179.0
2026-04-09 22:23:17.877275,380208,2327830059,2327831542,-1.10288,0.179584,-0.017568,19.145,-38.5875,21.76125,21.664001,-5.2,13.712001,eccentric,6,5.0,18260.0,403431.0,212480.0,74282.0,5179.0
2026-04-09 22:23:17.878255,380209,2327839058,2327840270,-1.163392,0.220576,-0.046848,26.1625,-35.2275,24.535,21.6,-5.056,17.0,eccentric,6,5.0,18260.0,403431.0,212480.0,74282.0,5179.0
2026-04-09 22:23:17.906987,380210,2327853572,2327855262,-1.163392,0.220576,-0.046848,21.46375,-34.43125,24.3425,21.6,-5.056,17.0,eccentric,6,5.0,18260.0,403431.0,212480.0,74282.0,5179.0
2026-04-09 22:23:17.938410,380221,2327862611,2327864080,-1.089216,0.140544,0.021472,10.85875,-34.93,23.4675,21.776001,-4.96,17.160002,eccentric,6,5.0,18142.0,403431.0,214103.0,75476.0,5478.0
2026-04-09 22:23:17.942682,380222,2327871544,2327872828,-1.089216,0.140544,0.021472,9.42375,-34.71125,24.15875,21.776001,-4.96,17.160002,eccentric,6,5.0,18142.0,403431.0,214103.0,75476.0,5478.0
2026-04-09 22:23:17.944331,380223,2327886027,2327887758,-1.143872,0.15616,0.02928,12.3025,-33.53,23.03875,22.704,-5.328,16.408,eccentric,6,5.0,18142.0,403431.0,214103.0,75476.0,5478.0
2026-04-09 22:23:17.947146,380224,2327895011,2327896504,-1.124352,0.238144,0.0488,13.51875,-30.65125,25.03375,22.272001,-5.976,16.824001,eccentric,6,5.0,18142.0,403431.0,214103.0,75476.0,5478.0
2026-04-09 22:23:17.952357,380225,2327904017,2327905266,-1.124352,0.238144,0.0488,17.61375,-25.68125,26.8275,22.272001,-5.976,16.824001,eccentric,6,5.0,18142.0,403431.0,214103.0,75476.0,5478.0
2026-04-09 22:23:17.958891,380226,2327913105,2327914001,-1.124352,0.238144,0.0488,12.10125,-22.8025,23.2225,22.272001,-5.976,16.824001,eccentric,6,5.0,18142.0,403431.0,214103.0,75476.0,5478.0
2026-04-09 22:23:17.961382,380227,2327927590,2327928901,-1.167296,0.242048,-0.027328,3.00125,-22.16375,26.11,22.032001,-5.536,17.464,eccentric,6,5.0,18142.0,403431.0,214103.0,75476.0,5478.0
2026-04-09 22:23:17.967589,380228,2327936521,2327937624,-1.19072,0.152256,0.0,-2.0125,-22.715,26.985,23.576,-5.856,17.36,eccentric,6,5.0,18142.0,403431.0,214103.0,75476.0,5478.0
2026-04-09 22:23:18.017015,380229,2327945486,2327946330,-1.19072,0.152256,0.0,-3.84125,-23.8525,26.18,23.576,-5.856,17.36,eccentric,6,5.0,18142.0,403431.0,214103.0,75476.0,5478.0
2026-04-09 22:23:18.078093,380239,2327960111,2327961338,-1.130208,0.191296,0.052704,1.67125,-23.73,28.28875,23.904001,-5.960001,17.76,eccentric,6,5.0,18054.0,403431.0,214995.0,76139.0,5642.0
2026-04-09 22:23:18.079877,380240,2327969090,2327970117,-1.130208,0.191296,0.052704,4.38375,-23.03,27.2475,23.904001,-5.960001,17.76,eccentric,6,5.0,18054.0,403431.0,214995.0,76139.0,5642.0
2026-04-09 22:23:18.083904,380241,2327978042,2327978823,-1.1224,0.216672,0.037088,3.9725,-20.95625,25.2875,23.784,-6.216,18.088001,eccentric,6,5.0,18054.0,403431.0,214995.0,76139.0,5642.0
2026-04-09 22:23:18.085665,380242,2327992533,2327993706,-1.1224,0.216672,0.037088,0.7,-19.08375,24.2025,23.784,-6.216,18.088001,eccentric,6,5.0,18054.0,403431.0,214995.0,76139.0,5642.0
2026-04-09 22:23:18.087210,380243,2328001454,2328002429,-1.163392,0.21472,0.0488,-2.7475,-18.4625,22.89875,23.240002,-5.832,20.504002,eccentric,6,5.0,18054.0,403431.0,214995.0,76139.0,5642.0
2026-04-09 22:23:18.095186,380244,2328010439,2328011144,-1.163392,0.21472,0.0488,-2.09125,-18.34875,22.91625,23.240002,-5.832,20.504002,eccentric,6,5.0,18054.0,403431.0,214995.0,76139.0,5642.0
2026-04-09 22:23:18.096982,380245,2328019783,2328021951,-1.091168,0.177632,-0.02928,-1.79375,-19.495,23.6425,24.392002,-5.976,18.392,eccentric,6,5.0,18054.0,403431.0,214995.0,76139.0,5642.0
2026-04-09 22:23:18.098411,380246,2328034313,2328034831,-1.091168,0.177632,-0.02928,-2.91375,-22.2775,23.37125,24.392002,-5.976,18.392,eccentric,6,5.0,18054.0,403431.0,214995.0,76139.0,5642.0
2026-04-09 22:23:18.102664,380247,2328043723,2328045631,-1.079456,0.15616,-0.00976,-0.25375,-23.52875,22.95125,24.272001,-5.960001,19.072,eccentric,6,5.0,18054.0,403431.0,214995.0,76139.0,5642.0
2026-04-09 22:23:18.104435,380248,2328052773,2328054397,-1.079456,0.15616,-0.00976,7.0875,-25.1125,21.79625,24.272001,-5.960001,19.072,eccentric,6,5.0,18054.0,403431.0,214995.0,76139.0,5642.0
2026-04-09 22:23:18.137693,380258,2328062309,2328063173,-1.0736,0.210816,0.085888,15.18125,-24.73625,20.44,24.736002,-6.88,19.552,eccentric,6,5.0,17928.0,403431.0,216555.0,77144.0,5840.0
2026-04-09 22:23:18.139337,380259,2328076842,2328078155,-1.079456,0.251808,0.074176,17.94625,-24.01,19.845,24.208002,-6.4,20.272001,eccentric,6,5.0,17928.0,403431.0,216555.0,77144.0,5840.0
2026-04-09 22:23:18.141488,380260,2328085788,2328086851,-1.079456,0.251808,0.074176,15.04125,-22.67125,20.64125,24.208002,-6.4,20.272001,eccentric,6,5.0,17928.0,403431.0,216555.0,77144.0,5840.0
2026-04-09 22:23:18.151515,380261,2328094809,2328095651,-1.079456,0.251808,0.074176,5.13625,-22.67125,18.47125,24.208002,-6.4,20.272001,eccentric,6,5.0,17928.0,403431.0,216555.0,77144.0,5840.0
2026-04-09 22:23:18.153140,380262,2328109328,2328110677,-1.089216,0.191296,0.05856,-5.87125,-23.19625,15.636251,25.488,-6.096,18.992,eccentric,6,5.0,17928.0,403431.0,216555.0,77144.0,5840.0
2026-04-09 22:23:18.154658,380263,2328118303,2328119426,-1.118496,0.148352,-0.025376,-9.35375,-23.56375,15.44375,24.928001,-6.728,21.192001,eccentric,6,5.0,17928.0,403431.0,216555.0,77144.0,5840.0
2026-04-09 22:23:18.157881,380264,2328127227,2328128139,-1.118496,0.148352,-0.025376,-5.71375,-25.47125,15.61,24.928001,-6.728,21.192001,eccentric,6,5.0,17928.0,403431.0,216555.0,77144.0,5840.0
2026-04-09 22:23:18.188210,380265,2328141740,2328143117,-1.184864,0.177632,0.040992,3.465,-26.53,14.6825,25.976002,-6.296001,21.152,eccentric,6,5.0,17928.0,403431.0,216555.0,77144.0,5840.0
2026-04-09 22:23:18.190565,380266,2328150652,2328151816,-1.184864,0.177632,0.040992,15.28625,-26.88875,12.90625,25.976002,-6.296001,21.152,eccentric,6,5.0,17928.0,403431.0,216555.0,77144.0,5840.0
2026-04-09 22:23:18.222178,380277,2328159581,2328160507,-1.163392,0.191296,0.0976,19.5475,-26.39875,15.1725,25.656002,-6.984,21.152,eccentric,6,5.0,17882.0,403431.0,217438.0,77607.0,5868.0
2026-04-09 22:23:18.226329,380278,2328169109,2328171296,-1.163392,0.191296,0.0976,16.205,-25.13,14.8575,25.656002,-6.984,21.152,eccentric,6,5.0,17882.0,403431.0,217438.0,77607.0,5868.0
2026-04-09 22:23:18.228049,380279,2328183700,2328184204,-1.145824,0.154208,0.093696,10.92875,-22.63625,11.33125,26.2,-6.448,22.160002,eccentric,6,5.0,17882.0,403431.0,217438.0,77607.0,5868.0
2026-04-09 22:23:18.229653,380280,2328193153,2328195029,-1.145824,0.154208,0.093696,8.14625,-20.23875,11.34875,26.2,-6.448,22.160002,eccentric,6,5.0,17882.0,403431.0,217438.0,77607.0,5868.0
2026-04-09 22:23:18.233742,380281,2328202105,2328203782,-1.19072,0.134688,0.109312,4.94375,-17.99875,12.5825,25.768002,-6.624001,23.032001,eccentric,6,5.0,17882.0,403431.0,217438.0,77607.0,5868.0
2026-04-09 22:23:18.262251,380282,2328211650,2328212550,-1.19072,0.134688,0.109312,4.1825,-14.72625,12.32875,25.768002,-6.624001,23.032001,eccentric,6,5.0,17882.0,403431.0,217438.0,77607.0,5868.0
2026-04-09 22:23:18.266793,380283,2328226149,2328227448,-1.165344,0.119072,0.091744,0.35875,-11.94375,12.705,27.168001,-7.032001,21.776001,eccentric,6,5.0,17882.0,403431.0,217438.0,77607.0,5868.0
2026-04-09 22:23:18.269085,380284,2328235067,2328236145,-1.165344,0.119072,0.091744,-1.00625,-9.3625,12.69625,27.168001,-7.032001,21.776001,eccentric,6,5.0,17882.0,403431.0,217438.0,77607.0,5868.0
2026-04-09 22:23:18.274961,380285,2328244015,2328244888,-1.169248,0.095648,0.062464,-0.83125,-8.1025,13.55375,26.816002,-7.136,24.976002,eccentric,6,5.0,17882.0,403431.0,217438.0,77607.0,5868.0
2026-04-09 22:23:18.316975,380286,2328258539,2328259786,-1.147776,0.099552,0.064416,-0.595,-7.53375,14.63,26.696001,-7.488,22.064001,eccentric,6,5.0,17882.0,403431.0,217438.0,77607.0,5868.0
2026-04-09 22:23:18.346379,380296,2328267489,2328268510,-1.147776,0.099552,0.064416,1.785,-7.0875,15.54875,26.696001,-7.488,22.064001,eccentric,6,5.0,17864.0,403431.0,218011.0,78055.0,6054.0
2026-04-09 22:23:18.348094,380297,2328276451,2328277222,-1.155584,0.128832,0.072224,6.615,-5.94125,16.38875,27.000002,-7.064,22.832,eccentric,6,5.0,17864.0,403431.0,218011.0,78055.0,6054.0
2026-04-09 22:23:18.350770,380298,2328285361,2328285941,-1.155584,0.128832,0.072224,9.63375,-5.04875,16.84375,27.000002,-7.064,22.832,eccentric,6,5.0,17864.0,403431.0,218011.0,78055.0,6054.0
2026-04-09 22:23:18.352345,380299,2328300236,2328300917,-1.116544,0.13664,0.095648,10.64875,-4.48,16.4325,26.504002,-6.976,24.128,eccentric,6,5.0,17864.0,403431.0,218011.0,78055.0,6054.0
2026-04-09 22:23:18.356374,380300,2328309656,2328311674,-1.116544,0.13664,0.095648,10.14125,-3.43875,14.30625,26.504002,-6.976,24.128,eccentric,6,5.0,17864.0,403431.0,218011.0,78055.0,6054.0
2026-04-09 22:23:18.357958,380301,2328318667,2328320441,-1.143872,0.103456,0.113216,9.2225,-2.0475,12.99375,26.376001,-7.432,24.328001,eccentric,6,5.0,17864.0,403431.0,218011.0,78055.0,6054.0
2026-04-09 22:23:18.388247,380302,2328333186,2328335403,-1.143872,0.103456,0.113216,9.835,0.06125,13.615,26.376001,-7.432,24.328001,eccentric,6,5.0,17864.0,403431.0,218011.0,78055.0,6054.0
2026-04-09 22:23:18.390545,380303,2328342226,2328344101,-1.104832,0.085888,0.099552,8.6275,2.345,14.07875,26.896002,-7.744,23.2,eccentric,6,5.0,17864.0,403431.0,218011.0,78055.0,6054.0
2026-04-09 22:23:18.395572,380304,2328351262,2328352784,-1.104832,0.085888,0.099552,6.125,3.3075,15.21625,26.896002,-7.744,23.2,eccentric,6,5.0,17864.0,403431.0,218011.0,78055.0,6054.0
2026-04-09 22:23:18.422236,380314,2328360227,2328361627,-1.108736,0.091744,0.066368,6.74625,5.08375,16.07375,27.336,-7.832,22.76,eccentric,6,5.0,17759.0,403431.0,219130.0,78896.0,6306.0
2026-04-09 22:23:18.427115,380315,2328374721,2328376534,-1.108736,0.091744,0.066368,7.455,6.0025,16.616251,27.336,-7.832,22.76,eccentric,6,5.0,17759.0,403431.0,219130.0,78896.0,6306.0
2026-04-09 22:23:18.428368,380316,2328383701,2328385258,-1.11264,0.10736,0.119072,7.84875,6.8075,17.28125,25.888,-7.728,23.192001,eccentric,6,5.0,17759.0,403431.0,219130.0,78896.0,6306.0
2026-04-09 22:23:18.431059,380317,2328392711,2328394013,-1.11264,0.10736,0.119072,10.08875,8.12875,17.73625,25.888,-7.728,23.192001,eccentric,6,5.0,17759.0,403431.0,219130.0,78896.0,6306.0
2026-04-09 22:23:18.460748,380318,2328407248,2328408955,-1.081408,0.10736,0.091744,10.01,9.292501,17.54375,26.800001,-7.976,23.456001,eccentric,6,5.0,17759.0,403431.0,219130.0,78896.0,6306.0
2026-04-09 22:23:18.463554,380319,2328416194,2328417690,-1.081408,0.10736,0.06832,8.61,9.730001,17.6925,26.800001,-7.976,23.456001,eccentric,6,5.0,17759.0,403431.0,219130.0,78896.0,6306.0
2026-04-09 22:23:18.467520,380320,2328425097,2328426401,-1.079456,0.128832,0.06832,10.2725,10.08875,16.49375,27.104002,-7.944,22.744001,eccentric,6,5.0,17759.0,403431.0,219130.0,78896.0,6306.0
2026-04-09 22:23:18.496143,380321,2328439599,2328441335,-1.087264,0.16592,0.11712,11.655,11.445,14.595,27.376001,-7.744,22.296001,eccentric,6,5.0,17759.0,403431.0,219130.0,78896.0,6306.0
2026-04-09 22:23:18.500630,380322,2328448541,2328450096,-1.087264,0.16592,0.11712,12.53,12.8975,13.69375,27.376001,-7.744,22.296001,eccentric,6,5.0,17759.0,403431.0,219130.0,78896.0,6306.0
2026-04-09 22:23:18.502052,380323,2328457463,2328458805,-1.065792,0.158112,0.111264,11.62875,14.245,11.92625,27.408,-8.08,21.208,eccentric,6,5.0,17759.0,403431.0,219130.0,78896.0,6306.0
2026-04-09 22:23:18.531530,380333,2328466551,2328467535,-1.065792,0.158112,0.111264,8.35625,14.8925,9.205,27.408,-8.08,21.208,eccentric,6,5.0,17657.0,403431.0,220002.0,79500.0,6475.0
2026-04-09 22:23:18.533160,380334,2328481121,2328482430,-1.0736,0.122976,0.05856,5.18,14.9975,6.55375,26.680002,-8.752001,23.328001,eccentric,6,5.0,17657.0,403431.0,220002.0,79500.0,6475.0
2026-04-09 22:23:18.534672,380335,2328490111,2328491214,-1.0736,0.122976,0.05856,5.04875,13.69375,4.43625,26.680002,-8.752001,23.328001,eccentric,6,5.0,17657.0,403431.0,220002.0,79500.0,6475.0
2026-04-09 22:23:18.537169,380336,2328499060,2328499914,-1.081408,0.162016,0.037088,7.49,12.9675,3.15,26.456001,-8.736,23.208,eccentric,6,5.0,17657.0,403431.0,220002.0,79500.0,6475.0
2026-04-09 22:23:18.568288,380337,2328513611,2328514931,-1.081408,0.162016,0.037088,9.135,12.17125,0.48125,26.456001,-8.736,23.208,eccentric,6,5.0,17657.0,403431.0,220002.0,79500.0,6475.0
2026-04-09 22:23:18.572690,380338,2328522549,2328523618,-1.056032,0.162016,0.089792,13.7025,11.50625,-5.7225,26.760002,-8.568001,21.944,eccentric,6,5.0,17657.0,403431.0,220002.0,79500.0,6475.0
2026-04-09 22:23:18.574348,380339,2328531465,2328532293,-1.056032,0.162016,0.089792,15.12,12.1975,-11.795,26.760002,-8.568001,21.944,eccentric,6,5.0,17657.0,403431.0,220002.0,79500.0,6475.0
2026-04-09 22:23:18.576703,380340,2328545944,2328547305,-1.06384,0.193248,0.080032,9.905,12.25,-12.01375,27.008001,-8.504001,21.784,eccentric,6,5.0,17657.0,403431.0,220002.0,79500.0,6475.0
2026-04-09 22:23:18.617083,380341,2328554862,2328556036,-1.06384,0.193248,0.080032,6.69375,11.83875,-15.3825,27.008001,-8.504001,21.784,eccentric,6,5.0,17657.0,403431.0,220002.0,79500.0,6475.0
2026-04-09 22:23:18.650556,380352,2328563843,2328565133,-1.097024,0.119072,0.101504,8.68875,12.67875,-21.210001,27.184002,-8.344001,21.552002,eccentric,6,5.0,17573.0,403431.0,221280.0,80375.0,6709.0
2026-04-09 22:23:18.652182,380353,2328578325,2328580121,-1.065792,0.163968,0.06832,11.095,12.425,-22.18125,27.504002,-8.224,19.912,eccentric,6,5.0,17573.0,403431.0,221280.0,80375.0,6709.0
2026-04-09 22:23:18.656322,380354,2328587223,2328588816,-1.065792,0.163968,0.06832,9.65125,12.9325,-21.3325,27.504002,-8.224,19.912,eccentric,6,5.0,17573.0,403431.0,221280.0,80375.0,6709.0
2026-04-09 22:23:18.658054,380355,2328596159,2328597503,-1.065792,0.163968,0.06832,8.6625,12.99375,-24.75375,27.504002,-8.224,19.912,eccentric,6,5.0,17573.0,403431.0,221280.0,80375.0,6709.0
2026-04-09 22:23:18.659667,380356,2328605219,2328606242,-1.095072,0.140544,0.05856,6.79,14.00875,-28.1225,27.112001,-8.288,18.968,eccentric,6,5.0,17573.0,403431.0,221280.0,80375.0,6709.0
2026-04-09 22:23:18.663982,380357,2328619860,2328621218,-1.126304,0.134688,0.07808,5.705,14.035,-28.42,26.096,-7.496,22.896002,eccentric,6,5.0,17573.0,403431.0,221280.0,80375.0,6709.0
2026-04-09 22:23:18.665510,380358,2328628976,2328629925,-1.126304,0.134688,0.07808,6.6675,14.11375,-29.42625,26.096,-7.496,22.896002,eccentric,6,5.0,17573.0,403431.0,221280.0,80375.0,6709.0
2026-04-09 22:23:18.668476,380359,2328637880,2328638697,-1.075552,0.144448,0.130784,6.6325,14.245,-31.5875,27.032001,-8.04,20.128,eccentric,6,5.0,17573.0,403431.0,221280.0,80375.0,6709.0
2026-04-09 22:23:18.702380,380360,2328652365,2328653587,-1.075552,0.144448,0.130784,4.41875,14.56,-33.39875,27.032001,-8.04,20.128,concentric,6,5.0,17573.0,403431.0,221280.0,80375.0,6709.0
2026-04-09 22:23:18.717800,380361,2328661293,2328662297,-1.091168,0.21472,0.119072,4.48,16.8175,-36.93375,26.480001,-7.336,20.68,concentric,6,5.0,17573.0,403431.0,221280.0,80375.0,6709.0
2026-04-09 22:23:18.741874,380371,2328670281,2328671023,-1.091168,0.21472,0.119072,2.47625,18.57625,-41.8775,26.480001,-7.336,20.68,concentric,6,5.0,17560.0,403431.0,221548.0,80582.0,6753.0
2026-04-09 22:23:18.743456,380372,2328679614,2328681825,-1.106784,0.197152,0.062464,-2.31875,18.99625,-46.27,27.000002,-6.984,22.720001,concentric,6,5.0,17560.0,403431.0,221548.0,80582.0,6753.0
2026-04-09 22:23:18.747724,380373,2328694067,2328694686,-1.106784,0.197152,0.062464,-7.8575,18.96125,-50.37375,27.000002,-6.984,22.720001,concentric,6,5.0,17560.0,403431.0,221548.0,80582.0,6753.0
2026-04-09 22:23:18.749377,380374,2328703377,2328705516,-1.120448,0.11712,0.031232,-11.52375,17.6225,-52.17625,24.896002,-6.168,21.032001,concentric,6,5.0,17560.0,403431.0,221548.0,80582.0,6753.0
2026-04-09 22:23:18.751276,380375,2328712513,2328714259,-1.120448,0.11712,0.031232,-9.275,15.7675,-53.1475,24.896002,-6.168,21.032001,concentric,6,5.0,17560.0,403431.0,221548.0,80582.0,6753.0
2026-04-09 22:23:18.782038,380376,2328727015,2328729185,-1.128256,0.105408,0.062464,-3.0625,15.365,-55.41375,25.28,-5.792,20.672,concentric,6,5.0,17560.0,403431.0,221548.0,80582.0,6753.0
2026-04-09 22:23:18.786370,380377,2328735909,2328737857,-1.128256,0.105408,0.062464,1.26,15.2425,-57.88125,25.28,-5.792,20.672,concentric,6,5.0,17560.0,403431.0,221548.0,80582.0,6753.0
2026-04-09 22:23:18.788102,380378,2328744838,2328746531,-1.173152,0.160064,0.072224,1.18125,15.05875,-59.325,26.160002,-5.232,17.84,concentric,6,5.0,17560.0,403431.0,221548.0,80582.0,6753.0
2026-04-09 22:23:18.789806,380379,2328759310,2328761493,-1.196576,0.122976,0.10736,0.86625,15.32125,-60.03375,25.984001,-5.664,17.776001,concentric,6,5.0,17560.0,403431.0,221548.0,80582.0,6753.0
2026-04-09 22:23:18.817414,380390,2328768418,2328770464,-1.196576,0.122976,0.10736,-1.61875,15.9425,-62.23,25.984001,-5.664,17.776001,concentric,6,5.0,17506.0,403431.0,222587.0,81311.0,6997.0
2026-04-09 22:23:18.819261,380391,2328777469,2328779172,-1.196576,0.122976,0.091744,-6.34375,16.93125,-62.09875,25.984001,-5.664,17.776001,concentric,6,5.0,17506.0,403431.0,222587.0,81311.0,6997.0
2026-04-09 22:23:18.822891,380392,2328786484,2328787955,-1.179008,0.080032,0.07808,-11.585,17.43,-60.1125,25.624,-4.752,19.432001,concentric,6,5.0,17506.0,403431.0,222587.0,81311.0,6997.0
2026-04-09 22:23:18.854799,380393,2328801083,2328802981,-1.208288,0.0488,0.027328,-15.9075,18.2175,-58.73875,25.048,-5.456,19.960001,concentric,6,5.0,17506.0,403431.0,222587.0,81311.0,6997.0
2026-04-09 22:23:18.856859,380394,2328809985,2328811705,-1.208288,0.0488,0.027328,-16.03,17.9025,-56.74375,25.048,-5.456,19.960001,concentric,6,5.0,17506.0,403431.0,222587.0,81311.0,6997.0
2026-04-09 22:23:18.860074,380395,2328819037,2328820429,-1.198528,0.0976,0.054656,-14.035,17.78875,-55.326252,25.192001,-4.384,18.664001,concentric,6,5.0,17506.0,403431.0,222587.0,81311.0,6997.0
2026-04-09 22:23:18.863695,380396,2328833559,2328835338,-1.198528,0.0976,0.054656,-10.7275,18.47125,-54.6875,25.192001,-4.384,18.664001,concentric,6,5.0,17506.0,403431.0,222587.0,81311.0,6997.0
2026-04-09 22:23:18.897517,380397,2328842510,2328844110,-1.173152,0.109312,0.101504,-6.58,19.8625,-53.71625,24.28,-4.256,19.392,concentric,6,5.0,17506.0,403431.0,222587.0,81311.0,6997.0
2026-04-09 22:23:18.899591,380398,2328851468,2328852825,-1.173152,0.109312,0.101504,-4.8125,20.64125,-52.325,24.28,-4.256,19.392,concentric,6,5.0,17506.0,403431.0,222587.0,81311.0,6997.0
2026-04-09 22:23:18.965959,380408,2328866533,2328867772,-1.15168,0.103456,0.035136,-6.46625,21.5075,-51.03875,24.752,-3.992,17.92,concentric,6,5.0,17599.0,403431.0,222098.0,80993.0,6880.0
2026-04-09 22:23:18.970189,380409,2328875449,2328876581,-1.15168,0.103456,0.035136,-10.35125,22.12875,-51.87,24.752,-3.992,17.92,concentric,6,5.0,17599.0,403431.0,222098.0,80993.0,6880.0
2026-04-09 22:23:18.971917,380410,2328884502,2328885322,-1.175104,0.113216,-0.015616,-9.7125,22.5575,-51.75625,23.000002,-3.536,18.496,concentric,6,5.0,17599.0,403431.0,222098.0,80993.0,6880.0
2026-04-09 22:23:18.973487,380411,2328893414,2328894039,-1.175104,0.113216,-0.015616,-7.14875,22.05875,-54.285,23.000002,-3.536,18.496,concentric,6,5.0,17599.0,403431.0,222098.0,80993.0,6880.0
2026-04-09 22:23:18.975885,380412,2328908211,2328908946,-1.186816,0.103456,0.035136,-4.27875,21.3325,-57.0325,24.056002,-3.504,17.392,concentric,6,5.0,17599.0,403431.0,222098.0,80993.0,6880.0
2026-04-09 22:23:18.980264,380413,2328917551,2328919699,-1.186816,0.103456,0.035136,-1.82,22.085001,-55.86875,24.056002,-3.504,17.392,concentric,6,5.0,17599.0,403431.0,222098.0,80993.0,6880.0
2026-04-09 22:23:18.981912,380414,2328926533,2328928403,-1.11264,0.109312,0.089792,-3.6225,22.82875,-56.74375,23.672,-3.728,17.104,concentric,6,5.0,17599.0,403431.0,222098.0,80993.0,6880.0
2026-04-09 22:23:18.983462,380415,2328935525,2328937150,-1.11264,0.109312,0.089792,-8.505,24.70125,-57.732502,23.672,-3.728,17.104,concentric,6,5.0,17599.0,403431.0,222098.0,80993.0,6880.0
2026-04-09 22:23:18.987551,380416,2328950138,2328952100,-1.100928,0.138592,0.025376,-12.0225,26.145,-57.995,23.816002,-3.216,16.84,concentric,6,5.0,17599.0,403431.0,222098.0,80993.0,6880.0
2026-04-09 22:23:18.992261,380417,2328959074,2328960811,-1.089216,0.138592,-0.015616,-15.75875,26.57375,-60.357502,23.352001,-2.84,16.04,concentric,6,5.0,17599.0,403431.0,222098.0,80993.0,6880.0
2026-04-09 22:23:19.017694,380427,2328968721,2328969697,-1.089216,0.138592,-0.015616,-15.25125,27.825,-63.0,23.352001,-2.84,16.04,concentric,6,5.0,17697.0,403431.0,220723.0,80056.0,6613.0
2026-04-09 22:23:19.020121,380428,2328983252,2328984766,-1.095072,0.111264,-0.00976,-13.7025,28.49,-65.0825,22.84,-2.416,16.272001,concentric,6,5.0,17697.0,403431.0,220723.0,80056.0,6613.0
2026-04-09 22:23:19.024244,380429,2328992202,2328993479,-1.095072,0.111264,-0.00976,-14.20125,27.5275,-66.92875,22.84,-2.416,16.272001,concentric,6,5.0,17697.0,403431.0,220723.0,80056.0,6613.0
2026-04-09 22:23:19.054506,380430,2329001130,2329002223,-1.098976,0.066368,-0.062464,-12.11,27.5975,-66.99875,21.624,-2.168,16.872002,concentric,6,5.0,17697.0,403431.0,220723.0,80056.0,6613.0
2026-04-09 22:23:19.056856,380431,2329010067,2329010911,-1.098976,0.066368,-0.062464,-11.7775,26.76625,-66.6225,21.624,-2.168,16.872002,concentric,6,5.0,17697.0,403431.0,220723.0,80056.0,6613.0
2026-04-09 22:23:19.061435,380432,2329024570,2329025879,-1.134112,-0.01952,-0.033184,-13.195,24.08875,-66.78,22.024,-1.712,15.760001,concentric,6,5.0,17697.0,403431.0,220723.0,80056.0,6613.0
2026-04-09 22:23:19.065204,380433,2329033496,2329034587,-1.134112,-0.01952,-0.033184,-10.675,23.28375,-64.39125,22.024,-1.712,15.760001,concentric,6,5.0,17697.0,403431.0,220723.0,80056.0,6613.0
2026-04-09 22:23:19.098393,380434,2329042434,2329043296,-1.098976,-0.003904,-0.013664,-6.76375,22.07625,-59.6925,21.84,-2.24,16.032001,concentric,6,5.0,17697.0,403431.0,220723.0,80056.0,6613.0
2026-04-09 22:23:19.102804,380435,2329056919,2329058175,-1.098976,-0.003904,-0.013664,-5.15375,21.7875,-57.60125,21.84,-2.24,16.032001,concentric,6,5.0,17697.0,403431.0,220723.0,80056.0,6613.0
2026-04-09 22:23:19.126897,380445,2329065818,2329066981,-1.10288,0.021472,-0.025376,-6.30875,22.33875,-55.1425,22.160002,-1.72,16.576,concentric,6,5.0,17690.0,403431.0,220537.0,80043.0,6658.0
2026-04-09 22:23:19.128528,380446,2329074798,2329075816,-1.10288,0.021472,-0.025376,-8.07625,22.4875,-51.66,22.160002,-1.72,16.576,concentric,6,5.0,17690.0,403431.0,220537.0,80043.0,6658.0
2026-04-09 22:23:19.132814,380447,2329089306,2329090762,-1.130208,-0.027328,-0.054656,-10.05375,22.8025,-49.49,21.464,-1.536,15.128,concentric,6,5.0,17690.0,403431.0,220537.0,80043.0,6658.0
2026-04-09 22:23:19.134309,380448,2329098234,2329099500,-1.130208,-0.027328,-0.054656,-12.4075,22.505,-46.62,21.464,-1.536,15.128,concentric,6,5.0,17690.0,403431.0,220537.0,80043.0,6658.0
2026-04-09 22:23:19.140048,380449,2329107183,2329108250,-1.124352,-0.0488,-0.046848,-11.33125,23.31875,-42.805,20.952002,-1.688,16.528,concentric,6,5.0,17690.0,403431.0,220537.0,80043.0,6658.0
2026-04-09 22:23:19.168677,380450,2329121704,2329123192,-1.114592,-0.042944,-0.042944,-7.76125,23.93125,-38.535,20.768002,-1.712,16.192001,concentric,6,5.0,17690.0,403431.0,220537.0,80043.0,6658.0
2026-04-09 22:23:19.173200,380451,2329130597,2329131888,-1.114592,-0.042944,-0.042944,-5.99375,24.9025,-35.9625,20.768002,-1.712,16.192001,concentric,6,5.0,17690.0,403431.0,220537.0,80043.0,6658.0
2026-04-09 22:23:19.174720,380452,2329139528,2329140610,-1.124352,-0.00976,-0.023424,-5.67875,26.22375,-33.25875,20.768002,-1.712,15.064001,concentric,6,5.0,17690.0,403431.0,220537.0,80043.0,6658.0
2026-04-09 22:23:19.179781,380453,2329148497,2329149318,-1.124352,-0.00976,-0.023424,-4.96125,28.4375,-31.57875,20.664001,-0.816,15.064001,concentric,6,5.0,17690.0,403431.0,220537.0,80043.0,6658.0
2026-04-09 22:23:19.235728,380454,2329163034,2329164197,-1.1224,-0.00976,-0.066368,-6.0025,30.31,-30.817501,19.544,-1.368,14.848001,concentric,6,5.0,17690.0,403431.0,220537.0,80043.0,6658.0
2026-04-09 22:23:19.265647,380465,2329172036,2329172922,-1.1224,-0.00976,-0.066368,-7.9275,31.36,-28.34125,19.544,-1.368,14.848001,concentric,6,5.0,17841.0,403431.0,219103.0,79132.0,6460.0
2026-04-09 22:23:19.268125,380466,2329180985,2329181670,-1.130208,-0.050752,-0.080032,-11.042501,32.52375,-26.15375,19.152,-1.264,16.072,concentric,6,5.0,17841.0,403431.0,219103.0,79132.0,6460.0
2026-04-09 22:23:19.269746,380467,2329195822,2329196559,-1.130208,-0.050752,-0.080032,-12.136251,32.585,-24.78875,19.152,-1.264,16.072,concentric,6,5.0,17841.0,403431.0,219103.0,79132.0,6460.0
2026-04-09 22:23:19.276450,380468,2329205289,2329207320,-1.163392,-0.046848,-0.113216,-11.33125,32.8825,-21.02625,19.576,-1.224,13.912001,concentric,6,5.0,17841.0,403431.0,219103.0,79132.0,6460.0
2026-04-09 22:23:19.278202,380469,2329214288,2329216018,-1.163392,-0.046848,-0.113216,-7.3675,32.8125,-16.9925,19.576,-1.224,13.912001,concentric,6,5.0,17841.0,403431.0,219103.0,79132.0,6460.0
2026-04-09 22:23:19.279844,380470,2329223286,2329224745,-1.097024,-0.089792,-0.0976,-2.42375,33.52125,-14.35,19.048,-1.912,13.64,concentric,6,5.0,17841.0,403431.0,219103.0,79132.0,6460.0
2026-04-09 22:23:19.282257,380471,2329237941,2329239671,-1.097024,-0.089792,-0.0976,-2.31,31.31625,-13.92125,19.048,-1.912,13.64,concentric,6,5.0,17841.0,403431.0,219103.0,79132.0,6460.0
2026-04-09 22:23:19.284763,380472,2329246996,2329248384,-1.13216,-0.042944,-0.10736,0.6125,30.1175,-10.9375,19.2,-1.256,13.360001,concentric,6,5.0,17841.0,403431.0,219103.0,79132.0,6460.0
2026-04-09 22:23:19.287475,380473,2329255920,2329257085,-1.13216,-0.042944,-0.10736,5.2675,28.97125,-7.2625,19.2,-1.256,13.360001,concentric,6,5.0,17841.0,403431.0,219103.0,79132.0,6460.0
2026-04-09 22:23:19.340877,380483,2329270623,2329272110,-1.067744,-0.027328,-0.119072,4.08625,27.16,-5.7225,18.816,-1.864,13.352,concentric,6,5.0,17756.0,403431.0,219822.0,79717.0,6643.0
2026-04-09 22:23:19.343398,380484,2329279558,2329280816,-1.067744,-0.027328,-0.173728,2.975,26.6,-4.40125,18.816,-1.864,13.352,concentric,6,5.0,17756.0,403431.0,219822.0,79717.0,6643.0
2026-04-09 22:23:19.345968,380485,2329288489,2329289577,-1.114592,-0.052704,-0.173728,3.7975,26.11875,-2.2225,18.968,-1.904,15.240001,concentric,6,5.0,17756.0,403431.0,219822.0,79717.0,6643.0
2026-04-09 22:23:19.348437,380486,2329297408,2329298266,-1.114592,-0.052704,-0.173728,4.24375,24.2025,0.41125,18.968,-1.904,15.240001,concentric,6,5.0,17756.0,403431.0,219822.0,79717.0,6643.0
2026-04-09 22:23:19.350911,380487,2329311951,2329313184,-1.046272,-0.10736,-0.158112,7.385,20.2125,2.59,18.064001,-1.0,14.920001,concentric,6,5.0,17756.0,403431.0,219822.0,79717.0,6643.0
2026-04-09 22:23:19.353415,380488,2329320875,2329321974,-1.050176,-0.01952,-0.119072,12.04875,16.49375,3.43,16.672,-2.008,13.872001,concentric,6,5.0,17756.0,403431.0,219822.0,79717.0,6643.0
2026-04-09 22:23:19.359688,380489,2329329845,2329330787,-1.050176,-0.01952,-0.119072,19.897501,15.5925,6.67625,16.672,-2.008,13.872001,concentric,6,5.0,17756.0,403431.0,219822.0,79717.0,6643.0
2026-04-09 22:23:19.389913,380490,2329344353,2329345768,-0.981856,0.0,-0.103456,26.11,16.31,9.5025,17.224,-1.584,12.84,concentric,6,5.0,17756.0,403431.0,219822.0,79717.0,6643.0
2026-04-09 22:23:19.394340,380491,2329353281,2329354478,-0.981856,0.0,-0.103456,23.6775,17.14125,8.225,17.224,-1.584,12.84,concentric,6,5.0,17756.0,403431.0,219822.0,79717.0,6643.0
2026-04-09 22:23:19.396087,380492,2329362192,2329363151,-1.01504,-0.046848,-0.163968,11.698751,17.08,6.335,18.184,-2.376,14.584001,concentric,6,5.0,17756.0,403431.0,219822.0,79717.0,6643.0
2026-04-09 22:23:19.420825,380502,2329376779,2329378148,-1.01504,-0.046848,-0.163968,5.43375,15.8725,8.636251,18.184,-2.376,14.584001,concentric,6,5.0,17794.0,403431.0,218469.0,78554.0,6245.0
2026-04-09 22:23:19.423383,380503,2329385738,2329386864,-1.011136,-0.02928,-0.160064,9.42375,16.09125,12.67,16.728,-2.192,13.880001,concentric,6,5.0,17794.0,403431.0,218469.0,78554.0,6245.0
2026-04-09 22:23:19.425898,380504,2329394663,2329395606,-1.011136,-0.02928,-0.160064,16.54625,17.325,10.92,16.728,-2.192,13.880001,concentric,6,5.0,17794.0,403431.0,218469.0,78554.0,6245.0
2026-04-09 22:23:19.456162,380505,2329409163,2329410538,-0.94672,-0.105408,-0.072224,12.635,19.20625,3.57,16.784,-2.784,13.696001,concentric,6,5.0,17794.0,403431.0,218469.0,78554.0,6245.0
2026-04-09 22:23:19.459713,380506,2329418088,2329419249,-0.94672,-0.105408,-0.072224,14.875,23.40625,5.43375,16.784,-2.784,13.696001,concentric,6,5.0,17794.0,403431.0,218469.0,78554.0,6245.0
2026-04-09 22:23:19.468569,380507,2329427000,2329427929,-0.94672,-0.015616,-0.05856,9.30125,26.04,4.66375,17.752,-2.632,12.336,concentric,6,5.0,17794.0,403431.0,218469.0,78554.0,6245.0
2026-04-09 22:23:19.471366,380508,2329435898,2329436629,-0.94672,-0.015616,-0.05856,0.7,27.195,2.6775,17.752,-2.632,12.336,concentric,6,5.0,17794.0,403431.0,218469.0,78554.0,6245.0
2026-04-09 22:23:19.534473,380509,2329450814,2329451536,-1.09312,0.12688,-0.327936,-2.52875,25.3925,6.7725,17.584002,-2.304,12.52,concentric,6,5.0,17794.0,403431.0,218469.0,78554.0,6245.0
2026-04-09 22:23:19.539004,380510,2329460124,2329462308,-1.09312,0.12688,-0.265472,-5.50375,20.6325,5.6175,17.584002,-2.304,12.52,concentric,6,5.0,17794.0,403431.0,218469.0,78554.0,6245.0
2026-04-09 22:23:19.565695,380521,2329469592,2329471012,-0.938912,-0.1952,-0.261568,-7.2975,14.30625,-3.5525,17.720001,-2.6,11.200001,concentric,6,5.0,17904.0,403431.0,216886.0,77657.0,6100.0
2026-04-09 22:23:19.567223,380522,2329478584,2329479684,-0.938912,-0.1952,-0.261568,-2.14375,10.7625,-6.5625,17.720001,-2.6,11.200001,concentric,6,5.0,17904.0,403431.0,216886.0,77657.0,6100.0
2026-04-09 22:23:19.571487,380523,2329493037,2329494591,-0.981856,-0.089792,-0.121024,14.81375,9.14375,-0.48125,17.024,-3.296,12.232,concentric,6,5.0,17904.0,403431.0,216886.0,77657.0,6100.0
2026-04-09 22:23:19.573189,380524,2329502020,2329503285,-0.962336,0.044896,-0.206912,27.8775,7.98,4.2875,16.544,-2.728,12.264001,concentric,6,5.0,17904.0,403431.0,216886.0,77657.0,6100.0
2026-04-09 22:23:19.574767,380525,2329510990,2329512058,-0.962336,0.044896,-0.206912,27.8075,3.7625,3.45625,16.544,-2.728,12.264001,concentric,6,5.0,17904.0,403431.0,216886.0,77657.0,6100.0
2026-04-09 22:23:19.579014,380526,2329525498,2329526963,-0.954528,-0.095648,-0.08784,15.74125,-1.14625,-1.84625,16.096,-2.704,13.392,concentric,6,5.0,17904.0,403431.0,216886.0,77657.0,6100.0
2026-04-09 22:23:19.580678,380527,2329534494,2329535750,-0.954528,-0.095648,-0.08784,10.7275,-0.9975,-6.8425,16.096,-2.704,13.392,concentric,6,5.0,17904.0,403431.0,216886.0,77657.0,6100.0
2026-04-09 22:23:19.582199,380528,2329543423,2329544514,-0.989664,-0.027328,-0.054656,18.10375,3.00125,-8.25125,16.536001,-2.56,13.008,concentric,6,5.0,17904.0,403431.0,216886.0,77657.0,6100.0
2026-04-09 22:23:19.615337,380529,2329557883,2329559413,-0.989664,-0.027328,-0.054656,19.31125,7.3325,-8.2775,16.536001,-2.56,13.008,concentric,6,5.0,17904.0,403431.0,216886.0,77657.0,6100.0
2026-04-09 22:23:19.639413,380539,2329566825,2329568583,-0.940864,-0.105408,-0.210816,7.60375,6.8075,-9.56375,16.896,-2.872,12.120001,concentric,6,5.0,18203.0,403431.0,214235.0,75521.0,5440.0
2026-04-09 22:23:19.640893,380540,2329575743,2329577315,-0.940864,-0.105408,-0.210816,-1.84625,0.595,-11.87375,16.896,-2.872,12.120001,concentric,6,5.0,18203.0,403431.0,214235.0,75521.0,5440.0
2026-04-09 22:23:19.645413,380541,2329590193,2329592364,-1.097024,-0.08784,-0.261568,-3.255,-3.63125,-12.7575,17.008001,-2.688,12.016001,concentric,6,5.0,18203.0,403431.0,214235.0,75521.0,5440.0
2026-04-09 22:23:19.649441,380542,2329599160,2329601067,-1.097024,-0.08784,-0.261568,3.33375,-5.9325,-8.085,17.008001,-2.688,12.016001,concentric,6,5.0,18203.0,403431.0,214235.0,75521.0,5440.0
2026-04-09 22:23:19.650971,380543,2329608225,2329609844,-1.00528,-0.13664,-0.154208,12.8975,-8.9425,-8.21625,16.640001,-2.512,10.68,concentric,6,5.0,18203.0,403431.0,214235.0,75521.0,5440.0
2026-04-09 22:23:19.655012,380544,2329617167,2329618614,-1.00528,-0.13664,-0.154208,12.29375,-8.61,-17.80625,16.640001,-2.512,10.68,concentric,6,5.0,18203.0,403431.0,214235.0,75521.0,5440.0
2026-04-09 22:23:19.683667,380545,2329631731,2329633580,-0.913536,-0.267424,0.040992,11.19125,-6.86875,-22.75,16.824001,-2.816,12.768001,concentric,6,5.0,18203.0,403431.0,214235.0,75521.0,5440.0
2026-04-09 22:23:19.688180,380546,2329640681,2329642278,-0.913536,-0.267424,0.040992,13.58,-0.91875,-22.46125,16.824001,-2.816,12.768001,concentric,6,5.0,18203.0,403431.0,214235.0,75521.0,5440.0
2026-04-09 22:23:19.689697,380547,2329649682,2329650975,-1.147776,0.128832,-0.134688,20.405,7.2275,-19.7575,16.864,-2.6,12.264001,concentric,6,5.0,18203.0,403431.0,214235.0,75521.0,5440.0
2026-04-09 22:23:19.697810,380548,2329664206,2329665942,-1.020896,-0.11712,-0.339648,18.1125,10.57875,-19.94125,14.888001,-2.8,13.112,concentric,6,5.0,18203.0,403431.0,214235.0,75521.0,5440.0
2026-04-09 22:23:19.722754,380558,2329673271,2329674718,-1.020896,-0.11712,-0.339648,0.65625,4.83875,-28.20125,14.888001,-2.8,13.112,concentric,6,5.0,18296.0,403431.0,212930.0,74447.0,5139.0
2026-04-09 22:23:19.724258,380559,2329682209,2329683489,-0.970144,-0.423584,-0.054656,-21.21875,0.79625,-35.35,16.800001,-2.672,13.360001,concentric,6,5.0,18296.0,403431.0,212930.0,74447.0,5139.0
2026-04-09 22:23:19.730180,380560,2329696691,2329698463,-0.970144,-0.423584,-0.054656,-15.26,2.31,-33.6875,16.800001,-2.672,13.360001,concentric,6,5.0,18296.0,403431.0,212930.0,74447.0,5139.0
2026-04-09 22:23:19.758540,380561,2329705622,2329707152,-1.087264,0.013664,-0.23424,7.74375,9.73875,-29.1025,16.416,-2.304,12.160001,concentric,6,5.0,18296.0,403431.0,212930.0,74447.0,5139.0
2026-04-09 22:23:19.763246,380562,2329714586,2329715860,-1.087264,0.013664,-0.23424,26.215,12.46875,-25.48,16.416,-2.304,12.160001,concentric,6,5.0,18296.0,403431.0,212930.0,74447.0,5139.0
2026-04-09 22:23:19.764737,380563,2329723499,2329724594,-1.059936,-0.142496,-0.245952,19.62625,8.89,-29.54,16.688002,-1.792,12.112,concentric,6,5.0,18296.0,403431.0,212930.0,74447.0,5139.0
2026-04-09 22:23:19.770140,380564,2329737985,2329739497,-1.059936,-0.142496,-0.245952,4.725,1.46125,-34.22125,16.688002,-1.792,12.112,concentric,6,5.0,18296.0,403431.0,212930.0,74447.0,5139.0
2026-04-09 22:23:19.780215,380565,2329746944,2329748201,-0.954528,-0.308416,-0.021472,-0.245,0.09625,-31.68375,16.08,-1.744,12.960001,concentric,6,5.0,18296.0,403431.0,212930.0,74447.0,5139.0
2026-04-09 22:23:19.834608,380566,2329755894,2329756915,-0.954528,-0.308416,-0.021472,6.81625,1.46125,-32.45375,16.08,-1.744,12.960001,concentric,6,5.0,18296.0,403431.0,212930.0,74447.0,5139.0
2026-04-09 22:23:19.862167,380577,2329770535,2329771920,-1.104832,0.035136,-0.150304,18.68125,8.51375,-31.75375,16.288,-1.84,12.112,concentric,6,5.0,18424.0,403431.0,211789.0,73389.0,4795.0
2026-04-09 22:23:19.864747,380578,2329779513,2329780678,-1.104832,0.035136,-0.150304,23.30125,12.85375,-25.9525,16.288,-1.84,12.112,concentric,6,5.0,18424.0,403431.0,211789.0,73389.0,4795.0
2026-04-09 22:23:19.868233,380579,2329788430,2329789377,-0.968192,-0.152256,-0.304512,9.065,7.65625,-29.9775,16.328001,-1.616,13.280001,concentric,6,5.0,18424.0,403431.0,211789.0,73389.0,4795.0
2026-04-09 22:23:19.869642,380580,2329802947,2329804254,-0.931104,-0.30256,0.011712,-7.77,2.345,-37.135,15.880001,-1.424,9.856001,concentric,6,5.0,18424.0,403431.0,211789.0,73389.0,4795.0
2026-04-09 22:23:19.873607,380581,2329811879,2329812952,-0.931104,-0.30256,0.011712,-4.12125,3.73625,-34.335,15.880001,-1.424,9.856001,concentric,6,5.0,18424.0,403431.0,211789.0,73389.0,4795.0
2026-04-09 22:23:19.876821,380582,2329820887,2329821672,-0.931104,-0.30256,0.011712,10.63125,9.695,-31.33375,15.880001,-1.424,9.856001,concentric,6,5.0,18424.0,403431.0,211789.0,73389.0,4795.0
2026-04-09 22:23:19.877725,380583,2329830331,2329832493,-1.009184,0.06832,-0.103456,23.59,18.41875,-26.18875,15.032001,-1.016,10.184,concentric,6,5.0,18424.0,403431.0,211789.0,73389.0,4795.0
2026-04-09 22:23:19.879756,380584,2329844878,2329845353,-0.96624,-0.132736,-0.318176,16.6075,20.16875,-28.42,15.928,-0.8,12.216001,concentric,6,5.0,18424.0,403431.0,211789.0,73389.0,4795.0
2026-04-09 22:23:19.884742,380585,2329854242,2329856213,-0.96624,-0.132736,-0.318176,-4.2525,14.42875,-30.7125,15.928,-0.8,12.216001,concentric,6,5.0,18424.0,403431.0,211789.0,73389.0,4795.0
2026-04-09 22:23:19.915022,380586,2329863217,2329864928,-0.894016,-0.368928,-0.189344,-16.3625,8.96875,-26.27625,15.800001,-1.08,10.208,concentric,6,5.0,18424.0,403431.0,211789.0,73389.0,4795.0
