pc_time,serial_num,sensor_ts,host_ts,ax,ay,az,gx,gy,gz,mx,my,mz,phase,rpe,weight_kg,ppg_a,ppg_b,ppg_c,ppg_d,ppg_e
2026-04-07 17:38:38.404454,106049,588766140,588766856,0.788608,-0.503616,-0.244,7.5775,-0.42875,-3.45625,-14.504001,-4.88,12.624001,eccentric,3,3.0,33140.0,403431.0,362499.0,403431.0,365863.0
2026-04-07 17:38:38.406177,106050,588775438,588777622,0.788608,-0.503616,-0.244,9.24,-0.21875,-3.64875,-14.504001,-4.88,12.624001,eccentric,3,3.0,33140.0,403431.0,362499.0,403431.0,365863.0
2026-04-07 17:38:38.407720,106051,588784362,588786311,0.792512,-0.493856,-0.232288,10.115,0.04375,-3.465,-14.952001,-4.664,13.512001,eccentric,3,3.0,33140.0,403431.0,362499.0,403431.0,365863.0
2026-04-07 17:38:38.411978,106052,588798866,588799184,0.792512,-0.493856,-0.232288,11.3925,-0.1225,-3.52625,-14.952001,-4.664,13.512001,eccentric,3,3.0,33140.0,403431.0,362499.0,403431.0,365863.0
2026-04-07 17:38:38.413716,106053,588808070,588809971,0.79056,-0.484096,-0.230336,11.165,-0.74375,-3.99,-15.376,-5.024,14.352,eccentric,3,3.0,33140.0,403431.0,362499.0,403431.0,365863.0
2026-04-07 17:38:38.415244,106054,588817034,588818777,0.79056,-0.484096,-0.230336,9.45875,-0.60375,-3.33375,-15.376,-5.024,14.352,eccentric,3,3.0,33140.0,403431.0,362499.0,403431.0,365863.0
2026-04-07 17:38:38.450747,106065,588825942,588827443,0.784704,-0.493856,-0.240096,7.18375,-1.0325,-2.975,-15.016001,-4.936,14.176001,eccentric,3,3.0,33142.0,403431.0,362468.0,403431.0,365738.0
2026-04-07 17:38:38.452429,106066,588841068,588842412,0.784704,-0.493856,-0.240096,6.60625,-1.51375,-2.7825,-15.016001,-4.936,14.176001,eccentric,3,3.0,33142.0,403431.0,362468.0,403431.0,365738.0
2026-04-07 17:38:38.454002,106067,588850136,588851196,0.788608,-0.474336,-0.247904,6.1425,-1.67125,-2.7475,-14.504001,-4.688,14.048,eccentric,3,3.0,33142.0,403431.0,362468.0,403431.0,365738.0
2026-04-07 17:38:38.458175,106068,588859081,588859896,0.788608,-0.474336,-0.247904,5.06625,-1.67125,-2.485,-14.504001,-4.688,14.048,eccentric,3,3.0,33142.0,403431.0,362468.0,403431.0,365738.0
2026-04-07 17:38:38.460792,106069,588873623,588874815,0.784704,-0.505568,-0.245952,4.8475,-1.8375,-2.8,-14.672001,-4.888,13.840001,eccentric,3,3.0,33142.0,403431.0,362468.0,403431.0,365738.0
2026-04-07 17:38:38.489104,106070,588882609,588883556,0.784704,-0.505568,-0.245952,5.78375,-1.365,-2.80875,-14.672001,-4.888,13.840001,eccentric,3,3.0,33142.0,403431.0,362468.0,403431.0,365738.0
2026-04-07 17:38:38.493613,106071,588891514,588892259,0.796416,-0.499712,-0.251808,6.895,-0.88375,-3.31625,-14.320001,-4.4,12.496,eccentric,3,3.0,33142.0,403431.0,362468.0,403431.0,365738.0
2026-04-07 17:38:38.495164,106072,588900859,588903009,0.796416,-0.499712,-0.251808,7.5075,-0.77,-3.12375,-14.320001,-4.4,12.496,eccentric,3,3.0,33142.0,403431.0,362468.0,403431.0,365738.0
2026-04-07 17:38:38.501886,106073,588915406,588915852,0.815936,-0.491904,-0.244,6.97375,-0.56,-3.96375,-14.128,-4.6,12.528001,eccentric,3,3.0,33142.0,403431.0,362468.0,403431.0,365738.0
2026-04-07 17:38:38.530398,106074,588924735,588926599,0.823744,-0.49776,-0.267424,5.29375,-0.07875,-3.64875,-14.128,-4.84,14.856001,eccentric,3,3.0,33142.0,403431.0,362468.0,403431.0,365738.0
2026-04-07 17:38:38.557395,106084,588933684,588935360,0.823744,-0.49776,-0.267424,3.78,-0.14875,-4.5325,-14.032001,-4.84,14.856001,eccentric,3,3.0,33127.0,403431.0,362589.0,403431.0,365799.0
2026-04-07 17:38:38.558942,106085,588948175,588950257,0.827648,-0.51728,-0.275232,1.77625,-0.21,-4.445,-13.664001,-4.744,12.6,eccentric,3,3.0,33127.0,403431.0,362589.0,403431.0,365799.0
2026-04-07 17:38:38.563225,106086,588957138,588958950,0.827648,-0.51728,-0.275232,-0.2975,-0.525,-4.1125,-13.664001,-4.744,12.6,eccentric,3,3.0,33127.0,403431.0,362589.0,403431.0,365799.0
2026-04-07 17:38:38.565006,106087,588966111,588967701,0.81984,-0.509472,-0.267424,-0.91875,-0.6825,-3.5,-14.72,-4.664,11.8,eccentric,3,3.0,33127.0,403431.0,362589.0,403431.0,365799.0
2026-04-07 17:38:38.566552,106088,588975130,588976443,0.81984,-0.509472,-0.267424,-0.56,-1.575,-2.51125,-14.72,-4.664,11.8,eccentric,3,3.0,33127.0,403431.0,362589.0,403431.0,365799.0
2026-04-07 17:38:38.597555,106089,588989694,588991355,0.823744,-0.501664,-0.261568,-0.58625,-2.52,-2.14375,-13.56,-4.384,12.264001,eccentric,3,3.0,33127.0,403431.0,362589.0,403431.0,365799.0
2026-04-07 17:38:38.599851,106090,588998595,589000111,0.823744,-0.501664,-0.261568,-1.88125,-3.08,-1.54875,-13.56,-4.384,12.264001,eccentric,3,3.0,33127.0,403431.0,362589.0,403431.0,365799.0
2026-04-07 17:38:38.604387,106091,589007552,589008848,0.827648,-0.51728,-0.271328,-1.91625,-3.33375,-1.2075,-13.056001,-4.08,12.256001,eccentric,3,3.0,33127.0,403431.0,362589.0,403431.0,365799.0
2026-04-07 17:38:38.608446,106092,589022042,589023901,0.827648,-0.51728,-0.271328,-1.8375,-3.66625,-1.12,-13.056001,-4.08,12.256001,eccentric,3,3.0,33127.0,403431.0,362589.0,403431.0,365799.0
2026-04-07 17:38:38.698721,106102,589031479,589032683,0.817888,-0.519232,-0.27328,-1.67125,-3.605,-0.805,-14.240001,-4.56,13.856001,eccentric,3,3.0,33044.0,403431.0,362251.0,403431.0,365319.0
2026-04-07 17:38:38.700165,106103,589040477,589041433,0.817888,-0.519232,-0.27328,-1.79375,-4.235,-0.1925,-14.240001,-4.56,13.856001,eccentric,3,3.0,33044.0,403431.0,362251.0,403431.0,365319.0
2026-04-07 17:38:38.704729,106104,589055072,589056436,0.806176,-0.52704,-0.261568,-1.6975,-3.61375,-0.30625,-14.248001,-5.216,13.752001,eccentric,3,3.0,33044.0,403431.0,362251.0,403431.0,365319.0
2026-04-07 17:38:38.706293,106105,589063996,589065132,0.806176,-0.52704,-0.261568,-0.98875,-3.115,0.175,-14.248001,-5.216,13.752001,eccentric,3,3.0,33044.0,403431.0,362251.0,403431.0,365319.0
2026-04-07 17:38:38.708670,106106,589072943,589073818,0.786656,-0.511424,-0.26352,-0.21,-2.6775,1.16375,-13.816001,-4.496,15.880001,eccentric,3,3.0,33044.0,403431.0,362251.0,403431.0,365319.0
2026-04-07 17:38:38.710146,106107,589081866,589082511,0.786656,-0.511424,-0.26352,-1.1725,-2.2225,1.18125,-13.816001,-4.496,15.880001,eccentric,3,3.0,33044.0,403431.0,362251.0,403431.0,365319.0
2026-04-07 17:38:38.714526,106108,589096680,589097440,0.786656,-0.482144,-0.279136,-2.485,-2.45875,0.84875,-13.416,-4.64,12.472,eccentric,3,3.0,33044.0,403431.0,362251.0,403431.0,365319.0
2026-04-07 17:38:38.716229,106109,589106154,589108200,0.80032,-0.515328,-0.277184,-5.075,-3.1675,0.18375,-14.184001,-4.032,11.928,eccentric,3,3.0,33044.0,403431.0,362251.0,403431.0,365319.0
2026-04-07 17:38:38.717715,106110,589115163,589116920,0.80032,-0.515328,-0.277184,-6.0375,-3.8675,-0.20125,-14.184001,-4.032,11.928,eccentric,3,3.0,33044.0,403431.0,362251.0,403431.0,365319.0
2026-04-07 17:38:38.721972,106111,589124121,589125619,0.80032,-0.515328,-0.277184,-5.5475,-4.22625,-0.65625,-14.184001,-4.032,11.928,eccentric,3,3.0,33044.0,403431.0,362251.0,403431.0,365319.0
2026-04-07 17:38:38.747710,106122,589138736,589140583,0.80032,-0.488,-0.294752,-4.50625,-4.27,-0.93625,-13.184001,-4.6,13.512001,eccentric,3,3.0,32949.0,403210.0,361203.0,403431.0,364205.0
2026-04-07 17:38:38.752106,106123,589147801,589149375,0.76128,-0.488,-0.261568,-4.62875,-4.2525,-1.12875,-12.976001,-4.712,13.624001,eccentric,3,3.0,32949.0,403210.0,361203.0,403431.0,364205.0
2026-04-07 17:38:38.754427,106124,589156745,589158072,0.76128,-0.488,-0.261568,-5.5825,-4.6025,-1.32125,-12.976001,-4.712,13.624001,eccentric,3,3.0,32949.0,403210.0,361203.0,403431.0,364205.0
2026-04-07 17:38:38.759346,106125,589171247,589172968,0.778848,-0.491904,-0.269376,-5.2675,-5.005,-2.10875,-13.200001,-4.496,12.296001,eccentric,3,3.0,32949.0,403210.0,361203.0,403431.0,364205.0
2026-04-07 17:38:38.787943,106126,589180249,589181706,0.778848,-0.491904,-0.269376,-4.69875,-5.15375,-2.52,-13.200001,-4.496,12.296001,eccentric,3,3.0,32949.0,403210.0,361203.0,403431.0,364205.0
2026-04-07 17:38:38.792355,106127,589189190,589190408,0.759328,-0.482144,-0.296704,-4.27,-5.31125,-2.19625,-12.304001,-4.808,11.8,eccentric,3,3.0,32949.0,403210.0,361203.0,403431.0,364205.0
2026-04-07 17:38:38.793957,106128,589203695,589205284,0.759328,-0.482144,-0.296704,-3.7275,-5.0925,-2.6425,-12.304001,-4.808,11.8,eccentric,3,3.0,32949.0,403210.0,361203.0,403431.0,364205.0
2026-04-07 17:38:38.800570,106129,589212644,589213983,0.763232,-0.488,-0.279136,-3.66625,-5.0225,-3.33375,-12.544001,-4.28,13.832001,eccentric,3,3.0,32949.0,403210.0,361203.0,403431.0,364205.0
2026-04-07 17:38:38.829390,106130,589221603,589222703,0.763232,-0.488,-0.279136,-3.07125,-4.64625,-3.8675,-12.544001,-4.28,13.832001,eccentric,3,3.0,32949.0,403210.0,361203.0,403431.0,364205.0
2026-04-07 17:38:38.855257,106140,589236164,589237726,0.757376,-0.486048,-0.284992,-2.14375,-3.36875,-4.90875,-12.320001,-4.696,11.984,eccentric,3,3.0,32777.0,402621.0,360267.0,403431.0,363031.0
2026-04-07 17:38:38.857606,106141,589245111,589246499,0.757376,-0.486048,-0.269376,-1.75875,-2.12625,-5.9325,-12.320001,-4.696,11.984,eccentric,3,3.0,32777.0,402621.0,360267.0,403431.0,363031.0
2026-04-07 17:38:38.861508,106142,589254109,589255206,0.747616,-0.474336,-0.27328,-1.09375,-1.365,-7.30625,-11.920001,-4.72,12.224001,eccentric,3,3.0,32777.0,402621.0,360267.0,403431.0,363031.0
2026-04-07 17:38:38.862720,106143,589263030,589263897,0.747616,-0.474336,-0.27328,-0.77875,-0.11375,-8.23375,-11.920001,-4.72,12.224001,eccentric,3,3.0,32777.0,402621.0,360267.0,403431.0,363031.0
2026-04-07 17:38:38.866700,106144,589277567,589278880,0.735904,-0.482144,-0.290848,-0.91,0.6125,-9.10875,-11.928,-4.896,11.856001,eccentric,3,3.0,32777.0,402621.0,360267.0,403431.0,363031.0
2026-04-07 17:38:38.873118,106145,589286529,589287595,0.743712,-0.480192,-0.288896,-1.4875,1.96,-9.9575,-11.904,-4.992,9.456,eccentric,3,3.0,32777.0,402621.0,360267.0,403431.0,363031.0
2026-04-07 17:38:38.901655,106146,589295460,589296272,0.743712,-0.480192,-0.288896,-1.68,2.70375,-10.36875,-11.904,-4.992,9.456,eccentric,3,3.0,32777.0,402621.0,360267.0,403431.0,363031.0
2026-04-07 17:38:38.906129,106147,589309937,589311233,0.75152,-0.447008,-0.296704,-2.02125,2.61625,-11.9525,-11.896001,-5.056,12.032001,eccentric,3,3.0,32777.0,402621.0,360267.0,403431.0,363031.0
2026-04-07 17:38:38.908450,106148,589318855,589319937,0.75152,-0.447008,-0.296704,-0.525,3.4475,-12.6875,-11.896001,-5.056,12.032001,eccentric,3,3.0,32777.0,402621.0,360267.0,403431.0,363031.0
2026-04-07 17:38:38.914768,106149,589327767,589328661,0.743712,-0.46848,-0.28304,0.49875,2.77375,-13.90375,-11.496,-5.24,12.072001,eccentric,3,3.0,32777.0,402621.0,360267.0,403431.0,363031.0
2026-04-07 17:38:38.976068,106159,589342337,589343626,0.743712,-0.46848,-0.28304,0.35875,3.14125,-15.8025,-11.496,-5.24,12.072001,eccentric,3,3.0,32628.0,402218.0,359642.0,403431.0,362246.0
2026-04-07 17:38:38.980666,106160,589351278,589352371,0.739808,-0.44896,-0.288896,1.33,3.29875,-16.135,-11.448001,-5.776001,12.128,eccentric,3,3.0,32628.0,402218.0,359642.0,403431.0,362246.0
2026-04-07 17:38:38.982418,106161,589360278,589361082,0.739808,-0.44896,-0.288896,1.575,3.255,-17.053751,-11.448001,-5.776001,12.128,eccentric,3,3.0,32628.0,402218.0,359642.0,403431.0,362246.0
2026-04-07 17:38:38.983976,106162,589369186,589369789,0.718336,-0.454816,-0.275232,0.735,3.955,-16.66875,-11.56,-5.824,12.376,eccentric,3,3.0,32628.0,402218.0,359642.0,403431.0,362246.0
2026-04-07 17:38:38.988169,106163,589383984,589384694,0.718336,-0.454816,-0.275232,-0.3325,4.85625,-16.87,-11.56,-5.824,12.376,eccentric,3,3.0,32628.0,402218.0,359642.0,403431.0,362246.0
2026-04-07 17:38:38.990029,106164,589393298,589395439,0.733952,-0.464576,-0.286944,0.04375,5.2675,-16.835001,-11.504001,-6.312,12.312,eccentric,3,3.0,32628.0,402218.0,359642.0,403431.0,362246.0
2026-04-07 17:38:38.991537,106165,589402221,589404194,0.733952,-0.464576,-0.286944,1.25125,5.53875,-18.13875,-11.504001,-6.312,12.312,eccentric,3,3.0,32628.0,402218.0,359642.0,403431.0,362246.0
2026-04-07 17:38:39.022565,106166,589416802,589419112,0.753472,-0.423584,-0.296704,2.70375,6.30875,-19.34625,-11.752001,-6.512,13.928,eccentric,3,3.0,32628.0,402218.0,359642.0,403431.0,362246.0
2026-04-07 17:38:39.025547,106167,589425715,589427797,0.753472,-0.423584,-0.281088,3.9025,7.21,-19.90625,-11.752001,-6.512,13.928,eccentric,3,3.0,32628.0,402218.0,359642.0,403431.0,362246.0
2026-04-07 17:38:39.051948,106177,589434752,589436592,0.74176,-0.42944,-0.281088,2.59,7.4025,-21.9625,-10.64,-5.512,13.400001,eccentric,3,3.0,32518.0,401888.0,359160.0,403431.0,361527.0
2026-04-07 17:38:39.053670,106178,589443684,589445282,0.74176,-0.42944,-0.281088,2.555,8.09375,-21.98,-10.64,-5.512,13.400001,eccentric,3,3.0,32518.0,401888.0,359160.0,403431.0,361527.0
2026-04-07 17:38:39.055223,106179,589458209,589460222,0.743712,-0.470432,-0.279136,0.875,8.74125,-22.295,-11.232,-6.536,14.064001,eccentric,3,3.0,32518.0,401888.0,359160.0,403431.0,361527.0
2026-04-07 17:38:39.059283,106180,589467136,589468983,0.753472,-0.421632,-0.269376,-0.67375,10.59625,-22.88125,-11.736001,-7.072001,15.856001,eccentric,3,3.0,32518.0,401888.0,359160.0,403431.0,361527.0
2026-04-07 17:38:39.063074,106181,589476088,589477684,0.753472,-0.421632,-0.269376,0.0175,11.55,-22.79375,-11.736001,-7.072001,15.856001,eccentric,3,3.0,32518.0,401888.0,359160.0,403431.0,361527.0
2026-04-07 17:38:39.091615,106182,589490567,589492579,0.747616,-0.406016,-0.294752,1.18125,11.515,-23.87,-11.296001,-7.36,13.256001,eccentric,3,3.0,32518.0,401888.0,359160.0,403431.0,361527.0
2026-04-07 17:38:39.095282,106183,589499477,589501308,0.747616,-0.406016,-0.294752,0.88375,12.3375,-24.17625,-11.296001,-7.36,13.256001,eccentric,3,3.0,32518.0,401888.0,359160.0,403431.0,361527.0
2026-04-07 17:38:39.099312,106184,589508398,589509988,0.747616,-0.425536,-0.255712,-0.21,12.94125,-25.13875,-10.688001,-6.84,12.864,eccentric,3,3.0,32518.0,401888.0,359160.0,403431.0,361527.0
2026-04-07 17:38:39.127837,106185,589522895,589524919,0.747616,-0.425536,-0.255712,-0.55125,13.5625,-26.5825,-10.688001,-6.84,12.864,eccentric,3,3.0,32518.0,401888.0,359160.0,403431.0,361527.0
2026-04-07 17:38:39.156522,106196,589532229,589533828,0.763232,-0.42944,-0.27328,0.34125,13.6325,-26.705,-11.152,-7.288001,13.216001,eccentric,3,3.0,32366.0,401384.0,358385.0,403431.0,360498.0
2026-04-07 17:38:39.160693,106197,589541233,589542584,0.763232,-0.42944,-0.27328,-1.51375,15.28625,-27.50125,-11.152,-7.288001,13.216001,eccentric,3,3.0,32366.0,401384.0,358385.0,403431.0,360498.0
2026-04-07 17:38:39.162428,106198,589555712,589557489,0.767136,-0.431392,-0.255712,-2.84375,17.36875,-27.2475,-10.608001,-7.2,13.184001,eccentric,3,3.0,32366.0,401384.0,358385.0,403431.0,360498.0
2026-04-07 17:38:39.163962,106199,589564699,589566182,0.767136,-0.431392,-0.255712,-3.9375,18.97,-28.02625,-10.608001,-7.2,13.184001,eccentric,3,3.0,32366.0,401384.0,358385.0,403431.0,360498.0
2026-04-07 17:38:39.168208,106200,589573725,589574905,0.763232,-0.398208,-0.251808,-3.17625,21.25375,-28.13125,-10.584001,-7.664001,14.152,eccentric,3,3.0,32366.0,401384.0,358385.0,403431.0,360498.0
2026-04-07 17:38:39.170744,106201,589582668,589583618,0.763232,-0.398208,-0.251808,-2.8,21.81375,-28.77,-10.584001,-7.664001,14.152,eccentric,3,3.0,32366.0,401384.0,358385.0,403431.0,360498.0
2026-04-07 17:38:39.203843,106202,589597222,589598508,0.774944,-0.384544,-0.261568,-3.08875,21.81375,-29.42625,-10.976001,-7.784,13.904,eccentric,3,3.0,32366.0,401384.0,358385.0,403431.0,360498.0
2026-04-07 17:38:39.206069,106203,589606119,589607205,0.774944,-0.384544,-0.261568,-2.205,22.51375,-30.02125,-10.976001,-7.784,13.904,eccentric,3,3.0,32366.0,401384.0,358385.0,403431.0,360498.0
2026-04-07 17:38:39.210679,106204,589615029,589615915,0.79056,-0.37088,-0.255712,-2.7825,23.24875,-31.053751,-10.736,-8.152,13.480001,eccentric,3,3.0,32366.0,401384.0,358385.0,403431.0,360498.0
2026-04-07 17:38:39.217096,106205,589629546,589630832,0.772992,-0.365024,-0.245952,-3.465,23.75625,-32.64625,-11.080001,-8.320001,14.240001,eccentric,3,3.0,32366.0,401384.0,358385.0,403431.0,360498.0
2026-04-07 17:38:39.278201,106215,589638563,589639577,0.772992,-0.365024,-0.245952,-4.62,24.70125,-32.7075,-11.080001,-8.320001,14.240001,eccentric,3,3.0,32120.0,400612.0,357206.0,403431.0,359003.0
2026-04-07 17:38:39.279904,106216,589647605,589648315,0.77104,-0.353312,-0.216672,-6.58,26.0575,-32.66375,-11.488001,-8.864,14.128,eccentric,3,3.0,32120.0,400612.0,357206.0,403431.0,359003.0
2026-04-07 17:38:39.281509,106217,589656918,589659064,0.77104,-0.353312,-0.216672,-8.40875,26.50375,-32.9175,-11.488001,-8.864,14.128,eccentric,3,3.0,32120.0,400612.0,357206.0,403431.0,359003.0
2026-04-07 17:38:39.285683,106218,589671419,589671946,0.774944,-0.345504,-0.22448,-7.44625,26.50375,-32.41875,-11.136001,-9.240001,14.56,eccentric,3,3.0,32120.0,400612.0,357206.0,403431.0,359003.0
2026-04-07 17:38:39.287413,106219,589680814,589682704,0.774944,-0.345504,-0.22448,-8.25125,26.52125,-33.6175,-11.136001,-9.240001,14.56,eccentric,3,3.0,32120.0,400612.0,357206.0,403431.0,359003.0
2026-04-07 17:38:39.289889,106220,589689831,589691392,0.7808,-0.32208,-0.232288,-7.27125,26.11875,-34.982502,-10.872001,-9.144,14.880001,eccentric,3,3.0,32120.0,400612.0,357206.0,403431.0,359003.0
2026-04-07 17:38:39.291455,106221,589704395,589706313,0.7808,-0.32208,-0.232288,-6.1775,26.04875,-36.2775,-10.872001,-9.144,14.880001,eccentric,3,3.0,32120.0,400612.0,357206.0,403431.0,359003.0
2026-04-07 17:38:39.322591,106222,589713375,589715095,0.774944,-0.300608,-0.236192,-5.43375,27.0025,-36.65375,-10.648001,-10.048,14.936001,eccentric,3,3.0,32120.0,400612.0,357206.0,403431.0,359003.0
2026-04-07 17:38:39.324813,106223,589722316,589723790,0.774944,-0.300608,-0.236192,-7.69125,26.76625,-36.46125,-10.648001,-10.048,14.936001,eccentric,3,3.0,32120.0,400612.0,357206.0,403431.0,359003.0
2026-04-07 17:38:39.351940,106233,589731245,589732526,0.753472,-0.296704,-0.236192,-8.2075,27.41375,-37.02125,-10.792001,-10.184,15.360001,eccentric,3,3.0,31821.0,398370.0,355315.0,403431.0,356798.0
2026-04-07 17:38:39.353765,106234,589745774,589747475,0.753472,-0.296704,-0.236192,-7.13125,27.88625,-35.93625,-10.792001,-10.184,15.360001,eccentric,3,3.0,31821.0,398370.0,355315.0,403431.0,356798.0
2026-04-07 17:38:39.355245,106235,589754768,589756215,0.755424,-0.279136,-0.189344,-7.21,27.04625,-35.34125,-11.432,-10.512,16.960001,eccentric,3,3.0,31821.0,398370.0,355315.0,403431.0,356798.0
2026-04-07 17:38:39.359274,106236,589763718,589764929,0.755424,-0.279136,-0.189344,-7.63,27.0375,-34.88625,-11.432,-10.512,16.960001,eccentric,3,3.0,31821.0,398370.0,355315.0,403431.0,356798.0
2026-04-07 17:38:39.390199,106237,589778309,589779825,0.76128,-0.267424,-0.222528,-7.91875,26.7575,-35.455,-11.400001,-10.992001,17.184,eccentric,3,3.0,31821.0,398370.0,355315.0,403431.0,356798.0
2026-04-07 17:38:39.392499,106238,589787270,589788556,0.76128,-0.267424,-0.23424,-8.40875,26.075,-36.72375,-11.400001,-10.992001,17.184,eccentric,3,3.0,31821.0,398370.0,355315.0,403431.0,356798.0
2026-04-07 17:38:39.397054,106239,589796196,589797274,0.757376,-0.242048,-0.23424,-5.5475,24.675,-36.8375,-11.168,-11.240001,15.384001,eccentric,3,3.0,31821.0,398370.0,355315.0,403431.0,356798.0
2026-04-07 17:38:39.399418,106240,589810753,589812154,0.79056,-0.267424,-0.210816,-5.06625,23.56375,-37.19625,-11.256001,-11.152,15.984001,eccentric,3,3.0,31821.0,398370.0,355315.0,403431.0,356798.0
2026-04-07 17:38:39.427844,106241,589819714,589820907,0.79056,-0.267424,-0.210816,-5.74875,24.045,-38.263752,-11.256001,-11.152,15.984001,eccentric,3,3.0,31821.0,398370.0,355315.0,403431.0,356798.0
2026-04-07 17:38:39.432481,106242,589828632,589829592,0.784704,-0.238144,-0.181536,-5.1275,25.0425,-38.7275,-11.160001,-11.544001,17.568,eccentric,3,3.0,31821.0,398370.0,355315.0,403431.0,356798.0
2026-04-07 17:38:39.467744,106253,589843237,589844609,0.784704,-0.238144,-0.181536,-3.8675,25.725,-39.43625,-11.160001,-11.544001,17.568,eccentric,3,3.0,31448.0,395237.0,352387.0,403431.0,353615.0
2026-04-07 17:38:39.472077,106254,589852155,589853317,0.782752,-0.242048,-0.220576,-3.3775,25.75125,-40.34625,-10.368,-11.656,16.312,eccentric,3,3.0,31448.0,395237.0,352387.0,403431.0,353615.0
2026-04-07 17:38:39.473706,106255,589861275,589862072,0.782752,-0.242048,-0.220576,-4.34875,25.47125,-39.83875,-10.368,-11.656,16.312,eccentric,3,3.0,31448.0,395237.0,352387.0,403431.0,353615.0
2026-04-07 17:38:39.475318,106256,589870806,589872869,0.782752,-0.249856,-0.167872,-8.3825,25.17375,-39.69,-10.912001,-12.472,17.84,eccentric,3,3.0,31448.0,395237.0,352387.0,403431.0,353615.0
2026-04-07 17:38:39.483272,106257,589885345,589885733,0.782752,-0.249856,-0.167872,-8.8375,25.12125,-38.7975,-10.912001,-12.472,17.84,eccentric,3,3.0,31448.0,395237.0,352387.0,403431.0,353615.0
2026-04-07 17:38:39.484766,106258,589894675,589896570,0.808128,-0.228384,-0.216672,-5.06625,25.3575,-37.9575,-10.72,-12.992001,16.880001,eccentric,3,3.0,31448.0,395237.0,352387.0,403431.0,353615.0
2026-04-07 17:38:39.490588,106259,589903686,589905325,0.808128,-0.228384,-0.216672,-4.71625,25.6025,-39.26125,-10.72,-12.992001,16.880001,eccentric,3,3.0,31448.0,395237.0,352387.0,403431.0,353615.0
2026-04-07 17:38:39.519172,106260,589912639,589914041,0.774944,-0.167872,-0.191296,-4.375,26.71375,-39.26125,-10.568001,-13.944,18.704,eccentric,3,3.0,31448.0,395237.0,352387.0,403431.0,353615.0
2026-04-07 17:38:39.523683,106261,589927193,589928935,0.774944,-0.167872,-0.191296,-3.00125,27.18625,-37.5725,-10.568001,-13.944,18.704,eccentric,3,3.0,31448.0,395237.0,352387.0,403431.0,353615.0
2026-04-07 17:38:39.584059,106271,589936663,589937891,0.806176,-0.210816,-0.179584,-6.79,25.83875,-37.2225,-11.160001,-14.112,17.368,eccentric,3,3.0,31022.0,392054.0,349692.0,403431.0,350769.0
2026-04-07 17:38:39.585406,106272,589945610,589946756,0.806176,-0.210816,-0.179584,-8.7325,24.9725,-36.6975,-11.160001,-14.112,17.368,eccentric,3,3.0,31022.0,392054.0,349692.0,403431.0,350769.0
2026-04-07 17:38:39.589439,106273,589960316,589961707,0.79056,-0.177632,-0.169824,-6.99125,24.78,-36.505,-11.016001,-13.912001,17.776001,eccentric,3,3.0,31022.0,392054.0,349692.0,403431.0,350769.0
2026-04-07 17:38:39.591218,106274,589969256,589970431,0.794464,-0.189344,-0.183488,-5.62625,23.51125,-35.81375,-10.952001,-14.624001,17.432001,eccentric,3,3.0,31022.0,392054.0,349692.0,403431.0,350769.0
2026-04-07 17:38:39.592758,106275,589978185,589979103,0.794464,-0.189344,-0.183488,-6.685,22.63625,-35.18375,-10.952001,-14.624001,17.432001,eccentric,3,3.0,31022.0,392054.0,349692.0,403431.0,350769.0
2026-04-07 17:38:39.596933,106276,589987083,589987860,0.794464,-0.189344,-0.183488,-5.34625,21.6825,-33.71375,-10.952001,-14.624001,17.432001,eccentric,3,3.0,31022.0,392054.0,349692.0,403431.0,350769.0
2026-04-07 17:38:39.598731,106277,590002079,590002792,0.845216,-0.179584,-0.122976,-4.9,21.56,-34.326252,-10.584001,-14.584001,15.976001,eccentric,3,3.0,31022.0,392054.0,349692.0,403431.0,350769.0
2026-04-07 17:38:39.600214,106278,590011413,590013576,0.876448,-0.142496,-0.101504,-2.66,22.54875,-35.2625,-10.656,-14.976001,17.864,eccentric,3,3.0,31022.0,392054.0,349692.0,403431.0,350769.0
2026-04-07 17:38:39.606418,106279,590020424,590022286,0.876448,-0.142496,-0.101504,-1.95125,24.28125,-37.24,-10.656,-14.976001,17.864,eccentric,3,3.0,31022.0,392054.0,349692.0,403431.0,350769.0
2026-04-07 17:38:39.661972,106289,590035041,590037200,0.8296,-0.173728,-0.138592,-3.8325,25.655,-37.68625,-11.448001,-15.768001,19.528002,eccentric,3,3.0,30891.0,390971.0,348755.0,403431.0,349915.0
2026-04-07 17:38:39.664835,106290,590044161,590046055,0.8296,-0.173728,-0.138592,-6.99125,25.69875,-34.8075,-11.448001,-15.768001,19.528002,eccentric,3,3.0,30891.0,390971.0,348755.0,403431.0,349915.0
2026-04-07 17:38:39.665349,106291,590053122,590054754,0.843264,-0.216672,-0.158112,-12.62625,24.64875,-32.38375,-10.72,-15.984001,18.36,eccentric,3,3.0,30891.0,390971.0,348755.0,403431.0,349915.0
2026-04-07 17:38:39.669527,106292,590062072,590063464,0.843264,-0.216672,-0.158112,-11.1825,23.79125,-29.2425,-10.72,-15.984001,18.36,eccentric,3,3.0,30891.0,390971.0,348755.0,403431.0,349915.0
2026-04-07 17:38:39.671966,106293,590076612,590078390,0.83936,-0.085888,-0.095648,-6.30875,24.98125,-30.28375,-10.608001,-15.952001,20.024,eccentric,3,3.0,30891.0,390971.0,348755.0,403431.0,349915.0
2026-04-07 17:38:39.672775,106294,590085561,590087096,0.83936,-0.085888,-0.095648,-4.27,26.5825,-32.305,-10.608001,-15.952001,20.024,eccentric,3,3.0,30891.0,390971.0,348755.0,403431.0,349915.0
2026-04-07 17:38:39.680669,106295,590094583,590095836,0.81008,-0.119072,-0.060512,-6.755,28.0,-34.2475,-10.624001,-16.560001,20.488,eccentric,3,3.0,30891.0,390971.0,348755.0,403431.0,349915.0
2026-04-07 17:38:39.709542,106296,590109127,590110802,0.749568,-0.208864,-0.132736,-11.17375,28.525,-36.23375,-10.624001,-16.848001,17.656,eccentric,3,3.0,30891.0,390971.0,348755.0,403431.0,349915.0
2026-04-07 17:38:39.713968,106297,590118161,590119508,0.749568,-0.208864,-0.132736,-10.61375,26.7925,-35.02625,-10.328,-16.848001,17.656,eccentric,3,3.0,30891.0,390971.0,348755.0,403431.0,349915.0
2026-04-07 17:38:39.715957,106298,590127065,590128180,0.749568,-0.208864,-0.132736,-9.28375,23.09125,-33.285,-10.328,-16.848001,17.656,eccentric,3,3.0,30891.0,390971.0,348755.0,403431.0,349915.0
2026-04-07 17:38:39.742667,106309,590141684,590143199,0.733952,-0.230336,-0.173728,-4.235,18.1125,-30.93125,-10.168,-16.464,19.008001,eccentric,3,3.0,30076.0,385064.0,344093.0,402016.0,345498.0
2026-04-07 17:38:39.746984,106310,590150651,590151935,0.710528,-0.11712,-0.119072,0.69125,13.2475,-28.70875,-10.632001,-16.512001,19.184,eccentric,3,3.0,30076.0,385064.0,344093.0,402016.0,345498.0
2026-04-07 17:38:39.748660,106311,590159564,590160658,0.710528,-0.11712,-0.119072,5.4075,9.45,-27.265,-10.632001,-16.512001,19.184,eccentric,3,3.0,30076.0,385064.0,344093.0,402016.0,345498.0
2026-04-07 17:38:39.756798,106312,590168489,590169404,0.710528,-0.11712,-0.119072,10.96375,7.4725,-24.96375,-10.632001,-16.512001,19.184,eccentric,3,3.0,30076.0,385064.0,344093.0,402016.0,345498.0
2026-04-07 17:38:39.785354,106313,590183002,590184374,0.726144,-0.132736,-0.101504,10.22875,6.78125,-24.4125,-10.784,-17.144001,21.504002,eccentric,3,3.0,30076.0,385064.0,344093.0,402016.0,345498.0
2026-04-07 17:38:39.794646,106314,590191936,590193064,0.726144,-0.212768,-0.132736,9.14375,5.85375,-23.205,-10.128,-17.704,18.896002,eccentric,3,3.0,30076.0,385064.0,344093.0,402016.0,345498.0
2026-04-07 17:38:39.796918,106315,590200854,590201767,0.726144,-0.212768,-0.132736,9.3625,3.85,-19.99375,-10.128,-17.704,18.896002,eccentric,3,3.0,30076.0,385064.0,344093.0,402016.0,345498.0
2026-04-07 17:38:39.803094,106316,590215328,590216745,0.763232,-0.181536,-0.12688,6.86875,1.89875,-16.205,-10.016001,-16.880001,18.984001,eccentric,3,3.0,30076.0,385064.0,344093.0,402016.0,345498.0
2026-04-07 17:38:39.831644,106317,590224255,590225472,0.763232,-0.181536,-0.12688,6.895,0.58625,-11.83875,-10.016001,-16.880001,18.984001,eccentric,3,3.0,30076.0,385064.0,344093.0,402016.0,345498.0
2026-04-07 17:38:39.836015,106318,590233134,590234205,0.813984,-0.089792,-0.066368,5.99375,0.30625,-9.70375,-9.52,-17.496,20.560001,eccentric,3,3.0,30076.0,385064.0,344093.0,402016.0,345498.0
2026-04-07 17:38:39.896176,106328,590247661,590249149,0.813984,-0.089792,-0.066368,4.92625,2.70375,-11.27875,-9.52,-17.496,20.560001,eccentric,3,3.0,30298.0,386196.0,344975.0,402682.0,346706.0
2026-04-07 17:38:39.897779,106329,590256570,590257835,0.83936,-0.140544,-0.091744,4.01625,5.3375,-12.25875,-9.88,-17.736,20.656,eccentric,3,3.0,30298.0,386196.0,344975.0,402682.0,346706.0
2026-04-07 17:38:39.901972,106330,590265481,590266566,0.83936,-0.140544,-0.091744,2.45,6.43125,-13.86875,-9.88,-17.736,20.656,eccentric,3,3.0,30298.0,386196.0,344975.0,402682.0,346706.0
2026-04-07 17:38:39.905729,106331,590279957,590281499,0.854976,-0.17568,-0.122976,2.09125,6.65875,-14.7,-9.352,-17.456001,19.144001,eccentric,3,3.0,30298.0,386196.0,344975.0,402682.0,346706.0
2026-04-07 17:38:39.905766,106332,590288892,590290216,0.854976,-0.17568,-0.122976,5.57375,6.23875,-13.2475,-9.352,-17.456001,19.144001,eccentric,3,3.0,30298.0,386196.0,344975.0,402682.0,346706.0
2026-04-07 17:38:39.909438,106333,590297823,590298941,0.870592,-0.115168,-0.08784,6.37,5.83625,-12.45125,-9.160001,-16.560001,19.152,eccentric,3,3.0,30298.0,386196.0,344975.0,402682.0,346706.0
2026-04-07 17:38:39.911461,106334,590306763,590307631,0.870592,-0.115168,-0.08784,5.50375,5.7225,-12.0925,-9.160001,-16.560001,19.152,eccentric,3,3.0,30298.0,386196.0,344975.0,402682.0,346706.0
2026-04-07 17:38:39.946282,106335,590321250,590322557,0.837408,-0.140544,-0.11712,5.0925,5.32875,-11.0075,-10.84,-18.328001,20.536001,eccentric,3,3.0,30298.0,386196.0,344975.0,402682.0,346706.0
2026-04-07 17:38:39.950892,106336,590330192,590331301,0.813984,-0.134688,-0.12688,4.97,4.2875,-10.42125,-10.712001,-17.552,20.968,eccentric,3,3.0,30298.0,386196.0,344975.0,402682.0,346706.0
2026-04-07 17:38:39.977352,106346,590339377,590340110,0.813984,-0.134688,-0.12688,7.1575,2.45875,-10.3775,-10.712001,-17.552,20.968,eccentric,3,3.0,30221.0,385724.0,344563.0,402387.0,346219.0
2026-04-07 17:38:39.978849,106347,590354305,590355056,0.825696,-0.081984,-0.066368,9.86125,1.1025,-10.01875,-9.968,-17.512001,18.880001,eccentric,3,3.0,30221.0,385724.0,344563.0,402387.0,346219.0
2026-04-07 17:38:39.983553,106348,590363669,590365815,0.825696,-0.081984,-0.066368,10.01875,0.30625,-11.0075,-9.968,-17.512001,18.880001,eccentric,3,3.0,30221.0,385724.0,344563.0,402387.0,346219.0
2026-04-07 17:38:39.984898,106349,590372607,590374519,0.835456,-0.152256,-0.076128,8.25125,-0.0525,-11.235,-10.200001,-17.576,19.064001,eccentric,3,3.0,30221.0,385724.0,344563.0,402387.0,346219.0
2026-04-07 17:38:39.986493,106350,590381599,590383264,0.835456,-0.152256,-0.076128,5.41625,-0.875,-10.84125,-10.200001,-17.576,19.064001,eccentric,3,3.0,30221.0,385724.0,344563.0,402387.0,346219.0
2026-04-07 17:38:39.990665,106351,590396202,590398240,0.837408,-0.138592,-0.0976,4.97,-1.93375,-9.6775,-9.712001,-17.104,19.744001,eccentric,3,3.0,30221.0,385724.0,344563.0,402387.0,346219.0
2026-04-07 17:38:39.992195,106352,590405133,590406947,0.837408,-0.138592,-0.0976,6.545,-2.00375,-8.5575,-9.712001,-17.104,19.744001,eccentric,3,3.0,30221.0,385724.0,344563.0,402387.0,346219.0
2026-04-07 17:38:40.022663,106353,590414121,590415655,0.856928,-0.121024,-0.11712,6.86,-2.37125,-7.0875,-10.048,-17.856,20.2,eccentric,3,3.0,30221.0,385724.0,344563.0,402387.0,346219.0
2026-04-07 17:38:40.024814,106354,590428610,590430606,0.856928,-0.121024,-0.11712,5.075,-2.7125,-6.8075,-10.048,-17.856,20.2,eccentric,3,3.0,30221.0,385724.0,344563.0,402387.0,346219.0
2026-04-07 17:38:40.060180,106365,590438129,590439338,0.843264,-0.148352,-0.122976,2.2225,-3.21125,-6.0725,-9.96,-17.328001,19.04,eccentric,3,3.0,30251.0,385860.0,344801.0,402582.0,346621.0
2026-04-07 17:38:40.064658,106366,590447261,590448130,0.843264,-0.148352,-0.122976,3.77125,-3.77125,-6.0725,-9.96,-17.328001,19.04,eccentric,3,3.0,30251.0,385860.0,344801.0,402582.0,346621.0
2026-04-07 17:38:40.066165,106367,590456189,590456860,0.866688,-0.12688,-0.111264,6.405,-3.82375,-5.495,-10.536,-17.344002,18.952002,eccentric,3,3.0,30251.0,385860.0,344801.0,402582.0,346621.0
2026-04-07 17:38:40.067681,106368,590471181,590471802,0.84912,-0.111264,-0.11712,6.86,-4.34,-5.46875,-10.104,-17.6,20.160002,eccentric,3,3.0,30251.0,385860.0,344801.0,402582.0,346621.0
2026-04-07 17:38:40.071794,106369,590480412,590482558,0.84912,-0.111264,-0.11712,7.21,-3.96375,-5.38125,-10.104,-17.6,20.160002,eccentric,3,3.0,30251.0,385860.0,344801.0,402582.0,346621.0
2026-04-07 17:38:40.076783,106370,590489394,590491326,0.84912,-0.111264,-0.11712,5.8275,-4.4625,-5.845,-10.104,-17.6,20.160002,eccentric,3,3.0,30251.0,385860.0,344801.0,402582.0,346621.0
2026-04-07 17:38:40.105388,106371,590498317,590500097,0.847168,-0.154208,-0.142496,5.67,-5.36375,-5.7225,-9.392,-16.448,18.136002,eccentric,3,3.0,30251.0,385860.0,344801.0,402582.0,346621.0
2026-04-07 17:38:40.110040,106372,590512841,590514984,0.85888,-0.111264,-0.144448,7.60375,-6.27375,-5.74,-9.928,-17.368,18.288,eccentric,3,3.0,30251.0,385860.0,344801.0,402582.0,346621.0
2026-04-07 17:38:40.111625,106373,590521760,590523692,0.85888,-0.111264,-0.144448,10.45625,-7.46375,-5.2675,-9.928,-17.368,18.288,eccentric,3,3.0,30251.0,385860.0,344801.0,402582.0,346621.0
2026-04-07 17:38:40.117342,106374,590530668,590532431,0.854976,-0.085888,-0.122976,12.145,-8.1025,-5.04,-9.928,-17.368,21.752,eccentric,3,3.0,30251.0,385860.0,344801.0,402582.0,346621.0
2026-04-07 17:38:40.180650,106384,590545637,590547442,0.854976,-0.085888,-0.122976,13.0725,-8.198751,-5.6175,-10.296001,-17.744001,21.752,eccentric,3,3.0,30398.0,386632.0,345427.0,402945.0,347406.0
2026-04-07 17:38:40.182388,106385,590554596,590556133,0.837408,-0.0976,-0.101504,11.41875,-6.2475,-6.58,-10.344001,-17.632,21.68,eccentric,3,3.0,30398.0,386632.0,345427.0,402945.0,347406.0
2026-04-07 17:38:40.183965,106386,590563550,590564840,0.837408,-0.0976,-0.101504,10.045,-4.68125,-6.20375,-10.344001,-17.632,21.68,eccentric,3,3.0,30398.0,386632.0,345427.0,402945.0,347406.0
2026-04-07 17:38:40.188147,106387,590578045,590579784,0.825696,-0.122976,-0.134688,9.16125,-4.47125,-5.7225,-9.96,-16.816,18.024,eccentric,3,3.0,30398.0,386632.0,345427.0,402945.0,347406.0
2026-04-07 17:38:40.190031,106388,590586943,590588465,0.825696,-0.122976,-0.134688,8.21625,-4.4975,-4.375,-9.96,-16.816,18.024,eccentric,3,3.0,30398.0,386632.0,345427.0,402945.0,347406.0
2026-04-07 17:38:40.191545,106389,590595860,590597158,0.817888,-0.128832,-0.152256,7.55125,-4.7425,-2.9225,-9.848001,-17.024,18.288,eccentric,3,3.0,30398.0,386632.0,345427.0,402945.0,347406.0
2026-04-07 17:38:40.195645,106390,590604794,590605875,0.817888,-0.128832,-0.152256,6.965,-5.705,-1.4875,-9.848001,-17.024,18.288,eccentric,3,3.0,30398.0,386632.0,345427.0,402945.0,347406.0
2026-04-07 17:38:40.225057,106391,590619352,590620885,0.79056,-0.113216,-0.15616,7.7175,-7.245,0.76125,-10.848001,-16.784,19.808,concentric,3,3.0,30398.0,386632.0,345427.0,402945.0,347406.0
2026-04-07 17:38:40.227324,106392,590628295,590629595,0.79056,-0.113216,-0.15616,10.00125,-8.68,3.5525,-10.848001,-16.784,19.808,concentric,3,3.0,30398.0,386632.0,345427.0,402945.0,347406.0
2026-04-07 17:38:40.252765,106402,590637280,590638342,0.77104,-0.105408,-0.15616,9.5025,-10.45625,6.46625,-9.728001,-16.976002,17.912,concentric,3,3.0,30248.0,385631.0,344632.0,402493.0,346575.0
2026-04-07 17:38:40.256934,106403,590651958,590653451,0.774944,-0.111264,-0.158112,8.70625,-11.75125,9.6075,-9.68,-16.848001,17.808,concentric,3,3.0,30248.0,385631.0,344632.0,402493.0,346575.0
2026-04-07 17:38:40.258639,106404,590660902,590662174,0.774944,-0.111264,-0.158112,6.965,-12.06625,12.215,-9.68,-16.848001,17.808,concentric,3,3.0,30248.0,385631.0,344632.0,402493.0,346575.0
2026-04-07 17:38:40.260187,106405,590669927,590670893,0.774944,-0.111264,-0.158112,4.27,-11.97875,13.04625,-9.68,-16.848001,17.808,concentric,3,3.0,30248.0,385631.0,344632.0,402493.0,346575.0
2026-04-07 17:38:40.291365,106406,590684548,590685855,0.753472,-0.103456,-0.158112,3.6925,-12.55625,14.0175,-10.064,-16.792002,17.392,concentric,3,3.0,30248.0,385631.0,344632.0,402493.0,346575.0
2026-04-07 17:38:40.295721,106407,590693455,590694550,0.757376,-0.144448,-0.189344,4.69875,-14.1225,15.408751,-9.736,-16.184,17.6,concentric,3,3.0,30248.0,385631.0,344632.0,402493.0,346575.0
2026-04-07 17:38:40.297460,106408,590702420,590703247,0.757376,-0.144448,-0.189344,6.01125,-16.835001,16.68625,-9.736,-16.184,17.6,concentric,3,3.0,30248.0,385631.0,344632.0,402493.0,346575.0
2026-04-07 17:38:40.299242,106409,590711363,590711944,0.788608,-0.10736,-0.222528,6.3875,-19.11,18.52375,-9.736,-16.184,17.640001,concentric,3,3.0,30248.0,385631.0,344632.0,402493.0,346575.0
2026-04-07 17:38:40.331331,106410,590726120,590726843,0.792512,-0.10736,-0.222528,8.715,-20.37,20.116251,-9.744,-15.432001,17.640001,concentric,3,3.0,30248.0,385631.0,344632.0,402493.0,346575.0
2026-04-07 17:38:40.358961,106421,590735460,590737960,0.792512,-0.12688,-0.163968,8.68875,-20.5275,20.86875,-10.112,-15.576001,17.072,concentric,3,3.0,30551.0,387852.0,346579.0,403431.0,348765.0
2026-04-07 17:38:40.361501,106422,590744484,590746695,0.792512,-0.12688,-0.163968,6.13375,-20.0025,21.49,-10.112,-15.576001,17.072,concentric,3,3.0,30551.0,387852.0,346579.0,403431.0,348765.0
2026-04-07 17:38:40.363944,106423,590758981,590759695,0.81984,-0.130784,-0.16592,6.36125,-19.25,21.97125,-10.168,-15.336,16.968,concentric,3,3.0,30551.0,387852.0,346579.0,403431.0,348765.0
2026-04-07 17:38:40.366431,106424,590768363,590770499,0.81984,-0.130784,-0.16592,7.3325,-18.12125,21.60375,-10.168,-15.336,16.968,concentric,3,3.0,30551.0,387852.0,346579.0,403431.0,348765.0
2026-04-07 17:38:40.368950,106425,590777321,590779202,0.80032,-0.15616,-0.18544,6.965,-18.147501,22.085001,-10.256001,-15.584001,16.856,concentric,3,3.0,30551.0,387852.0,346579.0,403431.0,348765.0
2026-04-07 17:38:40.371505,106426,590786251,590787960,0.80032,-0.15616,-0.18544,4.78625,-19.95875,22.40875,-10.256001,-15.584001,16.856,concentric,3,3.0,30551.0,387852.0,346579.0,403431.0,348765.0
2026-04-07 17:38:40.402621,106427,590800781,590802875,0.833504,-0.16592,-0.187392,2.49375,-21.21875,21.77,-9.728001,-14.840001,16.616001,concentric,3,3.0,30551.0,387852.0,346579.0,403431.0,348765.0
2026-04-07 17:38:40.404005,106428,590809706,590811614,0.833504,-0.16592,-0.187392,1.40875,-20.2475,22.14625,-9.728001,-14.840001,16.616001,concentric,3,3.0,30551.0,387852.0,346579.0,403431.0,348765.0
2026-04-07 17:38:40.408555,106429,590818623,590820295,0.860832,-0.1464,-0.177632,1.715,-19.74875,20.545,-10.0,-14.448001,16.744001,concentric,3,3.0,30551.0,387852.0,346579.0,403431.0,348765.0
2026-04-07 17:38:40.420778,106430,590833135,590835199,0.841312,-0.15616,-0.191296,3.77125,-18.0775,18.20875,-9.872001,-14.336,15.704,concentric,3,3.0,30551.0,387852.0,346579.0,403431.0,348765.0
2026-04-07 17:38:40.493655,106440,590842228,590844010,0.841312,-0.15616,-0.191296,5.775,-17.19375,16.68625,-9.872001,-14.336,15.704,concentric,3,3.0,31268.0,393222.0,350988.0,403431.0,353413.0
2026-04-07 17:38:40.495929,106441,590851205,590852810,0.841312,-0.15616,-0.191296,5.34625,-17.395,14.67375,-9.872001,-14.336,15.704,concentric,3,3.0,31268.0,393222.0,350988.0,403431.0,353413.0
2026-04-07 17:38:40.499393,106442,590865694,590867703,0.83936,-0.197152,-0.201056,5.1975,-18.78625,12.90625,-9.92,-13.608001,16.624,concentric,3,3.0,31268.0,393222.0,350988.0,403431.0,353413.0
2026-04-07 17:38:40.501119,106443,590874592,590876404,0.835456,-0.169824,-0.193248,5.67875,-20.25625,12.565,-9.736,-13.992001,16.072,concentric,3,3.0,31268.0,393222.0,350988.0,403431.0,353413.0
2026-04-07 17:38:40.502709,106444,590883530,590885102,0.835456,-0.169824,-0.193248,4.33125,-21.2975,12.5475,-9.736,-13.992001,16.072,concentric,3,3.0,31268.0,393222.0,350988.0,403431.0,353413.0
2026-04-07 17:38:40.506815,106445,590892489,590893809,0.827648,-0.228384,-0.212768,4.38375,-22.8725,13.055,-10.064,-13.728001,16.528,concentric,3,3.0,31268.0,393222.0,350988.0,403431.0,353413.0
2026-04-07 17:38:40.513373,106446,590906952,590908689,0.827648,-0.228384,-0.212768,4.05125,-24.5175,12.573751,-10.064,-13.728001,16.528,concentric,3,3.0,31268.0,393222.0,350988.0,403431.0,353413.0
2026-04-07 17:38:40.515051,106447,590915874,590917377,0.784704,-0.23424,-0.20496,6.15125,-25.4275,11.13875,-10.584001,-13.816001,17.392,concentric,3,3.0,31268.0,393222.0,350988.0,403431.0,353413.0
2026-04-07 17:38:40.517258,106448,590924867,590926125,0.784704,-0.23424,-0.20496,12.62625,-25.8825,10.2375,-10.584001,-13.816001,17.392,concentric,3,3.0,31268.0,393222.0,350988.0,403431.0,353413.0
2026-04-07 17:38:40.548274,106458,590939862,590941263,0.763232,-0.162016,-0.206912,18.4975,-26.76625,9.3975,-9.592,-13.120001,14.936001,concentric,3,3.0,31845.0,397321.0,354318.0,403431.0,356831.0
2026-04-07 17:38:40.549965,106459,590948881,590949974,0.763232,-0.162016,-0.206912,19.25,-27.34375,9.21375,-9.592,-13.120001,14.936001,concentric,3,3.0,31845.0,397321.0,354318.0,403431.0,356831.0
2026-04-07 17:38:40.551528,106460,590957814,590958799,0.788608,-0.228384,-0.189344,16.40625,-28.65625,9.073751,-9.576,-13.168,14.792001,concentric,3,3.0,31845.0,397321.0,354318.0,403431.0,356831.0
2026-04-07 17:38:40.559280,106461,590972311,590973732,0.772992,-0.240096,-0.210816,12.1625,-28.6125,9.49375,-9.576,-13.168,14.608001,concentric,3,3.0,31845.0,397321.0,354318.0,403431.0,356831.0
2026-04-07 17:38:40.587844,106462,590981286,590982431,0.778848,-0.240096,-0.210816,9.8175,-27.15125,9.625,-9.784,-13.128,14.608001,concentric,3,3.0,31845.0,397321.0,354318.0,403431.0,356831.0
2026-04-07 17:38:40.592525,106463,590990222,590991142,0.778848,-0.240096,-0.210816,10.9375,-25.97875,10.6225,-9.784,-13.128,14.608001,concentric,3,3.0,31845.0,397321.0,354318.0,403431.0,356831.0
2026-04-07 17:38:40.594009,106464,590999115,590999841,0.767136,-0.261568,-0.255712,12.0575,-25.9,11.8825,-9.464001,-12.76,13.920001,concentric,3,3.0,31845.0,397321.0,354318.0,403431.0,356831.0
2026-04-07 17:38:40.600911,106465,591014074,591014737,0.759328,-0.23424,-0.271328,12.355001,-26.3725,14.0525,-8.64,-11.224001,16.432001,concentric,3,3.0,31845.0,397321.0,354318.0,403431.0,356831.0
2026-04-07 17:38:40.631625,106466,591023375,591025491,0.759328,-0.23424,-0.271328,14.525,-26.845,15.75,-8.64,-11.224001,16.432001,concentric,3,3.0,31845.0,397321.0,354318.0,403431.0,356831.0
2026-04-07 17:38:40.636174,106467,591032316,591034221,0.759328,-0.203008,-0.228384,15.37375,-26.3725,15.1375,-8.64,-11.224001,16.432001,concentric,3,3.0,31845.0,397321.0,354318.0,403431.0,356831.0
2026-04-07 17:38:40.666939,106478,591046921,591049185,0.806176,-0.193248,-0.228384,12.52125,-25.08625,13.36125,-9.752001,-12.848001,13.296001,concentric,3,3.0,32409.0,401026.0,357746.0,403431.0,360466.0
2026-04-07 17:38:40.668619,106479,591055857,591057881,0.812032,-0.242048,-0.259616,9.00375,-22.89,11.55,-9.304001,-11.688001,13.68,concentric,3,3.0,32409.0,401026.0,357746.0,403431.0,360466.0
2026-04-07 17:38:40.670343,106480,591064837,591066612,0.812032,-0.242048,-0.259616,6.81625,-20.7375,9.68625,-9.304001,-11.688001,13.68,concentric,3,3.0,32409.0,401026.0,357746.0,403431.0,360466.0
2026-04-07 17:38:40.674539,106481,591073776,591075342,0.80032,-0.265472,-0.316224,7.28875,-19.145,9.1175,-10.376,-12.248,12.240001,concentric,3,3.0,32409.0,401026.0,357746.0,403431.0,360466.0
2026-04-07 17:38:40.676895,106482,591088310,591090261,0.80032,-0.265472,-0.316224,7.34125,-18.75125,9.38,-10.376,-12.248,12.240001,concentric,3,3.0,32409.0,401026.0,357746.0,403431.0,360466.0
2026-04-07 17:38:40.685592,106483,591097602,591099382,0.823744,-0.249856,-0.2928,6.90375,-20.3875,9.63375,-9.368,-11.608001,13.280001,concentric,3,3.0,32409.0,401026.0,357746.0,403431.0,360466.0
2026-04-07 17:38:40.714114,106484,591106596,591108088,0.823744,-0.249856,-0.2928,6.1425,-20.51,9.70375,-9.368,-11.608001,13.280001,concentric,3,3.0,32409.0,401026.0,357746.0,403431.0,360466.0
2026-04-07 17:38:40.719498,106485,591121076,591122997,0.870592,-0.267424,-0.286944,5.67,-19.57375,9.44125,-9.744,-11.648001,13.136001,concentric,3,3.0,32409.0,401026.0,357746.0,403431.0,360466.0
2026-04-07 17:38:40.720976,106486,591130019,591131723,0.870592,-0.267424,-0.286944,4.97,-18.4275,9.05625,-9.744,-11.648001,13.136001,concentric,3,3.0,32409.0,401026.0,357746.0,403431.0,360466.0
2026-04-07 17:38:40.779869,106496,591138984,591140399,0.862784,-0.242048,-0.28304,4.9525,-15.95125,7.28,-9.376,-11.104,12.736001,concentric,3,3.0,32960.0,403118.0,361228.0,403431.0,364318.0
2026-04-07 17:38:40.781439,106497,591148486,591149122,0.862784,-0.242048,-0.28304,5.45125,-13.4225,6.55375,-9.376,-11.104,12.736001,concentric,3,3.0,32960.0,403118.0,361228.0,403431.0,364318.0
2026-04-07 17:38:40.785668,106498,591163341,591164136,0.841312,-0.245952,-0.32208,4.0775,-10.823751,5.915,-9.280001,-11.504001,13.64,concentric,3,3.0,32960.0,403118.0,361228.0,403431.0,364318.0
2026-04-07 17:38:40.787480,106499,591172277,591172838,0.841312,-0.245952,-0.32208,1.54,-9.1175,6.48375,-9.280001,-11.504001,13.64,concentric,3,3.0,32960.0,403118.0,361228.0,403431.0,364318.0
2026-04-07 17:38:40.789038,106500,591181433,591183602,0.8296,-0.26352,-0.316224,-0.72625,-7.6825,6.79875,-9.64,-10.872001,12.216001,concentric,3,3.0,32960.0,403118.0,361228.0,403431.0,364318.0
2026-04-07 17:38:40.793174,106501,591195936,591196489,0.813984,-0.259616,-0.300608,-3.84125,-6.55375,7.0525,-10.240001,-11.648001,16.04,concentric,3,3.0,32960.0,403118.0,361228.0,403431.0,364318.0
2026-04-07 17:38:40.795588,106502,591205369,591207285,0.813984,-0.259616,-0.300608,-5.9325,-5.64375,7.735,-10.240001,-11.648001,16.04,concentric,3,3.0,32960.0,403118.0,361228.0,403431.0,364318.0
2026-04-07 17:38:40.801811,106503,591214365,591216000,0.784704,-0.212768,-0.310368,-4.78625,-4.48875,9.58125,-10.68,-11.712001,16.232,concentric,3,3.0,32960.0,403118.0,361228.0,403431.0,364318.0
2026-04-07 17:38:40.830536,106504,591223301,591224731,0.784704,-0.212768,-0.310368,-4.10375,-3.92875,9.625,-10.68,-11.712001,16.232,concentric,3,3.0,32960.0,403118.0,361228.0,403431.0,364318.0
2026-04-07 17:38:40.834013,106505,591237768,591239659,0.74176,-0.236192,-0.318176,-4.9525,-4.06875,10.43,-9.864,-11.056001,12.832001,concentric,3,3.0,32960.0,403118.0,361228.0,403431.0,364318.0
2026-04-07 17:38:40.858939,106515,591246695,591248360,0.74176,-0.236192,-0.318176,-5.50375,-4.17375,11.66375,-9.864,-11.056001,12.832001,concentric,3,3.0,33294.0,403431.0,362827.0,403431.0,366434.0
2026-04-07 17:38:40.863198,106516,591255652,591257096,0.726144,-0.269376,-0.325984,-7.525,-3.92,12.6875,-10.824,-10.832001,14.256001,concentric,3,3.0,33294.0,403431.0,362827.0,403431.0,366434.0
2026-04-07 17:38:40.866089,106517,591270211,591272070,0.726144,-0.269376,-0.325984,-7.175,-3.85,13.545,-10.824,-10.832001,14.256001,concentric,3,3.0,33294.0,403431.0,362827.0,403431.0,366434.0
2026-04-07 17:38:40.871788,106518,591279154,591280787,0.753472,-0.21472,-0.325984,-5.57375,-4.1825,14.56875,-10.672001,-11.288,13.984,concentric,3,3.0,33294.0,403431.0,362827.0,403431.0,366434.0
2026-04-07 17:38:40.875597,106519,591288101,591289497,0.753472,-0.21472,-0.325984,-7.245,-4.2525,14.13125,-10.672001,-11.288,13.984,concentric,3,3.0,33294.0,403431.0,362827.0,403431.0,366434.0
2026-04-07 17:38:40.907465,106520,591302583,591304431,0.74176,-0.257664,-0.337696,-9.9925,-3.45625,14.07875,-9.664001,-10.192,12.256001,concentric,3,3.0,33294.0,403431.0,362827.0,403431.0,366434.0
2026-04-07 17:38:40.912176,106521,591311514,591313143,0.74176,-0.257664,-0.337696,-9.96625,-3.2375,14.13125,-9.664001,-10.192,12.256001,concentric,3,3.0,33294.0,403431.0,362827.0,403431.0,366434.0
2026-04-07 17:38:40.913774,106522,591320482,591321859,0.708576,-0.265472,-0.359168,-8.2775,-3.2025,14.55125,-10.136001,-10.272,12.312,concentric,3,3.0,33294.0,403431.0,362827.0,403431.0,366434.0
2026-04-07 17:38:40.915247,106523,591329390,591330549,0.708576,-0.265472,-0.359168,-7.53375,-3.68375,15.190001,-10.136001,-10.272,12.312,concentric,3,3.0,33294.0,403431.0,362827.0,403431.0,366434.0
2026-04-07 17:38:40.971600,106534,591344440,591345667,0.720288,-0.275232,-0.347456,-6.58875,-3.64875,16.16125,-10.816001,-10.072001,13.592001,concentric,3,3.0,33306.0,403431.0,362714.0,403431.0,366427.0
2026-04-07 17:38:40.975673,106535,591353464,591354493,0.720288,-0.275232,-0.345504,-8.5575,-3.66625,16.79125,-10.816001,-10.072001,13.592001,concentric,3,3.0,33306.0,403431.0,362714.0,403431.0,366427.0
2026-04-07 17:38:40.977342,106536,591362383,591363217,0.763232,-0.310368,-0.345504,-9.0125,-3.47375,15.715,-10.096001,-10.280001,13.616,concentric,3,3.0,33306.0,403431.0,362714.0,403431.0,366427.0
2026-04-07 17:38:40.978941,106537,591376896,591378188,0.802272,-0.296704,-0.343552,-6.8425,-1.8025,15.11125,-11.248,-9.848001,13.632001,concentric,3,3.0,33306.0,403431.0,362714.0,403431.0,366427.0
2026-04-07 17:38:40.983207,106538,591385819,591386978,0.802272,-0.296704,-0.343552,-5.2675,-0.34125,15.627501,-11.248,-9.848001,13.632001,concentric,3,3.0,33306.0,403431.0,362714.0,403431.0,366427.0
2026-04-07 17:38:40.984755,106539,591394759,591395681,0.66368,-0.345504,-0.392352,-5.94125,1.4,15.16375,-11.112,-9.928,12.208,concentric,3,3.0,33306.0,403431.0,362714.0,403431.0,366427.0
2026-04-07 17:38:40.990698,106540,591403709,591404425,0.66368,-0.345504,-0.392352,-11.8825,3.605,11.725,-11.112,-9.928,12.208,concentric,3,3.0,33306.0,403431.0,362714.0,403431.0,366427.0
2026-04-07 17:38:41.019213,106541,591418777,591419404,0.845216,-0.355264,-0.329888,-8.98625,4.1125,9.00375,-11.008,-9.904,12.088,concentric,3,3.0,33306.0,403431.0,362714.0,403431.0,366427.0
2026-04-07 17:38:41.024015,106542,591428022,591430199,0.845216,-0.355264,-0.329888,-0.51625,4.34,12.2675,-11.008,-9.904,12.088,concentric,3,3.0,33306.0,403431.0,362714.0,403431.0,366427.0
2026-04-07 17:38:41.025300,106543,591437089,591438894,0.759328,-0.259616,-0.363072,5.22375,5.76625,12.43375,-10.512,-9.272,11.632001,concentric,3,3.0,33306.0,403431.0,362714.0,403431.0,366427.0
2026-04-07 17:38:41.089910,106553,591451760,591453915,0.759328,-0.259616,-0.363072,6.8075,6.79875,9.485,-10.512,-9.272,11.632001,concentric,3,3.0,33337.0,403431.0,362964.0,403431.0,366628.0
2026-04-07 17:38:41.091446,106554,591460749,591462681,0.796416,-0.335744,-0.372832,4.13875,7.98875,6.83375,-11.400001,-9.688001,13.68,concentric,3,3.0,33337.0,403431.0,362964.0,403431.0,366628.0
2026-04-07 17:38:41.095800,106555,591469650,591471377,0.796416,-0.335744,-0.372832,4.4625,8.54,4.31375,-11.400001,-9.688001,13.68,concentric,3,3.0,33337.0,403431.0,362964.0,403431.0,366628.0
2026-04-07 17:38:41.097406,106556,591478575,591480114,0.778848,-0.288896,-0.329888,4.8825,8.77625,4.45375,-10.888001,-9.312,11.248,concentric,3,3.0,33337.0,403431.0,362964.0,403431.0,366628.0
2026-04-07 17:38:41.098970,106557,591493085,591495020,0.778848,-0.288896,-0.329888,6.545,9.72125,5.92375,-10.888001,-9.312,11.248,concentric,3,3.0,33337.0,403431.0,362964.0,403431.0,366628.0
2026-04-07 17:38:41.103707,106558,591502070,591503758,0.796416,-0.31232,-0.339648,3.7975,9.905,5.495,-11.384001,-9.248,11.712001,concentric,3,3.0,33337.0,403431.0,362964.0,403431.0,366628.0
2026-04-07 17:38:41.105624,106559,591511116,591512572,0.796416,-0.31232,-0.339648,2.12625,11.2175,5.1275,-11.384001,-9.248,11.712001,concentric,3,3.0,33337.0,403431.0,362964.0,403431.0,366628.0
2026-04-07 17:38:41.135038,106560,591525640,591527528,0.835456,-0.329888,-0.345504,4.6725,11.935,4.725,-11.144,-9.160001,12.048,concentric,3,3.0,33337.0,403431.0,362964.0,403431.0,366628.0
2026-04-07 17:38:41.137310,106561,591534570,591536212,0.792512,-0.259616,-0.345504,9.0125,12.985,3.605,-11.144,-9.160001,12.664001,concentric,3,3.0,33337.0,403431.0,362964.0,403431.0,366628.0
2026-04-07 17:38:41.170787,106571,591544113,591544969,0.792512,-0.259616,-0.345504,13.1425,12.6525,1.435,-11.936001,-8.712001,12.664001,concentric,3,3.0,33383.0,403431.0,363305.0,403431.0,366912.0
2026-04-07 17:38:41.172403,106572,591553073,591553695,0.792512,-0.259616,-0.345504,12.425,12.15375,-0.7875,-11.936001,-8.712001,12.664001,concentric,3,3.0,33383.0,403431.0,363305.0,403431.0,366912.0
2026-04-07 17:38:41.174036,106573,591567910,591568620,0.841312,-0.333792,-0.339648,7.21,12.1975,-1.68875,-11.936001,-8.936001,12.376,concentric,3,3.0,33383.0,403431.0,363305.0,403431.0,366912.0
2026-04-07 17:38:41.178131,106574,591577394,591579377,0.815936,-0.384544,-0.32208,3.4825,12.53,-0.63,-12.168,-8.224,12.056001,concentric,3,3.0,33383.0,403431.0,363305.0,403431.0,366912.0
2026-04-07 17:38:41.179745,106575,591586407,591588094,0.815936,-0.384544,-0.32208,6.67625,13.78125,0.77875,-12.168,-8.224,12.056001,concentric,3,3.0,33383.0,403431.0,363305.0,403431.0,366912.0
2026-04-07 17:38:41.211254,106576,591600929,591603054,0.831552,-0.320128,-0.329888,11.515,14.7,1.5925,-11.68,-8.528001,12.248,concentric,3,3.0,33383.0,403431.0,363305.0,403431.0,366912.0
2026-04-07 17:38:41.213575,106577,591609861,591611757,0.831552,-0.320128,-0.329888,15.3825,16.51125,2.75625,-11.68,-8.528001,12.248,concentric,3,3.0,33383.0,403431.0,363305.0,403431.0,366912.0
2026-04-07 17:38:41.218176,106578,591618814,591620477,0.804224,-0.304512,-0.31232,16.16125,17.70125,3.0275,-12.672001,-8.8,12.784,concentric,3,3.0,33383.0,403431.0,363305.0,403431.0,366912.0
2026-04-07 17:38:41.220591,106579,591627713,591629153,0.804224,-0.304512,-0.31232,17.12375,17.57,3.01,-12.672001,-8.8,12.784,concentric,3,3.0,33383.0,403431.0,363305.0,403431.0,366912.0
2026-04-07 17:38:41.278585,106590,591642244,591644033,0.81008,-0.337696,-0.300608,17.4475,16.58125,2.49375,-12.888001,-8.08,13.312,concentric,3,3.0,33433.0,403431.0,363898.0,403431.0,367341.0
2026-04-07 17:38:41.281180,106591,591651647,591652734,0.81008,-0.337696,-0.300608,16.555,15.42625,1.86375,-12.888001,-8.08,13.312,concentric,3,3.0,33433.0,403431.0,363898.0,403431.0,367341.0
2026-04-07 17:38:41.283582,106592,591660552,591661451,0.817888,-0.339648,-0.288896,17.70125,14.28,2.40625,-12.960001,-8.320001,12.936001,concentric,3,3.0,33433.0,403431.0,363898.0,403431.0,367341.0
2026-04-07 17:38:41.285234,106593,591675050,591676399,0.817888,-0.347456,-0.286944,15.72375,14.0175,2.19625,-12.960001,-8.320001,12.936001,concentric,3,3.0,33433.0,403431.0,363898.0,403431.0,367341.0
2026-04-07 17:38:41.289411,106594,591684087,591685105,0.823744,-0.347456,-0.286944,14.56,13.265,2.16125,-13.56,-8.280001,13.656001,concentric,3,3.0,33433.0,403431.0,363898.0,403431.0,367341.0
2026-04-07 17:38:41.291175,106595,591693124,591693833,0.823744,-0.347456,-0.286944,14.542501,12.31125,1.82,-13.56,-8.280001,13.656001,concentric,3,3.0,33433.0,403431.0,363898.0,403431.0,367341.0
2026-04-07 17:38:41.292676,106596,591702537,591704683,0.8296,-0.384544,-0.298656,14.25375,11.1475,0.175,-13.936001,-8.208,13.712001,concentric,3,3.0,33433.0,403431.0,363898.0,403431.0,367341.0
2026-04-07 17:38:41.323832,106597,591717039,591717530,0.83936,-0.366976,-0.279136,14.595,10.61375,-0.105,-13.464001,-7.928001,12.464001,concentric,3,3.0,33433.0,403431.0,363898.0,403431.0,367341.0
2026-04-07 17:38:41.326072,106598,591726530,591728285,0.83936,-0.366976,-0.279136,14.74375,9.61625,-0.21875,-13.464001,-7.928001,12.464001,concentric,3,3.0,33433.0,403431.0,363898.0,403431.0,367341.0
2026-04-07 17:38:41.330854,106599,591735440,591737036,0.853024,-0.441152,-0.2928,13.755,7.86625,-0.1225,-13.464001,-7.928001,10.552,concentric,3,3.0,33433.0,403431.0,363898.0,403431.0,367341.0
2026-04-07 17:38:41.387399,106609,591750090,591752015,0.853024,-0.441152,-0.2928,12.34625,7.105,-0.735,-13.136001,-7.336,10.552,concentric,3,3.0,33431.0,403431.0,364171.0,403431.0,367640.0
2026-04-07 17:38:41.389958,106610,591759106,591760801,0.8296,-0.384544,-0.271328,14.69125,6.58,-1.2775,-14.240001,-7.512001,14.432001,concentric,3,3.0,33431.0,403431.0,364171.0,403431.0,367640.0
2026-04-07 17:38:41.392477,106611,591768027,591769494,0.8296,-0.384544,-0.271328,18.43625,6.76375,-0.53375,-14.240001,-7.512001,14.432001,concentric,3,3.0,33431.0,403431.0,364171.0,403431.0,367640.0
2026-04-07 17:38:41.394077,106612,591776939,591778139,0.851072,-0.421632,-0.261568,20.16875,5.8975,-1.995,-13.752001,-7.480001,12.888001,concentric,3,3.0,33431.0,403431.0,364171.0,403431.0,367640.0
2026-04-07 17:38:41.398243,106613,591791406,591793040,0.851072,-0.421632,-0.261568,18.803751,6.30875,-2.40625,-13.752001,-7.480001,12.888001,concentric,3,3.0,33431.0,403431.0,364171.0,403431.0,367640.0
2026-04-07 17:38:41.399898,106614,591800340,591801752,0.851072,-0.42944,-0.255712,17.0975,6.9825,-1.70625,-14.288001,-7.568,14.880001,concentric,3,3.0,33431.0,403431.0,364171.0,403431.0,367640.0
2026-04-07 17:38:41.401779,106615,591809252,591810474,0.851072,-0.42944,-0.255712,17.19375,6.9125,-1.68,-14.288001,-7.568,14.880001,concentric,3,3.0,33431.0,403431.0,364171.0,403431.0,367640.0
2026-04-07 17:38:41.432574,106616,591823772,591825453,0.853024,-0.423584,-0.267424,16.17,6.69375,-2.02125,-14.616001,-8.248,15.832001,concentric,3,3.0,33431.0,403431.0,364171.0,403431.0,367640.0
2026-04-07 17:38:41.434889,106617,591832743,591834162,0.853024,-0.423584,-0.267424,16.485,6.65,-2.66875,-14.616001,-8.248,15.832001,concentric,3,3.0,33431.0,403431.0,364171.0,403431.0,367640.0
2026-04-07 17:38:41.439507,106618,591841706,591842852,0.835456,-0.4392,-0.257664,17.75375,6.51,-4.05125,-13.984,-6.992,13.128,concentric,3,3.0,33431.0,403431.0,364171.0,403431.0,367640.0
2026-04-07 17:38:41.466929,106628,591856256,591857779,0.83936,-0.415776,-0.251808,19.2675,6.79875,-4.1825,-13.784,-7.08,10.504001,concentric,3,3.0,33420.0,403431.0,364261.0,403431.0,367699.0
2026-04-07 17:38:41.468622,106629,591865178,591866554,0.83936,-0.415776,-0.251808,19.11875,6.5625,-4.375,-13.784,-7.08,10.504001,concentric,3,3.0,33420.0,403431.0,364261.0,403431.0,367699.0
2026-04-07 17:38:41.471231,106630,591874143,591875280,0.83936,-0.415776,-0.251808,16.275,5.81,-4.82125,-13.784,-7.08,10.504001,concentric,3,3.0,33420.0,403431.0,364261.0,403431.0,367699.0
2026-04-07 17:38:41.473544,106631,591883076,591884012,0.837408,-0.456768,-0.232288,13.8075,5.075,-4.73375,-14.080001,-6.808,13.76,concentric,3,3.0,33420.0,403431.0,364261.0,403431.0,367699.0
2026-04-07 17:38:41.505750,106632,591897659,591898913,0.83936,-0.435296,-0.23424,14.02625,3.745,-4.515,-14.368001,-6.56,12.432,concentric,3,3.0,33420.0,403431.0,364261.0,403431.0,367699.0
2026-04-07 17:38:41.506067,106633,591906553,591907632,0.83936,-0.435296,-0.23424,14.90125,3.92,-4.66375,-14.368001,-6.56,12.432,concentric,3,3.0,33420.0,403431.0,364261.0,403431.0,367699.0
2026-04-07 17:38:41.510649,106634,591915452,591916395,0.83936,-0.435296,-0.249856,15.47,3.68375,-5.32875,-14.368001,-6.56,12.432,concentric,3,3.0,33420.0,403431.0,364261.0,403431.0,367699.0
2026-04-07 17:38:41.516800,106635,591929930,591931304,0.81984,-0.402112,-0.236192,14.77875,2.87875,-5.97625,-14.112,-7.344,13.384001,concentric,3,3.0,33420.0,403431.0,364261.0,403431.0,367699.0
2026-04-07 17:38:41.545406,106636,591938891,591940043,0.81984,-0.437248,-0.232288,14.25375,2.63375,-5.845,-14.176001,-6.984,12.592001,concentric,3,3.0,33420.0,403431.0,364261.0,403431.0,367699.0
2026-04-07 17:38:41.572428,106646,591948020,591949030,0.81984,-0.437248,-0.232288,12.88875,1.89875,-6.7025,-14.176001,-6.984,12.592001,concentric,3,3.0,33494.0,403431.0,364231.0,403431.0,367809.0
2026-04-07 17:38:41.573923,106647,591962544,591963932,0.798368,-0.42944,-0.232288,12.29375,1.785,-6.65,-14.256001,-7.16,13.136001,concentric,3,3.0,33494.0,403431.0,364231.0,403431.0,367809.0
2026-04-07 17:38:41.578173,106648,591971493,591972687,0.798368,-0.42944,-0.232288,11.935,1.995,-6.79,-14.256001,-7.16,13.136001,concentric,3,3.0,33494.0,403431.0,364231.0,403431.0,367809.0
2026-04-07 17:38:41.579982,106649,591980428,591981395,0.804224,-0.435296,-0.218624,11.96125,1.39125,-6.43125,-14.360001,-7.304,14.336,concentric,3,3.0,33494.0,403431.0,364231.0,403431.0,367809.0
2026-04-07 17:38:41.582093,106650,591994941,591996304,0.804224,-0.435296,-0.218624,10.8675,1.3825,-6.9125,-14.360001,-7.304,14.336,concentric,3,3.0,33494.0,403431.0,364231.0,403431.0,367809.0
2026-04-07 17:38:41.612537,106651,592003886,592005030,0.808128,-0.423584,-0.23424,10.57,0.945,-5.9325,-14.504001,-7.064,15.072001,concentric,3,3.0,33494.0,403431.0,364231.0,403431.0,367809.0
2026-04-07 17:38:41.614817,106652,592012805,592013724,0.808128,-0.423584,-0.23424,8.61,0.51625,-5.74875,-14.504001,-7.064,15.072001,concentric,3,3.0,33494.0,403431.0,364231.0,403431.0,367809.0
2026-04-07 17:38:41.619271,106653,592021741,592022438,0.823744,-0.413824,-0.23424,6.65875,0.35875,-5.3725,-13.76,-6.832,12.536,concentric,3,3.0,33494.0,403431.0,364231.0,403431.0,367809.0
2026-04-07 17:38:41.623467,106654,592036621,592037364,0.815936,-0.425536,-0.238144,4.8475,-0.63875,-5.11875,-13.76,-7.176,13.912001,concentric,3,3.0,33494.0,403431.0,364231.0,403431.0,367809.0
2026-04-07 17:38:41.689903,106665,592046102,592048372,0.815936,-0.425536,-0.238144,5.1275,-0.65625,-5.52125,-15.032001,-7.176,13.912001,concentric,3,3.0,33386.0,403431.0,363383.0,403431.0,366841.0
2026-04-07 17:38:41.691445,106666,592055227,592057176,0.815936,-0.425536,-0.238144,4.9,-1.12,-5.1975,-15.032001,-7.176,13.912001,concentric,3,3.0,33386.0,403431.0,363383.0,403431.0,366841.0
2026-04-07 17:38:41.695712,106667,592064174,592065923,0.821792,-0.437248,-0.236192,4.33125,-1.60125,-5.425,-14.608001,-6.656,12.776001,concentric,3,3.0,33386.0,403431.0,363383.0,403431.0,366841.0
2026-04-07 17:38:41.698645,106668,592078716,592080817,0.827648,-0.417728,-0.244,3.87625,-1.6275,-6.0375,-14.144001,-6.464,12.432,concentric,3,3.0,33386.0,403431.0,363383.0,403431.0,366841.0
2026-04-07 17:38:41.708232,106669,592087681,592089502,0.827648,-0.417728,-0.244,3.43875,-1.785,-5.32875,-14.144001,-6.464,12.432,concentric,3,3.0,33386.0,403431.0,363383.0,403431.0,366841.0
2026-04-07 17:38:41.710074,106670,592096658,592098258,0.812032,-0.431392,-0.26352,2.1525,-1.65375,-4.6375,-14.144001,-6.464,12.432,concentric,3,3.0,33386.0,403431.0,363383.0,403431.0,366841.0
2026-04-07 17:38:41.711550,106671,592111239,592113311,0.825696,-0.431392,-0.26352,1.1725,-1.5575,-3.8325,-14.128,-6.744,13.480001,concentric,3,3.0,33386.0,403431.0,363383.0,403431.0,366841.0
2026-04-07 17:38:41.715693,106672,592120201,592122067,0.827648,-0.435296,-0.255712,1.19,-1.32125,-3.325,-14.392001,-6.184001,12.512001,concentric,3,3.0,33386.0,403431.0,363383.0,403431.0,366841.0
2026-04-07 17:38:41.717277,106673,592129112,592130769,0.827648,-0.435296,-0.255712,1.54,-0.9275,-2.8525,-14.392001,-6.184001,12.512001,concentric,3,3.0,33386.0,403431.0,363383.0,403431.0,366841.0
2026-04-07 17:38:41.771204,106683,592143624,592145906,0.81984,-0.423584,-0.265472,1.40875,-0.4725,-2.51125,-13.856001,-6.648,14.272,concentric,3,3.0,33392.0,403431.0,363505.0,403431.0,366977.0
2026-04-07 17:38:41.772782,106684,592152557,592154632,0.81984,-0.423584,-0.265472,0.76125,0.0175,-2.03875,-13.856001,-6.648,14.272,concentric,3,3.0,33392.0,403431.0,363505.0,403431.0,366977.0
2026-04-07 17:38:41.776927,106685,592161478,592163351,0.81984,-0.413824,-0.271328,0.39375,0.4025,-2.09125,-13.352,-6.72,12.096001,concentric,3,3.0,33392.0,403431.0,363505.0,403431.0,366977.0
2026-04-07 17:38:41.778650,106686,592175992,592178291,0.81984,-0.413824,-0.271328,-0.30625,0.175,-2.47625,-13.352,-6.72,12.096001,concentric,3,3.0,33392.0,403431.0,363505.0,403431.0,366977.0
2026-04-07 17:38:41.780307,106687,592184931,592186985,0.808128,-0.417728,-0.281088,-1.30375,0.76125,-2.45875,-15.352001,-7.024,14.120001,concentric,3,3.0,33392.0,403431.0,363505.0,403431.0,366977.0
2026-04-07 17:38:41.784269,106688,592193876,592195704,0.808128,-0.417728,-0.281088,-2.07375,1.25125,-1.96875,-15.352001,-7.024,14.120001,concentric,3,3.0,33392.0,403431.0,363505.0,403431.0,366977.0
2026-04-07 17:38:41.789418,106689,592202885,592204471,0.798368,-0.417728,-0.28304,-2.91375,1.75,-1.7325,-14.632001,-7.168,14.624001,concentric,3,3.0,33392.0,403431.0,363505.0,403431.0,366977.0
2026-04-07 17:38:41.817964,106690,592217498,592219372,0.778848,-0.415776,-0.27328,-2.4325,2.7475,-0.97125,-14.432001,-6.28,12.504001,concentric,3,3.0,33392.0,403431.0,363505.0,403431.0,366977.0
2026-04-07 17:38:41.822359,106691,592226489,592228058,0.778848,-0.415776,-0.27328,-2.03875,3.115,0.175,-14.432001,-6.28,12.504001,concentric,3,3.0,33392.0,403431.0,363505.0,403431.0,366977.0
2026-04-07 17:38:41.825064,106692,592235373,592236716,0.778848,-0.415776,-0.27328,-1.05,3.52625,0.14875,-14.432001,-6.28,12.504001,concentric,3,3.0,33392.0,403431.0,363505.0,403431.0,366977.0
2026-04-07 17:38:41.852734,106702,592250210,592251743,0.772992,-0.3904,-0.275232,-0.5425,3.15,-0.21875,-14.264001,-6.264,12.456,concentric,3,3.0,33350.0,403431.0,363365.0,403431.0,366754.0
2026-04-07 17:38:41.856907,106703,592259181,592260432,0.788608,-0.40992,-0.284992,-0.74375,2.91375,-0.91875,-14.840001,-6.544,13.552001,concentric,3,3.0,33350.0,403431.0,363365.0,403431.0,366754.0
2026-04-07 17:38:41.858554,106704,592268135,592269220,0.788608,-0.40992,-0.284992,-1.40875,2.905,-1.3475,-14.840001,-6.544,13.552001,concentric,3,3.0,33350.0,403431.0,363365.0,403431.0,366754.0
2026-04-07 17:38:41.888861,106705,592282667,592284120,0.798368,-0.417728,-0.290848,-1.51375,2.0825,-1.1375,-14.696001,-7.088,13.912001,concentric,3,3.0,33350.0,403431.0,363365.0,403431.0,366754.0
2026-04-07 17:38:41.891146,106706,592291578,592292812,0.798368,-0.417728,-0.290848,-1.35625,1.995,-1.68875,-14.696001,-7.088,13.912001,concentric,3,3.0,33350.0,403431.0,363365.0,403431.0,366754.0
2026-04-07 17:38:41.895834,106707,592300461,592301534,0.80032,-0.42944,-0.271328,-1.6625,1.6975,-1.88125,-13.68,-6.152,12.072001,concentric,3,3.0,33350.0,403431.0,363365.0,403431.0,366754.0
2026-04-07 17:38:41.898200,106708,592309398,592310224,0.80032,-0.42944,-0.271328,-1.40875,1.9775,-0.53375,-13.68,-6.152,12.072001,concentric,3,3.0,33350.0,403431.0,363365.0,403431.0,366754.0
2026-04-07 17:38:41.926610,106709,592323921,592325156,0.827648,-0.437248,-0.296704,0.035,1.68875,-0.67375,-14.376,-6.072001,13.104001,concentric,3,3.0,33350.0,403431.0,363365.0,403431.0,366754.0
2026-04-07 17:38:41.931099,106710,592332850,592333893,0.827648,-0.437248,-0.296704,0.6125,0.98,-0.91,-14.376,-6.072001,13.104001,concentric,3,3.0,33350.0,403431.0,363365.0,403431.0,366754.0
2026-04-07 17:38:41.932682,106711,592341785,592342576,0.860832,-0.42944,-0.296704,1.1375,0.63,-1.4875,-14.232,-6.16,12.360001,concentric,3,3.0,33350.0,403431.0,363365.0,403431.0,366754.0
2026-04-07 17:38:42.008966,106722,592356441,592357506,0.860832,-0.42944,-0.296704,0.91875,0.44625,-2.31875,-14.232,-6.16,12.360001,concentric,3,3.0,33443.0,403431.0,363816.0,403431.0,367309.0
2026-04-07 17:38:42.013308,106723,592365398,592366269,0.866688,-0.456768,-0.306464,-0.2275,0.42875,-2.40625,-14.488001,-6.544,15.416,concentric,3,3.0,33443.0,403431.0,363816.0,403431.0,367309.0
2026-04-07 17:38:42.017286,106724,592374385,592374991,0.866688,-0.456768,-0.306464,-0.56875,0.25375,-2.37125,-14.488001,-6.544,15.416,concentric,3,3.0,33443.0,403431.0,363816.0,403431.0,367309.0
2026-04-07 17:38:42.018786,106725,592389162,592389889,0.8784,-0.462624,-0.316224,0.04375,0.77875,-1.95125,-13.816001,-6.568,12.280001,concentric,3,3.0,33443.0,403431.0,363816.0,403431.0,367309.0
2026-04-07 17:38:42.023171,106726,592398574,592400700,0.8784,-0.454816,-0.31232,0.95375,1.12875,-1.61875,-14.512001,-6.888001,11.832001,concentric,3,3.0,33443.0,403431.0,363816.0,403431.0,367309.0
2026-04-07 17:38:42.024878,106727,592407504,592409391,0.8784,-0.454816,-0.31232,1.96875,1.715,-1.23375,-14.512001,-6.888001,11.832001,concentric,3,3.0,33443.0,403431.0,363816.0,403431.0,367309.0
2026-04-07 17:38:42.026411,106728,592416446,592418167,0.8784,-0.454816,-0.31232,2.59875,2.16125,-1.51375,-14.512001,-6.888001,11.832001,concentric,3,3.0,33443.0,403431.0,363816.0,403431.0,367309.0
2026-04-07 17:38:42.030905,106729,592430980,592433175,0.870592,-0.450912,-0.300608,4.0425,1.88125,-1.19875,-14.072001,-6.8,11.256001,concentric,3,3.0,33443.0,403431.0,363816.0,403431.0,367309.0
2026-04-07 17:38:42.032571,106730,592439897,592441877,0.866688,-0.454816,-0.296704,5.285,2.8525,-0.6125,-14.040001,-6.2,13.472001,concentric,3,3.0,33443.0,403431.0,363816.0,403431.0,367309.0
2026-04-07 17:38:42.057384,106740,592449366,592450645,0.866688,-0.454816,-0.296704,6.74625,3.70125,0.1225,-14.040001,-6.2,13.472001,concentric,3,3.0,33408.0,403431.0,363982.0,403431.0,367299.0
2026-04-07 17:38:42.058926,106741,592458404,592459411,0.845216,-0.431392,-0.277184,7.7525,5.1975,1.37375,-14.336,-6.464,12.000001,concentric,3,3.0,33408.0,403431.0,363982.0,403431.0,367299.0
2026-04-07 17:38:42.062237,106742,592473109,592474354,0.845216,-0.431392,-0.277184,7.70875,5.95875,2.51125,-14.336,-6.464,12.000001,concentric,3,3.0,33408.0,403431.0,363982.0,403431.0,367299.0
2026-04-07 17:38:42.069389,106743,592482089,592483108,0.833504,-0.450912,-0.284992,7.46375,6.72875,2.68625,-14.056001,-6.424,14.144001,concentric,3,3.0,33408.0,403431.0,363982.0,403431.0,367299.0
2026-04-07 17:38:42.097781,106744,592491041,592491838,0.833504,-0.450912,-0.284992,7.63,8.30375,3.22875,-14.056001,-6.424,14.144001,concentric,3,3.0,33408.0,403431.0,363982.0,403431.0,367299.0
