recv_time,timestamp,ax,ay,az,gx,gy,gz,mx,my,mz,roll,pitch,yaw
2026-03-11T20:28:05.570,47048,-655.0,1118.0,15792.0,1064.0,-326.0,121.0,971.0,4447.0,-1626.0,4.049517808432954,2.369155474475308,-78.78370980438083
2026-03-11T20:28:05.571,47058,-663.0,1121.0,15684.0,2953.0,208.0,-5.0,974.0,4486.0,-1639.0,32.98969171043589,4.40846108171336,-78.88161961747014
2026-03-11T20:28:05.571,47068,-674.0,1127.0,16191.0,2960.0,247.0,12.0,974.0,4486.0,-1639.0,61.417532685300216,6.788451639456865,-78.72952217164429
2026-03-11T20:28:05.571,47078,-670.0,1091.0,16138.0,2982.0,254.0,22.0,1964.0,8930.0,-3262.0,89.49013328355912,9.189322022832497,-78.01273987009404
2026-03-11T20:28:05.571,47088,-678.0,1084.0,16053.0,2920.0,214.0,0.0,1964.0,8930.0,-3262.0,116.39359278866813,11.150994919890174,-72.58839792912086
2026-03-11T20:28:05.571,47098,-639.0,1094.0,15989.0,2900.0,210.0,-33.0,1972.0,8904.0,-3232.0,142.56400480360978,13.031640496789485,-65.45826540745766
2026-03-11T20:28:05.571,47108,-818.0,1052.0,16048.0,-11667.0,-589.0,-97.0,1972.0,8904.0,-3232.0,25.45113597751224,7.057042111461839,-67.14166687288113
2026-03-11T20:28:05.571,47118,-685.0,1107.0,16026.0,15024.0,836.0,46.0,1964.0,8908.0,-3234.0,172.256342133934,15.157535169655581,-59.20652201613627
2026-03-11T20:28:05.571,47128,-683.0,1096.0,16015.0,2933.0,241.0,11.0,1964.0,8908.0,-3234.0,197.63291490332418,17.26491149102281,-51.9140839200176
2026-03-11T20:28:05.571,47138,-795.0,1094.0,16176.0,2904.0,223.0,-17.0,1966.0,8921.0,-3252.0,222.2168382527872,19.16115811395209,-45.227736565551815
2026-03-11T20:28:05.571,47148,-722.0,1089.0,16024.0,2913.0,214.0,-34.0,1966.0,8921.0,-3252.0,246.3976589878444,20.926613463511174,-39.06471419340035
2026-03-11T20:28:05.571,47158,-644.0,1130.0,15864.0,2964.0,236.0,-17.0,1969.0,8924.0,-3245.0,270.5983922726625,22.86725680361103,-33.202573929756824
2026-03-11T20:28:05.580,47168,-716.0,1121.0,15686.0,3049.0,300.0,87.0,1969.0,8924.0,-3245.0,295.1483782955971,25.402048833021837,-32.919825707319916
2026-03-11T20:28:05.592,47178,-663.0,1072.0,15955.0,2394.0,201.0,447.0,1955.0,8927.0,-3270.0,312.78348807172625,26.911291343688465,-31.297480547911672
2026-03-11T20:28:05.599,47188,-851.0,1078.0,15585.0,1882.0,217.0,489.0,1955.0,8927.0,-3270.0,325.05055418496653,28.56202606551647,-29.501430442933305
2026-03-11T20:28:05.610,47198,-805.0,1302.0,16778.0,1988.0,217.0,489.0,1965.0,8922.0,-3296.0,338.1206901487253,30.17215944191202,-27.863204509849723
2026-03-11T20:28:05.619,47208,-452.0,1002.0,16117.0,1533.0,237.0,448.0,1965.0,8922.0,-3296.0,346.45282677753687,31.92338306492788,-26.741703277507284
2026-03-11T20:28:05.629,47218,-81.0,640.0,15028.0,860.0,212.0,406.0,1968.0,8906.0,-3236.0,348.0005420736968,33.3686861654881,-26.096889518085405
2026-03-11T20:28:05.639,47228,-739.0,1008.0,15321.0,146.0,174.0,280.0,1968.0,8906.0,-3236.0,342.54661486918314,34.4616232812835,-26.713151457563036
2026-03-11T20:28:05.649,47238,620.0,997.0,18801.0,-382.0,126.0,69.0,1966.0,8916.0,-3288.0,332.0127925729644,34.96946864505185,-29.350740155732733
2026-03-11T20:28:05.659,47248,-1420.0,1225.0,14868.0,-846.0,97.0,-77.0,1966.0,8916.0,-3288.0,317.17593789705097,35.32942516306363,-33.330383888583405
2026-03-11T20:28:05.669,47258,-437.0,795.0,15375.0,-365.0,-15.0,-165.0,1957.0,8936.0,-3268.0,307.3146186379245,34.508354563767206,-38.01620234888921
2026-03-11T20:28:05.679,47268,-863.0,783.0,13898.0,-100.0,-48.0,-96.0,1957.0,8936.0,-3268.0,300.25281787491554,33.41873993402962,-41.91740147301784
2026-03-11T20:28:05.697,47278,-851.0,1145.0,15650.0,-100.0,-48.0,-96.0,1963.0,8916.0,-3337.0,293.35145095802346,32.34204966120107,-50.14878666457998
2026-03-11T20:28:05.699,47288,-1162.0,1272.0,15782.0,-105.0,-54.0,-191.0,1963.0,8916.0,-3337.0,286.5475814019197,31.24995713504096,-44.82644582616011
2026-03-11T20:28:05.709,47298,-883.0,932.0,14583.0,-130.0,-70.0,-170.0,1962.0,8905.0,-3307.0,279.61576580988856,30.008117766868008,-39.75620363454408
2026-03-11T20:28:05.719,47308,-214.0,950.0,16175.0,-120.0,-19.0,-209.0,1962.0,8905.0,-3307.0,272.9146758820444,29.236889250084573,-35.3358045489262
2026-03-11T20:28:05.729,47318,-559.0,1123.0,16264.0,-103.0,-27.0,-165.0,1957.0,8901.0,-3305.0,266.5259803926756,28.42682808729616,-30.733318502460982
2026-03-11T20:28:05.739,47328,-349.0,764.0,14973.0,-137.0,-41.0,-136.0,1957.0,8901.0,-3305.0,259.91128066762855,27.48316171989869,-26.101856461117958
2026-03-11T20:28:05.749,47338,-507.0,1056.0,16235.0,-105.0,15.0,-209.0,1960.0,8911.0,-3276.0,253.75848589099792,27.11619707014398,-22.399302596040503
2026-03-11T20:28:05.759,47348,-406.0,881.0,15520.0,-131.0,-38.0,-162.0,1960.0,8911.0,-3276.0,247.46449486913647,26.231395060766083,-18.446479735884846
2026-03-11T20:28:05.769,47358,-418.0,1238.0,17441.0,-165.0,-80.0,-204.0,1967.0,8908.0,-3247.0,240.9794083477623,24.95015661959374,-15.117526496673644
2026-03-11T20:28:05.779,47368,-1168.0,1311.0,16121.0,-165.0,-80.0,-204.0,1967.0,8908.0,-3247.0,234.63580428127966,23.749760882517165,-11.971051351206615
2026-03-11T20:28:05.802,47378,-713.0,1048.0,15719.0,-146.0,-81.0,-147.0,1961.0,8937.0,-3308.0,228.58857453083615,22.532792882693006,-8.44642191319667
2026-03-11T20:28:05.808,47388,-945.0,1402.0,16995.0,-174.0,-49.0,-184.0,1961.0,8937.0,-3308.0,222.40592160495777,21.665374592484934,-5.459848608859234
2026-03-11T20:28:05.808,47398,-1001.0,1221.0,15848.0,-120.0,-40.0,-148.0,1969.0,8926.0,-3328.0,216.86991551195263,20.91213700628598,-2.290486677835945
2026-03-11T20:28:05.819,47408,-828.0,1039.0,15292.0,-116.0,-24.0,-156.0,1969.0,8926.0,-3328.0,211.47345583989807,20.320538129254192,0.6362494273401782
2026-03-11T20:28:05.829,47418,-118.0,1084.0,17446.0,-118.0,-35.0,-169.0,1959.0,8923.0,-3272.0,206.15869629767076,19.57886299227736,3.2771196675771828
2026-03-11T20:28:05.839,47428,-444.0,1333.0,17870.0,-132.0,-39.0,-122.0,1959.0,8923.0,-3272.0,200.82724311780754,18.83347258689893,6.218329099584774
2026-03-11T20:28:05.849,47438,-503.0,1244.0,17091.0,-161.0,6.0,-141.0,1962.0,8923.0,-3331.0,195.31615900879993,18.54922958843842,8.82973224543911
2026-03-11T20:28:05.859,47448,-1048.0,1151.0,15435.0,-161.0,6.0,-131.0,1962.0,8923.0,-3331.0,189.9173297816533,18.31451627745584,11.39676592101413
2026-03-11T20:28:05.869,47458,-868.0,1004.0,15417.0,-170.0,-30.0,-131.0,1970.0,8926.0,-3326.0,184.52750332343237,17.718538717530567,13.813949018225415
2026-03-11T20:28:05.879,47468,-728.0,1084.0,15913.0,-169.0,-24.0,-201.0,1970.0,8926.0,-3326.0,179.258693082495,17.18123467121493,15.424406017683365
2026-03-11T20:28:05.890,47478,-827.0,1244.0,16335.0,-151.0,-12.0,-150.0,1950.0,8930.0,-3265.0,174.28081886596274,16.777808235909845,17.418462030213142
2026-03-11T20:28:05.899,47488,219.0,929.0,17286.0,-158.0,-23.0,-152.0,1950.0,8930.0,-3265.0,169.3083281415979,16.20235591752159,19.26473937606991
2026-03-11T20:28:05.909,47498,-552.0,1110.0,16266.0,-133.0,-75.0,-154.0,1961.0,8923.0,-3253.0,164.6968383884939,15.182091336514022,20.95080327323508
2026-03-11T20:28:05.919,47508,-1399.0,1294.0,15153.0,-115.0,-71.0,-122.0,1961.0,8923.0,-3253.0,160.3735209720164,14.28776661189041,22.809908045716377
2026-03-11T20:28:05.929,47518,-636.0,772.0,14411.0,-133.0,-33.0,-180.0,1955.0,8923.0,-3238.0,155.9239788467203,13.72907885482482,23.978662719641246
2026-03-11T20:28:05.939,47528,-165.0,1098.0,17394.0,-110.0,-35.0,-107.0,1955.0,8923.0,-3238.0,151.79973958598904,13.122345549703516,25.726373833675993
2026-03-11T20:28:05.949,47538,-1008.0,1343.0,16489.0,-110.0,-35.0,-107.0,1977.0,8914.0,-3351.0,147.7788720336353,12.586632949751523,27.315783795740135
2026-03-11T20:28:05.960,47548,-893.0,1071.0,15652.0,-164.0,-10.0,-166.0,1977.0,8914.0,-3351.0,143.29438270677127,12.302055860853404,28.180381578922674
2026-03-11T20:28:05.969,47558,-675.0,926.0,15334.0,-174.0,-27.0,-161.0,1963.0,8921.0,-3328.0,138.79241144492983,11.84173365387598,28.93867276131988
2026-03-11T20:28:05.979,47568,-1190.0,1088.0,14640.0,-168.0,-25.0,-219.0,1963.0,8921.0,-3328.0,134.45516789206988,11.452584946709285,28.954712885810032
2026-03-11T20:28:05.989,47578,-783.0,1073.0,15625.0,-186.0,-44.0,-170.0,1956.0,8927.0,-3246.0,130.02183349826183,10.849574786692036,29.218570116095016
2026-03-11T20:28:06.005,47588,-1632.0,1240.0,14560.0,-104.0,-31.0,-122.0,1956.0,8927.0,-3246.0,126.49955361633158,10.45623513189506,29.674066991352557
2026-03-11T20:28:06.012,47598,-776.0,1221.0,16202.0,-138.0,3.0,-190.0,1954.0,8922.0,-3299.0,122.70335703692055,10.331197679171714,29.05749326870677
2026-03-11T20:28:06.019,47608,125.0,727.0,16239.0,-118.0,-24.0,-171.0,1954.0,8922.0,-3299.0,119.1441568915184,9.880562019176454,28.068505782079846
2026-03-11T20:28:06.029,47618,-614.0,983.0,15682.0,-118.0,-8.0,-179.0,1960.0,8905.0,-3224.0,115.67660970344632,9.649306349663462,26.295958087653784
2026-03-11T20:28:06.039,47628,-1687.0,1319.0,14842.0,-135.0,-8.0,-179.0,1960.0,8905.0,-3224.0,112.14164753696527,9.507108062125706,23.5076047859529
2026-03-11T20:28:06.049,47638,-753.0,1164.0,16277.0,-150.0,-20.0,-154.0,1964.0,8923.0,-3351.0,108.51062198035692,9.17380527108962,19.710932678633622
2026-03-11T20:28:06.059,47648,-637.0,741.0,14555.0,-153.0,7.0,-199.0,1964.0,8923.0,-3351.0,104.8992981692147,9.108983469914202,14.80928000863774
2026-03-11T20:28:06.069,47658,-1123.0,1084.0,15127.0,-135.0,-24.0,-164.0,1957.0,8921.0,-3332.0,101.560288326713,8.77630225022701,9.984635734951357
2026-03-11T20:28:06.079,47668,-1558.0,1191.0,14447.0,-163.0,-50.0,-166.0,1957.0,8921.0,-3332.0,98.0259378529901,8.233465785427274,5.029958506975578
2026-03-11T20:28:06.089,47678,-735.0,1250.0,16855.0,-148.0,-63.0,-201.0,1964.0,8918.0,-3346.0,94.69984716264149,7.501198450880294,-0.2270253438869947
2026-03-11T20:28:06.108,47688,-24.0,1011.0,17366.0,-172.0,-37.0,-149.0,1964.0,8918.0,-3346.0,91.18688700856646,6.990155471695823,-4.9031689457650245
2026-03-11T20:28:06.112,47698,-586.0,1046.0,16065.0,-169.0,-37.0,-191.0,1960.0,8914.0,-3333.0,87.7814552249317,6.529444983130154,-9.871242060074335
2026-03-11T20:28:06.119,47708,-1249.0,1518.0,16892.0,-169.0,-37.0,-191.0,1960.0,8914.0,-3333.0,84.47232798239155,6.120493325800145,-14.689489690672845
2026-03-11T20:28:06.129,47718,-468.0,1154.0,16993.0,-147.0,-40.0,-137.0,1978.0,8916.0,-3321.0,81.41998161294724,5.637562393539743,-18.810381476648693
2026-03-11T20:28:06.139,47728,110.0,1010.0,17605.0,-153.0,-43.0,-166.0,1978.0,8916.0,-3321.0,78.35785124979165,5.096263053851934,-23.05583427638968
2026-03-11T20:28:06.149,47738,-439.0,1083.0,16709.0,-128.0,-39.0,-196.0,1949.0,8926.0,-3231.0,75.61046342028877,4.64217481503277,-27.413834064951867
2026-03-11T20:28:06.159,47748,60.0,788.0,16391.0,-128.0,-13.0,-182.0,1949.0,8926.0,-3231.0,72.89890184786758,4.417741500361697,-31.46415100478133
2026-03-11T20:28:06.169,47758,-654.0,1104.0,16146.0,-146.0,-28.0,-180.0,1961.0,8933.0,-3214.0,70.0883552471608,4.10126911892463,-35.321670261806936
2026-03-11T20:28:06.179,47768,-1392.0,1056.0,14008.0,-86.0,-28.0,-171.0,1961.0,8933.0,-3214.0,67.93001046882324,3.8580237535433066,-38.92515872252067
2026-03-11T20:28:06.189,47778,-886.0,1152.0,15781.0,-140.0,-38.0,-203.0,1966.0,8940.0,-3310.0,65.28291303832609,3.472561277700282,-42.68592964773791
2026-03-11T20:28:06.209,47788,-1270.0,1512.0,16670.0,-159.0,-45.0,-161.0,1966.0,8940.0,-3310.0,62.52270782823285,3.048888188729541,-45.879458325353966
2026-03-11T20:28:06.219,47798,-1012.0,1214.0,15766.0,-159.0,-45.0,-161.0,1957.0,8928.0,-3314.0,59.80211670766925,2.6201483483839016,-48.932753968877805
2026-03-11T20:28:06.219,47808,-749.0,730.0,14246.0,-122.0,-13.0,-194.0,1957.0,8928.0,-3314.0,57.46914258625194,2.5004590769881676,-52.16455471829133
2026-03-11T20:28:06.238,47818,-973.0,1043.0,15270.0,-96.0,-50.0,-122.0,1962.0,8931.0,-3226.0,55.45710881504134,2.0331996750079044,-54.54757018963901
2026-03-11T20:28:06.243,47828,-1601.0,1355.0,15235.0,-143.0,-18.0,-163.0,1962.0,8931.0,-3226.0,53.04821683839498,1.9356477895816917,-57.21687030663083
2026-03-11T20:28:06.258,47838,-993.0,1306.0,16371.0,-130.0,-28.0,-188.0,1967.0,8918.0,-3294.0,50.80447497256446,1.6917371604223383,-60.00252585926485
2026-03-11T20:28:06.260,47848,-868.0,1476.0,17564.0,-138.0,-44.0,-175.0,1967.0,8918.0,-3294.0,48.53205736593464,1.283088265784834,-62.530440049897834
2026-03-11T20:28:06.280,47858,-710.0,1122.0,16197.0,-137.0,-61.0,-199.0,1943.0,8928.0,-3326.0,46.29806957640455,0.7097060330361181,-65.17028739276545
2026-03-11T20:28:06.332,47868,120.0,788.0,16485.0,-137.0,-6.0,-142.0,1943.0,8928.0,-3326.0,44.084242469017205,0.628380058066255,-67.14565055913673
2026-03-11T20:28:06.333,47878,-413.0,1000.0,16210.0,-137.0,-6.0,-173.0,1950.0,8944.0,-3221.0,41.93056003988466,0.5861465328537652,-69.31873477458616
2026-03-11T20:28:06.333,47888,-1512.0,1183.0,14597.0,-108.0,-50.0,-173.0,1950.0,8944.0,-3221.0,40.12621595032219,0.2023152927441881,-71.38315726070849
2026-03-11T20:28:06.333,47898,-915.0,1301.0,16551.0,-127.0,-33.0,-158.0,1962.0,8917.0,-3285.0,38.16898208966558,-0.06203923774456441,-73.20160763047596
2026-03-11T20:28:06.333,47908,-1308.0,1018.0,14139.0,-134.0,-21.0,-229.0,1962.0,8917.0,-3285.0,36.17476559692433,-0.16116197005837835,-75.60808853124568
2026-03-11T20:28:06.333,47918,-717.0,998.0,15669.0,-121.0,-7.0,-175.0,1975.0,8915.0,-3314.0,34.338358219517296,-0.17424498541498107,-77.38313168604016
2026-03-11T20:28:06.342,47928,-305.0,1263.0,17900.0,-137.0,-9.0,-159.0,1975.0,8915.0,-3314.0,32.38971154382439,-0.23948500664220732,-78.92084842816499
2026-03-11T20:28:06.363,47938,-531.0,1278.0,17277.0,-199.0,-57.0,-169.0,1967.0,8909.0,-3265.0,29.876327938473484,-0.7581831150540405,-80.47293862561304
2026-03-11T20:28:06.363,47948,-249.0,1265.0,18091.0,-189.0,-40.0,-150.0,1967.0,8909.0,-3265.0,27.50659848300579,-1.1192867629654495,-81.76434387527573
2026-03-11T20:28:06.370,47958,-444.0,1189.0,17122.0,-131.0,-35.0,-208.0,1967.0,8925.0,-3318.0,25.752114582013334,-1.410263660524639,-83.54125376779714
2026-03-11T20:28:06.384,47968,224.0,777.0,16832.0,-131.0,-35.0,-208.0,1967.0,8925.0,-3318.0,24.00613260261777,-1.7402910949774342,-85.2250961655634
2026-03-11T20:28:06.389,47978,-63.0,1030.0,17447.0,-141.0,-31.0,-196.0,1959.0,8936.0,-3329.0,22.211781723131352,-2.005154655008099,-86.71028682106032
2026-03-11T20:28:06.399,47988,-849.0,1343.0,17182.0,-113.0,-27.0,-225.0,1959.0,8936.0,-3329.0,20.74953277140078,-2.1732471539954688,-88.39422086817994
2026-03-11T20:28:06.450,47998,-1098.0,1228.0,15884.0,-133.0,-50.0,-163.0,1965.0,8917.0,-3332.0,19.119557553915584,-2.5409298218887715,-89.39582354929728
2026-03-11T20:28:06.450,48008,-945.0,1382.0,17128.0,-99.0,-4.0,-161.0,1965.0,8917.0,-3332.0,17.85922656184896,-2.466356052991815,-90.32926793966766
2026-03-11T20:28:06.450,48018,-394.0,800.0,15245.0,-126.0,26.0,-176.0,1966.0,8917.0,-3264.0,16.32732024475669,-2.1326605287055633,-91.36262104460778
2026-03-11T20:28:06.450,48028,139.0,859.0,16945.0,-141.0,-25.0,-122.0,1966.0,8917.0,-3264.0,14.677014535958316,-2.344395009973661,-91.82650561970316
2026-03-11T20:28:06.451,48038,-404.0,997.0,16318.0,-137.0,-16.0,-196.0,1961.0,8932.0,-3325.0,13.11080067010142,-2.425995172668708,-92.96970823204343
2026-03-11T20:28:06.459,48048,-1060.0,845.0,13903.0,-161.0,-34.0,-146.0,1961.0,8932.0,-3325.0,11.340345831439576,-2.6236364492748936,-93.57487134122111
2026-03-11T20:28:06.473,48058,-986.0,1180.0,15796.0,-161.0,-34.0,-146.0,1958.0,8931.0,-3339.0,9.621182921100909,-2.8331253428797103,-94.14395752850263
2026-03-11T20:28:06.479,48068,-1003.0,1099.0,15450.0,-164.0,-43.0,-187.0,1958.0,8931.0,-3339.0,7.902934252680394,-3.123761988487101,-95.06551578802522
2026-03-11T20:28:06.489,48078,-764.0,1013.0,15644.0,-162.0,-69.0,-111.0,1961.0,8924.0,-3317.0,6.231373888991226,-3.6816852174691768,-95.20434130295486
2026-03-11T20:28:06.499,48088,-1540.0,1442.0,15820.0,-150.0,-58.0,-156.0,1961.0,8924.0,-3317.0,4.740909284962134,-4.065708793027508,-95.75313167634584
2026-03-11T20:28:06.516,48098,-949.0,1245.0,16254.0,-123.0,-31.0,-165.0,1958.0,8938.0,-3268.0,3.5282932031213994,-4.221560229665126,-96.3563474998471
2026-03-11T20:28:06.522,48108,-1046.0,1463.0,17113.0,-139.0,-18.0,-151.0,1958.0,8938.0,-3268.0,2.1932546854189123,-4.243827734083434,-96.79156840918714
2026-03-11T20:28:06.529,48118,-497.0,1223.0,17128.0,-196.0,2.0,-155.0,1953.0,8931.0,-3329.0,0.3102734000667475,-4.1061940571087545,-97.2379638509768
2026-03-11T20:28:06.539,48128,-394.0,1374.0,18277.0,-124.0,8.0,-92.0,1953.0,8931.0,-3329.0,-0.8251479367397391,-3.921040805961911,-97.06191798574619
2026-03-11T20:28:06.549,48138,-632.0,1126.0,16426.0,-124.0,8.0,-92.0,1963.0,8931.0,-3304.0,-1.945415320347566,-3.7202550262724694,-96.89059394726742
2026-03-11T20:28:06.559,48148,-1321.0,992.0,13936.0,-163.0,-18.0,-212.0,1963.0,8931.0,-3304.0,-3.422475173339658,-3.7142233502322437,-97.86089422161217
2026-03-11T20:28:06.569,48158,-844.0,1091.0,15669.0,-169.0,-51.0,-143.0,1969.0,8930.0,-3308.0,-4.930566506428422,-4.078223160550241,-98.11113478039272
2026-03-11T20:28:06.579,48168,-563.0,768.0,14844.0,-180.0,-75.0,-192.0,1969.0,8930.0,-3308.0,-6.536720524405449,-4.688275453058344,-98.79491301975878
2026-03-11T20:28:06.608,48178,-685.0,1003.0,15532.0,-162.0,-50.0,-171.0,1969.0,8932.0,-3348.0,-7.919689662669099,-5.034109773465548,-99.22920879922258
2026-03-11T20:28:06.622,48188,-404.0,749.0,15183.0,-179.0,-32.0,-176.0,1969.0,8932.0,-3348.0,-9.459011936880318,-5.216580446859432,-99.67577626176991
2026-03-11T20:28:06.647,48198,-690.0,1022.0,15776.0,-163.0,-5.0,-218.0,1963.0,8957.0,-3254.0,-10.79310064096051,-5.111266118353273,-100.4995557938144
2026-03-11T20:28:06.647,48208,-943.0,1500.0,17574.0,-136.0,9.0,-155.0,1963.0,8957.0,-3254.0,-11.81246736227404,-4.859633360635335,-100.68030890134845
2026-03-11T20:28:06.647,48218,-574.0,1111.0,16583.0,-156.0,-26.0,-211.0,1968.0,8924.0,-3283.0,-13.028360441422334,-4.977680687008113,-101.3664542216992
2026-03-11T20:28:06.647,48228,-180.0,1070.0,17294.0,-156.0,-26.0,-211.0,1968.0,8924.0,-3283.0,-14.225784356288028,-5.121023306891417,-102.0057272799364
2026-03-11T20:28:06.650,48238,-522.0,1107.0,16575.0,-173.0,-21.0,-136.0,1960.0,8930.0,-3352.0,-15.560249515037516,-5.188406341223099,-101.88671565723705
2026-03-11T20:28:06.661,48248,-40.0,859.0,16565.0,-191.0,-3.0,-199.0,1960.0,8930.0,-3352.0,-17.061474733664717,-5.111274856127554,-102.35890239679955
2026-03-11T20:28:06.669,48258,-468.0,1173.0,17056.0,-116.0,-31.0,-203.0,1957.0,8933.0,-3241.0,-17.778360565821718,-5.281488481252278,-102.84344772493027
2026-03-11T20:28:06.679,48268,13.0,793.0,16387.0,-112.0,-47.0,-179.0,1957.0,8933.0,-3241.0,-18.464983412353643,-5.63736671720759,-103.06255761282873
2026-03-11T20:28:06.700,48278,-354.0,1134.0,17208.0,-110.0,-44.0,-166.0,1968.0,8936.0,-3310.0,-19.09827741711056,-5.932300129599422,-103.12695509499746
2026-03-11T20:28:06.736,48288,-106.0,678.0,15550.0,-105.0,-34.0,-124.0,1968.0,8936.0,-3310.0,-19.69538010045998,-6.139050276069341,-102.778783771935
2026-03-11T20:28:06.781,48298,-684.0,1053.0,16000.0,-84.0,-5.0,-194.0,1961.0,8930.0,-3261.0,-20.049365528692128,-6.016416743575631,-103.11659675834683
2026-03-11T20:28:06.782,48308,-1564.0,1302.0,14912.0,-84.0,-5.0,-127.0,1961.0,8930.0,-3261.0,-20.371778861348186,-5.825790897749985,-102.80061681247592
2026-03-11T20:28:06.782,48318,-1031.0,1143.0,15578.0,-165.0,-76.0,-127.0,1970.0,8947.0,-3257.0,-21.49741475309444,-6.378547739786475,-102.47636673475968
2026-03-11T20:28:06.782,48328,-956.0,1017.0,15084.0,-168.0,-37.0,-191.0,1970.0,8947.0,-3257.0,-22.636722790828124,-6.541211335164482,-102.7591368139753
2026-03-11T20:28:06.782,48338,-525.0,924.0,15809.0,-158.0,-45.0,-147.0,1968.0,8936.0,-3234.0,-23.665488292451645,-6.813411218568696,-102.59297957535328
2026-03-11T20:28:06.782,48348,-1223.0,900.0,13892.0,-134.0,-18.0,-145.0,1968.0,8936.0,-3234.0,-24.431243428932724,-6.753129693873363,-102.40657120471661
2026-03-11T20:28:06.782,48358,-1117.0,1195.0,15608.0,-178.0,-5.0,-164.0,1971.0,8930.0,-3233.0,-25.599454312364305,-6.58543633594401,-102.39426084648329
2026-03-11T20:28:06.782,48368,-1275.0,936.0,14013.0,-131.0,-48.0,-127.0,1971.0,8930.0,-3233.0,-26.29483718666502,-6.820380469124152,-102.01642056633375
2026-03-11T20:28:06.789,48378,-971.0,1049.0,15178.0,-150.0,-49.0,-180.0,1969.0,8942.0,-3221.0,-27.159868300422985,-7.091137373878637,-102.14614153281597
2026-03-11T20:28:06.799,48388,-1550.0,1120.0,14183.0,-147.0,-100.0,-116.0,1969.0,8942.0,-3221.0,-27.966967922130607,-7.804961466612872,-101.63591980346966
2026-03-11T20:28:06.832,48398,-1031.0,1174.0,15523.0,-147.0,-100.0,-116.0,1955.0,8950.0,-3232.0,-28.761727971805442,-8.553080708973823,-101.1298873131061
2026-03-11T20:28:06.841,48408,-143.0,740.0,15677.0,-134.0,-37.0,-200.0,1955.0,8950.0,-3232.0,-29.445642983054356,-8.734178376005021,-101.43197498500909
2026-03-11T20:28:06.841,48418,-375.0,1000.0,16435.0,-151.0,-31.0,-190.0,1953.0,8921.0,-3360.0,-30.266891876681733,-8.837201047796663,-101.58614465866853
2026-03-11T20:28:06.841,48428,193.0,927.0,17519.0,-169.0,-44.0,-244.0,1953.0,8921.0,-3360.0,-31.25717558105025,-9.10426298804719,-102.2209209917032
2026-03-11T20:28:06.852,48438,-680.0,1004.0,15718.0,-150.0,-31.0,-179.0,1956.0,8934.0,-3336.0,-32.02893508843068,-9.176534087476696,-102.19328444190467
2026-03-11T20:28:06.859,48448,-1621.0,1416.0,15526.0,-165.0,-67.0,-174.0,1956.0,8934.0,-3336.0,-32.90113508427709,-9.530884567338088,-102.09435660311546
2026-03-11T20:28:06.869,48458,-1433.0,1393.0,15993.0,-123.0,-40.0,-223.0,1968.0,8933.0,-3316.0,-33.348953700168636,-9.630248552361513,-102.45249908993591
2026-03-11T20:28:06.882,48468,-1581.0,1336.0,15321.0,-116.0,-45.0,-165.0,1968.0,8933.0,-3316.0,-33.71910225252394,-9.761254009306615,-102.23100509180588
2026-03-11T20:28:06.889,48478,-948.0,1003.0,15200.0,-116.0,-35.0,-202.0,1959.0,8948.0,-3298.0,-34.10601432023105,-9.837806925898978,-102.37062251566056
2026-03-11T20:28:06.899,48488,-1447.0,1282.0,15317.0,-150.0,-35.0,-202.0,1959.0,8948.0,-3298.0,-34.79820638559485,-9.876490122121371,-102.48610350372411
2026-03-11T20:28:06.942,48498,-442.0,822.0,15288.0,-140.0,-38.0,-113.0,1972.0,8935.0,-3345.0,-35.41268832801182,-10.018287078999107,-101.71690352262877
2026-03-11T20:28:06.942,48508,-327.0,1126.0,17352.0,-139.0,-5.0,-190.0,1972.0,8935.0,-3345.0,-35.992378314574424,-9.845374319024447,-101.70557159160083
2026-03-11T20:28:06.942,48518,-917.0,1355.0,16748.0,-93.0,-34.0,-170.0,1960.0,8932.0,-3317.0,-36.091421730807525,-9.919191055757235,-101.51060081203303
2026-03-11T20:28:06.942,48528,-764.0,1452.0,17867.0,-106.0,-39.0,-183.0,1960.0,8932.0,-3317.0,-36.31547221490528,-10.054197977694846,-101.44067925020214
2026-03-11T20:28:06.949,48538,-686.0,1134.0,16362.0,-89.0,-33.0,-199.0,1961.0,8934.0,-3218.0,-36.38206967615005,-10.12861278059743,-101.54205678912844
2026-03-11T20:28:06.959,48548,-1596.0,1329.0,15166.0,-157.0,-5.0,-130.0,1961.0,8934.0,-3218.0,-37.09286729875718,-9.855347210250363,-100.96865710233503
2026-03-11T20:28:06.970,48558,-665.0,1130.0,16631.0,-225.0,-8.0,-155.0,1953.0,8931.0,-3351.0,-38.478269740336366,-9.690949808687517,-100.60090111911586
2026-03-11T20:28:06.980,48568,-303.0,891.0,16135.0,-225.0,-8.0,-155.0,1953.0,8931.0,-3351.0,-39.850489294095546,-9.554046857606263,-100.21105632648357
2026-03-11T20:28:06.989,48578,-384.0,1133.0,17218.0,-120.0,-25.0,-137.0,1965.0,8933.0,-3278.0,-40.15418311622469,-9.582468793969797,-99.6709065486609
2026-03-11T20:28:06.999,48588,-670.0,1284.0,17252.0,-178.0,-37.0,-230.0,1965.0,8933.0,-3278.0,-41.01037031670664,-9.709061467723346,-100.01082895820696
2026-03-11T20:28:07.009,48598,-951.0,1348.0,16753.0,-153.0,-33.0,-155.0,1965.0,8928.0,-3254.0,-41.59755709126336,-9.77350987073844,-99.60484474997756
2026-03-11T20:28:07.029,48608,-1475.0,1314.0,15386.0,-209.0,-67.0,-162.0,1965.0,8928.0,-3254.0,-42.716178995934676,-10.125514416714674,-99.23979701762484
2026-03-11T20:28:07.034,48618,-1130.0,1055.0,14829.0,-134.0,-85.0,-182.0,1968.0,8929.0,-3316.0,-43.09366709409429,-10.669070343209011,-99.04251268421487
2026-03-11T20:28:07.063,48628,-1607.0,1440.0,15602.0,-110.0,-59.0,-168.0,1968.0,8929.0,-3316.0,-43.20432927791327,-10.916769125591433,-98.71386307802709
2026-03-11T20:28:07.063,48638,-809.0,1175.0,16280.0,-160.0,-34.0,-194.0,1967.0,8934.0,-3246.0,-43.82568002997147,-10.974884080550284,-98.64419887214066
2026-03-11T20:28:07.063,48648,-9.0,1064.0,17687.0,-149.0,-51.0,-126.0,1967.0,8934.0,-3246.0,-44.340514357640515,-11.254604354007757,-97.90734261959403
2026-03-11T20:28:07.069,48658,-458.0,1149.0,16824.0,-149.0,-51.0,-126.0,1969.0,8912.0,-3241.0,-44.835764766406655,-11.49819713685579,-97.17961673944224
2026-03-11T20:28:07.079,48668,-101.0,689.0,15591.0,-154.0,-13.0,-167.0,1969.0,8912.0,-3241.0,-45.397641911000655,-11.388217184173062,-96.85565777158317
2026-03-11T20:28:07.089,48678,-425.0,1068.0,16509.0,-127.0,-49.0,-160.0,1959.0,8940.0,-3299.0,-45.66026067316862,-11.611220933563759,-96.45913670890624
2026-03-11T20:28:07.100,48688,-980.0,1416.0,17107.0,-145.0,-55.0,-227.0,1959.0,8940.0,-3299.0,-46.07342016957376,-11.852645704399539,-96.69695494840137
2026-03-11T20:28:07.109,48698,-828.0,1062.0,15640.0,-172.0,-2.0,-194.0,1967.0,8929.0,-3324.0,-46.759860133991246,-11.57472224236939,-96.56741317502396
2026-03-11T20:28:07.132,48708,47.0,694.0,16183.0,-120.0,-19.0,-163.0,1967.0,8929.0,-3324.0,-46.9515509967074,-11.532752794450436,-96.14124371847808
2026-03-11T20:28:07.139,48718,-1101.0,1067.0,15451.0,-156.0,-12.0,-221.0,1972.0,8928.0,-3309.0,-47.46231189594541,-11.338373446477299,-96.26774573724316
2026-03-11T20:28:07.139,48728,-1488.0,1407.0,15909.0,-142.0,-17.0,-171.0,1972.0,8928.0,-3309.0,-47.80358330270666,-11.171750278844494,-95.89815633197416
2026-03-11T20:28:07.149,48738,-1016.0,1162.0,15997.0,-142.0,-17.0,-174.0,1962.0,8924.0,-3303.0,-48.15601984576273,-11.042424091479047,-95.56505712838883
2026-03-11T20:28:07.159,48748,-591.0,1259.0,17368.0,-148.0,-3.0,-174.0,1962.0,8924.0,-3303.0,-48.56037748637981,-10.81209925219296,-95.23068124504535
2026-03-11T20:28:07.170,48758,-446.0,850.0,15767.0,-124.0,-29.0,-144.0,1977.0,8928.0,-3258.0,-48.74265329498136,-10.847698439232687,-94.62801150883504
2026-03-11T20:28:07.179,48768,-302.0,713.0,15117.0,-153.0,-31.0,-210.0,1977.0,8928.0,-3258.0,-49.213192637087225,-10.911680387043292,-94.6563059950628
2026-03-11T20:28:07.189,48778,-698.0,1085.0,16037.0,-140.0,-31.0,-191.0,1964.0,8940.0,-3285.0,-49.52351863419877,-10.947516549405496,-94.48386989270244
2026-03-11T20:28:07.199,48788,-485.0,1382.0,18149.0,-186.0,-7.0,-171.0,1964.0,8940.0,-3285.0,-50.26875778577796,-10.766639267030742,-94.08975197738023
2026-03-11T20:28:07.210,48798,-382.0,1056.0,16559.0,-153.0,-15.0,-193.0,1947.0,8924.0,-3323.0,-50.689804163061304,-10.671929575412731,-93.8891572754051
2026-03-11T20:28:07.237,48808,-235.0,737.0,15502.0,-162.0,5.0,-161.0,1947.0,8924.0,-3323.0,-51.209169661740944,-10.392140591088578,-93.36592835525849
2026-03-11T20:28:07.243,48818,-578.0,966.0,15686.0,-147.0,-36.0,-188.0,1962.0,8934.0,-3251.0,-51.55510569682864,-10.49497174542759,-93.12751287080559
2026-03-11T20:28:07.243,48828,-558.0,786.0,14939.0,-147.0,-36.0,-188.0,1962.0,8934.0,-3251.0,-51.90436796293643,-10.595149115354012,-92.87740436055094
2026-03-11T20:28:07.250,48838,-512.0,839.0,15228.0,-136.0,-40.0,-120.0,1956.0,8931.0,-3329.0,-52.13600914778084,-10.736790631380272,-91.94487628387115
2026-03-11T20:28:07.259,48848,-63.0,903.0,16882.0,-161.0,-15.0,-191.0,1956.0,8931.0,-3329.0,-52.609853528952655,-10.664784631831548,-91.7018353672474
2026-03-11T20:28:07.269,48858,-256.0,1005.0,16852.0,-137.0,-26.0,-181.0,1956.0,8934.0,-3258.0,-52.83199851992222,-10.68891345434931,-91.39326847555684
2026-03-11T20:28:07.279,48868,-255.0,648.0,14962.0,-166.0,12.0,-193.0,1956.0,8934.0,-3258.0,-53.35256026404117,-10.33802532028128,-91.18171160460378
2026-03-11T20:28:07.291,48878,-617.0,896.0,15441.0,-137.0,-36.0,-169.0,1968.0,8933.0,-3296.0,-53.561689119117474,-10.438376806642461,-90.71246261486972
2026-03-11T20:28:07.299,48888,-355.0,667.0,14858.0,-140.0,-60.0,-148.0,1968.0,8933.0,-3296.0,-53.81104782021534,-10.790262817469271,-90.04487919024471
2026-03-11T20:28:07.309,48898,-698.0,883.0,15223.0,-162.0,-22.0,-194.0,1970.0,8923.0,-3314.0,-54.25603318529432,-10.73764017231004,-89.80181124288771
2026-03-11T20:28:07.319,48908,-417.0,694.0,14953.0,-162.0,-38.0,-166.0,1970.0,8923.0,-3314.0,-54.705366321216545,-10.863373401610719,-89.2684276218659
2026-03-11T20:28:07.333,48918,-877.0,956.0,15123.0,-161.0,-38.0,-166.0,1958.0,8936.0,-3262.0,-55.116716235748896,-10.952259264072973,-88.76437953114484
2026-03-11T20:28:07.341,48928,-1305.0,1049.0,14436.0,-175.0,-17.0,-165.0,1958.0,8936.0,-3262.0,-55.64625941288229,-10.796775464982291,-88.23429766728407
2026-03-11T20:28:07.349,48938,-598.0,1153.0,16800.0,-144.0,-17.0,-135.0,1960.0,8936.0,-3322.0,-55.866012077050726,-10.706763635001275,-87.39439690705338
2026-03-11T20:28:07.359,48948,-1363.0,1386.0,15946.0,-119.0,-21.0,-209.0,1960.0,8936.0,-3322.0,-55.81554043506342,-10.601082851559603,-87.30473716607295
2026-03-11T20:28:07.369,48958,-736.0,1185.0,16581.0,-124.0,-54.0,-179.0,1947.0,8926.0,-3299.0,-55.83267308844605,-10.867558632193642,-86.94648832340738
2026-03-11T20:28:07.379,48968,-1499.0,1112.0,14214.0,-132.0,-63.0,-143.0,1947.0,8926.0,-3299.0,-55.92015374783532,-11.147569014835579,-86.25438174761591
2026-03-11T20:28:07.389,48978,-850.0,1174.0,16194.0,-98.0,-17.0,-181.0,1958.0,8926.0,-3234.0,-55.67922147182383,-11.031282308143377,-86.00908853929815
2026-03-11T20:28:07.399,48988,-299.0,1252.0,18099.0,-130.0,-31.0,-151.0,1958.0,8926.0,-3234.0,-55.76049430247007,-11.09557269176393,-85.48385180153704
2026-03-11T20:28:07.409,48998,-646.0,1082.0,16387.0,-130.0,-31.0,-151.0,1968.0,8944.0,-3247.0,-55.843731628510206,-11.132408912803228,-84.97140783796951
2026-03-11T20:28:07.420,49008,-1485.0,1133.0,14701.0,-98.0,-17.0,-215.0,1968.0,8944.0,-3247.0,-55.599115989990175,-10.961337859120743,-85.11413376962778
2026-03-11T20:28:07.435,49018,-807.0,1054.0,15919.0,-99.0,-52.0,-125.0,1966.0,8929.0,-3316.0,-55.38157295949325,-11.193796171892206,-84.3704294593392
2026-03-11T20:28:07.446,49028,127.0,886.0,17349.0,-129.0,-21.0,-172.0,1966.0,8929.0,-3316.0,-55.479671274266536,-11.184097635248405,-84.10234803823775
2026-03-11T20:28:07.449,49038,-554.0,1151.0,16900.0,-141.0,-67.0,-188.0,1951.0,8920.0,-3301.0,-55.673953873157494,-11.579551521965241,-83.992572178048
2026-03-11T20:28:07.459,49048,-141.0,1197.0,18125.0,-161.0,-78.0,-176.0,1951.0,8920.0,-3301.0,-56.06270668458149,-12.103465613799159,-83.73775153289557
2026-03-11T20:28:07.469,49058,-673.0,1187.0,16908.0,-123.0,-62.0,-202.0,1967.0,8921.0,-3238.0,-56.066537091093004,-12.4235205597702,-83.76822432679849
2026-03-11T20:28:07.479,49068,-269.0,1306.0,18357.0,-160.0,-65.0,-160.0,1967.0,8921.0,-3238.0,-56.431817864002504,-12.795301647489755,-83.36570011541191
2026-03-11T20:28:07.489,49078,-583.0,1061.0,16396.0,-187.0,-48.0,-192.0,1958.0,8934.0,-3275.0,-57.06173151801507,-12.96915187129727,-83.21900409751912
2026-03-11T20:28:07.499,49088,-1613.0,1273.0,14718.0,-187.0,-48.0,-192.0,1958.0,8934.0,-3275.0,-57.65422957187566,-13.055544517210528,-83.02610475771058
2026-03-11T20:28:07.510,49098,-1064.0,1080.0,15154.0,-124.0,-5.0,-166.0,1950.0,8937.0,-3298.0,-57.63481535849741,-12.7633104267054,-82.58906500473392
2026-03-11T20:28:07.519,49108,-874.0,1172.0,16142.0,-130.0,-24.0,-171.0,1950.0,8937.0,-3298.0,-57.67306487117923,-12.681422171575324,-82.21812223680391
2026-03-11T20:28:07.543,49118,-1203.0,986.0,14330.0,-145.0,-19.0,-182.0,1960.0,8942.0,-3255.0,-57.86188098167971,-12.518244765164484,-81.97661509333511
2026-03-11T20:28:07.548,49128,-327.0,1248.0,17800.0,-147.0,-13.0,-234.0,1960.0,8942.0,-3255.0,-58.0650317774956,-12.37428240111731,-82.22264545223123
2026-03-11T20:28:07.549,49138,-934.0,1269.0,16516.0,-125.0,4.0,-189.0,1952.0,8926.0,-3317.0,-58.04085784371042,-12.023052609155974,-81.99232921518247
2026-03-11T20:28:07.559,49148,-1472.0,1128.0,14333.0,-101.0,-9.0,-156.0,1952.0,8926.0,-3317.0,-57.77984319482039,-11.753876100805801,-81.48630186521365
2026-03-11T20:28:07.569,49158,-884.0,1043.0,15485.0,-161.0,-8.0,-148.0,1961.0,8931.0,-3329.0,-58.12497901203113,-11.531999453530654,-80.88703955085971
2026-03-11T20:28:07.579,49168,-1376.0,1173.0,14982.0,-161.0,-8.0,-145.0,1961.0,8931.0,-3329.0,-58.4507438220126,-11.27512736653636,-80.25743177092204
2026-03-11T20:28:07.589,49178,-422.0,831.0,15566.0,-107.0,-13.0,-145.0,1962.0,8927.0,-3248.0,-58.269211590456486,-11.146010375414408,-79.72733895002939
2026-03-11T20:28:07.600,49188,-389.0,968.0,16480.0,-111.0,0.0,-158.0,1962.0,8927.0,-3248.0,-58.124395972610834,-10.896093089838006,-79.36242794279015
2026-03-11T20:28:07.609,49198,-614.0,1201.0,17183.0,-180.0,-22.0,-120.0,1963.0,8950.0,-3258.0,-58.645944713577784,-10.852941176547795,-78.6040480288518
2026-03-11T20:28:07.619,49208,110.0,1057.0,18014.0,-146.0,-29.0,-210.0,1963.0,8950.0,-3258.0,-58.83666441287208,-10.927067626826055,-78.71898085516611
2026-03-11T20:28:07.640,49218,-627.0,1140.0,16621.0,-144.0,-23.0,-245.0,1953.0,8924.0,-3255.0,-58.99265804501572,-10.890820150631972,-79.14244964468693
2026-03-11T20:28:07.650,49228,-787.0,744.0,14176.0,-113.0,-40.0,-209.0,1953.0,8924.0,-3255.0,-58.86011884399026,-11.001539082285355,-79.216057143294
2026-03-11T20:28:07.652,49238,-863.0,1086.0,15582.0,-165.0,-29.0,-217.0,1961.0,8943.0,-3237.0,-59.220179900159465,-11.002460321017148,-79.33941454290138
2026-03-11T20:28:07.659,49248,-617.0,1447.0,18135.0,-132.0,-9.0,-159.0,1961.0,8943.0,-3237.0,-59.23813646862129,-10.831762483977819,-78.90414661826746
2026-03-11T20:28:07.669,49258,-586.0,1100.0,16433.0,-132.0,-9.0,-159.0,1958.0,8928.0,-3300.0,-59.27038215414175,-10.662572373735083,-78.44197123707414
2026-03-11T20:28:07.679,49268,45.0,870.0,17034.0,-145.0,5.0,-195.0,1958.0,8928.0,-3300.0,-59.4474984605683,-10.403344230001432,-78.32625368988467
2026-03-11T20:28:07.689,49278,-178.0,1073.0,17417.0,-143.0,-41.0,-142.0,1960.0,8935.0,-3257.0,-59.58944177885786,-10.585388768869741,-77.7277366905374
2026-03-11T20:28:07.712,49288,186.0,909.0,17503.0,-179.0,-25.0,-167.0,1960.0,8935.0,-3257.0,-60.09239443301773,-10.630841506290789,-77.34128915818322
2026-03-11T20:28:07.712,49298,-572.0,1045.0,16407.0,-196.0,-38.0,-157.0,1961.0,8935.0,-3269.0,-60.73845896941703,-10.750771291909984,-76.79647964077846
2026-03-11T20:28:07.719,49308,-1381.0,1537.0,16766.0,-183.0,-23.0,-181.0,1961.0,8935.0,-3269.0,-61.212332361257126,-10.667371945084506,-76.45057324594468
2026-03-11T20:28:07.734,49318,-1161.0,1245.0,15815.0,-107.0,-39.0,-213.0,1962.0,8938.0,-3245.0,-60.94666176978181,-10.752510039728659,-76.47605176022692
2026-03-11T20:28:07.746,49328,-1661.0,1342.0,15173.0,-115.0,-66.0,-186.0,1962.0,8938.0,-3245.0,-60.75363926896437,-11.05979515368507,-76.26661880832995
2026-03-11T20:28:07.752,49338,-976.0,1153.0,15959.0,-115.0,-26.0,-200.0,1962.0,8942.0,-3303.0,-60.58292038967958,-11.023587503364055,-76.18000030904693
2026-03-11T20:28:07.760,49348,-980.0,788.0,14127.0,-165.0,-26.0,-200.0,1962.0,8942.0,-3303.0,-60.924409307966094,-10.978672712943368,-76.0575368267555
2026-03-11T20:28:07.769,49358,-1287.0,1181.0,15360.0,-147.0,-52.0,-174.0,1969.0,8942.0,-3287.0,-61.05858694983179,-11.17318841229491,-75.68775637582286
2026-03-11T20:28:07.779,49368,-990.0,858.0,14292.0,-120.0,-46.0,-190.0,1969.0,8942.0,-3287.0,-60.94470425588509,-11.321416185814405,-75.50227000381877
2026-03-11T20:28:07.789,49378,-1084.0,1146.0,15540.0,-107.0,0.0,-176.0,1955.0,8927.0,-3301.0,-60.69005711916037,-11.015398679015453,-75.21230037320771
2026-03-11T20:28:07.799,49388,-1398.0,1112.0,14582.0,-122.0,-18.0,-171.0,1955.0,8927.0,-3301.0,-60.58463909045446,-10.862279828852506,-74.90145450692364
2026-03-11T20:28:07.810,49398,-659.0,1114.0,16189.0,-98.0,-5.0,-199.0,1946.0,8937.0,-3279.0,-60.254617492582064,-10.647523449292217,-74.93323924958672
2026-03-11T20:28:07.819,49408,-644.0,1453.0,18104.0,-131.0,-48.0,-118.0,1946.0,8937.0,-3279.0,-60.24155238085822,-10.86435785568378,-74.19536299820238
2026-03-11T20:28:07.829,49418,-553.0,1301.0,17562.0,-116.0,-13.0,-180.0,1970.0,8933.0,-3255.0,-60.088786226857565,-10.738498029050989,-74.10580544955054
2026-03-11T20:28:07.845,49428,-89.0,1169.0,17982.0,-116.0,-13.0,-180.0,1970.0,8933.0,-3255.0,-59.94941983507277,-10.64546847378684,-74.03621554739082
2026-03-11T20:28:07.856,49438,-194.0,929.0,16612.0,-154.0,-1.0,-137.0,1967.0,8920.0,-3257.0,-60.195614589897986,-10.42899823543612,-73.52957811059292
2026-03-11T20:28:07.866,49448,-11.0,708.0,16049.0,-170.0,-29.0,-149.0,1967.0,8920.0,-3257.0,-60.607183103795485,-10.50383362234551,-73.11519496777962
2026-03-11T20:28:07.869,49458,-447.0,910.0,16221.0,-137.0,-40.0,-122.0,1950.0,8929.0,-3306.0,-60.67342075661165,-10.654236628408432,-72.43217863946575
2026-03-11T20:28:07.879,49468,-986.0,831.0,14244.0,-124.0,-27.0,-189.0,1950.0,8929.0,-3306.0,-60.60837491298933,-10.62668952004967,-72.42746591521151
2026-03-11T20:28:07.889,49478,-762.0,956.0,15569.0,-144.0,-65.0,-169.0,1959.0,8948.0,-3309.0,-60.737131766307634,-10.995220611887213,-72.21925123507542
2026-03-11T20:28:07.899,49488,148.0,781.0,16950.0,-160.0,-53.0,-207.0,1959.0,8948.0,-3309.0,-61.03762644486517,-11.304710976435272,-72.34758373316902
2026-03-11T20:28:07.909,49498,-616.0,857.0,15399.0,-159.0,-30.0,-230.0,1972.0,8939.0,-3301.0,-61.31136603522172,-11.326872295164002,-72.65301216338595
2026-03-11T20:28:07.919,49508,-278.0,742.0,15702.0,-146.0,-17.0,-173.0,1972.0,8939.0,-3301.0,-61.46182858093921,-11.246671425764164,-72.38313823873864
2026-03-11T20:28:07.930,49518,-245.0,934.0,16684.0,-146.0,-17.0,-173.0,1960.0,8946.0,-3271.0,-61.59930850523241,-11.171538048845576,-72.13944829519473
2026-03-11T20:28:07.954,49528,-220.0,640.0,15241.0,-143.0,-10.0,-227.0,1960.0,8946.0,-3271.0,-61.72063130654264,-11.029581994672503,-72.40549205415932
2026-03-11T20:28:07.965,49538,-669.0,915.0,15527.0,-151.0,-33.0,-152.0,1966.0,8924.0,-3259.0,-61.89856833167347,-11.083133031046621,-71.92286481583776
2026-03-11T20:28:07.965,49548,-331.0,642.0,14862.0,-130.0,-41.0,-199.0,1966.0,8924.0,-3259.0,-61.88512712754265,-11.23777702182954,-71.91329281654093
2026-03-11T20:28:07.969,49558,-1117.0,1170.0,15485.0,-206.0,-44.0,-150.0,1969.0,8930.0,-3268.0,-62.57980685074559,-11.36193828769187,-71.34594454266481
2026-03-11T20:28:07.979,49568,-1584.0,1431.0,15700.0,-137.0,-45.0,-156.0,1969.0,8930.0,-3268.0,-62.56665232412177,-11.46094850886836,-70.86637406627776
2026-03-11T20:28:07.989,49578,-875.0,1147.0,16003.0,-122.0,-28.0,-203.0,1971.0,8944.0,-3297.0,-62.428927064442746,-11.443696196303055,-70.85632676991541
2026-03-11T20:28:07.999,49588,-42.0,1135.0,18016.0,-131.0,-72.0,-170.0,1971.0,8944.0,-3297.0,-62.39205163191099,-11.91775613439334,-70.541391184581
2026-03-11T20:28:08.009,49598,-555.0,1199.0,16953.0,-131.0,-72.0,-165.0,1967.0,8920.0,-3256.0,-62.34710050677743,-12.347593288642054,-70.22805296175413
2026-03-11T20:28:08.019,49608,-474.0,1146.0,17117.0,-157.0,-46.0,-165.0,1967.0,8920.0,-3256.0,-62.56215264357182,-12.519787928029281,-69.90499133330594
2026-03-11T20:28:08.029,49618,-1101.0,1242.0,15983.0,-135.0,3.0,-146.0,1954.0,8935.0,-3256.0,-62.54504186906725,-12.161415625071054,-69.42679222651948
2026-03-11T20:28:08.053,49628,-1177.0,1509.0,17205.0,-120.0,-17.0,-204.0,1954.0,8935.0,-3256.0,-62.36989267134904,-12.006815178671218,-69.54439689448778
2026-03-11T20:28:08.058,49638,-804.0,1195.0,16578.0,-138.0,-35.0,-146.0,1962.0,8935.0,-3260.0,-62.39243585201281,-12.05429124700761,-69.09671517561581
2026-03-11T20:28:08.059,49648,-1216.0,1269.0,15752.0,-112.0,-35.0,-183.0,1962.0,8935.0,-3260.0,-62.150069741724025,-12.06820377496411,-69.05307063683364
2026-03-11T20:28:08.069,49658,-291.0,739.0,15440.0,-111.0,-63.0,-224.0,1975.0,8932.0,-3297.0,-61.94006356338162,-12.422669699534747,-69.3951619849629
2026-03-11T20:28:08.079,49668,-871.0,1158.0,16109.0,-140.0,-54.0,-133.0,1975.0,8932.0,-3297.0,-61.99102927884128,-12.641676895793685,-68.85090602248671
2026-03-11T20:28:08.089,49678,-736.0,1054.0,15923.0,-160.0,-36.0,-219.0,1967.0,8932.0,-3267.0,-62.243466958945824,-12.688829424073777,-69.14605699305774
2026-03-11T20:28:08.099,49688,-1339.0,1147.0,14889.0,-160.0,-36.0,-219.0,1967.0,8932.0,-3267.0,-62.47849403334003,-12.68537666125927,-69.39751652269078
2026-03-11T20:28:08.111,49698,-940.0,1064.0,15347.0,-146.0,-38.0,-170.0,1955.0,8933.0,-3330.0,-62.5804053072213,-12.734137098300808,-69.11340681093581
2026-03-11T20:28:08.119,49708,-1402.0,1167.0,14814.0,-160.0,-19.0,-201.0,1955.0,8933.0,-3330.0,-62.80671164358108,-12.557858712416346,-69.10739119275958
2026-03-11T20:28:08.129,49718,-703.0,972.0,15808.0,-164.0,-38.0,-149.0,1961.0,8941.0,-3312.0,-63.08740611624495,-12.628270776699484,-68.58744417830333
2026-03-11T20:28:08.139,49728,-259.0,1237.0,18156.0,-119.0,-14.0,-173.0,1961.0,8941.0,-3312.0,-62.91390523102279,-12.496597490954032,-68.34276130833894
2026-03-11T20:28:08.151,49738,-683.0,1069.0,16262.0,-160.0,-11.0,-196.0,1970.0,8931.0,-3282.0,-63.148407359619725,-12.306469105880865,-68.31418066986325
2026-03-11T20:28:08.160,49748,-1641.0,1393.0,15500.0,-170.0,-78.0,-121.0,1970.0,8931.0,-3282.0,-63.44873059499117,-12.704352392681482,-67.53938517217964
2026-03-11T20:28:08.169,49758,-813.0,1115.0,16096.0,-134.0,-63.0,-195.0,1966.0,8937.0,-3302.0,-63.41370287464501,-13.009972953007022,-67.50141658026693
2026-03-11T20:28:08.179,49768,-393.0,1223.0,17704.0,-134.0,-28.0,-209.0,1966.0,8937.0,-3302.0,-63.37959403228871,-12.998800658029065,-67.60268395169575
2026-03-11T20:28:08.189,49778,-597.0,1218.0,17016.0,-117.0,-28.0,-209.0,1945.0,8929.0,-3293.0,-63.176717528136805,-12.973139584422057,-67.7356351525236
2026-03-11T20:28:08.199,49788,11.0,1073.0,18083.0,-142.0,-13.0,-254.0,1945.0,8929.0,-3293.0,-63.23686704683997,-12.841772636207128,-68.28027877437334
2026-03-11T20:28:08.209,49798,-813.0,1153.0,16256.0,-159.0,-48.0,-182.0,1962.0,8936.0,-3288.0,-63.44918848195798,-12.998218272037024,-68.08916352333748
2026-03-11T20:28:08.219,49808,-161.0,806.0,16107.0,-117.0,-21.0,-215.0,1962.0,8936.0,-3288.0,-63.26951047964307,-12.932614424757519,-68.24380720490278
2026-03-11T20:28:08.229,49818,-159.0,1028.0,17131.0,-101.0,-9.0,-182.0,1969.0,8936.0,-3284.0,-62.92523833161009,-12.75154581448797,-68.1207576738713
2026-03-11T20:28:08.239,49828,72.0,704.0,16100.0,-158.0,3.0,-164.0,1969.0,8936.0,-3284.0,-63.16505834725082,-12.472234563434137,-67.79927574363339
2026-03-11T20:28:08.254,49838,-473.0,1050.0,16360.0,-143.0,-16.0,-159.0,1958.0,8936.0,-3253.0,-63.22971198746503,-12.346536378793807,-67.4652178352291
2026-03-11T20:28:08.263,49848,233.0,925.0,17630.0,-192.0,-19.0,-145.0,1958.0,8936.0,-3253.0,-63.78664963173468,-12.300928516217992,-66.9407144044997
2026-03-11T20:28:08.269,49858,-399.0,962.0,16185.0,-192.0,-19.0,-145.0,1958.0,8931.0,-3276.0,-64.32448603213051,-12.212915771809122,-66.34634864108115
2026-03-11T20:28:08.279,49868,32.0,794.0,16529.0,-129.0,11.0,-206.0,1958.0,8931.0,-3276.0,-64.2471924936846,-11.863073381021243,-66.36736080820668
2026-03-11T20:28:08.289,49878,-927.0,1086.0,15770.0,-141.0,1.0,-156.0,1961.0,8942.0,-3293.0,-64.26525963498105,-11.548888166352429,-65.8942994346227
2026-03-11T20:28:08.299,49888,-1201.0,1005.0,14710.0,-146.0,41.0,-183.0,1961.0,8942.0,-3293.0,-64.3325859644204,-10.822975176403416,-65.68214104334601
2026-03-11T20:28:08.318,49898,-775.0,1057.0,15937.0,-133.0,-3.0,-177.0,1960.0,8942.0,-3298.0,-64.27344408696634,-10.580356704953802,-65.42495869399292
2026-03-11T20:28:08.321,49908,-1068.0,1503.0,17433.0,-159.0,-39.0,-181.0,1960.0,8942.0,-3298.0,-64.44762288164543,-10.68109333514312,-65.19442891513675
2026-03-11T20:28:08.329,49918,-677.0,1131.0,16588.0,-165.0,-18.0,-192.0,1970.0,8939.0,-3279.0,-64.6976605491649,-10.597237722628709,-65.05468493044965
2026-03-11T20:28:08.339,49928,-1551.0,1517.0,16354.0,-141.0,-28.0,-170.0,1970.0,8939.0,-3279.0,-64.67951530729816,-10.551799791763317,-64.7149642243954
2026-03-11T20:28:08.352,49938,-978.0,1207.0,16071.0,-109.0,-56.0,-223.0,1967.0,8939.0,-3283.0,-64.36822317049837,-10.820110170992551,-64.94240762187668
2026-03-11T20:28:08.387,49948,-727.0,1203.0,16718.0,-109.0,-56.0,-223.0,1967.0,8939.0,-3283.0,-64.06674237361412,-11.102836258242995,-65.20530041328487
2026-03-11T20:28:08.387,49958,-604.0,1040.0,16148.0,-160.0,-34.0,-207.0,1971.0,8933.0,-3285.0,-64.27970746775746,-11.171226157944371,-65.26840377401861
2026-03-11T20:28:08.397,49968,-598.0,1402.0,18051.0,-136.0,-30.0,-234.0,1971.0,8933.0,-3285.0,-64.23808971988451,-11.203967073580023,-65.59122490658447
2026-03-11T20:28:08.398,49978,-734.0,1192.0,16440.0,-149.0,-33.0,-156.0,1961.0,8927.0,-3282.0,-64.33058721512708,-11.252293450433031,-65.14752183305549
2026-03-11T20:28:08.398,49988,122.0,890.0,17077.0,-182.0,-17.0,-150.0,1961.0,8927.0,-3282.0,-64.767907906148,-11.202022896565946,-64.60480498858662
2026-03-11T20:28:08.410,49998,-123.0,1003.0,17209.0,-179.0,6.0,-169.0,1952.0,8931.0,-3272.0,-65.1600372983238,-10.911006109904639,-64.21973731838268
2026-03-11T20:28:08.419,50008,-125.0,1170.0,17953.0,-124.0,-39.0,-150.0,1952.0,8931.0,-3272.0,-64.99746249893076,-11.06702442503696,-63.70029344964804
2026-03-11T20:28:08.429,50018,-446.0,1147.0,17078.0,-156.0,-44.0,-191.0,1969.0,8936.0,-3310.0,-65.14946618035252,-11.247031834724776,-63.539750749425885
2026-03-11T20:28:08.439,50028,-656.0,1269.0,17370.0,-156.0,-44.0,-154.0,1969.0,8936.0,-3310.0,-65.2917081741092,-11.41014967318014,-63.017145378650525
2026-03-11T20:28:08.455,50038,-1334.0,1458.0,16500.0,-142.0,-82.0,-154.0,1957.0,8919.0,-3261.0,-65.27647905766194,-11.893459474672925,-62.57179744211171
2026-03-11T20:28:08.473,50048,-1029.0,1187.0,15940.0,-113.0,-73.0,-211.0,1957.0,8919.0,-3261.0,-64.99317407518983,-12.297322096748582,-62.73809633572261
2026-03-11T20:28:08.480,50058,-1398.0,1423.0,16163.0,-130.0,-72.0,-139.0,1951.0,8944.0,-3287.0,-64.86668297087834,-12.658486154170971,-62.22397689714433
2026-03-11T20:28:08.480,50068,-614.0,1024.0,16175.0,-119.0,-50.0,-175.0,1951.0,8944.0,-3287.0,-64.66310086035658,-12.8519253451557,-62.1093536490076
2026-03-11T20:28:08.489,50078,-941.0,1137.0,15986.0,-161.0,-50.0,-159.0,1971.0,8935.0,-3252.0,-64.86627291953249,-13.017680785888047,-61.8444101778669
2026-03-11T20:28:08.499,50088,-31.0,989.0,17473.0,-173.0,-80.0,-160.0,1971.0,8935.0,-3252.0,-65.19955592211147,-13.539297376850318,-61.56420264484259
2026-03-11T20:28:08.509,50098,-227.0,961.0,16866.0,-186.0,-56.0,-201.0,1957.0,8928.0,-3304.0,-65.65314273146917,-13.801914418512506,-61.582719338724274
2026-03-11T20:28:08.520,50108,-229.0,683.0,15466.0,-141.0,-79.0,-173.0,1957.0,8928.0,-3304.0,-65.67130751462881,-14.283126690013187,-61.341065532142565
2026-03-11T20:28:08.529,50118,-586.0,1036.0,16232.0,-141.0,-79.0,-173.0,1952.0,8944.0,-3281.0,-65.66664289252978,-14.73039670581247,-61.14753421880242
2026-03-11T20:28:08.540,50128,-1017.0,1161.0,15737.0,-128.0,-48.0,-194.0,1952.0,8944.0,-3281.0,-65.52332278505125,-14.832436955578082,-61.18514078848604
2026-03-11T20:28:08.549,50138,-492.0,799.0,15286.0,-149.0,-79.0,-131.0,1957.0,8944.0,-3295.0,-65.6132137231471,-15.273168375436212,-60.60527544494563
2026-03-11T20:28:08.561,50148,-123.0,860.0,16393.0,-168.0,-42.0,-185.0,1957.0,8944.0,-3295.0,-65.88728815353299,-15.370718939181177,-60.53118477293502
2026-03-11T20:28:08.570,50158,-318.0,1237.0,17787.0,-167.0,-45.0,-143.0,1952.0,8922.0,-3251.0,-66.12657759949786,-15.483869153340313,-60.06182792943938
2026-03-11T20:28:08.592,50168,-857.0,1415.0,17554.0,-141.0,-20.0,-158.0,1952.0,8922.0,-3251.0,-66.09367490490061,-15.314472105413314,-59.759582849565994
2026-03-11T20:28:08.602,50178,-872.0,1270.0,16466.0,-174.0,-26.0,-220.0,1966.0,8934.0,-3270.0,-66.38879314397155,-15.202533547679886,-60.0027910223248
2026-03-11T20:28:08.602,50188,-877.0,1224.0,16504.0,-167.0,-41.0,-143.0,1966.0,8934.0,-3270.0,-66.61278708400687,-15.239614012445175,-59.471093466788595
2026-03-11T20:28:08.609,50198,-112.0,1086.0,17744.0,-167.0,-37.0,-203.0,1965.0,8939.0,-3261.0,-66.84708434429953,-15.290202325914365,-59.513209013773384
2026-03-11T20:28:08.621,50208,-986.0,1028.0,15243.0,-153.0,-37.0,-203.0,1965.0,8939.0,-3261.0,-66.93237804856687,-15.27314465848851,-59.54043962443218
2026-03-11T20:28:08.629,50218,-666.0,1283.0,17540.0,-146.0,-19.0,-172.0,1959.0,8927.0,-3290.0,-66.94085910957645,-15.110507608529272,-59.23716991637159
2026-03-11T20:28:08.639,50228,-552.0,1048.0,16305.0,-149.0,-28.0,-236.0,1959.0,8927.0,-3290.0,-66.98868965130455,-15.043997497250498,-59.54840202315493
2026-03-11T20:28:08.649,50238,-1375.0,1320.0,15815.0,-173.0,-21.0,-168.0,1970.0,8947.0,-3250.0,-67.24889311400034,-14.849881011248875,-59.19681332017617
2026-03-11T20:28:08.668,50248,-693.0,1037.0,16155.0,-131.0,-59.0,-186.0,1970.0,8947.0,-3250.0,-67.114258961768,-15.082058017472598,-59.059308887786216
2026-03-11T20:28:08.676,50258,-488.0,1005.0,16262.0,-133.0,-14.0,-182.0,1968.0,8941.0,-3271.0,-67.00464555980707,-14.88330526227283,-58.88125443947133
2026-03-11T20:28:08.679,50268,-681.0,717.0,14409.0,-166.0,-41.0,-131.0,1968.0,8941.0,-3271.0,-67.23437823393049,-14.93338779661064,-58.194814253398576
2026-03-11T20:28:08.689,50278,-902.0,1050.0,15412.0,-168.0,-28.0,-182.0,1967.0,8954.0,-3276.0,-67.45814134672094,-14.842285377656205,-57.99160149937463
2026-03-11T20:28:08.699,50288,-1554.0,1481.0,16128.0,-168.0,-28.0,-182.0,1967.0,8954.0,-3276.0,-67.65044580705943,-14.710224098682348,-57.76600449708251
2026-03-11T20:28:08.709,50298,-378.0,1106.0,16988.0,-164.0,-62.0,-181.0,1968.0,8948.0,-3292.0,-67.83013744856557,-14.998179894945123,-57.50563973475778
2026-03-11T20:28:08.720,50308,77.0,724.0,16241.0,-160.0,-41.0,-255.0,1968.0,8948.0,-3292.0,-67.99048525845348,-15.105443752187321,-57.93979317954133
2026-03-11T20:28:08.729,50318,-569.0,1088.0,16549.0,-157.0,-16.0,-195.0,1973.0,8924.0,-3293.0,-68.09404656517732,-14.920835445168658,-57.75140770753693
2026-03-11T20:28:08.739,50328,-989.0,805.0,14050.0,-131.0,-2.0,-197.0,1973.0,8924.0,-3293.0,-67.95038167468729,-14.56162032078294,-57.60335785556289
2026-03-11T20:28:08.749,50338,-729.0,1095.0,16074.0,-170.0,-62.0,-230.0,1964.0,8941.0,-3279.0,-68.17943190128975,-14.826173011181716,-57.7679660022893
2026-03-11T20:28:08.779,50348,105.0,1009.0,17725.0,-152.0,-65.0,-162.0,1964.0,8941.0,-3279.0,-68.24028205933456,-15.173426716519105,-57.27891291580578
2026-03-11T20:28:08.787,50358,-761.0,1013.0,15669.0,-160.0,-12.0,-219.0,1962.0,8947.0,-3293.0,-68.36949599268365,-14.932063597854002,-57.317936599495596
2026-03-11T20:28:08.787,50368,-1273.0,1523.0,17071.0,-139.0,-21.0,-185.0,1962.0,8947.0,-3293.0,-68.26234244509862,-14.754264421368939,-57.043509915172464
2026-03-11T20:28:08.789,50378,-695.0,1254.0,16979.0,-139.0,-21.0,-185.0,1962.0,8933.0,-3276.0,-68.17481630374006,-14.618226830256093,-56.80345381655083
2026-03-11T20:28:08.799,50388,-19.0,1131.0,18164.0,-180.0,-6.0,-224.0,1962.0,8933.0,-3276.0,-68.5040603713078,-14.383465954505509,-56.8873269060351
2026-03-11T20:28:08.810,50398,-413.0,1002.0,16616.0,-190.0,-13.0,-164.0,1952.0,8940.0,-3279.0,-68.92696022820617,-14.194771739252863,-56.323427101557854
2026-03-11T20:28:08.819,50408,-15.0,1026.0,17718.0,-161.0,-18.0,-190.0,1952.0,8940.0,-3279.0,-69.05993826678771,-14.086307798822512,-56.00965151149822
2026-03-11T20:28:08.830,50418,-731.0,1417.0,17725.0,-153.0,-47.0,-157.0,1962.0,8949.0,-3286.0,-69.0867253150959,-14.218099533070552,-55.39430219432509
2026-03-11T20:28:08.839,50428,-1274.0,1223.0,15442.0,-139.0,-63.0,-129.0,1962.0,8949.0,-3286.0,-68.97662381599868,-14.457103667940688,-54.5691810083926
2026-03-11T20:28:08.849,50438,-646.0,886.0,15460.0,-198.0,-57.0,-158.0,1970.0,8949.0,-3287.0,-69.47189160567352,-14.678785362477075,-53.987298815189135
2026-03-11T20:28:08.883,50448,-656.0,887.0,15167.0,-160.0,-49.0,-115.0,1970.0,8949.0,-3287.0,-69.58351431844507,-14.815962000991851,-53.01263388069303
2026-03-11T20:28:08.887,50458,-599.0,1014.0,16108.0,-160.0,-49.0,-205.0,1965.0,8947.0,-3292.0,-69.6878036042497,-14.957333871351597,-52.92408702921011
2026-03-11T20:28:08.887,50468,-1350.0,1103.0,14750.0,-131.0,-13.0,-205.0,1965.0,8947.0,-3292.0,-69.49231554727484,-14.681287780572184,-52.8621598759585
2026-03-11T20:28:08.889,50478,-1000.0,1162.0,16012.0,-125.0,-17.0,-113.0,1957.0,8942.0,-3285.0,-69.2444550134317,-14.482975785674453,-51.967766198539834
2026-03-11T20:28:08.899,50488,-95.0,1111.0,17921.0,-217.0,-14.0,-200.0,1957.0,8942.0,-3285.0,-69.91521646894353,-14.324453417777063,-51.829206926447995
2026-03-11T20:28:08.909,50498,-736.0,1067.0,15882.0,-166.0,-27.0,-176.0,1961.0,8943.0,-3276.0,-70.06684163589092,-14.249617741385645,-51.451051679416906
2026-03-11T20:28:08.919,50508,-1263.0,1541.0,17021.0,-137.0,-13.0,-174.0,1961.0,8943.0,-3276.0,-69.9046411507894,-14.007495642078718,-51.09108942170711
2026-03-11T20:28:08.934,50518,-809.0,1160.0,16242.0,-159.0,-36.0,-143.0,1962.0,8941.0,-3284.0,-69.98304601996338,-14.023260450879972,-50.433617199169376
2026-03-11T20:28:08.940,50528,-1039.0,926.0,14662.0,-176.0,-67.0,-156.0,1962.0,8941.0,-3284.0,-70.23590912336543,-14.318487880614779,-49.90116921508016
2026-03-11T20:28:08.949,50538,-817.0,1213.0,16223.0,-131.0,-64.0,-219.0,1959.0,8939.0,-3277.0,-70.02946952333735,-14.601818075951597,-50.044333511267624
2026-03-11T20:28:08.976,50548,215.0,984.0,17930.0,-131.0,-64.0,-219.0,1959.0,8939.0,-3277.0,-69.849855204989,-14.950701174522854,-50.222114554650744
2026-03-11T20:28:08.985,50558,-630.0,1047.0,16214.0,-95.0,-75.0,-127.0,1976.0,8945.0,-3278.0,-69.30996454064395,-15.342277032934081,-49.61830382814678
2026-03-11T20:28:08.985,50568,-1246.0,1019.0,14526.0,-124.0,-33.0,-166.0,1976.0,8945.0,-3278.0,-69.05871065725692,-15.261017252166239,-49.45210900831503
2026-03-11T20:28:08.989,50578,-902.0,951.0,15027.0,-158.0,-68.0,-107.0,1963.0,8941.0,-3286.0,-69.15351251860294,-15.553632265927744,-48.719371655470376
2026-03-11T20:28:09.000,50588,-1661.0,1294.0,14887.0,-179.0,-44.0,-157.0,1963.0,8941.0,-3286.0,-69.42528731287311,-15.546906400089256,-48.455159760391524
2026-03-11T20:28:09.009,50598,-1115.0,1260.0,15974.0,-89.0,-69.0,-209.0,1956.0,8942.0,-3274.0,-68.81878059425505,-15.832558300248815,-48.81387697886173
2026-03-11T20:28:09.054,50608,-1241.0,1264.0,15737.0,-123.0,-58.0,-187.0,1956.0,8942.0,-3274.0,-68.55596190439876,-15.994416596216839,-48.99093868760819
2026-03-11T20:28:09.056,50618,-615.0,827.0,15102.0,-134.0,-28.0,-234.0,1962.0,8940.0,-3285.0,-68.43535384280436,-15.90235851554744,-49.61029573722028
2026-03-11T20:28:09.056,50628,-224.0,688.0,15525.0,-134.0,-57.0,-156.0,1962.0,8940.0,-3285.0,-68.32909801014519,-16.126395038839092,-49.48035179394507
2026-03-11T20:28:09.056,50638,-699.0,1063.0,16338.0,-138.0,-57.0,-156.0,1967.0,8938.0,-3283.0,-68.24046423251227,-16.313573768784238,-49.37654878222925
2026-03-11T20:28:09.059,50648,-1128.0,996.0,14850.0,-124.0,-28.0,-234.0,1967.0,8938.0,-3283.0,-68.01411251601955,-16.17501984646032,-50.048779761738615
2026-03-11T20:28:09.075,50658,-881.0,1049.0,15655.0,-184.0,-33.0,-159.0,1948.0,8948.0,-3284.0,-68.38036011556403,-16.110643742419743,-49.92141263282953
2026-03-11T20:28:09.083,50668,-1663.0,1327.0,15199.0,-145.0,-19.0,-221.0,1948.0,8948.0,-3284.0,-68.33395794194149,-15.85021673784892,-50.38893804508783
2026-03-11T20:28:09.089,50678,-1457.0,1223.0,15136.0,-144.0,-53.0,-211.0,1964.0,8943.0,-3279.0,-68.28608867089575,-15.942999785465016,-50.75019644034209
2026-03-11T20:28:09.099,50688,-721.0,1056.0,15950.0,-124.0,-42.0,-174.0,1964.0,8943.0,-3279.0,-68.05980994327588,-15.984088259447153,-50.77711693379826
2026-03-11T20:28:09.109,50698,-507.0,758.0,14856.0,-162.0,-10.0,-175.0,1948.0,8944.0,-3288.0,-68.22779617380303,-15.723365035731275,-50.772337039331575
2026-03-11T20:28:09.119,50708,-624.0,1070.0,16148.0,-111.0,-5.0,-113.0,1948.0,8944.0,-3288.0,-67.87522034154766,-15.413735396995522,-50.223855005440754
2026-03-11T20:28:09.129,50718,-53.0,787.0,16267.0,-111.0,-5.0,-113.0,1973.0,8942.0,-3291.0,-67.55011955357348,-15.150731522090547,-49.739430544535004
2026-03-11T20:28:09.139,50728,-615.0,1389.0,17913.0,-153.0,-33.0,-180.0,1973.0,8942.0,-3291.0,-67.6098386533146,-15.13190767561411,-49.90626135346066
2026-03-11T20:28:09.149,50738,-1503.0,1428.0,15873.0,-108.0,-32.0,-185.0,1958.0,8919.0,-3283.0,-67.21322740845567,-15.035118954080025,-50.16960232551551
2026-03-11T20:28:09.159,50748,-854.0,1114.0,16008.0,-128.0,0.0,-244.0,1958.0,8919.0,-3283.0,-67.04374671560898,-14.673488866810748,-50.99659276995308
2026-03-11T20:28:09.177,50758,-472.0,723.0,15073.0,-132.0,-36.0,-175.0,1957.0,8959.0,-3295.0,-66.94154824597032,-14.696988469496608,-51.146170871254405
2026-03-11T20:28:09.181,50768,-508.0,1184.0,17551.0,-152.0,-45.0,-148.0,1957.0,8959.0,-3295.0,-67.01513014165705,-14.81096547736654,-51.023548131977506
2026-03-11T20:28:09.190,50778,-1477.0,1329.0,15817.0,-140.0,-36.0,-173.0,1948.0,8935.0,-3289.0,-66.9507693099242,-14.76122186698448,-51.150831081786464
2026-03-11T20:28:09.199,50788,-1078.0,956.0,14771.0,-116.0,-81.0,-157.0,1948.0,8935.0,-3289.0,-66.67449194340817,-15.17648923570206,-51.17021434209293
2026-03-11T20:28:09.209,50798,18.0,1032.0,17853.0,-150.0,-15.0,-239.0,1968.0,8940.0,-3304.0,-66.74483561516627,-15.02111287609625,-51.939607719831
2026-03-11T20:28:09.220,50808,-554.0,1385.0,18112.0,-150.0,-15.0,-239.0,1968.0,8940.0,-3304.0,-66.79248249734265,-14.832752837125046,-52.65907730201624
2026-03-11T20:28:09.229,50818,-910.0,1258.0,16472.0,-174.0,-33.0,-126.0,1960.0,8947.0,-3277.0,-67.07448651092145,-14.79643891893422,-52.25427401607789
2026-03-11T20:28:09.239,50828,-190.0,1224.0,18162.0,-169.0,-62.0,-185.0,1960.0,8947.0,-3277.0,-67.31208616678421,-15.09614982154491,-52.40222710247874
2026-03-11T20:28:09.249,50838,-560.0,1148.0,16692.0,-148.0,-23.0,-130.0,1957.0,8939.0,-3281.0,-67.33755747881105,-14.981287409580817,-52.00739768145114
2026-03-11T20:28:09.260,50848,-33.0,861.0,16590.0,-163.0,-13.0,-184.0,1957.0,8939.0,-3281.0,-67.52878806963342,-14.806785329851081,-52.11198684572105
2026-03-11T20:28:09.272,50858,-105.0,1230.0,18168.0,-147.0,-16.0,-205.0,1950.0,8934.0,-3291.0,-67.54135036193979,-14.66084212624491,-52.39473241122613
2026-03-11T20:28:09.290,50868,92.0,1079.0,17991.0,-155.0,-5.0,-146.0,1950.0,8934.0,-3291.0,-67.64087994155709,-14.422474554375125,-52.08122541965315
2026-03-11T20:28:09.294,50878,-306.0,1033.0,16640.0,-154.0,-11.0,-134.0,1958.0,8934.0,-3283.0,-67.72621584790764,-14.220795186437494,-51.657542715428114
2026-03-11T20:28:09.299,50888,-767.0,1182.0,16367.0,-154.0,-11.0,-162.0,1958.0,8934.0,-3283.0,-67.79827866270351,-13.990657157549672,-51.50356872578826
2026-03-11T20:28:09.310,50898,-1269.0,1192.0,15478.0,-147.0,-46.0,-162.0,1986.0,8947.0,-3280.0,-67.79483707588147,-14.068178638745584,-51.365087516686245
2026-03-11T20:28:09.318,50908,-1274.0,1145.0,15261.0,-147.0,-13.0,-222.0,1986.0,8947.0,-3280.0,-67.79372553402239,-13.819040718823796,-51.79688139360876
2026-03-11T20:28:09.329,50918,-685.0,784.0,15225.0,-138.0,-54.0,-178.0,1963.0,8935.0,-3284.0,-67.73129502974754,-14.020405939224423,-51.79819876468784
2026-03-11T20:28:09.339,50928,-431.0,661.0,15046.0,-119.0,1.0,-201.0,1963.0,8935.0,-3284.0,-67.49255918153902,-13.697413089093967,-52.04650379785691
2026-03-11T20:28:09.349,50938,-191.0,861.0,16740.0,-128.0,7.0,-166.0,1965.0,8940.0,-3289.0,-67.33822121892459,-13.34180798803262,-51.961671317033336
2026-03-11T20:28:09.359,50948,-33.0,845.0,16904.0,-151.0,-6.0,-154.0,1965.0,8940.0,-3289.0,-67.41402221414383,-13.131537563699641,-51.74976822030524
2026-03-11T20:28:09.383,50958,-351.0,1007.0,16846.0,-101.0,31.0,-200.0,1958.0,8935.0,-3276.0,-66.98712401506138,-12.541276716258722,-52.04919448882618
2026-03-11T20:28:09.390,50968,-139.0,981.0,17078.0,-125.0,-8.0,-171.0,1958.0,8935.0,-3276.0,-66.80662973590813,-12.359539984468888,-52.0821995714716
2026-03-11T20:28:09.390,50978,-488.0,1248.0,17271.0,-125.0,-8.0,-171.0,1959.0,8951.0,-3288.0,-66.61283711349968,-12.158463563491976,-52.13397144227799
2026-03-11T20:28:09.399,50988,-788.0,1356.0,17143.0,-123.0,-7.0,-177.0,1959.0,8951.0,-3288.0,-66.39552753525587,-11.93142152942877,-52.26914100411855
2026-03-11T20:28:09.410,50998,-814.0,872.0,14615.0,-174.0,3.0,-138.0,1959.0,8923.0,-3279.0,-66.70452720021576,-11.599748773241046,-51.96863624355979
2026-03-11T20:28:09.419,51008,-77.0,884.0,16535.0,-180.0,7.0,-188.0,1959.0,8923.0,-3279.0,-67.07323158110013,-11.293825159332709,-52.091446951018206
2026-03-11T20:28:09.429,51018,-506.0,1239.0,17315.0,-139.0,-10.0,-190.0,1967.0,8935.0,-3271.0,-67.01210881650985,-11.13255617667644,-52.244353608019495
2026-03-11T20:28:09.442,51028,-931.0,1288.0,16546.0,-131.0,-18.0,-215.0,1967.0,8935.0,-3271.0,-66.86664398454357,-11.022089166738128,-52.648124726404454
2026-03-11T20:28:09.450,51038,-823.0,851.0,14613.0,-169.0,-17.0,-247.0,1976.0,8932.0,-3278.0,-67.11885306065662,-10.903886664547413,-53.282266927987294
2026-03-11T20:28:09.459,51048,-97.0,972.0,17193.0,-156.0,-27.0,-160.0,1976.0,8932.0,-3278.0,-67.24056096642188,-10.94395424444974,-53.0391937738962
2026-03-11T20:28:09.469,51058,-1066.0,1449.0,17169.0,-156.0,-7.0,-228.0,1942.0,8948.0,-3271.0,-67.32806735549148,-10.722869099748399,-53.45239947032579
2026-03-11T20:28:09.483,51068,-1094.0,1085.0,15405.0,-130.0,-7.0,-228.0,1942.0,8948.0,-3271.0,-67.17493030986599,-10.495969966456608,-53.86508229955909
2026-03-11T20:28:09.492,51078,-610.0,840.0,15530.0,-180.0,-28.0,-190.0,1965.0,8942.0,-3279.0,-67.53351077377701,-10.515529082517618,-53.82232097094857
2026-03-11T20:28:09.499,51088,-1517.0,1062.0,14434.0,-170.0,-55.0,-207.0,1965.0,8942.0,-3279.0,-67.7646800022337,-10.724545482776438,-53.909667052095344
2026-03-11T20:28:09.509,51098,-998.0,881.0,14707.0,-149.0,-60.0,-183.0,1962.0,8932.0,-3294.0,-67.80102403989716,-11.020551604147201,-53.74813252147894
2026-03-11T20:28:09.519,51108,-483.0,964.0,16419.0,-116.0,-33.0,-160.0,1962.0,8932.0,-3294.0,-67.51460117564832,-11.08989863412164,-53.426244406798645
2026-03-11T20:28:09.529,51118,-903.0,1270.0,16756.0,-152.0,-57.0,-184.0,1960.0,8938.0,-3282.0,-67.56722166160313,-11.365181750054507,-53.361466874355315
2026-03-11T20:28:09.539,51128,-1058.0,1046.0,15105.0,-128.0,-55.0,-158.0,1960.0,8938.0,-3282.0,-67.39105066447111,-11.596936408599863,-53.088069918417816
2026-03-11T20:28:09.550,51138,-87.0,949.0,16977.0,-175.0,-47.0,-176.0,1951.0,8949.0,-3282.0,-67.69424052873849,-11.819734548362165,-52.96065115735467
2026-03-11T20:28:09.560,51148,92.0,1028.0,17643.0,-175.0,-47.0,-176.0,1951.0,8949.0,-3282.0,-67.9886623652081,-12.049905100251673,-52.79715385033187
2026-03-11T20:28:09.569,51158,-802.0,1210.0,16311.0,-146.0,-44.0,-120.0,1961.0,8937.0,-3303.0,-67.97483700819988,-12.183962528124274,-52.08985523137817
2026-03-11T20:28:09.596,51168,-51.0,868.0,16142.0,-155.0,-34.0,-229.0,1961.0,8937.0,-3303.0,-68.07278050423332,-12.269868038316769,-52.4397063369283
2026-03-11T20:28:09.598,51178,-372.0,1239.0,17408.0,-149.0,-18.0,-168.0,1958.0,8942.0,-3289.0,-68.09010260335435,-12.176448539101866,-52.20286417460818
2026-03-11T20:28:09.599,51188,-676.0,1284.0,17201.0,-115.0,-10.0,-166.0,1958.0,8942.0,-3289.0,-67.76991994272021,-11.986032958158928,-52.0064376942648
2026-03-11T20:28:09.610,51198,-1198.0,1318.0,15769.0,-139.0,-45.0,-180.0,1957.0,8952.0,-3287.0,-67.68116605897674,-12.10072266465792,-51.97642357022996
2026-03-11T20:28:09.622,51208,-1475.0,1316.0,15435.0,-173.0,-53.0,-189.0,1957.0,8952.0,-3287.0,-67.92547680792481,-12.269326006815735,-51.997929560793246
2026-03-11T20:28:09.630,51218,-1167.0,934.0,14515.0,-180.0,-11.0,-221.0,1951.0,8924.0,-3280.0,-68.25733229932231,-12.039995023776799,-52.25740193366375
2026-03-11T20:28:09.640,51228,-543.0,818.0,15561.0,-173.0,4.0,-128.0,1951.0,8924.0,-3280.0,-68.5274033403019,-11.720079764363708,-51.56509563934138
2026-03-11T20:28:09.649,51238,-599.0,1083.0,16847.0,-173.0,4.0,-128.0,1957.0,8943.0,-3269.0,-68.77869195060673,-11.405835781893405,-50.87252913614617
2026-03-11T20:28:09.659,51248,-121.0,659.0,15574.0,-165.0,-25.0,-178.0,1957.0,8943.0,-3269.0,-68.97165861770486,-11.413824174766273,-50.656448538838994
2026-03-11T20:28:09.670,51258,-581.0,962.0,16135.0,-151.0,-54.0,-109.0,1960.0,8950.0,-3288.0,-69.00378451880579,-11.67357565813942,-49.78187294105174
2026-03-11T20:28:09.688,51268,-967.0,861.0,14354.0,-147.0,-1.0,-166.0,1960.0,8950.0,-3288.0,-68.99565531226997,-11.372960475250405,-49.4840012190422
2026-03-11T20:28:09.713,51278,-749.0,864.0,15042.0,-172.0,-21.0,-195.0,1962.0,8942.0,-3275.0,-69.23559400851553,-11.294382399099721,-49.44219017327722
2026-03-11T20:28:09.714,51288,-224.0,854.0,16284.0,-132.0,-43.0,-191.0,1962.0,8942.0,-3275.0,-69.08444060260791,-11.474154349165635,-49.396871494598486
2026-03-11T20:28:09.714,51298,-847.0,1176.0,16368.0,-119.0,-54.0,-178.0,1956.0,8940.0,-3288.0,-68.78676184090024,-11.714778109108833,-49.27584409131257
2026-03-11T20:28:09.719,51308,-1626.0,1194.0,14401.0,-176.0,-51.0,-162.0,1956.0,8940.0,-3288.0,-69.0410345113524,-11.851881085368522,-48.96959571264423
2026-03-11T20:28:09.730,51318,-1145.0,1017.0,14586.0,-176.0,-51.0,-171.0,1964.0,8945.0,-3279.0,-69.30524465042214,-12.025089792390125,-48.735313742671785
2026-03-11T20:28:09.739,51328,-485.0,837.0,15443.0,-155.0,-45.0,-171.0,1964.0,8945.0,-3279.0,-69.37609262729059,-12.189664099776103,-48.50619055137831
2026-03-11T20:28:09.750,51338,-566.0,863.0,15302.0,-118.0,-25.0,-160.0,1971.0,8940.0,-3277.0,-69.08041198155252,-12.148571442154982,-48.233225270020284
2026-03-11T20:28:09.760,51348,-526.0,1013.0,15996.0,-176.0,-22.0,-221.0,1971.0,8940.0,-3277.0,-69.35113159812471,-12.083607443308388,-48.504978232740186
2026-03-11T20:28:09.770,51358,26.0,1047.0,17602.0,-189.0,-33.0,-162.0,1964.0,8937.0,-3280.0,-69.74822797259817,-12.167024944289118,-48.13289345126911
2026-03-11T20:28:09.790,51368,-792.0,1124.0,16120.0,-157.0,-42.0,-197.0,1964.0,8937.0,-3280.0,-69.81209121601958,-12.279165151999834,-48.104901246892744
2026-03-11T20:28:09.790,51378,-1010.0,1470.0,17480.0,-133.0,-22.0,-181.0,1960.0,8940.0,-3281.0,-69.62310856347395,-12.183276137213584,-47.95559522171463
2026-03-11T20:28:09.799,51388,-736.0,1027.0,16033.0,-149.0,-26.0,-101.0,1960.0,8940.0,-3281.0,-69.61754447240561,-12.141951258160907,-47.053253023313886
2026-03-11T20:28:09.809,51398,-1562.0,1319.0,15481.0,-158.0,-2.0,-187.0,1963.0,8936.0,-3287.0,-69.67619540771086,-11.803894955630394,-46.98319178762248
2026-03-11T20:28:09.821,51408,-123.0,816.0,16458.0,-158.0,-2.0,-187.0,1963.0,8936.0,-3287.0,-69.774302630925,-11.578863643003839,-46.89124235736487
2026-03-11T20:28:09.839,51418,-191.0,1097.0,17949.0,-184.0,-12.0,-153.0,1958.0,8938.0,-3274.0,-70.112067962902,-11.452715551406339,-46.43035237369932
2026-03-11T20:28:09.844,51428,-669.0,1125.0,16586.0,-179.0,-15.0,-246.0,1958.0,8938.0,-3274.0,-70.38641997858265,-11.324571307856507,-46.82198952849828
2026-03-11T20:28:09.868,51438,-738.0,1371.0,17482.0,-140.0,-51.0,-199.0,1953.0,8930.0,-3283.0,-70.26100840064727,-11.549681745604127,-46.76615206577598
2026-03-11T20:28:09.876,51448,-815.0,1166.0,16242.0,-119.0,-26.0,-173.0,1953.0,8930.0,-3283.0,-69.9398647684859,-11.516183145114224,-46.522041799086495
2026-03-11T20:28:09.877,51458,-281.0,1093.0,17044.0,-173.0,-30.0,-198.0,1970.0,8957.0,-3285.0,-70.16308252538663,-11.561007497877116,-46.49833146564189
2026-03-11T20:28:09.880,51468,-461.0,1268.0,17346.0,-181.0,1.0,-172.0,1970.0,8957.0,-3285.0,-70.45000268745453,-11.289620811412043,-46.16707528353777
2026-03-11T20:28:09.898,51478,-1330.0,1481.0,16331.0,-130.0,14.0,-205.0,1961.0,8942.0,-3282.0,-70.21136712598319,-10.833889194018951,-46.18810791614592
2026-03-11T20:28:09.907,51488,-619.0,996.0,15905.0,-130.0,-29.0,-162.0,1961.0,8942.0,-3282.0,-70.00947404813472,-10.856923556008779,-45.83697481020551
2026-03-11T20:28:09.910,51498,-999.0,1393.0,16977.0,-114.0,-29.0,-162.0,1961.0,8938.0,-3280.0,-69.63266984656919,-10.856857204816995,-45.571677325877886
2026-03-11T20:28:09.920,51508,-1199.0,1485.0,17057.0,-153.0,-35.0,-171.0,1961.0,8938.0,-3280.0,-69.6399027764939,-10.90260373087312,-45.40550611974559
2026-03-11T20:28:09.929,51518,-811.0,1079.0,16056.0,-161.0,-47.0,-138.0,1948.0,8948.0,-3286.0,-69.74801218051094,-11.08744972049891,-44.91886457389504
2026-03-11T20:28:09.940,51528,-312.0,981.0,16748.0,-110.0,-20.0,-201.0,1948.0,8948.0,-3286.0,-69.36400750087947,-11.040392344413771,-45.12202366007639
2026-03-11T20:28:09.949,51538,-1379.0,1059.0,14572.0,-152.0,10.0,-185.0,1956.0,8943.0,-3301.0,-69.38319566250898,-10.613747145232823,-45.12697637642893
2026-03-11T20:28:10.005,51548,-722.0,994.0,15985.0,-139.0,50.0,-172.0,1956.0,8943.0,-3301.0,-69.28656657184139,-9.859848968007674,-44.99892489354868
2026-03-11T20:28:10.009,51558,-538.0,763.0,15146.0,-141.0,-5.0,-210.0,1962.0,8943.0,-3285.0,-69.22495696899398,-9.671016593713908,-45.259769994422214
2026-03-11T20:28:10.009,51568,-879.0,1204.0,16765.0,-101.0,8.0,-186.0,1962.0,8943.0,-3285.0,-68.74810347567936,-9.339324033067856,-45.35540449836201
2026-03-11T20:28:10.009,51578,-1431.0,1138.0,14692.0,-101.0,8.0,-186.0,1962.0,8935.0,-3288.0,-68.27435895603847,-8.963206578382405,-45.5140898396763
2026-03-11T20:28:10.009,51588,-510.0,1064.0,16683.0,-160.0,11.0,-204.0,1962.0,8935.0,-3288.0,-68.40388699736502,-8.641193628170726,-45.80215759843752
2026-03-11T20:28:10.009,51598,-681.0,1122.0,16475.0,-196.0,-22.0,-193.0,1958.0,8938.0,-3283.0,-68.87868907121201,-8.636739153410785,-45.89009259541854
2026-03-11T20:28:10.019,51608,-329.0,1205.0,17806.0,-158.0,-49.0,-243.0,1958.0,8938.0,-3283.0,-68.97208486676904,-8.923082092136598,-46.44094672831685
2026-03-11T20:28:10.030,51618,-856.0,1395.0,17156.0,-195.0,-6.0,-183.0,1958.0,8931.0,-3271.0,-69.41067026877514,-8.74647989302545,-46.3162586965737
2026-03-11T20:28:10.040,51628,-737.0,1101.0,15916.0,-195.0,-40.0,-196.0,1958.0,8931.0,-3271.0,-69.85431346232117,-8.910652092962676,-46.24373567335784
2026-03-11T20:28:10.049,51638,-544.0,1407.0,17882.0,-178.0,-6.0,-204.0,1950.0,8935.0,-3287.0,-70.11164909663607,-8.756496465311084,-46.179642589997044
2026-03-11T20:28:10.060,51648,-774.0,1152.0,16015.0,-151.0,-36.0,-167.0,1950.0,8935.0,-3287.0,-70.10692919931292,-8.878970244173761,-45.773041059387936
2026-03-11T20:28:10.070,51658,-610.0,1408.0,18026.0,-181.0,-36.0,-234.0,1971.0,8942.0,-3286.0,-70.38926520476272,-9.015545457802121,-45.98003089857992
2026-03-11T20:28:10.080,51668,-657.0,1056.0,16233.0,-181.0,-36.0,-234.0,1971.0,8942.0,-3286.0,-70.68083991940911,-9.141778743580003,-46.1266983179927
2026-03-11T20:28:10.098,51678,-1520.0,1254.0,15280.0,-129.0,-75.0,-180.0,1963.0,8951.0,-3300.0,-70.4375903311738,-9.58070357015325,-45.80483945737053
2026-03-11T20:28:10.104,51688,-758.0,1083.0,16273.0,-148.0,-33.0,-207.0,1963.0,8951.0,-3300.0,-70.40308789456702,-9.659268608974479,-45.76526026089596
2026-03-11T20:28:10.110,51698,-354.0,1149.0,17715.0,-150.0,-34.0,-161.0,1960.0,8948.0,-3282.0,-70.39080568336692,-9.776435373776037,-45.31576374650117
2026-03-11T20:28:10.120,51708,-935.0,1068.0,15747.0,-121.0,-26.0,-163.0,1960.0,8948.0,-3282.0,-70.09118961361006,-9.767901531906134,-44.96322079740876
2026-03-11T20:28:10.129,51718,-873.0,1359.0,17348.0,-112.0,-27.0,-208.0,1964.0,8950.0,-3271.0,-69.69738054534291,-9.779702106103715,-45.141719809103215
2026-03-11T20:28:10.139,51728,-660.0,1046.0,16217.0,-148.0,-38.0,-161.0,1964.0,8950.0,-3271.0,-69.68002337433398,-9.909993825666826,-44.87276152887234
2026-03-11T20:28:10.149,51738,-1350.0,1446.0,16352.0,-160.0,-1.0,-212.0,1965.0,8937.0,-3291.0,-69.7533530081536,-9.627567966026996,-45.05135386168854
2026-03-11T20:28:10.183,51748,-897.0,1088.0,15794.0,-160.0,-1.0,-180.0,1965.0,8937.0,-3291.0,-69.84747186439604,-9.379959013218235,-44.890117140159454
2026-03-11T20:28:10.204,51758,-1351.0,1117.0,14684.0,-130.0,-26.0,-180.0,1967.0,8954.0,-3301.0,-69.63752110876469,-9.342327139029983,-44.77058675213944
2026-03-11T20:28:10.204,51768,-590.0,1024.0,15973.0,-119.0,-19.0,-211.0,1967.0,8954.0,-3301.0,-69.33760851355281,-9.299459360111747,-45.00564537412653
2026-03-11T20:28:10.204,51778,-387.0,1282.0,17864.0,-156.0,-27.0,-157.0,1969.0,8945.0,-3275.0,-69.39756109069667,-9.353312955142025,-44.73102747970663
2026-03-11T20:28:10.204,51788,-758.0,1213.0,16490.0,-122.0,-15.0,-208.0,1969.0,8945.0,-3275.0,-69.12106816999771,-9.260750795405018,-45.00229544828204
2026-03-11T20:28:10.210,51798,-884.0,927.0,14656.0,-172.0,-11.0,-231.0,1958.0,8943.0,-3295.0,-69.35186344363996,-9.114439035728985,-45.408633746228176
2026-03-11T20:28:10.220,51808,-615.0,1095.0,16354.0,-92.0,-65.0,-171.0,1958.0,8943.0,-3295.0,-68.78981448995751,-9.526173982512066,-45.34251903211514
2026-03-11T20:28:10.230,51818,-1314.0,1339.0,15759.0,-137.0,-21.0,-174.0,1963.0,8942.0,-3291.0,-68.65948612147949,-9.446464192726825,-45.33280693922985
2026-03-11T20:28:10.240,51828,-443.0,1050.0,16411.0,-151.0,-67.0,-134.0,1963.0,8942.0,-3291.0,-68.69287882809729,-9.883272545611467,-44.951726132985556
2026-03-11T20:28:10.250,51838,-954.0,1443.0,17481.0,-151.0,-67.0,-134.0,1969.0,8943.0,-3272.0,-68.70444360051528,-10.279943752268156,-44.62019118273398
2026-03-11T20:28:10.266,51848,-766.0,1041.0,15818.0,-109.0,-29.0,-167.0,1969.0,8943.0,-3272.0,-68.3232493546526,-10.30321576604622,-44.6863999332326
2026-03-11T20:28:10.269,51858,-69.0,1019.0,17746.0,-134.0,-39.0,-162.0,1955.0,8952.0,-3268.0,-68.20425647697957,-10.474903251228167,-44.7365801454995
2026-03-11T20:28:10.280,51868,-901.0,1141.0,16484.0,-153.0,-30.0,-172.0,1955.0,8952.0,-3268.0,-68.26037894789079,-10.496981844765623,-44.8701335191963
2026-03-11T20:28:10.290,51878,-352.0,1058.0,17231.0,-147.0,-42.0,-162.0,1953.0,8943.0,-3290.0,-68.26549926956949,-10.67528034278684,-44.88056675180071
2026-03-11T20:28:10.304,51888,-1019.0,1130.0,15931.0,-178.0,-43.0,-172.0,1953.0,8943.0,-3290.0,-68.56344437519537,-10.810160805348549,-44.93763192134526
2026-03-11T20:28:10.312,51898,-113.0,937.0,16923.0,-166.0,-43.0,-202.0,1969.0,8959.0,-3292.0,-68.75559265382344,-11.00771777849447,-45.25285741499221
2026-03-11T20:28:10.320,51908,-892.0,1100.0,15949.0,-142.0,-46.0,-179.0,1969.0,8959.0,-3292.0,-68.69317214453804,-11.174492459174973,-45.34999747466031
2026-03-11T20:28:10.329,51918,-594.0,1035.0,16120.0,-142.0,-37.0,-219.0,1966.0,8947.0,-3277.0,-68.63743494853944,-11.27148292993511,-45.845718306270506
2026-03-11T20:28:10.346,51928,-794.0,1095.0,15913.0,-188.0,-37.0,-219.0,1966.0,8947.0,-3277.0,-69.02835799575952,-11.351658244440912,-46.251638757386054
2026-03-11T20:28:10.351,51938,-1075.0,1196.0,15594.0,-147.0,-40.0,-130.0,1954.0,8946.0,-3273.0,-69.00067522537668,-11.43798436779278,-45.80352687508462
2026-03-11T20:28:10.360,51948,-807.0,1235.0,16487.0,-145.0,-14.0,-211.0,1954.0,8946.0,-3273.0,-68.95598405602955,-11.290535860347209,-46.1502817871416
2026-03-11T20:28:10.370,51958,-478.0,1173.0,16975.0,-172.0,-53.0,-141.0,1954.0,8932.0,-3297.0,-69.18340542775562,-11.551942469596026,-45.75386372509457
2026-03-11T20:28:10.391,51968,-601.0,1000.0,15817.0,-113.0,-51.0,-177.0,1954.0,8932.0,-3297.0,-68.83478526520305,-11.777269733304404,-45.78719232308568
2026-03-11T20:28:10.391,51978,-672.0,992.0,15729.0,-163.0,-17.0,-227.0,1977.0,8954.0,-3269.0,-68.98331429919314,-11.659493319260944,-46.30027262349475
2026-03-11T20:28:10.400,51988,-836.0,1128.0,16020.0,-121.0,-35.0,-163.0,1977.0,8954.0,-3269.0,-68.70889476985793,-11.709705595746161,-46.22808586403839
2026-03-11T20:28:10.410,51998,-966.0,1261.0,16576.0,-151.0,-39.0,-213.0,1965.0,8932.0,-3274.0,-68.72751025742167,-11.791198129755955,-46.621212651893714
2026-03-11T20:28:10.419,52008,-660.0,1126.0,16632.0,-151.0,-39.0,-213.0,1965.0,8932.0,-3274.0,-68.75529883076905,-11.892228862857172,-46.99315974233866
2026-03-11T20:28:10.430,52018,-763.0,1242.0,16990.0,-150.0,-27.0,-155.0,1970.0,8936.0,-3263.0,-68.76657307326428,-11.867693858994983,-46.80510443468735
2026-03-11T20:28:10.440,52028,-665.0,1043.0,16350.0,-156.0,13.0,-204.0,1970.0,8936.0,-3263.0,-68.84704022573221,-11.456452469669005,-47.06514917744792
2026-03-11T20:28:10.449,52038,-1321.0,1029.0,14649.0,-127.0,-50.0,-149.0,1962.0,8960.0,-3287.0,-68.63433806618436,-11.614519111128258,-46.81649330087693
2026-03-11T20:28:10.460,52048,-647.0,1098.0,16705.0,-145.0,-77.0,-177.0,1962.0,8960.0,-3287.0,-68.6074398080773,-12.092563957321058,-46.86572739064058
2026-03-11T20:28:10.469,52058,-362.0,718.0,15425.0,-188.0,-24.0,-176.0,1959.0,8948.0,-3289.0,-69.02438962226157,-12.059053884561507,-46.8246252572994
2026-03-11T20:28:10.480,52068,-737.0,1045.0,16006.0,-160.0,-50.0,-185.0,1959.0,8948.0,-3289.0,-69.13719330189137,-12.25525795745815,-46.858292619779725
2026-03-11T20:28:10.490,52078,-584.0,1344.0,17767.0,-138.0,1.0,-193.0,1968.0,8938.0,-3268.0,-69.02033044322076,-11.962807385180598,-46.99370866910381
2026-03-11T20:28:10.501,52088,-952.0,1253.0,16192.0,-146.0,-21.0,-173.0,1968.0,8938.0,-3268.0,-68.98222479535836,-11.862255347165584,-46.93557667805608
2026-03-11T20:28:10.514,52098,-1459.0,1209.0,14526.0,-146.0,-21.0,-173.0,1951.0,8940.0,-3313.0,-68.93822498137867,-11.71649116379564,-46.83888866154189
2026-03-11T20:28:10.520,52108,-832.0,1126.0,15925.0,-137.0,-10.0,-228.0,1951.0,8940.0,-3313.0,-68.82117149349037,-11.520496168119811,-47.283361141659014
2026-03-11T20:28:10.530,52118,-340.0,767.0,15245.0,-174.0,-7.0,-177.0,1968.0,8939.0,-3293.0,-69.0923438134314,-11.333166087420066,-47.18724637220418
2026-03-11T20:28:10.540,52128,-711.0,1179.0,16618.0,-136.0,-32.0,-200.0,1968.0,8939.0,-3293.0,-68.96213347034583,-11.371227431379198,-47.33834495055266
2026-03-11T20:28:10.549,52138,-1391.0,1487.0,16651.0,-183.0,13.0,-160.0,1955.0,8929.0,-3278.0,-69.27422676948302,-10.921273378313389,-47.04378603892412
2026-03-11T20:28:10.560,52148,-826.0,1064.0,15804.0,-152.0,7.0,-170.0,1955.0,8929.0,-3278.0,-69.30131002430636,-10.574545697376013,-46.84211234125463
2026-03-11T20:28:10.570,52158,-512.0,1187.0,17337.0,-128.0,-22.0,-223.0,1962.0,8925.0,-3250.0,-69.09134948753534,-10.544902163330542,-47.21788472967981
2026-03-11T20:28:10.580,52168,-779.0,1122.0,16258.0,-144.0,-39.0,-142.0,1962.0,8925.0,-3250.0,-69.04176555648584,-10.661469669256073,-46.818000436800574
2026-03-11T20:28:10.590,52178,-546.0,1112.0,16885.0,-144.0,-39.0,-229.0,1969.0,8938.0,-3292.0,-68.99677219462137,-10.79347841865094,-47.23832483680657
2026-03-11T20:28:10.615,52188,-475.0,1064.0,16728.0,-165.0,19.0,-229.0,1969.0,8938.0,-3292.0,-69.16104777915712,-10.358944309745652,-47.59366970617658
2026-03-11T20:28:10.625,52198,-1096.0,950.0,14719.0,-133.0,-24.0,-162.0,1952.0,8951.0,-3303.0,-69.0073690922404,-10.301972109516605,-47.314417134062914
2026-03-11T20:28:10.625,52208,-534.0,1031.0,16462.0,-137.0,-11.0,-187.0,1952.0,8951.0,-3303.0,-68.89814767894352,-10.166646705171255,-47.30173934993927
2026-03-11T20:28:10.650,52218,-1089.0,1063.0,15241.0,-131.0,-44.0,-173.0,1975.0,8938.0,-3313.0,-68.72419082414244,-10.312972138764563,-47.17613881544127
2026-03-11T20:28:10.650,52228,-821.0,1088.0,16144.0,-124.0,-24.0,-179.0,1975.0,8938.0,-3313.0,-68.48779639374078,-10.28381909086703,-47.15461530204186
2026-03-11T20:28:10.650,52238,-961.0,1174.0,15980.0,-120.0,-49.0,-204.0,1959.0,8940.0,-3254.0,-68.21000464990209,-10.489697467125605,-47.48898330657622
2026-03-11T20:28:10.659,52248,-600.0,1140.0,16612.0,-150.0,-42.0,-163.0,1959.0,8940.0,-3254.0,-68.23728909529488,-10.650229774228777,-47.41709556739554
2026-03-11T20:28:10.671,52258,-358.0,939.0,16157.0,-86.0,4.0,-203.0,1960.0,8938.0,-3300.0,-67.64882070801201,-10.372681368556297,-47.77468390132899
2026-03-11T20:28:10.680,52268,-796.0,1139.0,16062.0,-86.0,4.0,-203.0,1960.0,8938.0,-3300.0,-67.05752010904759,-10.069426823454386,-48.2072305653131
2026-03-11T20:28:10.690,52278,-220.0,964.0,16658.0,-103.0,-47.0,-166.0,1949.0,8947.0,-3296.0,-66.65952934496616,-10.313530484877747,-48.348626206814785
2026-03-11T20:28:10.700,52288,-984.0,1247.0,16178.0,-115.0,-31.0,-209.0,1949.0,8947.0,-3296.0,-66.36518590718063,-10.341652595050862,-48.94056461715817
2026-03-11T20:28:10.712,52298,-464.0,1152.0,17022.0,-125.0,-43.0,-138.0,1970.0,8959.0,-3249.0,-66.18544799499792,-10.525062181523843,-48.90645682037271
2026-03-11T20:28:10.720,52308,-860.0,1126.0,16084.0,-153.0,-31.0,-141.0,1970.0,8959.0,-3249.0,-66.28104706849425,-10.557297111599391,-48.888012133644054
2026-03-11T20:28:10.730,52318,-288.0,1101.0,17386.0,-100.0,-24.0,-168.0,1957.0,8940.0,-3273.0,-65.86295571519965,-10.56240869102691,-49.166056390645124
2026-03-11T20:28:10.740,52328,-1007.0,1103.0,15804.0,-123.0,-13.0,-166.0,1957.0,8940.0,-3273.0,-65.67124981189961,-10.405820055924686,-49.4384583416311
2026-03-11T20:28:10.749,52338,-47.0,774.0,16345.0,-156.0,-29.0,-214.0,1945.0,8942.0,-3322.0,-65.83240171368188,-10.478612275137744,-50.08633640345702
2026-03-11T20:28:10.760,52348,-652.0,1127.0,16735.0,-156.0,-74.0,-144.0,1945.0,8942.0,-3322.0,-65.96749961054046,-10.94971816716144,-50.024563595838835
2026-03-11T20:28:10.789,52358,-458.0,985.0,16238.0,-158.0,-74.0,-144.0,1962.0,8949.0,-3286.0,-66.12712324425365,-11.423670567220737,-49.98348207522788
2026-03-11T20:28:10.798,52368,-717.0,1133.0,16422.0,-146.0,-47.0,-199.0,1962.0,8949.0,-3286.0,-66.1564459225451,-11.605915583331704,-50.46611438087283
2026-03-11T20:28:10.798,52378,-1458.0,1214.0,14900.0,-107.0,-40.0,-166.0,1960.0,8941.0,-3264.0,-65.78875758115113,-11.654389424733603,-50.68634083064081
2026-03-11T20:28:10.799,52388,-498.0,1018.0,16359.0,-112.0,-20.0,-238.0,1960.0,8941.0,-3264.0,-65.49936537586004,-11.582495775890822,-51.62199909878903
2026-03-11T20:28:10.814,52398,-1310.0,1286.0,15899.0,-102.0,-19.0,-178.0,1959.0,8932.0,-3269.0,-65.09649135615935,-11.44314609898806,-51.99089926592414
2026-03-11T20:28:10.820,52408,-631.0,1036.0,16151.0,-135.0,-62.0,-138.0,1959.0,8932.0,-3269.0,-65.04415775563875,-11.777228080835483,-51.974402650446685
2026-03-11T20:28:10.830,52418,-1025.0,1372.0,16918.0,-207.0,-48.0,-197.0,1969.0,8939.0,-3280.0,-65.67914714521872,-11.942967782068648,-52.41832657913431
2026-03-11T20:28:10.840,52428,-896.0,1082.0,15798.0,-173.0,-43.0,-188.0,1969.0,8939.0,-3280.0,-65.98260318102228,-12.060737597185382,-52.710976188858915
2026-03-11T20:28:10.849,52438,-368.0,1217.0,17836.0,-173.0,-43.0,-188.0,1965.0,8935.0,-3263.0,-66.28028310634313,-12.217338000330221,-52.961718998650625
2026-03-11T20:28:10.860,52448,-911.0,1146.0,15985.0,-162.0,-52.0,-209.0,1965.0,8935.0,-3263.0,-66.46026453859564,-12.417521660536712,-53.37610484083463
2026-03-11T20:28:10.869,52458,-287.0,880.0,16037.0,-140.0,-49.0,-173.0,1962.0,8936.0,-3259.0,-66.44024229818092,-12.628896773908291,-53.44000377210187
2026-03-11T20:28:10.879,52468,-959.0,1225.0,16265.0,-139.0,-43.0,-237.0,1962.0,8936.0,-3259.0,-66.38749534290153,-12.7304228406373,-54.118900435249195
2026-03-11T20:28:10.890,52478,-124.0,866.0,16360.0,-139.0,-14.0,-204.0,1960.0,8943.0,-3314.0,-66.36134411653795,-12.604341268449845,-54.4038541004975
2026-03-11T20:28:10.899,52488,-593.0,1046.0,16304.0,-173.0,-33.0,-179.0,1960.0,8943.0,-3314.0,-66.6561004505442,-12.634079601903768,-54.39209298638806
2026-03-11T20:28:10.913,52498,-1140.0,1423.0,16970.0,-144.0,-39.0,-189.0,1961.0,8940.0,-3320.0,-66.63831326760015,-12.687001913105327,-54.47303078897792
2026-03-11T20:28:10.929,52508,-638.0,938.0,15809.0,-117.0,-34.0,-152.0,1961.0,8940.0,-3320.0,-66.38423567677573,-12.720322573454672,-54.23847447021974
2026-03-11T20:28:10.932,52518,-1040.0,1380.0,16924.0,-159.0,-14.0,-201.0,1955.0,8946.0,-3220.0,-66.5215181202028,-12.533018746996985,-54.55192585232073
2026-03-11T20:28:10.940,52528,-734.0,1059.0,16073.0,-159.0,-14.0,-201.0,1955.0,8946.0,-3220.0,-66.67389591021097,-12.367377563338795,-54.822827924562056
2026-03-11T20:28:10.950,52538,-1107.0,1324.0,16636.0,-121.0,-25.0,-132.0,1955.0,8944.0,-3288.0,-66.43521047449538,-12.289129534912488,-54.3956663221803
2026-03-11T20:28:10.960,52548,-707.0,1027.0,15860.0,-153.0,-41.0,-230.0,1955.0,8944.0,-3288.0,-66.53180698700272,-12.394205175491672,-54.90817646382673
2026-03-11T20:28:10.969,52558,-1374.0,1325.0,15881.0,-136.0,-59.0,-224.0,1958.0,8949.0,-3236.0,-66.43858455468566,-12.625965204060574,-55.40698570217767
2026-03-11T20:28:10.980,52568,-590.0,1055.0,16193.0,-121.0,-3.0,-180.0,1958.0,8949.0,-3236.0,-66.22105998595654,-12.36120057239036,-55.49043051700541
2026-03-11T20:28:10.990,52578,-1209.0,1249.0,15707.0,-141.0,-52.0,-151.0,1952.0,8947.0,-3234.0,-66.18750841981375,-12.535822584256325,-55.30504186331936
2026-03-11T20:28:11.000,52588,-723.0,1106.0,16424.0,-141.0,-43.0,-136.0,1952.0,8947.0,-3234.0,-66.1685080755618,-12.656208160349623,-54.99166069244232
2026-03-11T20:28:11.018,52598,-597.0,1342.0,17732.0,-175.0,-26.0,-190.0,1941.0,8946.0,-3311.0,-66.47357730871724,-12.619427836526919,-55.09001628305896
2026-03-11T20:28:11.027,52608,-800.0,1096.0,16039.0,-175.0,-26.0,-144.0,1941.0,8946.0,-3311.0,-66.78092295077639,-12.564862797652427,-54.69706341586724
2026-03-11T20:28:11.029,52618,0.0,983.0,17414.0,-199.0,-23.0,-144.0,1966.0,8937.0,-3286.0,-67.3308874677169,-12.53896554169938,-54.252861443284935
2026-03-11T20:28:11.040,52628,-785.0,1227.0,16594.0,-225.0,9.0,-169.0,1966.0,8937.0,-3286.0,-68.10469190056133,-12.145964898560417,-53.931959718601945
2026-03-11T20:28:11.063,52638,-875.0,916.0,14630.0,-191.0,-21.0,-134.0,1953.0,8946.0,-3315.0,-68.54274459074223,-12.040524987812368,-53.19348547206529
2026-03-11T20:28:11.063,52648,-510.0,1073.0,16324.0,-173.0,-42.0,-166.0,1953.0,8946.0,-3315.0,-68.79207521884501,-12.1756020588551,-52.75781527197554
2026-03-11T20:28:11.070,52658,-1407.0,1434.0,16097.0,-127.0,-13.0,-169.0,1965.0,8938.0,-3239.0,-68.55901868397801,-11.959974328161882,-52.47738444625646
2026-03-11T20:28:11.080,52668,-590.0,936.0,15737.0,-123.0,-25.0,-124.0,1965.0,8938.0,-3239.0,-68.32516212740666,-11.922908814757529,-51.821472785189606
2026-03-11T20:28:11.090,52678,-1135.0,1394.0,16906.0,-133.0,-28.0,-197.0,1972.0,8929.0,-3241.0,-68.16778461626501,-11.882292844139757,-51.910801016690264
2026-03-11T20:28:11.100,52688,-838.0,986.0,15673.0,-174.0,-76.0,-130.0,1972.0,8929.0,-3241.0,-68.43763340853945,-12.32835629055807,-51.327547797361746
2026-03-11T20:28:11.123,52698,32.0,827.0,16981.0,-174.0,-76.0,-130.0,1963.0,8940.0,-3325.0,-68.71831700343567,-12.828746036902581,-50.664288115665585
2026-03-11T20:28:11.126,52708,-626.0,986.0,16189.0,-144.0,-58.0,-185.0,1963.0,8940.0,-3325.0,-68.68544414717105,-13.096364486448675,-50.570742311483876
2026-03-11T20:28:11.130,52718,-1413.0,1176.0,14987.0,-125.0,-26.0,-167.0,1959.0,8942.0,-3251.0,-68.44700142241655,-12.98184491219397,-50.41972898662008
2026-03-11T20:28:11.140,52728,-653.0,1102.0,16427.0,-162.0,-16.0,-199.0,1959.0,8942.0,-3251.0,-68.58890302471322,-12.833581968730359,-50.55255741937595
2026-03-11T20:28:11.150,52738,-1437.0,1228.0,15108.0,-164.0,-11.0,-151.0,1967.0,8937.0,-3259.0,-68.73138760414679,-12.576398352977169,-50.18112390379539
2026-03-11T20:28:11.160,52748,-849.0,1013.0,15251.0,-170.0,-11.0,-137.0,1967.0,8937.0,-3259.0,-68.94675763046872,-12.369084602953718,-49.65268213085209
2026-03-11T20:28:11.170,52758,-82.0,1070.0,17481.0,-161.0,-12.0,-213.0,1964.0,8936.0,-3241.0,-69.075569171396,-12.23393772227224,-49.864284069215465
2026-03-11T20:28:11.183,52768,-526.0,1213.0,17064.0,-150.0,-29.0,-181.0,1964.0,8936.0,-3241.0,-69.08273679577823,-12.238235978213554,-49.76023081357619
2026-03-11T20:28:11.190,52778,-41.0,1051.0,17683.0,-150.0,4.0,-169.0,1970.0,8935.0,-3243.0,-69.10305389066836,-11.951619011316238,-49.532034285224334
2026-03-11T20:28:11.200,52788,-725.0,1071.0,16012.0,-138.0,4.0,-169.0,1970.0,8935.0,-3243.0,-68.99685957203006,-11.621652100206532,-49.32269256926824
2026-03-11T20:28:11.210,52798,-553.0,1301.0,17805.0,-117.0,-20.0,-121.0,1960.0,8939.0,-3251.0,-68.67993960084367,-11.549734398820837,-48.71373294402829
2026-03-11T20:28:11.224,52808,-754.0,1096.0,16187.0,-126.0,-45.0,-217.0,1960.0,8939.0,-3251.0,-68.46367064731243,-11.706522513254189,-49.0887293615921
2026-03-11T20:28:11.231,52818,-214.0,755.0,15785.0,-176.0,-65.0,-190.0,1963.0,8938.0,-3249.0,-68.76442958031357,-12.093875373697008,-49.150958616801965
2026-03-11T20:28:11.240,52828,-1108.0,1265.0,16222.0,-148.0,-32.0,-190.0,1963.0,8938.0,-3249.0,-68.7503623665096,-12.087686360890858,-49.21225569081476
2026-03-11T20:28:11.250,52838,-277.0,708.0,15549.0,-128.0,-43.0,-199.0,1955.0,8925.0,-3309.0,-68.577613615548,-12.24694182980319,-49.32579159654462
2026-03-11T20:28:11.263,52848,-649.0,1102.0,16616.0,-97.0,-68.0,-151.0,1955.0,8925.0,-3309.0,-68.0807735029768,-12.623765678336344,-49.071898106008334
2026-03-11T20:28:11.270,52858,-474.0,843.0,15664.0,-123.0,-63.0,-195.0,1958.0,8938.0,-3318.0,-67.8629469609477,-12.9540750610726,-49.28971468623296
2026-03-11T20:28:11.280,52868,-209.0,1018.0,17177.0,-123.0,-63.0,-195.0,1958.0,8938.0,-3318.0,-67.64325433924198,-13.298475814800703,-49.541530178350484
2026-03-11T20:28:11.290,52878,-773.0,1088.0,16213.0,-124.0,-6.0,-124.0,1959.0,8938.0,-3312.0,-67.42880582579537,-13.036835244880008,-49.13893229883672
2026-03-11T20:28:11.302,52888,-594.0,929.0,15590.0,-140.0,-25.0,-174.0,1959.0,8938.0,-3312.0,-67.38402584683693,-12.977535921967746,-49.237016332536584
2026-03-11T20:28:11.311,52898,-93.0,1188.0,18111.0,-117.0,-33.0,-156.0,1952.0,8930.0,-3326.0,-67.10788596128458,-13.03551359604619,-49.18891971669286
2026-03-11T20:28:11.325,52908,-1144.0,1169.0,15385.0,-121.0,-58.0,-182.0,1952.0,8930.0,-3326.0,-66.86462500926805,-13.258395263393558,-49.43384094181226
2026-03-11T20:28:11.338,52918,-168.0,768.0,15651.0,-164.0,-31.0,-218.0,1973.0,8932.0,-3320.0,-67.0783471008432,-13.284742194673214,-49.9797630580125
2026-03-11T20:28:11.345,52928,-735.0,1135.0,16204.0,-111.0,12.0,-168.0,1973.0,8932.0,-3320.0,-66.74444603143611,-12.849631953220959,-50.064441454817576
2026-03-11T20:28:11.350,52938,-242.0,1113.0,17531.0,-126.0,-43.0,-223.0,1970.0,8945.0,-3235.0,-66.57170326289662,-12.998253741454695,-50.780973110823865
2026-03-11T20:28:11.360,52948,-840.0,1195.0,16589.0,-196.0,-27.0,-154.0,1970.0,8945.0,-3235.0,-67.07866472107604,-12.945063224825308,-50.72766397106533
2026-03-11T20:28:11.372,52958,-345.0,754.0,15367.0,-196.0,-27.0,-154.0,1958.0,8940.0,-3312.0,-67.60171078102235,-12.9250705642268,-50.52100937859941
2026-03-11T20:28:11.380,52968,-888.0,1091.0,15918.0,-135.0,-28.0,-170.0,1958.0,8940.0,-3312.0,-67.49425956658828,-12.877258565620673,-50.49261604421405
2026-03-11T20:28:11.395,52978,-21.0,749.0,16368.0,-165.0,-83.0,-149.0,1951.0,8930.0,-3276.0,-67.70897381027642,-13.431644732362118,-50.27808864739881
2026-03-11T20:28:11.408,52988,-973.0,1106.0,15734.0,-135.0,-53.0,-198.0,1951.0,8930.0,-3276.0,-67.59737604575521,-13.611811625253864,-50.56218287609257
2026-03-11T20:28:11.416,52998,-487.0,760.0,15204.0,-169.0,-34.0,-176.0,1973.0,8932.0,-3342.0,-67.84439545660695,-13.636128789064069,-50.52126452625478
2026-03-11T20:28:11.445,53008,-716.0,1070.0,16279.0,-131.0,-47.0,-141.0,1973.0,8932.0,-3342.0,-67.69609601712571,-13.773746130572247,-50.17724812316342
2026-03-11T20:28:11.497,53018,-1398.0,1113.0,14452.0,-160.0,-37.0,-185.0,1954.0,8927.0,-3233.0,-67.82209691191166,-13.750690265344824,-50.35059626284544
2026-03-11T20:28:11.497,53028,-769.0,1077.0,15978.0,-168.0,-51.0,-158.0,1954.0,8927.0,-3233.0,-68.03493098664326,-13.920492159212198,-50.2299964924115
2026-03-11T20:28:11.497,53038,-973.0,851.0,14453.0,-168.0,-51.0,-189.0,1956.0,8933.0,-3266.0,-68.2532380849413,-14.064986382158082,-50.35023219986309
2026-03-11T20:28:11.497,53048,-427.0,1076.0,16906.0,-148.0,-65.0,-189.0,1956.0,8933.0,-3266.0,-68.265738571293,-14.391808473189018,-50.47189635196646
2026-03-11T20:28:11.498,53058,-957.0,1310.0,16938.0,-170.0,-30.0,-124.0,1964.0,8932.0,-3257.0,-68.47797374547851,-14.333488794244683,-49.942555100563844
2026-03-11T20:28:11.498,53068,-805.0,1119.0,16197.0,-164.0,-66.0,-185.0,1964.0,8932.0,-3257.0,-68.63657214774699,-14.63684829393274,-50.00321806942696
2026-03-11T20:28:11.498,53078,-514.0,1300.0,17985.0,-110.0,-54.0,-157.0,1957.0,8936.0,-3323.0,-68.25915491392904,-14.840655843488992,-49.799771609860144
2026-03-11T20:28:11.500,53088,-744.0,1018.0,15894.0,-166.0,-47.0,-137.0,1957.0,8936.0,-3323.0,-68.44747681055865,-14.950950859391584,-49.39027822702816
2026-03-11T20:28:11.510,53098,-318.0,1184.0,17929.0,-187.0,-27.0,-225.0,1955.0,8942.0,-3227.0,-68.83556271985931,-14.896253454971832,-49.86733472481287
2026-03-11T20:28:11.536,53108,-982.0,1238.0,16298.0,-139.0,-47.0,-158.0,1955.0,8942.0,-3227.0,-68.73417427786468,-14.990164763093546,-49.70276766359791
2026-03-11T20:28:11.540,53118,136.0,819.0,16951.0,-157.0,-30.0,-183.0,1967.0,8937.0,-3282.0,-68.84276806181904,-14.993544383499954,-49.712937621304604
2026-03-11T20:28:11.540,53128,-812.0,1257.0,16947.0,-157.0,-30.0,-183.0,1967.0,8937.0,-3282.0,-68.91967272438683,-14.93296002624897,-49.7085578923849
2026-03-11T20:28:11.550,53138,-398.0,720.0,15217.0,-182.0,-37.0,-150.0,1961.0,8939.0,-3312.0,-69.27070010525395,-14.966969752977828,-49.30830724105924
2026-03-11T20:28:11.560,53148,-860.0,1235.0,16598.0,-161.0,-30.0,-210.0,1961.0,8939.0,-3312.0,-69.37797930047834,-14.902472780582416,-49.47863995359371
2026-03-11T20:28:11.570,53158,-296.0,822.0,15788.0,-170.0,-30.0,-177.0,1958.0,8941.0,-3296.0,-69.59681160240184,-14.87697078864809,-49.306638729955274
2026-03-11T20:28:11.580,53168,-822.0,1046.0,15523.0,-154.0,-45.0,-190.0,1958.0,8941.0,-3296.0,-69.63697568112937,-14.959944458183747,-49.26308623432814
2026-03-11T20:28:11.601,53178,1.0,821.0,16607.0,-145.0,-26.0,-215.0,1956.0,8941.0,-3283.0,-69.60863164043911,-14.915614486815747,-49.47470633696048
2026-03-11T20:28:11.611,53188,-240.0,1245.0,17942.0,-106.0,-35.0,-198.0,1956.0,8941.0,-3283.0,-69.1758708847038,-14.945011609154255,-49.5849139405445
2026-03-11T20:28:11.612,53198,-1539.0,1258.0,14951.0,-155.0,-9.0,-223.0,1956.0,8948.0,-3329.0,-69.21516095795906,-14.617180110754335,-49.86843964589
2026-03-11T20:28:11.620,53208,-587.0,1006.0,16103.0,-155.0,-63.0,-133.0,1956.0,8948.0,-3329.0,-69.27836206342086,-14.90056429358173,-49.28209379357801
2026-03-11T20:28:11.634,53218,-9.0,936.0,17320.0,-146.0,-63.0,-133.0,1951.0,8938.0,-3235.0,-69.26172792447737,-15.219358422696802,-48.824291598869934
2026-03-11T20:28:11.642,53228,-984.0,1131.0,16091.0,-139.0,-1.0,-223.0,1951.0,8938.0,-3235.0,-69.15828179751011,-14.854954972933207,-49.24929363926714
2026-03-11T20:28:11.650,53238,-918.0,810.0,14659.0,-163.0,-19.0,-135.0,1967.0,8941.0,-3238.0,-69.30926159507477,-14.672496928521351,-48.78502091612014
2026-03-11T20:28:11.660,53248,-734.0,1003.0,16264.0,-147.0,-7.0,-185.0,1967.0,8941.0,-3238.0,-69.293097195306,-14.396064350158534,-48.81261969362964
2026-03-11T20:28:11.670,53258,-1322.0,1380.0,16505.0,-99.0,-60.0,-156.0,1960.0,8939.0,-3326.0,-68.7818464059735,-14.604871383127065,-48.56736400408051
2026-03-11T20:28:11.680,53268,-729.0,1123.0,16221.0,-142.0,-71.0,-138.0,1960.0,8939.0,-3326.0,-68.71860270042195,-14.957231870995917,-48.18460773626135
2026-03-11T20:28:11.690,53278,-22.0,942.0,16948.0,-175.0,-37.0,-178.0,1966.0,8937.0,-3302.0,-68.99560408602612,-15.019202027203105,-48.1809749592543
2026-03-11T20:28:11.702,53288,-643.0,1157.0,16379.0,-121.0,-54.0,-121.0,1966.0,8937.0,-3302.0,-68.72067964258126,-15.20316684328094,-47.68516521349374
2026-03-11T20:28:11.710,53298,-1346.0,1318.0,15476.0,-121.0,-54.0,-121.0,1958.0,8945.0,-3325.0,-68.43471006951343,-15.329246305914195,-47.24415534633537
2026-03-11T20:28:11.728,53308,-452.0,1089.0,16512.0,-136.0,-27.0,-183.0,1958.0,8945.0,-3325.0,-68.32334969418758,-15.255968830928227,-47.429305130567066
2026-03-11T20:28:11.746,53318,-857.0,1023.0,15399.0,-143.0,-40.0,-132.0,1954.0,8943.0,-3311.0,-68.28226791614844,-15.27928140423966,-47.14022365771953
2026-03-11T20:28:11.746,53328,-832.0,1220.0,16424.0,-115.0,-22.0,-187.0,1954.0,8943.0,-3311.0,-67.95865822526648,-15.13145513473354,-47.43378791554435
2026-03-11T20:28:11.750,53338,-291.0,968.0,16443.0,-168.0,-40.0,-160.0,1960.0,8945.0,-3328.0,-68.17850273891584,-15.20058334688273,-47.4089088834581
2026-03-11T20:28:11.760,53348,-974.0,1114.0,15841.0,-160.0,-35.0,-154.0,1960.0,8945.0,-3328.0,-68.30247994621283,-15.16937540932621,-47.30812174503232
2026-03-11T20:28:11.770,53358,-93.0,854.0,16759.0,-168.0,-26.0,-179.0,1967.0,8941.0,-3239.0,-68.52448759522298,-15.11443722601051,-47.49510185996137
2026-03-11T20:28:11.788,53368,-817.0,1156.0,16698.0,-154.0,-54.0,-115.0,1967.0,8941.0,-3239.0,-68.58399265745666,-15.285459341666062,-47.06055404850032
2026-03-11T20:28:11.799,53378,-986.0,834.0,14659.0,-146.0,-54.0,-204.0,1969.0,8951.0,-3301.0,-68.57798800366184,-15.43211289048726,-47.44426892187047
2026-03-11T20:28:11.800,53388,-537.0,1026.0,16693.0,-146.0,-54.0,-204.0,1969.0,8951.0,-3301.0,-68.56688544990085,-15.61588954469957,-47.816083577944866
2026-03-11T20:28:11.810,53398,-1147.0,955.0,14584.0,-112.0,-17.0,-153.0,1962.0,8946.0,-3322.0,-68.2182170486701,-15.38042453267893,-47.71056550459371
2026-03-11T20:28:11.820,53408,-744.0,1051.0,16102.0,-135.0,48.0,-202.0,1962.0,8946.0,-3322.0,-68.10216314651073,-14.549618328925424,-48.06957328885757
2026-03-11T20:28:11.853,53418,-173.0,674.0,15385.0,-148.0,-17.0,-184.0,1954.0,8940.0,-3222.0,-68.14035065545853,-14.412353352452113,-48.3221058266448
2026-03-11T20:28:11.853,53428,-732.0,1179.0,16613.0,-140.0,0.0,-152.0,1954.0,8940.0,-3222.0,-68.06835582948717,-14.073774155483266,-48.25999225280633
2026-03-11T20:28:11.853,53438,-291.0,794.0,15528.0,-152.0,-16.0,-196.0,1955.0,8944.0,-3331.0,-68.1380450987112,-13.92765434764213,-48.501775005344754
2026-03-11T20:28:11.860,53448,-582.0,1166.0,16500.0,-156.0,-22.0,-174.0,1955.0,8944.0,-3331.0,-68.22324055468111,-13.824398865083149,-48.505743062110675
2026-03-11T20:28:11.870,53458,-1100.0,1534.0,17096.0,-119.0,-34.0,-218.0,1965.0,8922.0,-3336.0,-67.92242897219882,-13.807775089204194,-48.961719287761696
2026-03-11T20:28:11.880,53468,-651.0,1085.0,15854.0,-119.0,-34.0,-166.0,1965.0,8922.0,-3336.0,-67.65187947346041,-13.817901821136697,-48.94391912220246
2026-03-11T20:28:11.890,53478,-1320.0,1541.0,16783.0,-109.0,-45.0,-166.0,1944.0,8930.0,-3329.0,-67.26211914182768,-13.892976738737456,-49.001356725218265
2026-03-11T20:28:11.900,53488,-791.0,1091.0,16003.0,-160.0,-49.0,-220.0,1944.0,8930.0,-3329.0,-67.40687498357443,-14.038853532541816,-49.550196084942186
2026-03-11T20:28:11.910,53498,-59.0,951.0,17194.0,-127.0,-29.0,-177.0,1969.0,8940.0,-3282.0,-67.24002141475368,-14.038350349423965,-49.73356248641245
2026-03-11T20:28:11.920,53508,-1097.0,1158.0,16056.0,-89.0,-29.0,-167.0,1969.0,8940.0,-3282.0,-66.68491746195366,-13.963813910821166,-49.89467741774944
2026-03-11T20:28:11.941,53518,-1243.0,1215.0,15924.0,-132.0,-26.0,-177.0,1971.0,8949.0,-3219.0,-66.55755491879707,-13.850328119561414,-50.218943294858725
2026-03-11T20:28:11.947,53528,-510.0,1043.0,16950.0,-126.0,-20.0,-202.0,1971.0,8949.0,-3219.0,-66.39077993369828,-13.734918112397322,-50.786488538101565
2026-03-11T20:28:11.950,53538,-1124.0,832.0,14291.0,-120.0,-6.0,-211.0,1962.0,8951.0,-3343.0,-66.1723261147098,-13.429229029245423,-51.327514393954424
2026-03-11T20:28:11.965,53548,-419.0,992.0,16743.0,-130.0,-50.0,-136.0,1962.0,8951.0,-3343.0,-66.05506492882218,-13.622023625892119,-51.15067458760077
2026-03-11T20:28:11.970,53558,-1236.0,1122.0,15291.0,-130.0,-50.0,-136.0,1961.0,8951.0,-3240.0,-65.92403077845148,-13.74740435481566,-51.09649805917344
2026-03-11T20:28:11.980,53568,-795.0,1082.0,16052.0,-174.0,20.0,-217.0,1961.0,8951.0,-3240.0,-66.23362532190013,-13.219877549032741,-51.75889039175175
2026-03-11T20:28:11.990,53578,-570.0,787.0,15049.0,-111.0,-24.0,-174.0,1966.0,8923.0,-3317.0,-65.93688074513541,-13.1473568706882,-51.94137149506009
2026-03-11T20:28:12.001,53588,-663.0,1183.0,16786.0,-119.0,-23.0,-186.0,1966.0,8923.0,-3317.0,-65.70371758186222,-13.064684598270222,-52.26159261241886
2026-03-11T20:28:12.010,53598,-525.0,934.0,15732.0,-141.0,-40.0,-168.0,1961.0,8928.0,-3300.0,-65.70349062882593,-13.157231344461225,-52.41469571436306
2026-03-11T20:28:12.020,53608,-704.0,1100.0,16007.0,-123.0,-48.0,-158.0,1961.0,8928.0,-3300.0,-65.51619718072187,-13.314239291228203,-52.495460926425196
2026-03-11T20:28:12.030,53618,-814.0,1008.0,15219.0,-163.0,-2.0,-205.0,1970.0,8946.0,-3246.0,-65.72748650317665,-13.00645627955198,-53.03499041261665
2026-03-11T20:28:12.041,53628,-753.0,1247.0,16661.0,-171.0,26.0,-142.0,1970.0,8946.0,-3246.0,-66.00312982210083,-12.439916457933696,-52.8976578455573
2026-03-11T20:28:12.050,53638,-409.0,1176.0,17090.0,-171.0,-27.0,-191.0,1952.0,8930.0,-3219.0,-66.28013839310634,-12.428363830355396,-53.21317149039112
2026-03-11T20:28:12.060,53648,-607.0,1099.0,16239.0,-179.0,-27.0,-191.0,1952.0,8930.0,-3219.0,-66.63130205020336,-12.401680755604092,-53.45876939282214
2026-03-11T20:28:12.070,53658,-1170.0,1481.0,17130.0,-186.0,-55.0,-162.0,1960.0,8926.0,-3221.0,-67.02264989148895,-12.614790607223835,-53.35608750644187
2026-03-11T20:28:12.080,53668,-632.0,900.0,15592.0,-180.0,-36.0,-167.0,1960.0,8926.0,-3221.0,-67.38012577253053,-12.668949174619122,-53.251435341318334
2026-03-11T20:28:12.090,53678,-1177.0,1359.0,16798.0,-149.0,-14.0,-140.0,1952.0,8947.0,-3323.0,-67.40021730698692,-12.47286955149033,-52.79865028236887
2026-03-11T20:28:12.100,53688,-823.0,1027.0,15936.0,-101.0,-9.0,-183.0,1952.0,8947.0,-3323.0,-66.96826609068695,-12.252607123042102,-52.84090817262841
2026-03-11T20:28:12.110,53698,-881.0,942.0,15481.0,-146.0,2.0,-209.0,1962.0,8937.0,-3295.0,-66.99005906698964,-11.922932945727254,-53.137985631391444
2026-03-11T20:28:12.120,53708,-997.0,897.0,14879.0,-145.0,-13.0,-188.0,1962.0,8937.0,-3295.0,-67.00225837428748,-11.73534284735365,-53.214172465463065
2026-03-11T20:28:12.130,53718,105.0,751.0,16960.0,-193.0,-11.0,-206.0,1959.0,8944.0,-3286.0,-67.50290443328011,-11.615523361632942,-53.384788619482876
2026-03-11T20:28:12.161,53728,-1256.0,1218.0,15773.0,-193.0,-11.0,-206.0,1959.0,8944.0,-3286.0,-67.95593335223984,-11.40022520936582,-53.465525378495094
2026-03-11T20:28:12.165,53738,-817.0,838.0,14795.0,-196.0,-10.0,-140.0,1952.0,8931.0,-3352.0,-68.45277843482585,-11.207106847178704,-52.75333232005121
2026-03-11T20:28:12.165,53748,-793.0,1118.0,16009.0,-151.0,-6.0,-219.0,1952.0,8931.0,-3352.0,-68.48362674549303,-10.985186130336047,-52.8146937180326
2026-03-11T20:28:12.170,53758,-362.0,785.0,15353.0,-117.0,-20.0,-151.0,1971.0,8929.0,-3337.0,-68.20201444128998,-10.934503724251364,-52.2877538318031
2026-03-11T20:28:12.183,53768,-949.0,1422.0,17269.0,-110.0,-19.0,-162.0,1971.0,8929.0,-3337.0,-67.82182718790636,-10.839316099848638,-51.954009961659565
2026-03-11T20:28:12.190,53778,-906.0,1357.0,16878.0,-145.0,-40.0,-223.0,1968.0,8949.0,-3334.0,-67.79445618847782,-10.95327404718649,-52.23557492572388
2026-03-11T20:28:12.200,53788,-1113.0,1219.0,15752.0,-126.0,-18.0,-187.0,1968.0,8949.0,-3334.0,-67.5848644886001,-10.830015323404643,-52.19318096150844
2026-03-11T20:28:12.210,53798,-808.0,973.0,15120.0,-149.0,26.0,-230.0,1967.0,8936.0,-3369.0,-67.61972694855653,-10.297562494324966,-52.50009956246202
2026-03-11T20:28:12.220,53808,-289.0,1048.0,16880.0,-172.0,-44.0,-161.0,1967.0,8936.0,-3369.0,-67.8818790872075,-10.503231800242615,-52.09678405366153
2026-03-11T20:28:12.230,53818,-178.0,1092.0,17493.0,-172.0,-44.0,-161.0,1960.0,8935.0,-3298.0,-68.1384004618788,-10.712729954747441,-51.74764955016422
2026-03-11T20:28:12.248,53828,-1159.0,1312.0,16265.0,-154.0,-26.0,-204.0,1960.0,8935.0,-3298.0,-68.19259801542002,-10.67202131809866,-51.813877131441394
2026-03-11T20:28:12.259,53838,-940.0,881.0,14780.0,-177.0,-49.0,-123.0,1957.0,8938.0,-3358.0,-68.49512152800929,-10.866127915666718,-51.00073854401056
2026-03-11T20:28:12.261,53848,-546.0,899.0,16054.0,-166.0,-29.0,-217.0,1957.0,8938.0,-3358.0,-68.68791648656521,-10.894108429777397,-51.08825762642514
2026-03-11T20:28:12.270,53858,-1533.0,1239.0,15329.0,-136.0,-42.0,-177.0,1955.0,8942.0,-3319.0,-68.55453793144164,-10.973975835569046,-50.85899233018773
2026-03-11T20:28:12.280,53868,-539.0,738.0,15064.0,-150.0,-53.0,-137.0,1955.0,8942.0,-3319.0,-68.59735250358844,-11.232961229551401,-50.26201840158305
2026-03-11T20:28:12.290,53878,-317.0,1093.0,17493.0,-162.0,-45.0,-236.0,1960.0,8951.0,-3286.0,-68.74149915735262,-11.428578932271488,-50.65341281000446
2026-03-11T20:28:12.300,53888,-931.0,1201.0,16474.0,-166.0,-30.0,-132.0,1960.0,8951.0,-3286.0,-68.91007630003212,-11.42948756440645,-50.00810798245397
2026-03-11T20:28:12.310,53898,-1519.0,1175.0,14758.0,-166.0,-30.0,-152.0,1960.0,8927.0,-3229.0,-69.06763150663161,-11.377733953002583,-49.60505495025542
2026-03-11T20:28:12.320,53908,-550.0,919.0,15638.0,-163.0,-14.0,-152.0,1960.0,8927.0,-3229.0,-69.21641409722224,-11.247162511366453,-49.19204138979142
2026-03-11T20:28:12.330,53918,-203.0,1060.0,17131.0,-140.0,-35.0,-171.0,1951.0,8941.0,-3355.0,-69.13327127485337,-11.351666870626394,-48.87443889373133
2026-03-11T20:28:12.355,53928,-779.0,1328.0,17116.0,-134.0,-62.0,-193.0,1951.0,8941.0,-3355.0,-68.9750740648379,-11.680271431944774,-48.8209100898025
2026-03-11T20:28:12.359,53938,-1256.0,1175.0,15121.0,-186.0,-63.0,-124.0,1948.0,8955.0,-3338.0,-69.32950607315409,-11.969384613692382,-48.08534514312511
2026-03-11T20:28:12.359,53948,-602.0,1064.0,16321.0,-204.0,-32.0,-144.0,1948.0,8955.0,-3338.0,-69.86751688917342,-12.001438394434777,-47.483244210161466
2026-03-11T20:28:12.370,53959,-1071.0,1487.0,17352.0,-157.0,-23.0,-200.0,1959.0,8935.0,-3234.0,-70.0646653062092,-11.938968354371388,-47.695943213896825
2026-03-11T20:28:12.380,53969,-677.0,986.0,15923.0,-131.0,-46.0,-143.0,1959.0,8935.0,-3234.0,-69.87630395164142,-12.102390263737323,-47.20527528341765
2026-03-11T20:28:12.405,53979,-668.0,1367.0,17791.0,-158.0,-38.0,-182.0,1964.0,8954.0,-3231.0,-69.93930227533782,-12.189863154531768,-47.11189523322015
2026-03-11T20:28:12.405,53989,-942.0,1097.0,15736.0,-158.0,-38.0,-182.0,1964.0,8954.0,-3231.0,-70.00916032474566,-12.250115506259558,-47.01322344238225
2026-03-11T20:28:12.412,53999,-1013.0,1417.0,17290.0,-130.0,-16.0,-113.0,1962.0,8932.0,-3305.0,-69.78927315164852,-12.095075636992767,-46.21318217349697
2026-03-11T20:28:12.420,54009,-722.0,966.0,15589.0,-152.0,-37.0,-182.0,1962.0,8932.0,-3305.0,-69.81216967861539,-12.162840663151531,-46.10715154593888
2026-03-11T20:28:12.430,54019,-446.0,1317.0,18103.0,-113.0,-24.0,-186.0,1969.0,8944.0,-3329.0,-69.44010710767753,-12.126632235426863,-46.08797310908395
2026-03-11T20:28:12.441,54029,-924.0,1103.0,15981.0,-111.0,7.0,-183.0,1969.0,8944.0,-3329.0,-69.06013971923782,-11.749474695358055,-46.093728191518075
2026-03-11T20:28:12.464,54039,-30.0,1022.0,17817.0,-141.0,16.0,-193.0,1960.0,8943.0,-3314.0,-68.99507806983719,-11.355758894056661,-46.20709476425868
2026-03-11T20:28:12.464,54049,-964.0,1150.0,16051.0,-136.0,-26.0,-170.0,1960.0,8943.0,-3314.0,-68.86601557251933,-11.314879573287799,-46.11743658590328
2026-03-11T20:28:12.470,54059,68.0,776.0,16664.0,-110.0,-14.0,-192.0,1972.0,8943.0,-3223.0,-68.5133714156846,-11.230452977856269,-46.39076955367946
2026-03-11T20:28:12.480,54069,-585.0,1247.0,17368.0,-110.0,-14.0,-155.0,1972.0,8943.0,-3223.0,-68.13896966805437,-11.104560039624527,-46.35860158230587
2026-03-11T20:28:12.490,54079,-1062.0,1276.0,16221.0,-91.0,-9.0,-155.0,1963.0,8962.0,-3338.0,-67.57803383158372,-10.895981945182069,-46.31074578904483
2026-03-11T20:28:12.500,54089,-1445.0,1347.0,15797.0,-130.0,34.0,-230.0,1963.0,8962.0,-3338.0,-67.40299745957594,-10.240708660167662,-46.98972782761523
2026-03-11T20:28:12.510,54099,-1155.0,1017.0,14571.0,-161.0,-33.0,-134.0,1949.0,8942.0,-3287.0,-67.55288648737775,-10.268869751727063,-46.742986635155376
2026-03-11T20:28:12.521,54109,-385.0,849.0,15712.0,-166.0,-13.0,-130.0,1949.0,8942.0,-3287.0,-67.76676921594321,-10.162859836699667,-46.43075890632851
2026-03-11T20:28:12.529,54119,-1174.0,1478.0,16933.0,-175.0,-42.0,-149.0,1958.0,8942.0,-3259.0,-68.02666523626796,-10.29218036719874,-46.30069429151456
2026-03-11T20:28:12.540,54129,-1123.0,915.0,14228.0,-151.0,-63.0,-141.0,1958.0,8942.0,-3259.0,-68.07233965725982,-10.613663354644489,-46.10239369375991
2026-03-11T20:28:12.555,54139,-901.0,931.0,15095.0,-164.0,-47.0,-150.0,1965.0,8945.0,-3343.0,-68.24750672605045,-10.793802262348065,-45.88991104269054
2026-03-11T20:28:12.565,54149,-872.0,800.0,14356.0,-146.0,-47.0,-143.0,1965.0,8945.0,-3343.0,-68.2495654724294,-10.96911482122357,-45.626651769392396
2026-03-11T20:28:12.570,54159,24.0,973.0,17508.0,-146.0,-47.0,-143.0,1965.0,8930.0,-3230.0,-68.25175581074551,-11.211900926942866,-45.49145443816416
2026-03-11T20:28:12.582,54169,-754.0,1339.0,17558.0,-159.0,-36.0,-202.0,1965.0,8930.0,-3230.0,-68.35770023945483,-11.291425841400855,-45.907901527531806
2026-03-11T20:28:12.590,54179,-1021.0,1249.0,16324.0,-157.0,-38.0,-152.0,1944.0,8927.0,-3267.0,-68.44163916674783,-11.366626259377064,-45.77969502653143
2026-03-11T20:28:12.620,54189,-754.0,1165.0,16628.0,-153.0,-26.0,-226.0,1944.0,8927.0,-3267.0,-68.49205160297649,-11.342294338306495,-46.35149467382295
2026-03-11T20:28:12.628,54199,-103.0,825.0,16509.0,-156.0,-32.0,-183.0,1957.0,8938.0,-3240.0,-68.59379362374979,-11.421908062676932,-46.5018292410233
2026-03-11T20:28:12.628,54209,-910.0,1321.0,16770.0,-137.0,-81.0,-182.0,1957.0,8938.0,-3240.0,-68.47443813486163,-11.925340821306602,-46.670462409340054
2026-03-11T20:28:12.630,54219,-943.0,1214.0,16215.0,-171.0,-28.0,-200.0,1957.0,8927.0,-3229.0,-68.69511564099516,-11.894852452741318,-46.97041506758405
2026-03-11T20:28:12.640,54229,-1418.0,1317.0,15712.0,-139.0,-2.0,-152.0,1957.0,8927.0,-3229.0,-68.58758522378882,-11.57377501636754,-46.807849422484935
2026-03-11T20:28:12.657,54239,-1064.0,1210.0,15760.0,-173.0,-34.0,-208.0,1967.0,8935.0,-3351.0,-68.82342622024586,-11.598478878134506,-47.025303642463726
2026-03-11T20:28:12.665,54249,-567.0,905.0,15550.0,-173.0,-34.0,-208.0,1967.0,8935.0,-3351.0,-69.07574129118295,-11.65801474871391,-47.19019504733293
2026-03-11T20:28:12.670,54259,-363.0,1285.0,18007.0,-153.0,-48.0,-130.0,1956.0,8951.0,-3343.0,-69.11199101165401,-11.872215838571808,-46.62112322108413
2026-03-11T20:28:12.682,54269,-883.0,1486.0,17856.0,-170.0,-39.0,-190.0,1956.0,8951.0,-3343.0,-69.30060582437034,-11.960545528068213,-46.62079856656717
2026-03-11T20:28:12.690,54279,-765.0,1118.0,16306.0,-163.0,-42.0,-153.0,1951.0,8932.0,-3252.0,-69.43354824339045,-12.079338741975546,-46.33533452767666
2026-03-11T20:28:12.700,54289,-1240.0,888.0,13982.0,-116.0,-23.0,-165.0,1951.0,8932.0,-3252.0,-69.10899753298175,-11.961993854686694,-46.23013218598457
2026-03-11T20:28:12.710,54299,-883.0,1108.0,15907.0,-139.0,-35.0,-193.0,1963.0,8946.0,-3274.0,-69.00932769557642,-12.002362523978121,-46.39725088328204
2026-03-11T20:28:12.720,54309,-892.0,1085.0,15949.0,-192.0,-46.0,-165.0,1963.0,8946.0,-3274.0,-69.4329051832061,-12.149240222509203,-46.222292426931936
2026-03-11T20:28:12.780,54319,-1163.0,1411.0,16947.0,-141.0,-1.0,-234.0,1971.0,8932.0,-3230.0,-69.33085818533836,-11.837809137638947,-46.75776283243399
2026-03-11T20:28:12.780,54329,-874.0,1136.0,16136.0,-141.0,-1.0,-146.0,1971.0,8932.0,-3230.0,-69.24549963531155,-11.548998286112111,-46.43554022371784
2026-03-11T20:28:12.780,54339,-1192.0,1285.0,16193.0,-128.0,-13.0,-146.0,1958.0,8931.0,-3269.0,-69.02424535486146,-11.361479917363548,-46.12184403165252
2026-03-11T20:28:12.780,54349,-1096.0,1129.0,15460.0,-112.0,-54.0,-227.0,1958.0,8931.0,-3269.0,-68.65782576403616,-11.582563715596542,-46.663632695616364
2026-03-11T20:28:12.780,54359,-148.0,1167.0,18069.0,-178.0,-25.0,-177.0,1967.0,8933.0,-3219.0,-68.95516207506516,-11.586546171836872,-46.7033915622997
2026-03-11T20:28:12.780,54369,-1046.0,1075.0,15353.0,-142.0,-29.0,-152.0,1967.0,8933.0,-3219.0,-68.88755383533197,-11.56125426819465,-46.51441231915234
2026-03-11T20:28:12.790,54379,-932.0,982.0,15164.0,-126.0,-47.0,-159.0,1966.0,8932.0,-3262.0,-68.6704982992962,-11.720434802739508,-46.39968273105807
2026-03-11T20:28:12.800,54389,-420.0,830.0,15553.0,-152.0,-25.0,-170.0,1966.0,8932.0,-3262.0,-68.72559345872092,-11.700132759005765,-46.385186909833905
2026-03-11T20:28:12.810,54399,-215.0,840.0,16129.0,-137.0,-20.0,-196.0,1966.0,8932.0,-3344.0,-68.63405605549659,-11.646876592980101,-46.54994165280808
2026-03-11T20:28:12.822,54409,-653.0,1143.0,16493.0,-83.0,-44.0,-146.0,1966.0,8932.0,-3344.0,-67.99548731690264,-11.799901410358451,-46.34468281003203
2026-03-11T20:28:12.831,54419,-470.0,733.0,14996.0,-83.0,-44.0,-146.0,1954.0,8930.0,-3302.0,-67.39301010344838,-11.959242988237412,-46.29543856716721
2026-03-11T20:28:12.840,54429,-106.0,1056.0,17416.0,-176.0,-63.0,-236.0,1954.0,8930.0,-3302.0,-67.70055353156505,-12.330496547754445,-47.06338952593633
2026-03-11T20:28:12.850,54439,-766.0,1370.0,17381.0,-140.0,-58.0,-150.0,1955.0,8935.0,-3208.0,-67.62840580448942,-12.601973351416715,-47.087355604623774
2026-03-11T20:28:12.863,54449,-919.0,1149.0,16012.0,-102.0,-47.0,-159.0,1955.0,8935.0,-3208.0,-67.19334900414188,-12.745004888814538,-47.26763300572935
2026-03-11T20:28:12.870,54459,-224.0,1127.0,17778.0,-154.0,-57.0,-144.0,1957.0,8937.0,-3266.0,-67.28613612100041,-13.034296118808376,-47.23461314451618
2026-03-11T20:28:12.880,54469,-944.0,1309.0,17066.0,-119.0,-53.0,-152.0,1957.0,8937.0,-3266.0,-67.01889089616675,-13.229873867141253,-47.32560603020167
2026-03-11T20:28:12.890,54479,-1196.0,1235.0,15965.0,-160.0,-53.0,-239.0,1968.0,8961.0,-3332.0,-67.1580449947246,-13.39924574580176,-48.16711926627318
2026-03-11T20:28:12.900,54489,-1251.0,1016.0,14476.0,-177.0,-37.0,-151.0,1968.0,8961.0,-3332.0,-67.46918952524298,-13.395318701182362,-48.081666395156624
2026-03-11T20:28:12.910,54499,-780.0,820.0,14932.0,-177.0,18.0,-213.0,1956.0,8935.0,-3341.0,-67.79154021683313,-12.891297523002315,-48.50665519040559
2026-03-11T20:28:12.920,54509,-499.0,1145.0,17233.0,-138.0,18.0,-213.0,1956.0,8935.0,-3341.0,-67.71208389756666,-12.423972564343282,-48.91008397369321
2026-03-11T20:28:12.930,54519,-965.0,1304.0,16601.0,-147.0,-34.0,-197.0,1960.0,8935.0,-3290.0,-67.70861558129133,-12.442360889969628,-49.19149736783094
2026-03-11T20:28:12.941,54529,-942.0,1185.0,16180.0,-159.0,-61.0,-188.0,1960.0,8935.0,-3290.0,-67.82886762898148,-12.724851273415677,-49.36162080859873
2026-03-11T20:28:12.968,54539,-693.0,977.0,15540.0,-141.0,-78.0,-180.0,1949.0,8945.0,-3326.0,-67.78214124495285,-13.183786936587637,-49.43762935758858
2026-03-11T20:28:12.973,54549,-216.0,910.0,16462.0,-183.0,-81.0,-143.0,1949.0,8945.0,-3326.0,-68.15661795781928,-13.698899272344821,-49.11276295422484
2026-03-11T20:28:12.973,54559,-465.0,1249.0,17590.0,-148.0,-26.0,-180.0,1960.0,8938.0,-3248.0,-68.16265476157204,-13.649511543847085,-49.224575612557075
2026-03-11T20:28:12.982,54569,-1249.0,1420.0,16572.0,-126.0,-50.0,-160.0,1960.0,8938.0,-3248.0,-67.93625119716737,-13.780632363217686,-49.180204382123165
2026-03-11T20:28:12.990,54579,-1567.0,1297.0,15173.0,-173.0,-17.0,-223.0,1960.0,8941.0,-3274.0,-68.17520994634312,-13.554118219410327,-49.66867067038494
2026-03-11T20:28:13.000,54589,-338.0,931.0,16288.0,-173.0,-17.0,-223.0,1960.0,8941.0,-3274.0,-68.44167795698377,-13.425898563939587,-50.08605265138254
2026-03-11T20:28:13.010,54599,-924.0,1357.0,17084.0,-166.0,-35.0,-140.0,1956.0,8954.0,-3331.0,-68.60881382836683,-13.438657311548418,-49.61692016046362
2026-03-11T20:28:13.020,54609,-656.0,1379.0,17999.0,-172.0,-16.0,-171.0,1956.0,8954.0,-3331.0,-68.83461398776836,-13.285059944674977,-49.423523549037974
2026-03-11T20:28:13.030,54619,-1565.0,1269.0,15302.0,-123.0,-39.0,-136.0,1965.0,8946.0,-3250.0,-68.56850750567264,-13.285164021684412,-49.02664529309053
2026-03-11T20:28:13.040,54629,-628.0,920.0,15591.0,-94.0,-39.0,-154.0,1965.0,8946.0,-3250.0,-68.05079702638791,-13.355608622714419,-48.905934255477234
2026-03-11T20:28:13.067,54639,-521.0,1301.0,17961.0,-157.0,-40.0,-164.0,1969.0,8956.0,-3315.0,-68.14552172429673,-13.447352645458182,-48.81496860961005
2026-03-11T20:28:13.080,54649,-1255.0,1478.0,17138.0,-125.0,-45.0,-181.0,1969.0,8956.0,-3315.0,-67.90903018396398,-13.535949440864712,-48.93044083002125
2026-03-11T20:28:13.082,54659,-1052.0,1388.0,16953.0,-142.0,10.0,-238.0,1956.0,8941.0,-3217.0,-67.84883835200361,-13.096449198057982,-49.66826297457028
2026-03-11T20:28:13.082,54669,-835.0,944.0,15354.0,-109.0,-39.0,-193.0,1956.0,8941.0,-3217.0,-67.48969657429251,-13.154580065149327,-49.99974901164007
2026-03-11T20:28:13.090,54679,-360.0,774.0,15421.0,-109.0,-39.0,-193.0,1950.0,8941.0,-3261.0,-67.1506358761532,-13.24697577702716,-50.329122719272114
2026-03-11T20:28:13.100,54689,-456.0,1110.0,16882.0,-150.0,-42.0,-255.0,1950.0,8941.0,-3261.0,-67.20238692554112,-13.362758080336677,-51.22580770091646
2026-03-11T20:28:13.111,54699,-1127.0,1230.0,15781.0,-191.0,-49.0,-192.0,1957.0,8945.0,-3267.0,-67.64100463417421,-13.494252258134336,-51.408979970495075
2026-03-11T20:28:13.120,54709,-634.0,1050.0,15929.0,-155.0,-17.0,-215.0,1957.0,8945.0,-3267.0,-67.73175776011054,-13.345480589123387,-51.783229190152376
2026-03-11T20:28:13.131,54719,-1108.0,1488.0,17188.0,-132.0,-25.0,-157.0,1966.0,8941.0,-3271.0,-67.57176509680171,-13.250077361203601,-51.60428439265254
2026-03-11T20:28:13.140,54729,-839.0,980.0,15233.0,-161.0,-70.0,-153.0,1966.0,8941.0,-3271.0,-67.72450990363257,-13.60815483273042,-51.38180421719065
2026-03-11T20:28:13.150,54739,-541.0,1348.0,17894.0,-131.0,-13.0,-186.0,1965.0,8938.0,-3243.0,-67.56765774708998,-13.428854935011547,-51.52914245857617
2026-03-11T20:28:13.177,54749,-1112.0,1220.0,16097.0,-147.0,-27.0,-166.0,1965.0,8938.0,-3243.0,-67.57022077671411,-13.34606749508532,-51.476581653348234
2026-03-11T20:28:13.183,54759,-610.0,719.0,14816.0,-147.0,-27.0,-201.0,1958.0,8955.0,-3230.0,-67.60385025410083,-13.296648838632926,-51.77197521787885
2026-03-11T20:28:13.183,54769,-546.0,1198.0,17463.0,-165.0,-35.0,-201.0,1958.0,8955.0,-3230.0,-67.79028390912472,-13.33798314260352,-52.02436117811113
2026-03-11T20:28:13.190,54779,-966.0,1239.0,16587.0,-164.0,-33.0,-151.0,1966.0,8941.0,-3317.0,-67.95624038328421,-13.328147291592327,-51.673676565376525
2026-03-11T20:28:13.200,54789,-1103.0,1153.0,15827.0,-157.0,-35.0,-212.0,1966.0,8941.0,-3317.0,-68.05238261617109,-13.32506327407318,-51.90448644419896
2026-03-11T20:28:13.210,54799,-48.0,800.0,16519.0,-144.0,-6.0,-158.0,1949.0,8943.0,-3327.0,-68.04708264924174,-13.114036177437153,-51.59767724808141
2026-03-11T20:28:13.220,54809,-739.0,1227.0,17195.0,-119.0,-29.0,-159.0,1949.0,8943.0,-3327.0,-67.77070917316583,-13.086861708925285,-51.359803413961345
2026-03-11T20:28:13.245,54819,-1473.0,1186.0,14756.0,-141.0,-37.0,-206.0,1945.0,8949.0,-3333.0,-67.70519063326223,-13.074076607460148,-51.58737460248227
2026-03-11T20:28:13.246,54829,-666.0,855.0,15068.0,-142.0,-67.0,-107.0,1945.0,8949.0,-3333.0,-67.67773405088141,-13.418660159963714,-50.87702578369569
2026-03-11T20:28:13.250,54839,-46.0,837.0,16487.0,-126.0,-39.0,-207.0,1957.0,8938.0,-3243.0,-67.50085426365139,-13.52929388440224,-51.26300910710082
2026-03-11T20:28:13.276,54849,-465.0,1095.0,16746.0,-126.0,-39.0,-207.0,1957.0,8938.0,-3243.0,-67.31081371013647,-13.609164353185195,-51.66110273269131
2026-03-11T20:28:13.283,54859,-1285.0,1078.0,14598.0,-153.0,-47.0,-169.0,1959.0,8939.0,-3216.0,-67.37952977684603,-13.69724211785994,-51.69517452690739
2026-03-11T20:28:13.283,54869,-610.0,1104.0,16412.0,-133.0,-49.0,-234.0,1959.0,8939.0,-3216.0,-67.25837185178693,-13.861021470236796,-52.3674828065653
2026-03-11T20:28:13.290,54879,22.0,813.0,16542.0,-131.0,-57.0,-172.0,1956.0,8939.0,-3234.0,-67.14073066631371,-14.143923210812293,-52.42553275327118
2026-03-11T20:28:13.300,54889,-864.0,1227.0,16536.0,-157.0,-22.0,-161.0,1956.0,8939.0,-3234.0,-67.25164266044715,-14.016989175199319,-52.356359678490236
2026-03-11T20:28:13.310,54899,-879.0,875.0,14703.0,-133.0,6.0,-198.0,1962.0,8938.0,-3201.0,-67.14189480042893,-13.609544302212809,-52.678402996848554
2026-03-11T20:28:13.320,54909,-651.0,1022.0,16184.0,-124.0,-3.0,-166.0,1962.0,8938.0,-3201.0,-66.94198968241834,-13.32077538259691,-52.70398592544098
2026-03-11T20:28:13.338,54919,-1220.0,1265.0,16001.0,-183.0,-17.0,-207.0,1957.0,8948.0,-3285.0,-67.30614463382503,-13.134028186914641,-52.98318340333955
