recv_time,timestamp,ax,ay,az,gx,gy,gz,mx,my,mz,roll,pitch,yaw,ax_w,ay_w,az_w,vx,vy,vz,x,y,z,a_norm,g_norm,m_norm,stationary,bias_ready
2026-03-12T18:49:29.785,580525,-0.479438882446289,0.8948328704833984,9.89463691101074,-4.75609756097561,-3.048780487804878,-5.7926829268292686,-1094.0,10419.0,-2935.0,5.167552371338713,2.7628065565239694,0.0,0.0,0.0,0.13992866348198518,0.0,0.0,0.0013782973352975542,0.0,0.0,1.3769190379622567e-05,9.946578663481986,8.091396786903804,10879.64254927523,0,0
2026-03-12T18:49:29.786,580535,-0.469862075805664,0.8565256439208984,9.393650213623046,-5.039024390243903,-3.0097560975609756,-6.392682926829268,-1094.0,10419.0,-2935.0,5.118553189138885,2.734493671685156,-0.06392682926829268,0.0,0.0,-0.36236752102502656,0.0,0.0,-0.002211697206828421,0.0,0.0,-8.339433906972982e-06,9.444314209347061,8.678524850183516,10879.64254927523,0,0
2026-03-12T18:49:29.787,580545,-0.17896657409667968,0.6057330200195312,9.027935910034179,-5.460292682926831,-3.139707317073171,-6.505658536585366,-1103.0,10423.0,-2887.0,5.045568963832335,2.6795468791578725,-0.12898341463414634,0.2437093010207041,-0.19115233609435833,-0.7619479660537074,0.0024005366150539353,-0.0018828505105294296,-0.009683709214355013,2.3981360784388814e-05,-1.8809676600189005e-05,-0.0001050713495244726,9.050003774688193,9.055172622029529,10871.536551932299,0,0
2026-03-12T18:49:29.797,580555,-0.3142389678955078,0.7841010437011718,9.631873278808593,-5.725908292682928,-3.0299941463414637,-7.248620487804877,-1103.0,10423.0,-2887.0,4.983295377410976,2.6374449825223176,-0.2014696195121951,0.13057543644221287,0.0,-0.1388499538440069,0.0036506966147839227,-0.0018546077528714881,-0.010906125621503155,6.042783860529582e-05,-3.7318398374774985e-05,-0.00021391847313376465,9.66884395544288,9.721593968033394,10871.536551932299,0,0
2026-03-12T18:49:29.810,580565,0.1640028137207031,0.6811503723144531,10.207678778076172,-5.994664897560977,-2.8412531512195125,-7.3175113365853655,-1090.0,10430.0,-2993.0,4.906763136637702,2.5561205487626713,-0.27464473287804875,0.6190716628941962,-0.19742465999899927,0.4043902295174995,0.009693792045069996,-0.0037714215375685587,-0.006759289976433238,0.0001572083932969398,-7.495758113671012e-05,-0.0002812298615251989,10.23169432640553,9.876978225369331,10905.551292804963,0,0
2026-03-12T18:49:29.818,580575,-0.3172317199707031,0.8403647827148437,9.797671743774414,-6.144359998439025,-2.7895626552195125,-7.727232380878048,-1090.0,10430.0,-2993.0,4.846175272818893,2.5180172169446537,-0.3519170566868292,0.11515835453166362,0.0,0.0,0.010682694956530833,-0.0037148502145050305,-0.006657900626786739,0.00026377130751938587,-0.00011199397719847867,-0.00034746105892527327,9.838761127852353,10.258895645531403,10905.551292804963,0,0
2026-03-12T18:49:29.828,580585,0.1149216796875,0.7074865905761718,10.158597644042969,-6.28207949124683,-2.7420073988995126,-8.104175741627316,-1097.0,10428.0,-2990.0,4.7713623821399525,2.4435394980757117,-0.4329588141031024,0.5478626441728089,-0.1440989585905178,0.3614340070839184,0.01591890157728504,-0.005078502203404055,-0.0029979071476083424,0.00042253736296894403,-0.0001626162202332867,-0.00037706269027095536,10.183852432250903,10.614178807667805,10903.517459975932,0,0
2026-03-12T18:49:29.838,580595,-0.16759411621093748,0.8176198669433593,9.923367330932617,-6.3843911807275715,-2.712890709426576,-8.250963633516642,-1097.0,10428.0,-2990.0,4.707558005196447,2.394628932028183,-0.5154684504382688,0.248569270084698,0.0,0.14865106779214265,0.018128525363960035,-0.005002324670352994,-0.001488725522641612,0.0006032187939919358,-0.00021242682746987982,-0.0003915579955518741,9.95840394939017,10.779546726623488,10903.517459975932,0,0
2026-03-12T18:49:29.848,580605,0.07841010437011718,0.6476315490722656,9.639055883789062,-6.683395983830342,-2.6422009160870843,-8.332349957469457,-1093.0,10415.0,-2969.0,4.628770598491846,2.3257085038599654,-0.5987919500129634,0.4689359076110781,-0.13725531417210501,-0.15790742949299563,0.022475616173469753,-0.006279254644892934,-0.0030217828203079945,0.0008271469807709066,-0.00027494415454489034,-0.0004213540479311991,9.661106204707078,11.003502322960278,10884.936150478788,0,0
2026-03-12T18:49:29.857,580615,-0.05626373901367187,0.7900865478515624,10.24658455505371,-6.982870646587329,-2.494239476946459,-8.729176595018242,-1093.0,10415.0,-2969.0,4.5566957450345695,2.2709597491107973,-0.6860837159631458,0.3506668507049277,0.0,0.46447410095609953,0.025592550410311245,-0.006185065825219539,0.0015986138164142056,0.001081989412389145,-0.00033645801798428863,-0.00040496254185728997,10.277154149145037,11.453394128481886,10884.936150478788,0,0
2026-03-12T18:49:29.867,580625,-0.4542997650146484,0.8774749084472656,9.707889181518555,-7.151070263153025,-2.6703100748883033,-8.489379052782636,-1098.0,10419.0,-2970.0,4.495379349554391,2.2506195693852327,-0.7709775064909721,0.0,0.11483132869120549,0.0,0.025208662154156576,-0.004961201250232873,0.0015746346091679924,0.00133274195789678,-0.00038568396045613075,-0.00038882697956984445,9.758046057079865,11.416563340446462,10889.539246451155,0,0
2026-03-12T18:49:29.877,580635,-0.30346506042480464,0.7679401824951172,9.568426934814452,-7.261911471369076,-2.67619746401919,-8.639497021242953,-1098.0,10419.0,-2970.0,4.425247735885528,2.217660570901177,-0.8573724767034017,0.0,0.0,-0.20294156363387472,0.024830532221844226,-0.0048867832314793795,-0.0004479593117631937,0.001579466232835107,-0.00043411724097815364,-0.0003929132661147889,9.603989648769513,11.599064611618058,10889.539246451155,0,0
2026-03-12T18:49:29.887,580645,-0.31962592163085934,0.7511807708740234,9.484031326293945,-7.36876343170833,-2.779174837629362,-8.538581161982542,-1085.0,10421.0,-2989.0,4.354216395178955,2.1858837982827484,-0.9427582883232271,0.0,0.0,-0.2876923573377699,0.024458074238516564,-0.004813481483007189,-0.0032750096418637793,0.0018222229282450523,-0.00048176980375241727,-0.00042523769917089324,9.519100980577637,11.615931109917847,10895.347034399592,0,0
2026-03-12T18:49:29.898,580655,-0.24839842224121092,0.9157821350097656,10.673351000976561,-7.501213576683859,-2.644645728667794,-8.840860522682474,-1085.0,10421.0,-2989.0,4.288576399479207,2.146970462097845,-1.0311668935500518,0.15512294163925802,0.11229235463867049,0.9070845302695094,0.02561916410008551,-0.0036351995675711767,0.005708898125918844,0.0020763361546766615,-0.0005176036776287009,-0.00036778056919379307,10.715445874298574,11.892147448409496,10895.347034399592,0,0
2026-03-12T18:49:29.907,580665,-0.6943184814453125,0.9876081848144531,9.885060104370117,-7.6230677100613455,-2.520878948423151,-9.118957534526412,-1092.0,10414.0,-2977.0,4.234742146133253,2.149904808181349,-1.1223564688953158,-0.31622118687168155,0.26121431526612415,0.14340691390116156,0.022120097947898164,-0.001007710568686286,0.007035822755956503,0.0022952395970214875,-0.0005271531025322482,-0.00029712491929259383,9.95850698385048,12.149953847701601,10886.063981072313,0,0
2026-03-12T18:49:29.917,580675,-0.7134720947265625,0.9259574920654297,9.446921200561523,-7.788832049353999,-2.4753061935249088,-9.116270200056983,-1092.0,10414.0,-2977.0,4.178472072410697,2.1577520122710983,-1.2135191708958857,-0.3506255066119581,0.2426408695007375,-0.2972363987706679,0.018334635238551902,0.0013974176544262727,0.0040025068867260765,0.0024761073634575995,-0.0005126657470619975,-0.00025684275057490775,9.518968425028227,12.243342182802609,10886.063981072313,0,0
2026-03-12T18:49:29.927,580685,-0.5602431884765625,0.7457938171386719,8.883685260009765,-7.916944997600801,-2.5211841370673063,-9.133310047467058,-1090.0,10407.0,-2931.0,4.109794823175218,2.154490900511941,-1.3048522713705561,-0.22222297566780125,0.11229004314575042,-0.8775989562368878,0.015870719399645784,0.0024825133145955206,-0.00470188043550816,0.0026321797428966033,-0.0004873527733021262,-0.00030355769337505933,8.932521740630213,12.347134889163513,10866.669683026166,0,0
2026-03-12T18:49:29.937,580695,-0.07601590270996093,0.6835445739746093,9.769539874267577,-8.117735739256151,-2.446318674394605,-9.358742804645303,-1090.0,10407.0,-2931.0,4.028222502728433,2.104748054666847,-1.3984396994170092,0.28352103272488516,0.0,0.0,0.018425340780991215,0.002445275614876588,-0.004631352228975537,0.002813616717555809,-0.00046243711713620693,-0.0003495213444491499,9.79371844382812,12.628070932354973,10866.669683026166,0,0
2026-03-12T18:49:29.949,580705,-0.4333505004882812,0.8822633117675781,9.817423907470703,-8.41953639231078,-2.538418058491817,-9.171018990029776,-1089.0,10417.0,-2991.0,3.9618948882980263,2.0859331931409635,-1.4901498893173069,0.0,0.20370493266650447,0.0,0.018148960669276345,0.004415090067418507,-0.0045618819455409045,0.002992111217924324,-0.0004178679302455598,-0.0003947450237406544,9.866508672602578,12.705894247026054,10892.469462890405,0,0
2026-03-12T18:49:29.958,580715,-0.3268085266113281,0.8337807281494141,9.674968908691406,-8.609388115072258,-2.6036372967393007,-9.60319112936398,-1089.0,10417.0,-2991.0,3.891546982283775,2.0579109615365114,-1.5861818006109467,0.0,0.17455882783018883,0.0,0.0178767262592372,0.00606826817053459,-0.0044934537163577905,0.0031677076020361792,-0.00035682806329167367,-0.0004392398813433281,9.716327366852386,13.157574653256368,10892.469462890405,0,0
2026-03-12T18:49:29.967,580725,-0.7565677246093749,0.9630676177978515,9.221267694091797,-8.740149260988428,-2.6051024105611322,-9.293472424380715,-1104.0,10423.0,-3014.0,3.8365184919929893,2.0713588449378406,-1.679116524854754,-0.41093799536739867,0.3561099185334109,-0.5203166259304464,0.013560836110979765,0.009484926845530667,-0.00955117067602732,0.003300012647182831,-0.0002617168160415306,-0.0005342168365154977,9.302240151945792,13.020959925312448,10906.050660069392,0,0
2026-03-12T18:49:29.977,580735,-0.4034229797363281,0.7978677032470702,9.260173471069335,-8.860449515231304,-2.655230803082095,-9.530482435308308,-1104.0,10423.0,-3014.0,3.765562956493255,2.0514145158278256,-1.7744213492078371,0.0,0.19008461081835681,-0.5055833211045861,0.013357423569315068,0.011214986359408522,-0.014387898828767084,0.003430153295993106,-0.00014941738549499798,-0.0006774177289783653,9.303233614542869,13.281111086024346,10906.050660069392,0,0
2026-03-12T18:49:29.987,580745,-0.4165910888671875,0.7050923889160156,8.77115778198242,-8.9906379442567,-2.4769586802989423,-9.387556035605595,-1107.0,10419.0,-2975.0,3.689461542732432,2.036903072711358,-1.868296909563893,0.0,0.14252172773276606,-0.9990512179700506,0.013157062215775341,0.01245060058218514,-0.024012734843340575,0.0035581621942327086,-2.4886468293473445e-05,-0.0009166275323343594,8.809308272995196,13.232275060255198,10891.81504617114,0,0
2026-03-12T18:49:29.997,580755,-0.3220201232910156,0.8194155181884765,9.65342109375,-9.110411298960067,-2.3129483273384417,-9.256063747879098,-1107.0,10419.0,-2975.0,3.617159547377054,2.0121229487550325,-1.9608575470426841,0.0,0.20800743326940463,-0.11542893390017106,0.01295970628253871,0.014312714791155999,-0.024789518819607153,0.0036840714978010375,0.00011812243893846845,-0.0011633581978099006,9.693486347259684,13.191817164665322,10891.81504617114,0,0
2026-03-12T18:49:30.007,580765,-0.9307458953857422,1.0516530792236327,9.35354733581543,-9.201090590165212,-2.259619778224537,-9.3838713309756,-1097.0,10424.0,-2905.0,3.5684968662296415,2.044393188185331,-2.05469626035244,-0.5776470284958074,0.4884575029172584,-0.37856201449245575,0.007075487457616927,0.018909330473023653,-0.028146511880063736,0.00375107154600483,0.00030690852792503626,-0.0014433784932939273,9.458388334391747,13.335028711887952,10876.681938900301,0,0
2026-03-12T18:49:30.017,580775,-0.4896142395019531,0.8487444885253905,9.464279162597656,-9.347930172220288,-2.2251916593812084,-9.584381136692674,-1097.0,10424.0,-2905.0,3.499759864619201,2.0360534309559455,-2.150540071719367,-0.1416241519026613,0.2749289087286474,-0.2968116169017563,0.0055743572495114595,0.021333740266905477,-0.03064790862834508,0.0038030083033814446,0.000519725684663497,-0.0017481077219978008,9.514865704670008,13.57186937010066,10876.681938900301,0,0
2026-03-12T18:49:30.027,580785,-0.017956512451171875,0.7996633544921875,10.40041201171875,-9.395217709662177,-2.388639741264858,-9.476167231123114,-1097.0,10415.0,-2909.0,3.420670893875647,1.9834639939987486,-2.245301744030598,0.34973148795966785,0.16410661663656967,0.6173180944957988,0.008935597047171517,0.022630184336772104,-0.024107606768136284,0.003888471909579307,0.0007452815005031868,-0.0019871946058894843,10.431124288894308,13.556307056780293,10869.126689849558,0,0
2026-03-12T18:49:30.037,580795,-0.44532150878906246,0.9522937103271484,10.167575900268554,-9.311892975816033,-2.3634022205002543,-9.893683608730827,-1097.0,10415.0,-2909.0,3.357899262887687,1.967886550653128,-2.3442385801179064,0.0,0.358686860674156,0.40852104630229924,0.008801563091463944,0.02582379714936096,-0.019722060360536593,0.003972511052953452,0.0010025159525247998,-0.002182230794285355,10.221779406964362,13.790648867931724,10869.126689849558,0,0
2026-03-12T18:49:30.047,580805,-0.8936357696533203,1.052850180053711,9.619902270507811,-9.088892757262945,-2.418232481884624,-9.624140139544556,-1095.0,10423.0,-2970.0,3.3116933423150727,1.99368724881221,-2.440479981513352,-0.5352685357574918,0.5186345823797748,-0.11675300110717579,0.0033971445678806908,0.030544990828561325,-0.020576246516034225,0.004002476016133627,0.0013066578949496024,-0.0023856052661862517,9.71851830705506,13.456592931164314,10893.06449076659,0,0
2026-03-12T18:49:30.057,580815,-0.5033808990478515,0.8780734588623046,9.51276174621582,-8.98129353180386,-2.375993395528976,-10.117623562527333,-1095.0,10423.0,-2970.0,3.252658165503109,1.9856223280681682,-2.5416562171386254,-0.15716831490826544,0.34422168633313066,-0.24768295745829327,0.0017980794975160658,0.033477399576514244,-0.022707279949257902,0.004016436354297679,0.0016397904588240301,-0.002610065387613152,9.566453960007944,13.735912225732497,10893.06449076659,0,0
2026-03-12T18:49:30.067,580825,-0.5333084197998047,1.0576385833740234,10.614693060302734,-9.145716878527844,-2.3468895336427558,-9.996018555573928,-1097.0,10410.0,-2972.0,3.1991347777894443,1.9756528472587231,-2.641616402694365,-0.14404365134666514,0.4707612847775431,0.8625749600133155,0.00035227833928867325,0.03761223723792533,-0.013870307393887876,0.004015939178552875,0.00201389691837208,-0.002746019693090479,10.680577044715786,13.750360528680304,10881.373672473526,0,0
2026-03-12T18:49:30.077,580835,-0.6554127044677734,0.9163806854248047,9.507374792480467,-9.29698635751391,-2.3201139807074327,-10.13780048576216,-1097.0,10410.0,-2972.0,3.1421552542626756,1.9820465619481618,-2.7429944075519863,-0.30573097340551186,0.4089704507751323,-0.24637978620459045,-0.0026644559238449485,0.0410764126194915,-0.01608909367709477,0.003985305324695112,0.0024222363835224277,-0.002904003719231565,9.573896532681477,13.949619453748312,10881.373672473526,0,0
2026-03-12T18:49:30.087,580845,-0.31543606872558594,0.6189011291503906,8.750208517456054,-9.319081107449383,-2.1735292524947405,-10.268239861535333,-1100.0,10433.0,-2972.0,3.0639167589776726,1.9617978970530805,-2.8456768061673396,0.0,0.15087751799416116,-1.0302118235396414,-0.0026244890849872744,0.04194640998244162,-0.025995343733803817,0.003955101373411394,0.0028388587828634968,-0.0031607931994130332,8.77773818361411,14.035891562444244,10903.681625946349,0,0
2026-03-12T18:49:30.097,580855,-0.2998737579345703,0.7775169891357422,9.564237081909178,-9.173554618853432,-1.9898908147341858,-10.300439209197872,-1100.0,10433.0,-2972.0,2.997312407658425,1.9396196424694518,-2.9486811982593184,0.0,0.2746987659686967,-0.21018724034448866,-0.0025851217487124654,0.04402299667749665,-0.027675757895189973,0.003925320905768344,0.0032758096608888248,-0.003434113227586568,9.600473316355767,13.93602589341852,10903.681625946349,0,0
2026-03-12T18:49:30.109,580865,0.18315642700195311,0.7308300567626953,10.46325980529785,-9.1421092737354,-1.8014312568725241,-10.134940657827896,-1090.0,10425.0,-2977.0,2.922234909992397,1.877775140813044,-3.0500306048375974,0.5363948934882716,0.16815511509760706,0.6686289450824514,0.0027371447783776973,0.045018979611045624,-0.020674626417699977,0.00394873966119857,0.0037222734575422817,-0.0036372186322718046,10.490351023763766,13.767364986948268,10896.387199434499,0,0
2026-03-12T18:49:30.117,580875,-0.36152445068359373,0.852335791015625,9.776722479248047,-9.083911263543886,-1.7256094392495516,-10.42170638081142,-1090.0,10425.0,-2977.0,2.86366168983727,1.8642571846245264,-3.1542476686457115,0.0,0.3646084664135145,0.0,0.0026960876067020317,0.04793508831105306,-0.020364507021434476,0.003971724836728325,0.00419742271631216,-0.0038370228387836634,9.820462242955898,13.932233692721784,10896.387199434499,0,0
2026-03-12T18:49:30.127,580885,-0.4878185882568359,0.7398083129882812,8.853757739257812,-9.113295923435984,-1.7582923914266606,-10.236750358151385,-1094.0,10421.0,-2927.0,2.802587757259061,1.8661150487679539,-3.2566151722272254,-0.18070736911452484,0.3167972467599378,-0.9161329300160439,0.0008756787068234316,0.05033651486697265,-0.029082948776770992,0.003976501142172763,0.004696087077116904,-0.004123724474224822,8.897994685348102,13.817916363076465,10879.402832876443,0,0
2026-03-12T18:49:30.147,580895,-0.33399113159179683,0.8020575561523438,9.56962403564453,-9.164720054439154,-1.5981168049905765,-10.56415179291391,-1094.0,10421.0,-2927.0,2.742140337735233,1.8522603798075918,-3.3622566901563644,0.0,0.34411190067711406,-0.20383136485239994,0.0008625435262210801,0.05297096936563763,-0.030654443488915564,0.0039811414508575385,0.005220570974002506,-0.004425838640204864,9.608982806881722,14.076483016093142,10879.402832876443,0,0
2026-03-12T18:49:30.147,580905,-0.296881005859375,1.0624269866943359,10.94269868774414,-9.294957084230363,-1.8897796557132813,-10.28975135679787,-1105.0,10416.0,-2990.0,2.692634925750847,1.8290643350969311,-3.4651542037243432,0.0,0.5429385755063633,1.1777590216740705,0.0008496053733277639,0.05752434979389074,-0.018593700473092233,0.003985647867086225,0.005790018657469472,-0.004607163869290849,10.998160937377385,13.994515973393137,10892.849994377046,0,0
2026-03-12T18:49:30.157,580915,-0.37828386230468747,0.8822633117675781,9.855731134033203,-9.424531249199251,-1.9873777710610967,-10.505595638497944,-1105.0,10416.0,-2990.0,2.636144124313109,1.8148923295217883,-3.5702101601093226,0.0,0.4312505284516729,0.0,0.0008368612927278474,0.06090930225223136,-0.018314794965995848,0.0039900224635334896,0.006392712568311794,-0.0047855215071318565,9.902369586019432,14.252683936426429,10892.849994377046,0,0
2026-03-12T18:49:30.167,580925,-0.11013327636718749,0.6200982299804687,9.236231454467774,-9.543739480970629,-2.077168037181087,-10.704172377662012,-1103.0,10420.0,-2929.0,2.560210168020256,1.7774333039203696,-3.6772518838859427,0.18987956273677398,0.19512753504971692,-0.5529753984912293,0.0026946220662941536,0.06191766893868761,-0.02348688071664452,0.004012951715512235,0.007004877368440971,-0.0050153699239840034,9.257679117029719,14.49057958212944,10879.892003140472,0,0
2026-03-12T18:49:30.177,580935,-0.32142157287597656,0.8415618835449218,9.897629663085937,-9.560728127371027,-1.9792872771334296,-10.608814197205147,-1103.0,10420.0,-2929.0,2.50053349155782,1.7590756447765514,-3.7833400258579943,0.0,0.40914449558845906,0.1234609523430219,0.0026542027352997413,0.06501897718615361,-0.021918487125316084,0.004035454249122368,0.007647412073162205,-0.005229320240441927,9.938541702832683,14.417768174088085,10879.892003140472,0,0
2026-03-12T18:49:30.188,580945,-0.9840168823242187,0.9756371765136718,8.914211331176757,-9.703186950352075,-1.9867979534993405,-10.408889549233614,-1096.0,10420.0,-2961.0,2.4611392927894995,1.8070515821434778,-3.8874289213503306,-0.6596215151899073,0.6381333520504073,-0.8321858898999324,-0.0038828822303503415,0.07032930604605782,-0.02978674083395068,0.003992628801392045,0.00834235442848916,-0.005521660461132652,9.021270463841262,14.368165671012312,10887.843542226348,0,0
2026-03-12T18:49:30.197,580955,-0.7793126403808593,0.9038111267089843,9.069235888671875,-9.785468579689763,-2.115658995268174,-10.659105214563217,-1096.0,10420.0,-2961.0,2.41320219609312,1.8324149923743713,-3.9940199734959627,-0.45047070173847764,0.5538629967102737,-0.6871349758145211,-0.008261775409019092,0.07472991697296315,-0.03610821923321445,0.003906101036254553,0.009080563944620573,-0.005876859910811332,9.147417250163802,14.623540347107587,10887.843542226348,0,0
2026-03-12T18:49:30.207,580965,-0.8325836273193359,0.8667010009765624,8.808866458129883,-9.544094507948728,-2.2342111536955005,-10.303937773007917,-1102.0,10417.0,-2996.0,2.3672831932822587,1.8635252668152682,-4.097059351226042,-0.5075027470980951,0.5397484723936155,-0.9471010867100933,-0.013136750836800043,0.07892549067144582,-0.044895541648810655,0.003770958794358666,0.009859949032483696,-0.0063194895119721385,8.890472113377315,14.221553117925405,10895.150710293088,0,0
2026-03-12T18:49:30.217,580975,-0.44891281127929683,0.843956085205078,9.560645779418945,-9.541542557068926,-2.045718163838885,-10.386939824338015,-1102.0,10417.0,-2996.0,2.3134594932517776,1.8555906690774555,-4.200928749469422,-0.10437460785409536,0.466236801076686,-0.21022037789763637,-0.013967789461610881,0.08233404080197948,-0.046292779246370215,0.0036276496188428144,0.010672606151062988,-0.006775634887131405,9.608315789221681,14.251825009051885,10895.150710293088,0,0
2026-03-12T18:49:30.227,580985,-0.508169302368164,1.0821791503906248,10.709264025878905,-9.456267932991217,-2.062548515609823,-9.926716345708048,-1084.0,10419.0,-3020.0,2.272166276525673,1.8479854200253885,-4.300195912926502,-0.1117437394946903,0.6670011381864602,0.9478981796184875,-0.014858948453709416,0.08766899140108642,-0.03626159048843256,0.0034755810741714144,0.011537746769008778,-0.0071311125412237145,10.775791559295937,13.864155474023999,10901.881351399858,0,0
2026-03-12T18:49:30.238,580995,-0.6051344696044921,0.9558850128173828,9.813832604980469,-9.490010400790943,-2.0682763416781103,-10.249652208783111,-1084.0,10419.0,-3020.0,2.228054637892581,1.852571494799102,-4.402692435014333,-0.24171581102761924,0.5939372662707706,0.0,-0.017016964965525825,0.0922042386028372,-0.03571766663110607,0.0033021060130916397,0.012447329365882113,-0.007480800918327241,9.87882656405153,14.120674021932459,10901.881351399858,0,0
2026-03-12T18:49:30.248,581005,-0.948103857421875,1.0396820709228516,9.305663302612304,-9.233248593117912,-2.185741063612154,-10.244314178421925,-1100.0,10428.0,-2935.0,2.1993109489871885,1.8899797150398616,-4.505135576798552,-0.5840631054864487,0.729936561053091,-0.44175426431294795,-0.022514732080084456,0.09801105015016759,-0.03953318113512202,0.0030738817335985045,0.013414012427516405,-0.007868256596948783,9.41144033794201,13.963392015040284,10888.86628625772,0,0
2026-03-12T18:49:30.258,581015,-0.4914098907470703,0.852335791015625,9.446322650146485,-8.997027730058722,-2.2938086077914743,-10.239403190489636,-1100.0,10428.0,-2935.0,2.155037575516121,1.8835243390725416,-4.607529608703448,-0.13936455933323255,0.5093581287826301,-0.3239234190905975,-0.02354975200831553,0.10155806196642399,-0.04213082909613757,0.002835545829301834,0.014415163454133465,-0.008281275323022247,9.497419206923572,13.8222083475121,10888.86628625772,0,0
2026-03-12T18:49:30.267,581025,-0.08738836059570312,0.5943605621337891,9.19313582458496,-8.93092404823939,-2.4810356264852294,-10.24951922793339,-1102.0,10421.0,-2954.0,2.0902300407003422,1.8389856641373525,-4.710024800982782,0.22870793416467666,0.2406939935345519,-0.5998912557414364,-0.02094373257666873,0.10240552687324296,-0.04740779552874866,0.0026234823950316115,0.01542377950414303,-0.008746597925031423,9.212743754856909,13.819174596881172,10887.50481056151,0,0
2026-03-12T18:49:30.277,581035,-0.38187516479492184,0.8385691314697266,9.53790086364746,-8.83596231950219,-2.5898698495371426,-10.292972323845062,-1102.0,10421.0,-2954.0,2.047209959599316,1.8201501055452944,-4.812954524221233,0.0,0.5021010430732733,-0.23757586295105781,-0.0206295765880187,0.10581513924441606,-0.04903680084588535,0.002414769442522273,0.0164654489656906,-0.009227728967556786,9.582305553180195,13.810392290179323,10887.50481056151,0,0
2026-03-12T18:49:30.287,581045,-0.6913257293701172,1.1348515869140625,10.319009155273436,-8.826646309551771,-2.768046115232708,-10.069534537937457,-1088.0,10416.0,-3017.0,2.0236991192197946,1.8227314151465706,-4.913649869600608,-0.29442455045580346,0.7979010400379771,0.5627490881546606,-0.023220214761188084,0.11208723740012388,-0.04275817031487367,0.0021803847276154814,0.017568735018352148,-0.009645655360034817,10.404218823872721,13.673598289429673,10898.581971981492,0,0
2026-03-12T18:49:30.297,581055,-0.41419688720703124,0.9379285003662109,9.964068759155273,-8.822953629177874,-2.7612365723555543,-10.273727872463438,-1088.0,10416.0,-3017.0,1.9870995594437755,1.8037407114742687,-5.016387148325243,0.0,0.5983013423738119,0.19203614221043175,-0.02287191153977026,0.11629919706150407,-0.040225241759377806,0.001949713946605561,0.018712995261978223,-0.010037859869850967,10.016682842655312,13.820941449429883,10898.581971981492,0,0
2026-03-12T18:49:30.307,581065,0.11671733093261719,0.6631938598632812,9.97125136413574,-8.75126368030706,-2.886679109981744,-10.12500037437368,-1090.0,10422.0,-2906.0,1.9281706996200823,1.738213408575324,-5.11763715206898,0.44715058684678866,0.2885840542536521,0.1731334843343344,-0.01812439958623284,0.11739726203997998,-0.03791649831229395,0.0017667014807924892,0.019867080914495645,-0.010406607828120933,9.993963317817375,13.690623246124831,10874.328485014603,0,0
2026-03-12T18:49:30.317,581075,-0.24660277099609373,0.8110358123779297,9.689334118652344,-8.646284537102009,-2.967939903134424,-10.339390588326225,-1090.0,10422.0,-2906.0,1.885853201056688,1.7046985826019505,-5.221031057952242,0.0,0.4858389008720001,0.0,-0.017852533592439348,0.12042181628296948,-0.037347750837609536,0.0015865879687232277,0.021050227778248012,-0.010769305251160531,9.726345031845357,13.801083338025164,10874.328485014603,0,0
2026-03-12T18:49:30.329,581085,-0.7104793426513671,1.0229226593017577,9.712677584838866,-8.7740939692558,-2.8866022718592803,-10.175653975406469,-1098.0,10419.0,-2995.0,1.861322535496596,1.7131068673762915,-5.322787597706307,-0.35157791891626544,0.7427277962747925,0.0,-0.02104778808987797,0.12593135783203166,-0.03678753457504539,0.0013747339777366236,0.02228723181521176,-0.011126043416314076,9.792203915885262,13.742675557708536,10896.3842626809,0,0
2026-03-12T18:49:30.348,581095,-0.4082113830566406,0.8128314636230468,9.40382557067871,-8.891678646837287,-2.811771651086148,-10.025016291520291,-1098.0,10419.0,-2995.0,1.8199219729957297,1.6968599297613385,-5.42303776062151,0.0,0.5236590565088498,-0.37379901287697237,-0.0207320712685298,0.12920042917116334,-0.03991764183325788,0.0011662458517862743,0.02355565687081647,-0.011513694614812007,9.447712256692801,13.691930492875032,10896.3842626809,0,0
2026-03-12T18:49:30.364,581105,-0.9469067565917968,0.987009634399414,9.004592443847656,-9.048637038017132,-2.6843908946090123,-10.008380841857205,-1100.0,10412.0,-2969.0,1.7973238919646788,1.734479422111401,-5.5231215690400814,-0.602228079553016,0.7656206854754802,-0.7510080122641369,-0.02635303678309906,0.13480378648552935,-0.04671630612656077,0.0009018127684713284,0.024878791040936092,-0.011968876818401537,9.107881504711992,13.756870058137846,10882.771016611532,0,0
2026-03-12T18:49:30.365,581115,-0.4752490295410156,0.881664761352539,9.654019644165038,-9.022307050585518,-2.69402986694273,-9.905271350118385,-1100.0,10412.0,-2969.0,1.7597662550823692,1.7240254255413479,-5.622174282541265,-0.12573655326514577,0.5999891265622649,-0.1201907372665314,-0.02719624628101426,0.1386916225848847,-0.04719944029673769,0.0006292204553555246,0.026239441559518156,-0.012428430350147545,9.705837917532671,13.666536575098341,10882.771016611532,0,0
2026-03-12T18:49:30.367,581125,0.04668693237304687,0.6009446166992187,9.681552963256836,-9.04686394995331,-2.8150928434409703,-9.6787033006455,-1102.0,10418.0,-2998.0,1.697535976834238,1.6662999482195113,-5.718961315547721,0.35822712947691304,0.2795763035838545,-0.11700128105654528,-0.023259765361451454,0.1393650748364124,-0.0476439113106936,0.000396226178939269,0.027605459215574397,-0.012891964593791227,9.700298030593771,13.544290037801298,10896.656918523222,0,0
2026-03-12T18:49:30.377,581135,-0.3429693878173828,0.7960720520019531,9.600748657226562,-8.918236785176559,-2.765495172063254,-9.992211914642642,-1102.0,10418.0,-2998.0,1.6553281759053888,1.6446492252171452,-5.818883434694147,0.0,0.5224987002817492,-0.1810312032246877,-0.02291086888102968,0.14242121091164142,-0.04871240999279637,0.00016695037263884322,0.029000641653366122,-0.01336570960502547,9.639799452903368,13.675789185648771,10896.656918523222,0,0
2026-03-12T18:49:30.387,581145,-0.23642741394042968,0.6308721374511719,9.047688073730468,-8.887704671630726,-2.72962141195673,-9.846493498056597,-1091.0,10426.0,-2921.0,1.6027838470550313,1.6154914031955758,-5.917348369674713,0.0,0.3735750510905945,-0.7417926033961582,-0.022567205847814235,0.14396460700120914,-0.055288380986356585,-5.866296415345984e-05,0.030409847435654835,-0.013904674821474148,9.072737021174994,13.542361743433458,10882.279081148397,0,0
2026-03-12T18:49:30.397,581155,-0.1640028137207031,0.7619546783447265,9.950302099609374,-8.996200493022219,-2.633202918512387,-10.23438377430963,-1091.0,10426.0,-2921.0,1.5558135805717412,1.579444764320357,-6.019692207417809,0.16172347492646555,0.47718705994568733,0.16140506383911024,-0.020635721532071334,0.14650543043665604,-0.052869215392746,-0.000264755159294699,0.03184302683828137,-0.014418933608426207,9.980780717371283,13.878328147171317,10882.279081148397,0,0
2026-03-12T18:49:30.407,581165,-0.5997475158691405,0.9858125335693358,9.970054263305663,-9.125284941385319,-2.6762052216167618,-10.054657462608763,-1097.0,10419.0,-2905.0,1.5272958168158932,1.5807795793567503,-6.120238782043897,-0.2452752101416015,0.7501543341003927,0.1988791710990192,-0.02274214652898504,0.15169686917099506,-0.05011721732652947,-0.0004916844479599648,0.03332663553446134,-0.01490518567590981,10.03660826411956,13.839401588944392,10871.890130055583,0,0
2026-03-12T18:49:30.417,581175,-0.3172317199707031,0.7398083129882812,9.361328491210937,-9.229408487537908,-2.4474746575459574,-10.0746751095025,-1097.0,10419.0,-2905.0,1.4812555144863995,1.5619828337875532,-6.220985533138922,0.0,0.5013063149148211,-0.4241629502871316,-0.022401014331050264,0.15435928333534113,-0.053543464126959775,-0.000714978896679197,0.03483535813944693,-0.015425179696862228,9.395872680303825,13.880604878433639,10871.890130055583,0,0
2026-03-12T18:49:30.427,581185,0.12689268798828124,0.7876923461914062,10.63683942565918,-9.32520214999829,-2.2370425386008175,-10.09309134464474,-1092.0,10424.0,-2925.0,1.430711548535136,1.5062940104034694,-6.321916446585369,0.46187740343929756,0.47388818844694997,0.8395236413987526,-0.017515506692207427,0.15671169274151348,-0.04447100429727766,-0.00088924382963767,0.03636607259179521,-0.01585401985009517,10.666719924783386,13.922436832292863,10881.53780492445,0,0
2026-03-12T18:49:30.437,581195,-0.3758896606445312,0.9301473449707031,10.152612139892577,-9.169429880437452,-2.0824693794151914,-10.192961110243893,-1092.0,10424.0,-2925.0,1.3974514225641073,1.4948599533991116,-6.4238460576878085,0.0,0.690339299990956,0.37197066536779566,-0.017252774091824314,0.16116085945530167,-0.040140028178945714,-0.0010607097989853574,0.03793970350516188,-0.01623916471175274,10.202058634581045,13.86764505038276,10881.53780492445,0,0
2026-03-12T18:49:30.449,581205,-0.7026981872558593,1.1282675323486326,10.244190353393554,-8.928558416831724,-2.2573352436961223,-10.172646172643894,-1099.0,10409.0,-2921.0,1.382819421825499,1.5087103014063579,-6.525572519414247,-0.329207226102588,0.9241224340922494,0.4767263274799767,-0.020236673657557443,0.1678460525392808,-0.03484217343058376,-0.001261813459025371,0.03957854586652413,-0.016570998859612517,10.330063328145007,13.722151724821282,10866.799114734753,0,0
2026-03-12T18:49:30.457,581215,-0.49320554199218747,0.8577227447509765,9.411008175659179,-8.94110301177787,-2.2230898876150667,-10.397858869076286,-1099.0,10409.0,-2921.0,1.3521208337771722,1.5089963994027227,-6.62955110810501,-0.16974708986105197,0.6594210513966058,-0.36830455716429356,-0.02160513238782544,0.17182365910744815,-0.037947340717193294,-0.0014763869181207217,0.04125548567514101,-0.016933521794517667,9.46287561451797,13.892477128894905,10866.799114734753,0,0
2026-03-12T18:49:30.467,581225,-0.16519991455078123,0.6171054779052734,8.99501563720703,-9.020936722055152,-2.376950013679032,-9.956274061989209,-1107.0,10442.0,-2983.0,1.3018524364366035,1.4786938903478082,-6.729113848724902,0.11515634259199613,0.4018573347444129,-0.798672080649828,-0.020146765427476898,0.1732045989680689,-0.0452450506008362,-0.0016761767178230952,0.04294454413315687,-0.0173685863282255,9.01767245447667,13.64384784099746,10916.002106998698,0,0
2026-03-12T18:49:30.477,581235,-0.4836287353515625,0.8900444671630859,9.520542901611327,-9.148042272095617,-2.2404525491700755,-10.310991649225194,-1107.0,10442.0,-2983.0,1.2723295149832514,1.4778765200900672,-6.832223765217154,-0.1550812824374892,0.7018589074332837,-0.25939086878850226,-0.021372114578074013,0.1775198402217657,-0.04712137489939041,-0.0018880079657402314,0.04467502279283916,-0.017821960277142185,9.574278722107854,13.965058318085275,10916.002106998698,0,0
2026-03-12T18:49:30.487,581245,-0.46028526916503903,1.0917559570312498,10.762535012817382,-9.157662304962116,-2.2465821988950063,-9.973917195335959,-1086.0,10409.0,-2976.0,1.2499260037958775,1.4701256722745422,-6.931962937170513,0.0,0.8726069426443401,0.9853985794761453,-0.021051532859402904,0.18345222100348596,-0.03670837826805952,-0.0020964247710399263,0.046463035457871144,-0.018170855015762957,10.827555287360282,13.725484861655499,10880.406839819916,0,0
2026-03-12T18:49:30.497,581255,-0.5231330627441406,0.9852139831542969,9.984419473266602,-9.225049320565146,-2.2814897693248692,-10.093076990440789,-1086.0,10409.0,-2976.0,1.2248417675134655,1.4703730655872558,-7.032893707074921,-0.16980541801789678,0.7983606626283033,0.20667778772689616,-0.022408343233988142,0.18856429021532245,-0.0341219763849287,-0.002318187695176428,0.048300329681664346,-0.01849356270483263,10.046539056415606,13.862789534194004,10880.406839819916,0,0
2026-03-12T18:49:30.508,581265,-0.9834183319091796,1.025316860961914,9.14225903930664,-9.287045374919934,-2.313604734120343,-9.90026497754699,-1105.0,10409.0,-2962.0,1.2109776514782375,1.5170531628157362,-7.13189635685039,-0.6315074816714563,0.9173774769000486,-0.6219396894806035,-0.028292566779942165,0.1947719940095581,-0.039736252680538715,-0.0025985122496128736,0.05019780157213816,-0.01887203430640638,9.251988252407793,13.770157053832367,10878.499436962802,0,0
2026-03-12T18:49:30.518,581275,-0.5835866546630859,0.9313444458007812,9.6779616607666,-9.29530125712146,-2.3236383066102277,-9.722877925684696,-1105.0,10409.0,-2962.0,1.1837069958346444,1.5229339203238528,-7.229125136107237,-0.23110837908452092,0.7663915130218156,0.0,-0.030144595812225564,0.1993993705026796,-0.03914020889033063,-0.002897058249527394,0.05213960348188779,-0.019244172958914375,9.740170315117341,13.650504591345953,10878.499436962802,0,0
2026-03-12T18:49:30.527,581285,-0.6123170745849609,0.7104793426513671,8.556278182983398,-9.112652766307841,-2.5133569981789705,-9.720657447727481,-1101.0,10421.0,-2993.0,1.1473926261246892,1.5365230816150242,-7.326331710584512,-0.31047672610887866,0.5833568898865578,-1.224522735601802,-0.032750622627214634,0.202154445310522,-0.05061465470265342,-0.003221339911323741,0.05410698678705802,-0.019730569186434968,8.607532134169485,13.559077588672944,10898.04987142195,0,0
2026-03-12T18:49:30.537,581295,-0.33099837951660155,0.7924807495117187,9.50677624206543,-9.281201520612969,-2.3854591700319703,-9.918614608006843,-1101.0,10421.0,-2993.0,1.1102389176089131,1.5197861718801413,-7.42551785666458,0.0,0.6131575163958396,-0.28087353356853306,-0.03225936328780642,0.2051617301673632,-0.05262203918776367,-0.003540389610657603,0.05610244548464292,-0.02023653278873429,9.545490044114496,13.79166534035266,10898.04987142195,0,0
2026-03-12T18:49:30.548,581305,0.025139117431640625,0.8409633331298828,10.817003100585938,-9.31919320384198,-2.360476094965998,-9.676344951561417,-1096.0,10408.0,-2980.0,1.0684736912844555,1.4717473395218088,-7.5222813061801945,0.3843659463344544,0.5939022679086873,1.0199353479502626,-0.027989468267094947,0.2079342415537533,-0.04178634542263712,-0.003816464009035224,0.05812360611228027,-0.020633741846717703,10.849673146274037,13.640046223787095,10881.547684038333,0,0
2026-03-12T18:49:30.558,581315,-0.29448680419921874,0.843956085205078,9.938929641723632,-9.280974820705353,-2.2448087390760354,-10.01931052616821,-1096.0,10408.0,-2980.0,1.033832701512387,1.452925873607226,-7.6224744114418765,0.0,0.6641971079150637,0.15015617226693578,-0.02756962624308852,0.2113575694434104,-0.03968051194446825,-0.004088068111194643,0.06017694462490766,-0.021009516419196225,9.979043379740103,13.840601262856467,10881.547684038333,0,0
2026-03-12T18:49:30.567,581325,-0.7864952453613281,0.8744821563720703,8.792705596923827,-9.406789517975753,-2.2701020887304404,-9.632399830416217,-1094.0,10414.0,-2921.0,1.01086380136402,1.48506842000347,-7.7187984097460385,-0.45633521126875526,0.7876530260889224,-0.982460155463901,-0.031650983680439435,0.2159455882087351,-0.04876253679662065,-0.004400173370051039,0.062274064106488024,-0.02147564464537527,8.871018291434458,13.653723998300213,10871.084260551015,0,0
2026-03-12T18:49:30.585,581335,-0.4842272857666015,0.7625532287597656,8.975862023925782,-9.429856112635253,-2.3177622143149317,-9.856929795202431,-1094.0,10414.0,-2921.0,0.9756561513063936,1.4861162472083382,-7.817367707698063,-0.16572659041491145,0.6380766968775387,-0.8095696185841952,-0.03280862584081972,0.21899145984984783,-0.056005359487725656,-0.004723531368830777,0.06439951472628151,-0.02201366254201227,9.021200727371378,13.836664084043521,10871.084260551015,0,0
2026-03-12T18:49:30.587,581345,-0.15322890625,0.613514175415039,9.098564859008789,-9.407174940697603,-2.3957558713160787,-9.741546143293554,-1095.0,10421.0,-2954.0,0.9262246659811628,1.4546659276519471,-7.914783169130998,0.14149213998819346,0.45117040251304596,-0.6984017338978319,-0.03092279887432372,0.2201506164168536,-0.06204453617430341,-0.0050277265982164405,0.06653441986955959,-0.02261147379585155,9.120513211148559,13.752538231968378,10886.798519307686,0,0
2026-03-12T18:49:30.598,581355,-0.31184476623535157,0.8415618835449218,9.810241302490233,-9.386308262514964,-2.4675100357571336,-9.635393183537388,-1095.0,10421.0,-2954.0,0.8934220365861155,1.4357513946444744,-8.011137100966373,0.0,0.6909225009915778,0.0,-0.030458956891208862,0.22365394380536785,-0.061113868131688856,-0.005326983850961401,0.06870218834830565,-0.02319938986469127,9.851208452527503,13.67597127727598,10886.798519307686,0,0
2026-03-12T18:49:30.607,581365,-0.9510966094970703,1.0223241088867188,9.096769207763671,-9.274427991757669,-2.3384019158233924,-9.732854411781226,-1100.0,10433.0,-2926.0,0.8848502694231976,1.4801573730943742,-8.108465645084186,-0.5839063226780706,0.9738152978831485,-0.67365057289663,-0.035753549816219726,0.22989121533243634,-0.06683261825274532,-0.005678834829774475,0.07093009940112838,-0.023843848331171504,9.203311434669867,13.645936871287144,10891.233401226878,0,0
2026-03-12T18:49:30.618,581375,-0.479438882446289,0.8595183959960937,9.4481183013916,-9.07881521583169,-2.3659639088989843,-9.690811424692386,-1100.0,10433.0,-2926.0,0.860121618948327,1.478045579434695,-8.20537375933111,-0.13044567622670408,0.743824233344958,-0.33747461945125323,-0.03650213647980947,0.23376951580089764,-0.06915425398054899,-0.006037812338377997,0.07319452676457822,-0.024510855480106016,9.499240651344083,13.488309642441415,10891.233401226878,0,0
2026-03-12T18:49:30.627,581385,0.1580173095703125,0.6853402252197265,10.18373676147461,-9.011046583931009,-2.3425404547236512,-9.154570900960897,-1084.0,10418.0,-2976.0,0.8162118648726667,1.419496466977657,-8.296919468340718,0.48411693620224894,0.4753176745007478,0.3787738508678071,-0.031186052611020174,0.23494485215771652,-0.06438601773979286,-0.0063433231916237105,0.07546843131086922,-0.02512956094184644,10.207994666996914,13.05728243933291,10888.817934009183,0,0
2026-03-12T18:49:30.637,581395,-0.2950853546142578,0.7984662536621093,9.764152920532226,-8.92918724746043,-2.2917225841994178,-9.285619863030366,-1084.0,10418.0,-2976.0,0.7861408265896932,1.401509607582095,-8.389775666971023,0.0,0.6654746962784865,0.0,-0.030718261821854873,0.23797560513369387,-0.06342022747369597,-0.006643855304032417,0.07777033917484397,-0.025737999453366817,9.801189008497031,13.084537192573672,10888.817934009183,0,0
2026-03-12T18:49:30.647,581405,-0.9349357482910156,1.0570400329589844,9.421183532714844,-8.902657145712375,-2.36204331404883,-9.167160517890377,-1103.0,10408.0,-2864.0,0.7826832153120075,1.4417042932392834,-8.481447272149927,-0.5527311722421182,1.0209354211241415,-0.35137016495896134,-0.03570188994111192,0.24446218495476124,-0.0659299201864363,-0.006993873329240093,0.08013474606336718,-0.02637090135657595,9.526286665947428,12.995129273397573,10851.063035481824,0,0
2026-03-12T18:49:30.657,581415,-0.6524199523925781,0.8936357696533203,9.287108239746093,-8.829468964299288,-2.4413725318517527,-9.60451938377622,-1103.0,10408.0,-2864.0,0.7664166704415516,1.4560314436875599,-8.577492465987689,-0.29654745663420556,0.8227622720799839,-0.49484362371353896,-0.03808735403984217,0.24889946056042767,-0.06981518107721812,-0.007367372122768876,0.08254111692830249,-0.027041984114180784,9.352786544118475,13.272777200877655,10851.063035481824,0,0
2026-03-12T18:49:30.668,581425,-0.32620997619628905,0.6021417175292968,8.69514187927246,-8.976769983740711,-2.3777700463767832,-9.523962711122902,-1102.0,10430.0,-2937.0,0.72592067138608,1.4429208222627095,-8.672732093098919,0.0,0.5024380104084479,-1.0991222905461058,-0.03751604372924453,0.25011498305454444,-0.07959430792293899,-0.007734790027501261,0.08495722449208909,-0.027810089266216764,8.722068556095907,13.30195682812474,10891.522988085735,0,0
2026-03-12T18:49:30.677,581435,-0.26216508178710934,0.785896694946289,9.727641345214844,-9.009847897236575,-2.2704752719349335,-9.688874962525752,-1102.0,10430.0,-2937.0,0.6955683215685217,1.4219943287588652,-8.769620842724176,0.0,0.6630622339096,0.0,-0.03695330307330586,0.2528944213127358,-0.0784003933040949,-0.008096218735176085,0.08739868253651123,-0.028565499106058455,9.762856666282119,13.424109472559612,10891.522988085735,0,0
2026-03-12T18:49:30.687,581445,-0.5404910247802734,1.0821791503906248,10.650606085205078,-9.04027957765277,-2.171764079448432,-9.840594233816374,-1098.0,10412.0,-2965.0,0.683114402674764,1.4226265318655382,-8.86802678506234,-0.12506539680934725,0.9861912228366662,0.8662332918821196,-0.03763089768577834,0.25881498853798596,-0.0686919894794946,-0.008464055184321834,0.0898968455894692,-0.02922316658185255,10.719078889700162,13.538113196953566,10881.478438153521,0,0
2026-03-12T18:49:30.704,581455,-0.41958384094238277,0.8864531646728515,9.862315188598632,-8.931691357782013,-2.256559538458411,-10.111883280476919,-1098.0,10412.0,-2965.0,0.6619321345718673,1.415455445819151,-8.96914561786711,0.0,0.7903897262725615,0.0,-0.03706643422049166,0.26271810251370087,-0.06766160963730218,-0.008825884807000224,0.0924315025879916,-0.02986988289554735,9.910959120690679,13.679084579725142,10881.478438153521,0,0
2026-03-12T18:49:30.713,581465,0.07302315063476562,0.7332242584228515,10.301052642822265,-9.070814585744818,-2.38335184855247,-10.098054569258277,-1095.0,10420.0,-2910.0,0.6237269422953545,1.3646706127995447,-9.070126163559692,0.41242618100929784,0.5630692074236463,0.49711113158361897,-0.03244803982424271,0.2643235626691183,-0.061750140846644,-0.00914121484003741,0.09497966347646809,-0.030456896919709774,10.327373128916372,13.781536538669314,10873.983860572904,0,0
2026-03-12T18:49:30.717,581475,-0.29867665710449215,0.8421604339599609,9.861716638183593,-9.164661614007183,-2.2463422372536384,-10.358502886644445,-1095.0,10420.0,-2910.0,0.5973147522530705,1.348001129203293,-9.173711192426136,0.0,0.7404376877687312,0.0,-0.031961319226879066,0.2676520204536035,-0.06082388873394434,-0.009451367204273893,0.09755852749732312,-0.031034070671242166,9.902115783702685,14.011982657666534,10873.983860572904,0,0
2026-03-12T18:49:30.727,581485,-0.7314286071777343,0.7577648254394531,8.403647827148436,-9.129049660496365,-2.271512907053835,-10.163968997176305,-1098.0,10413.0,-2974.0,0.5757210897836327,1.379721501151493,-9.2753508823979,-0.41326499692846386,0.7496981532646844,-1.380639267624142,-0.03555255965822125,0.2710217669564565,-0.07351082718903298,-0.00979708590805525,0.1001684764217208,-0.031737409764189366,8.46938558224904,13.84938931383915,10884.890858433078,0,0
2026-03-12T18:49:30.737,581495,-0.47704468078613277,0.9133879333496093,9.65940659790039,-9.23287202912007,-2.1678406549773332,-10.155729526182688,-1098.0,10413.0,-2974.0,0.5571683962486976,1.379894557068734,-9.376908177659727,-0.10732430692919007,0.8482344295619256,-0.1301338493668336,-0.03607641568660046,0.2753115495832947,-0.0736899831974608,-0.010147692214856332,0.1028186703256362,-0.032441835286567806,9.71421561258636,13.89547772552132,10884.890858433078,0,0
2026-03-12T18:49:30.747,581505,-0.7110778930664062,1.0785878479003905,9.991003527832031,-9.157656900936807,-2.1553890123352444,-9.953027261649048,-1096.0,10412.0,-2921.0,0.5510312780856879,1.398678679785026,-9.476438450276218,-0.29862987322837364,1.0458927816568249,0.20864148337141764,-0.038476773702600935,0.281483920238865,-0.07052951483829042,-0.010521927491930459,0.10552787601849682,-0.03311398330451576,10.074181604914529,13.695661115145196,10869.369852939957,0,0
2026-03-12T18:49:30.758,581515,-0.4896142395019531,0.8768763580322265,9.585784896850585,-8.98601995861796,-1.953689598665498,-10.161663129497612,-1096.0,10412.0,-2921.0,0.5326537812146812,1.402132039773798,-9.578055081571193,-0.12009886739453904,0.8191270473944676,-0.20401944989733067,-0.039082595940898135,0.28533006285211754,-0.07148116369720477,-0.010901840697888101,0.10827279547037097,-0.03379496614654632,9.638252245064336,13.704920842602677,10869.369852939957,0,0
2026-03-12T18:49:30.768,581525,-0.6661866119384765,1.064222637939453,10.072406384277343,-8.82811397168462,-1.7681261380893314,-10.031656908406095,-1104.0,10410.0,-2978.0,0.5281771026894837,1.420131003507335,-9.678371650655254,-0.24690125102480173,1.027459158206772,0.28855243707471523,-0.04092833432437896,0.2911705846176725,-0.06756670473656075,-0.011299812917090759,0.11107331681523115,-0.03443616256071802,10.150356880182088,13.479466112024602,10883.721789902569,0,0
2026-03-12T18:49:30.777,581535,-0.729034405517578,0.9277531433105468,9.269151727294922,-8.853572171023021,-1.70472482752999,-9.9120511850019,-1104.0,10410.0,-2978.0,0.5187825840815228,1.4491607599866128,-9.777492162505274,-0.3437097807379478,0.91545595605492,-0.5140080300264405,-0.043699950649782056,0.29582026701554837,-0.07161618326127277,-0.01172507561116499,0.11391748796590125,-0.03511717206893742,9.343949422110835,13.399275563223856,10883.721789902569,0,0
2026-03-12T18:49:30.787,581545,-0.4465186096191406,0.8128314636230468,9.30147344970703,-8.813579080268008,-1.7439565974251519,-9.787379773128578,-1096.0,10407.0,-2941.0,0.49910071136069234,1.451314836181151,-9.875365960236559,0.0,0.7570571494063588,-0.49012580262679784,-0.04304445139003533,0.29883997593196776,-0.07536967966822763,-0.012143364604940277,0.1167889818374957,-0.035834997996754075,9.347592320624418,13.285833193341206,10869.974516989449,0,0
2026-03-12T18:49:30.797,581555,-0.037708676147460936,0.8762778076171874,10.709264025878905,-8.752395192870956,-1.8483425086555298,-10.014145488839267,-1096.0,10407.0,-2941.0,0.47556958122385223,1.4143550331932249,-9.975507415124952,0.3597692964763227,0.7361666458858291,0.9071843014609584,-0.03885505704889302,0.3016086177549636,-0.06530336910381378,-0.012519383260253777,0.1196852629470303,-0.036451543656104424,10.745120786494828,13.427728829296989,10869.974516989449,0,0
2026-03-12T18:49:30.819,581565,-0.40282442932128903,0.7870937957763672,9.464279162597656,-8.813179187197377,-1.9834019372313803,-9.842282142415053,-1101.0,10419.0,-2970.0,0.45293690294496214,1.410035382232855,-10.073930236549103,0.0,0.7309495418753885,-0.32939967224240796,-0.038272231193159624,0.3042843414761117,-0.0675684053388443,-0.012889203466613187,0.12260537825542962,-0.03709010048178337,9.505491267251148,13.359510784499726,10889.842147616282,0,0
2026-03-12T18:49:30.819,581575,-0.2328361114501953,0.9235632904052734,10.479420666503906,-8.9032468034411,-2.073510270057748,-10.020753229558434,-1101.0,10419.0,-2970.0,0.4339938113107138,1.3874792625480534,-10.174137768844687,0.16992035867783295,0.8271516989955064,0.6820289659272287,-0.03602443219228557,0.30786752058907574,-0.059836893944378425,-0.013236198340747508,0.12555836940785906,-0.03765078095180593,10.522615611706465,13.564023878286447,10889.842147616282,0,0
2026-03-12T18:49:30.827,581585,-0.6602011077880859,1.0271125122070313,10.08018753967285,-8.99098705916581,-2.029580667965323,-9.61909297119376,-1094.0,10415.0,-2890.0,0.42619309004269756,1.4025954466846158,-10.270328698556625,-0.23671393098550325,1.0104986625778483,0.29403638352060035,-0.0378156979296085,0.3132029196066314,-0.05604308215753483,-0.01360074096472355,0.12856170820532145,-0.0381730005616079,10.153866576355663,13.322311945542141,10863.754461510993,0,0
2026-03-12T18:49:30.837,581595,-0.40761283264160153,0.7715314849853515,9.361328491210937,-8.925366631017912,-1.8672142145280974,-9.878833826181186,-1094.0,10415.0,-2890.0,0.4025576967828672,1.4004363840180225,-10.369117036818437,0.0,0.7263565643782053,-0.4329676335495307,-0.03724846246066437,0.3156594879716572,-0.05946716711563469,-0.013959252363740862,0.13158658478195298,-0.03872890456053148,9.401908326186522,13.443958352595615,10863.754461510993,0,0
2026-03-12T18:49:30.847,581605,-0.5793968017578125,0.9846154327392578,10.00955859069824,-9.001581202975503,-1.8544224432195082,-9.834868583501326,-1097.0,10409.0,-2882.0,0.3921233063187233,1.4106181040922028,-10.46746572265345,-0.16068297709172166,0.9612788768452598,0.22064052569538894,-0.03827246284810786,0.32039319258900817,-0.056401850430800586,-0.014327635015229719,0.13465572619113522,-0.039253630141774645,10.074543730854339,13.46075728948485,10856.178609437116,0,0
2026-03-12T18:49:30.865,581615,-0.6093243225097655,0.8637082489013671,9.284115487670897,-9.071698609176487,-1.842654013615606,-9.794420560235855,-1097.0,10409.0,-2882.0,0.3766097980095534,1.427391987807217,-10.565409928255809,-0.2241515624284888,0.8583164542436866,-0.5047621594018192,-0.03990626879530686,0.32404171177447333,-0.060527729944446496,-0.014711971005479604,0.13775824716557106,-0.03981904853377789,9.344092703822714,13.476711897951931,10856.178609437116,0,0
2026-03-12T18:49:30.875,581625,-0.5345055206298828,0.7308300567626953,8.788515744018554,-8.877670037515538,-1.7440221803312357,-9.654769354441378,-1100.0,10429.0,-2982.0,0.354820057509754,1.4408288162463763,-10.661957621800223,-0.18269382733399384,0.7226682543655408,-1.003117114510225,-0.041107208962617096,0.32629936840335677,-0.06950051757320552,-0.015107920052010669,0.14088021960875502,-0.04047353965580044,8.835033543021417,13.23137218688783,10902.585243876794,0,0
2026-03-12T18:49:30.877,581635,-0.35134909362792965,0.8224082702636718,9.652223992919922,-8.913797897928928,-1.6581589424901029,-9.67263170852509,-1100.0,10429.0,-2982.0,0.3347478712486621,1.4340411384813403,-10.758683938885474,0.0,0.7729900504118228,-0.14401753602755996,-0.04049060082817784,0.32901882987386283,-0.06987658253947891,-0.015497313234232155,0.14402623749958615,-0.041131133175714034,9.69356640035494,13.257642634060065,10902.585243876794,0,0
2026-03-12T18:49:30.887,581645,-0.4112041351318359,1.0869675537109373,10.73141039123535,-8.922645285606809,-1.793798910017724,-9.406138245013816,-1096.0,10410.0,-2962.0,0.3285937017501849,1.4276098344692056,-10.852745321335611,0.0,1.0340959266904004,0.9377294776727947,-0.03988324181575517,0.3342693923036553,-0.0595917984463097,-0.015880249506737314,0.14722156249120008,-0.04168532410901695,10.7941538014188,13.0884204588122,10878.545858707403,0,0
2026-03-12T18:49:30.897,581655,-0.36212300109863277,0.8283937744140625,9.665392102050781,-8.960053174953385,-1.7624901191675255,-9.692671575656613,-1096.0,10410.0,-2962.0,0.3088886210464127,1.4209022565383922,-10.949672037092178,0.0,0.7853598443041759,-0.13092622446568747,-0.039284993188518844,0.3369911458854966,-0.05998754478060207,-0.01625682633918388,0.150440882476105,-0.04224291435726615,9.707583314079683,13.316786646623767,10878.545858707403,0,0
2026-03-12T18:49:30.908,581665,-0.9020154754638672,0.8702923034667969,8.564657888793946,-8.862761116079065,-1.782466519390221,-9.424574922774816,-1092.0,10409.0,-2899.0,0.30398948158146877,1.4717547616292197,-11.043917786319925,-0.5109958588594483,0.9401372774227587,-1.2171546425672464,-0.043729027500456624,0.3411966308798283,-0.07107670483818042,-0.01667742249757426,0.15369899593611835,-0.04291072772424231,8.655888479152802,13.059415529357585,10860.200090237748,0,0
2026-03-12T18:49:30.917,581675,-0.41958384094238277,0.8553285430908203,9.616310968017578,-8.880569495085423,-1.703283831985345,-9.597438197245513,-1092.0,10409.0,-2899.0,0.2881985045055721,1.4702295283473839,-11.13989216829238,0.0,0.8250922460208181,-0.17856005131290864,-0.04307309208794977,0.344205840039936,-0.07176937077103987,-0.017091045265035305,0.1569839132821812,-0.04358479301052075,9.663388336904452,13.186224263195726,10860.200090237748,0,0
2026-03-12T18:49:30.926,581685,-0.32620997619628905,0.6727706665039062,9.054870678710937,-9.043294667185906,-1.8694601498167611,-9.380862653660994,-1108.0,10417.0,-2930.0,0.25853751508937023,1.4606255105008572,-11.23370079482899,0.0,0.638348598809694,-0.7434637532010662,-0.04242699570663053,0.34533048613761247,-0.07801594817850478,-0.01749779990687951,0.16027678092541378,-0.04432058753981349,9.085687443801772,13.163458657061128,10877.796330139667,0,0
2026-03-12T18:49:30.937,581695,-0.4447229583740234,0.852335791015625,9.712079034423828,-9.193001825518351,-2.0223423622216643,-9.606003397465676,-1108.0,10417.0,-2930.0,0.2393401320422129,1.4579724305672708,-11.329760828803648,0.0,0.8347158205562138,0.0,-0.04179059077103107,0.348372479678027,-0.07684570895582721,-0.01789779010877523,0.16359674521647186,-0.04504395558474238,9.75954578765047,13.449031655332742,10877.796330139667,0,0
2026-03-12T18:49:30.947,581705,0.05746083984375,0.6775590698242188,10.019135397338866,-9.057561679476883,-2.0361647293414924,-9.813132881765982,-1102.0,10420.0,-2945.0,0.20456538422524334,1.4111289439573544,-11.427892157621308,0.42536407219084416,0.5687799605784573,0.21038633386436523,-0.03697389579838579,0.3487493750945544,-0.0736207179329258,-0.018249261537692327,0.16691715472844998,-0.04573438260130757,10.042184132519441,13.50862566428351,10884.109012684501,0,0
2026-03-12T18:49:30.962,581715,-0.28431144714355466,0.7499836700439453,9.513958847045897,-9.06954211097239,-1.9318081363600268,-9.774423714639338,-1102.0,10420.0,-2945.0,0.1797713405432418,1.3965297720064922,-11.525636394767702,0.0,0.7160577959618804,-0.28628234162915334,-0.03641928736141,0.3505713037583606,-0.07533628822897906,-0.01859484095689512,0.17025244489826755,-0.046441257738113764,9.547707654070287,13.473226626599592,10884.109012684501,0,0
2026-03-12T18:49:30.967,581725,0.14544775085449219,0.7038952880859375,10.319009155273436,-9.16349093721655,-1.8894586074024442,-9.792469817468191,-1090.0,10418.0,-2964.0,0.1453488565857375,1.344885670259257,-11.623561092942383,0.516238474721128,0.585715084982283,0.5078547989652424,-0.03078804907498574,0.3510820277890607,-0.06920387413573674,-0.01888381872619733,0.173589501910982,-0.047086163182991664,10.344011483531677,13.543710167880976,10886.143486101953,0,0
2026-03-12T18:49:30.978,581735,-0.4537012145996093,0.8415618835449218,9.500790737915038,-9.284070198824592,-1.8846433822248827,-10.08712101255854,-1090.0,10418.0,-2964.0,0.12764962371049868,1.3469993699938487,-11.72443230306797,0.0,0.8500528703240899,-0.2959685163244643,-0.030326228338860953,0.3541888181449171,-0.07108110590949666,-0.019167893928576357,0.17695425870233875,-0.04774917726784454,9.548774572771995,13.838202573198117,10886.143486101953,0,0
2026-03-12T18:49:30.987,581745,-0.7613561279296874,1.0911574066162109,10.070012182617187,-9.273051899991795,-2.0265548384761605,-9.826492794968493,-1088.0,10424.0,-2973.0,0.12715946713622933,1.3713122295282325,-11.822697231017655,-0.29007490460191365,1.15269031625801,0.2810947718572496,-0.03272857272410689,0.3602299854878847,-0.0672461058180603,-0.01947568447616161,0.18037600199866036,-0.048373216687699123,10.157530851422903,13.66222444197358,10894.13828625284,0,0
2026-03-12T18:49:30.997,581755,-0.6039373687744141,0.8678981018066406,9.34037922668457,-9.175110187016841,-2.0693085001785554,-10.045251420151502,-1088.0,10424.0,-2973.0,0.11450653707773387,1.3856153592020064,-11.92314974521917,-0.1942553031097823,0.9089730937624367,-0.45268269458182964,-0.03415105886887664,0.36377992067912646,-0.07069633877242042,-0.019797377869785526,0.1838297874042462,-0.0490310998953479,9.40003572114502,13.761241248770665,10894.13828625284,0,0
2026-03-12T18:49:31.007,581765,-0.8702923034667969,0.8403647827148437,8.532934716796875,-8.919150152543299,-2.181812600652076,-9.75870447727109,-1087.0,10417.0,-2925.0,0.1093047306407051,1.4302762983782058,-12.020736789991881,-0.4709607426405461,0.9428441297400549,-1.2530637656463384,-0.03827775630085287,0.3676102365468791,-0.08197857178245053,-0.020159975277361263,0.18731838387994526,-0.049801034727559236,8.618271087788912,13.399397700743423,10874.33138174481,0,0
2026-03-12T18:49:31.017,581775,-0.42497079467773435,0.8056488586425781,9.300874899291992,-8.81537423790081,-2.065804177965764,-9.753617875186963,-1087.0,10417.0,-2925.0,0.09509342627890796,1.4275694365326619,-12.118272968743751,0.0,0.8131380776414527,-0.4967506316863428,-0.03770358995634008,0.3701054930634442,-0.08564188692782425,-0.02051647416574774,0.19082841937176911,-0.050606796143240644,9.345370198769064,13.308321889371054,10874.33138174481,0,0
2026-03-12T18:49:31.027,581785,0.14305354919433594,0.6548141540527344,10.109516510009765,-8.719900396429722,-1.9590764290943565,-9.748938201269567,-1097.0,10405.0,-2956.0,0.06336583216526552,1.3747238697417827,-12.215762350756448,0.5130271541984259,0.5474760139484746,0.2972424733812904,-0.03208471863814048,0.369946549404885,-0.08142942026110117,-0.020816484030777016,0.19433335698095214,-0.051369669255505804,10.131711107233809,13.225597885572562,10872.229302217645,0,0
2026-03-12T18:49:31.037,581795,-0.2705447875976562,0.8349778289794921,9.885060104370117,-8.807674218373881,-1.9730820220838812,-9.608047535411904,-1097.0,10405.0,-2956.0,0.048083303827618495,1.3581008508423362,-12.311842826110567,0.14094170542655163,0.8153810709258458,0.0,-0.030215172060116844,0.3724288547124313,-0.08020797895718465,-0.021097517115626806,0.19785958788254837,-0.052119577296032574,9.923950610719166,13.182668745197738,10872.229302217645,0,0
2026-03-12T18:49:31.047,581805,-0.7404068634033203,1.034893667602539,9.698910925292969,-8.698182232123484,-2.029869606658634,-9.502818366725293,-1076.0,10421.0,-2989.0,0.05304294816220315,1.3828486108721367,-12.40687100977782,-0.2738656794951655,1.1106934956102437,0.0,-0.03245952142224247,0.3777827528235057,-0.07900485927282688,-0.02140069021751938,0.20143577799537263,-0.05285671626287208,9.78202843807898,13.041560553639151,10894.454460871366,0,0
2026-03-12T18:49:31.057,581815,-0.35613749694824215,0.8194155181884765,9.566631283569336,-8.553547165748727,-2.033333696662529,-9.859666068118978,-1076.0,10421.0,-2989.0,0.041429396283291495,1.3739405125771131,-12.50546767045901,0.0,0.8206427417748342,-0.23364002094598568,-0.03197262860090883,0.38019934253763527,-0.08012114059005243,-0.02169869608702494,0.20503253364932822,-0.053604269741103834,9.608262580922117,13.210247159439831,10894.454460871366,0,0
2026-03-12T18:49:31.069,581825,-0.5985504150390625,1.1079168182373047,10.437522137451172,-8.48877558761078,-2.0706670009295265,-9.744063514376776,-1100.0,10410.0,-2951.0,0.04808023754433452,1.3818922603517776,-12.602908305602778,0.0,1.1483086556663815,0.6431970568270398,-0.0314930391718952,0.3858071926578846,-0.0725838324714553,-0.021991612852265145,0.20868171497033114,-0.05427577795775257,10.513211243252929,13.087923692387724,10875.95977373951,0,0
2026-03-12T18:49:31.079,581835,-0.5991489654541016,1.0133458526611328,9.926360083007811,-8.375527199138503,-1.9098916896356524,-10.03770916493395,-1100.0,10410.0,-2951.0,0.0522939499181167,1.393896402789052,-12.703285397252117,-0.1278887214834387,1.058314111274591,0.13226792471572324,-0.03228034749092864,0.390444478764071,-0.0701922359259336,-0.022292101910847257,0.21237357359821388,-0.0549227226166949,9.995922858718002,13.211841181661518,10875.95977373951,0,0
2026-03-12T18:49:31.087,581845,-0.9301473449707031,1.0366893188476562,9.32182416381836,-8.344509413451325,-1.8936857203184587,-9.6883509683246,-1090.0,10418.0,-2952.0,0.06450379323871808,1.4392879843793913,-12.800168906935363,-0.45103887127411024,1.1548212090141543,-0.4632428869535179,-0.03623887516061469,0.39596280049139937,-0.07370229482353674,-0.022631836171790952,0.21611686840152475,-0.05560408581936534,9.425301298543019,12.925982649065874,10882.88233879242,0,0
2026-03-12T18:49:31.097,581855,-0.6368576416015624,0.9852139831542969,9.715071786499022,-8.389143782326439,-1.8495079358637136,-9.63035606159034,-1090.0,10418.0,-2952.0,0.06776245551095393,1.455453399870217,-12.896472467551266,-0.1627028733382283,1.0361747393886005,0.0,-0.03729791533558702,0.4002296796670061,-0.0725967604011837,-0.022981810509821673,0.2198990460329966,-0.056273723369953794,9.785645306524161,12.905121885452264,10882.88233879242,0,0
2026-03-12T18:49:31.110,581865,-0.5877765075683593,0.8774749084472656,9.296086495971679,-8.439963499252519,-1.9942302278238848,-9.58187879617531,-1096.0,10420.0,-2904.0,0.06449655428423799,1.468007456435751,-12.992291255513019,-0.14553844570223096,0.9233678285321885,-0.49757496579573335,-0.03817200029572019,0.4033214075830431,-0.07640892240825391,-0.023340166982266097,0.2237083278487182,-0.0569807747814423,9.355889459500405,12.923712289233126,10872.480489750258,0,0
2026-03-12T18:49:31.117,581875,-0.19871873779296872,0.824802471923828,10.050858569335936,-8.486717638824512,-2.1273747364272424,-9.537279711993481,-1096.0,10420.0,-2904.0,0.05030511115085193,1.4419657815470261,-13.087664052632954,0.23764726268422218,0.7824897487098648,0.24674643140257402,-0.035258594753844796,0.4049791104940896,-0.07283233622281475,-0.023669060176874743,0.22753036083470543,-0.057651389045526774,10.086602313724642,12.942557855969833,10872.480489750258,0,0
2026-03-12T18:49:31.128,581885,0.0939724151611328,0.7398083129882812,10.378265646362305,-8.641926569181965,-2.18645305019599,-9.764541237473027,-1093.0,10411.0,-2943.0,0.025588520529068806,1.3910376711820969,-13.185309465007684,0.5044687319048959,0.636893477955957,0.5666051774989711,-0.0297606988232739,0.40517782459454443,-0.06615879018110765,-0.023942700497942372,0.23135055694157022,-0.05825466397039051,10.405024987055139,13.221563347280675,10874.043360222544,0,0
2026-03-12T18:49:31.137,581895,-0.3591302490234375,0.9157821350097656,10.186729513549803,-8.823743175354725,-1.9286099769120177,-10.04191452384104,-1093.0,10411.0,-2943.0,0.01534663117249889,1.3813403999732587,-13.285728610246094,0.0,0.9146889842722801,0.3860214502132653,-0.02931428834092479,0.40810984372070824,-0.061364097043790373,-0.02421160753797027,0.23519622372339852,-0.058809436635887585,10.234114013278985,13.506221802258146,10874.043360222544,0,0
2026-03-12T18:49:31.147,581905,-0.7015010864257812,0.8463502868652343,8.960898263549804,-8.825160794497078,-1.9011504470517393,-9.975146727787415,-1090.0,10423.0,-2928.0,0.009121675789922304,1.4087414581628974,-13.385480077523969,-0.2723176106983284,0.9333195949688791,-0.8310793816730513,-0.031556902481189454,0.41118139407534104,-0.06862976749761308,-0.02450264938621938,0.23906872962648779,-0.059436238576552856,9.028073452959015,13.453675643181729,10881.18619452861,0,0
2026-03-12T18:49:31.167,581915,-0.2855085479736328,0.7978677032470702,9.790489138793944,-8.738660126059264,-1.9051559722632099,-10.440549623710764,-1090.0,10423.0,-2928.0,-0.007206314138411468,1.3938174507708725,-13.489885573761077,0.14043352314983443,0.788081938057744,0.0,-0.029700278740945742,0.4127762802540797,-0.06760032098514888,-0.02477485252145521,0.24295329593659956,-0.060052129544617944,9.827094462743958,13.747686224328632,10881.18619452861,0,0
2026-03-12T18:49:31.180,581925,-0.19632453613281248,0.6009446166992187,9.07222864074707,-8.493225852559888,-2.0356703237504457,-10.137012970887074,-1095.0,10425.0,-2945.0,-0.03391043426437335,1.3714136372783752,-13.591255703469947,0.1627484655493092,0.5844350288299578,-0.7326784935505319,-0.02765170217417086,0.4123413210842436,-0.07380319933184439,-0.025026318173653722,0.24682963243829456,-0.06072937137639845,9.094229503691832,13.380503391932708,10888.18970260897,0,0
2026-03-12T18:49:31.181,581935,-0.14724340209960937,0.7272387542724609,9.717465988159178,-8.457670223379488,-1.9167191368748004,-10.516295835655132,-1095.0,10425.0,-2945.0,-0.05251071425599424,1.344948015422523,-13.696418661826499,0.2528688950368523,0.6960640455481305,0.0,-0.0247461680254453,0.413012432116629,-0.07269615134186672,-0.025248506074054267,0.2507087970027014,-0.061394876556927304,9.745753026637196,13.6307914649194,10888.18970260897,0,0
2026-03-12T18:49:31.188,581945,-0.4004302276611328,0.6925228302001952,8.93156929321289,-8.463983434777422,-1.9048450205589627,-10.304260461485649,-1096.0,10415.0,-2985.0,-0.06858861769825447,1.3444014527353705,-13.799461266441355,0.0,0.728424280453866,-0.8689795829114022,-0.02437497550506362,0.41399222479735015,-0.08016515796341603,-0.025466763573275795,0.2545938705314242,-0.0621343316084249,8.967321912200802,13.470160867438493,10889.612757118593,0,0
2026-03-12T18:49:31.197,581955,-0.632667788696289,0.9259574920654297,9.42297918395996,-8.46979158926352,-1.893920833548392,-10.109187917249724,-1096.0,10415.0,-2985.0,-0.06680418714715315,1.3629218741658164,-13.900553145613852,-0.17133803487232746,1.0076142448472147,-0.3723742291368364,-0.02569703051598009,0.417707341737135,-0.08263056675096263,-0.02569801014455716,0.25851217300484675,-0.06289767663865858,9.489478516194062,13.323662635911175,10889.612757118593,0,0
2026-03-12T18:49:31.207,581965,-0.9271545928955077,1.0301052642822266,9.20690248413086,-8.51903753041512,-1.7033827766206182,-10.163867518016087,-1085.0,10427.0,-2989.0,-0.05395565792032492,1.4114247219375848,-14.002191820794012,-0.42797338440912225,1.1773090052918702,-0.5806775236037982,-0.029527112894670242,0.4230382253132029,-0.0871107818571956,-0.025967287992230362,0.2624798127027208,-0.06370501567277331,9.310627575353028,13.370853235754689,10901.085955078053,0,0
2026-03-12T18:49:31.217,581975,-0.5710170959472656,0.9068038787841797,9.376890802001952,-8.520441357250203,-1.635404837417798,-10.184904458038215,-1085.0,10427.0,-2989.0,-0.05421742602306437,1.426174368304526,-14.104040865374394,-0.1041728448019156,0.9703119786246445,-0.4193139778020978,-0.030110308722549054,0.4262502249229576,-0.08993436281068834,-0.026242122688376397,0.26647557263699845,-0.06453975494157932,9.437925349943752,13.379265627229168,10901.085955078053,0,0
2026-03-12T18:49:31.227,581985,-0.29269115295410153,0.6356605407714844,8.71489404296875,-8.590025560865309,-1.709450499204862,-10.092063320907354,-1098.0,10413.0,-2960.0,-0.075439796878197,1.416720752324719,-14.204961498583467,0.0,0.6462813917529694,-1.0880277304618282,-0.02965865409171082,0.42622234325787994,-0.09930242051357702,-0.026512170520064212,0.2704670582735077,-0.06546724636756837,8.74294633486239,13.36265326268532,10881.074073821941,0,0
2026-03-12T18:49:31.240,581995,-0.2825157958984375,0.7942764007568359,9.643245736694336,-8.663799125752181,-1.723913971463595,-10.504210450356716,-1098.0,10413.0,-2960.0,-0.08901761722946058,1.4035759900900964,-14.310003603087035,0.1552035474956443,0.7955811090417859,-0.16062278296471533,-0.027685019337503062,0.42766548203307336,-0.09939501861807581,-0.0267622316927258,0.2744689693807446,-0.06639473535719538,9.680024716600927,13.724858172592345,10881.074073821941,0,0
2026-03-12T18:49:31.247,582005,-0.4159925384521484,1.0271125122070313,10.468048208618164,-8.780451293252982,-1.7811228049660195,-10.30289800457208,-1091.0,10424.0,-2989.0,-0.09011194723160496,1.3989507426737393,-14.413032583132756,0.10446023286017736,1.0506409174538949,0.6668062072439351,-0.02624081075376777,0.4315993128394981,-0.09133605219745192,-0.026997615160463218,0.27850617754663043,-0.06724078778329073,10.52653994448005,13.653513491119176,10898.815440221015,0,0
2026-03-12T18:49:31.257,582015,-0.4674678741455078,0.8607154968261719,9.546879119873047,-8.526795677597622,-1.8532671269102015,-10.405495432498997,-1091.0,10424.0,-2989.0,-0.09547411337173002,1.4015913892124567,-14.517087537457746,0.0,0.9072528233273631,-0.2526400281113048,-0.025847198592461252,0.4340617634566802,-0.09245451569138649,-0.027228831059241444,0.282563948386016,-0.0680971676072644,9.596992149069562,13.579955035527215,10898.815440221015,0,0
2026-03-12T18:49:31.273,582025,-0.5542576843261718,0.9259574920654297,9.741408004760741,-8.688554462414203,-1.8806155128549462,-10.18768994424054,-1102.0,10424.0,-2959.0,-0.09817628288713307,1.4106715123949816,-14.618964436900152,0.0,0.9914593997629269,0.0,-0.02545949061357433,0.43731671209249484,-0.09106769795601569,-0.02745594253941181,0.28665017839143403,-0.06893883674223773,9.801001416843247,13.520973328629426,10891.733608567554,0,0
2026-03-12T18:49:31.277,582035,-0.19871873779296872,0.7547720733642578,9.776123928833007,-8.642250593225945,-1.8618735888997213,-10.328772309676907,-1102.0,10424.0,-2959.0,-0.11560780056447964,1.3885874891002523,-14.722252159996922,0.23377864521092048,0.7393589628292094,0.0,-0.02277487859904315,0.4380396471949751,-0.08970168248667545,-0.02765600763407684,0.2907395442885204,-0.06976601771353738,9.807230449590849,13.595536252840672,10891.733608567554,0,0
2026-03-12T18:49:31.287,582045,0.12569558715820311,0.7990648040771484,10.779294424438476,-8.599651033572748,-1.8446310188609143,-10.458568085878364,-1093.0,10428.0,-2973.0,-0.13498686224698997,1.3395951839519857,-14.826837840855704,0.5760216194013466,0.7003750267427008,0.9648478599252268,-0.01675944246895424,0.43836774650046606,-0.07885240582911184,-0.027795778456707616,0.29482809853177155,-0.07048398723005668,10.809601853466958,13.665222570522813,10898.466038851522,0,0
2026-03-12T18:49:31.297,582055,-0.1274912384033203,0.7727285858154297,9.993397729492187,-8.628752121618636,-1.931206878815456,-10.480419224373948,-1093.0,10428.0,-2973.0,-0.15163223373253987,1.3114099512545894,-14.931642033099443,0.3037104076831901,0.7461104313618442,0.18496853132431745,-0.013516503316240503,0.43914141805187323,-0.07584767970813064,-0.027903012546380154,0.298920293199578,-0.07117122156311086,10.024039189020838,13.712188384927815,10898.466038851522,0,0
2026-03-12T18:49:31.307,582065,-0.5339069702148437,0.9516951599121093,9.910199221801758,-8.66040317140134,-2.010856669973634,-10.427351540082569,-1087.0,10426.0,-2943.0,-0.1523817078649088,1.3179774386110614,-15.035915548500268,0.0,1.0239162785523825,0.11064233918189537,-0.013313755766496896,0.44263987212483613,-0.07362013747156701,-0.028008113953941077,0.3030433452289055,-0.0718355155148887,9.970096737045449,13.703130583149902,10887.804829257366,0,0
2026-03-12T18:49:31.317,582075,-0.5339069702148437,0.7697358337402344,9.05307502746582,-8.748058722567281,-1.908524721741597,-10.69072439248572,-1087.0,10426.0,-2943.0,-0.1633662614237062,1.3298540334302145,-15.142822792425125,-0.10465181998981571,0.8524835153070555,-0.7458532793900758,-0.014144869856899127,0.4443972366687381,-0.07986249021148574,-0.028121413089857557,0.3071798302779973,-0.07256150627658656,9.101412932040443,13.94498426184388,10887.804829257366,0,0
2026-03-12T18:49:31.327,582085,-0.19572598571777342,0.7050923889160156,9.548674771118163,-8.701872561347265,-1.9265744513193424,-10.40132009962345,-1090.0,10427.0,-2970.0,-0.18328173459466202,1.308495671299455,-15.24683599342136,0.2149916296712359,0.703870585036779,-0.25829942926411675,-0.011815029256783967,0.4446644033813193,-0.081208802236565,-0.02821132381904297,0.31131484783749863,-0.07330022070465325,9.576672377343865,13.69750835025245,10896.390640941614,0,0
2026-03-12T18:49:31.337,582095,-0.3962403747558593,0.9840168823242187,10.341754071044921,-8.825234951561434,-1.7578143488723317,-10.57897058921455,-1090.0,10427.0,-2970.0,-0.18593120852961015,1.30431881504495,-15.352625699313506,0.11434408953765382,1.0238340577549558,0.5381971316220415,-0.010511514535986317,0.4480792027994858,-0.07468942845653942,-0.028288122525438428,0.31547984422562797,-0.07397306787422943,10.396017166456582,13.888459308462888,10896.390640941614,0,0
2026-03-12T18:49:31.348,582105,-0.43634325256347656,0.9056067779541015,9.847949978637695,-8.738728350558471,-1.8562135912064477,-10.108262698174945,-1091.0,10421.0,-2980.0,-0.19040750574158055,1.304365700360974,-15.453708326295256,0.0,0.9609275508972713,0.0,-0.010353841817946522,0.45082315113383165,-0.07356908702969132,-0.028363269282674273,0.31966808766122934,-0.07463404998578181,9.89912308500527,13.490288242152165,10893.480710957358,0,0
2026-03-12T18:49:31.357,582115,-0.4590881683349609,0.8110358123779297,9.246406811523437,-8.946947155684525,-1.6052774795196882,-10.421552901833145,-1091.0,10421.0,-2980.0,-0.20048695924161153,1.311461820425912,-15.557923855313588,0.0,0.8788416649499234,-0.5550517608148997,-0.010198534190677323,0.4527173942665809,-0.07793281056827271,-0.028436789369956465,0.3238710663422913,-0.07533796471337306,9.29325454076513,13.82872170804559,10893.480710957358,0,0
2026-03-12T18:49:31.370,582125,-0.5099649536132812,0.7517793212890624,8.865130197143554,-9.138508456400494,-2.6231967445727467,-10.465877450174299,-1104.0,10413.0,-2958.0,-0.21478610953878935,1.3151596828509275,-15.662582629815331,0.0,0.838584454854485,-0.9350302294015425,-0.010045556177817163,0.45418669023289887,-0.08597386616935382,-0.028508707686802904,0.3280845203113757,-0.07612150567169153,8.911552604015652,14.139592949250952,10881.137302690377,0,0
2026-03-12T18:49:31.377,582135,-0.33758243408203126,0.814028564453125,9.668384854125977,-9.207427779888453,-2.481633687933756,-10.50665603464816,-1104.0,10413.0,-2958.0,-0.23006756500981954,1.300878529931287,-15.767649190161812,0.11811896893960103,0.8528383621054252,-0.1364387960842901,-0.008731400991094835,0.4557743477461438,-0.08602818031824376,-0.02856742567501714,0.33230962152504834,-0.07690480568739909,9.708463837860187,14.188905987191468,10881.137302690377,0,0
2026-03-12T18:49:31.387,582145,-0.7003039855957031,0.9882067352294921,9.587580548095703,-9.270833557497376,-2.4001761636307632,-10.602708917729965,-1097.0,10432.0,-2970.0,-0.22966250622841455,1.3200589405787662,-15.873676279339112,-0.18025935471907034,1.118588337362748,-0.20951784051769096,-0.010375984620211255,0.45995582765297466,-0.08680150834256936,-0.028642514335698033,0.3365722706217765,-0.07769504795005396,9.663781816143059,14.287289346177296,10901.877498853122,0,0
2026-03-12T18:49:31.397,582155,-0.30466216125488277,0.6943184814453125,9.128492379760742,-9.573069311921975,-2.3984059729793263,-10.764248301872543,-1097.0,10432.0,-2970.0,-0.25526866530888503,1.3052241742036348,-15.981318762357837,0.10937376962664835,0.7332054991106033,-0.676769530458321,-0.009143013220085601,0.46027856440441944,-0.09216566559244528,-0.028705210523430988,0.34083388120955493,-0.07853808790137243,9.159927418573083,14.603597117369786,10901.877498853122,0,0
2026-03-12T18:49:31.407,582165,-0.32022447204589843,0.8565256439208984,9.8449572265625,-9.475516449895046,-2.3577530073361026,-10.517742584064203,-1090.0,10417.0,-2934.0,-0.27018903057071164,1.2902616849792738,-16.086496188198478,0.15549967216681215,0.8948946306368741,0.0,-0.007474196250941217,0.4621890980501263,-0.0907831806085586,-0.02875117253345446,0.3451103164178661,-0.07936647378775055,9.887333446588942,14.35156159797503,10877.055897622296,0,0
2026-03-12T18:49:31.418,582175,-0.6446387969970703,0.8828618621826171,9.258377819824219,-9.171133670488809,-2.1349864252858,-10.60315244563175,-1090.0,10417.0,-2934.0,-0.27476462297148607,1.3093533204614358,-16.192527712654794,-0.1572547133484069,1.0112184750383113,-0.5402983850560492,-0.008911042233658907,0.4652167635585018,-0.0947433719922323,-0.02881144267283526,0.3494127215693977,-0.0802335936001652,9.322690818690893,14.180786354198935,10877.055897622296,0,0
2026-03-12T18:49:31.427,582185,-0.642244595336914,0.7625532287597656,8.659827404785156,-9.04719907441068,-2.1544314137019605,-10.369534396322674,-1088.0,10413.0,-2982.0,-0.2842738609920394,1.3318700287247263,-16.29622305661802,-0.19713593382714864,0.8968589416578342,-1.1381231534151706,-0.010719165548351438,0.46707257268045393,-0.10453273447348824,-0.028889715693990455,0.353729363848906,-0.08119764202395519,8.71702794693234,13.929128809975243,10886.075371776553,0,0
2026-03-12T18:49:31.439,582195,-0.47764323120117186,0.7721300354003906,9.143456140136719,-8.86976461187246,-2.1869549493862914,-10.700947254372958,-1088.0,10413.0,-2982.0,-0.29497256312777675,1.3350468495187138,-16.403232529161752,0.0,0.860564956035142,-0.6586425116848744,-0.010558378065126167,0.4685430489071933,-0.10945237219648192,-0.028966304175167074,0.35805637954364,-0.08220987358017409,9.188423043944134,14.070030858585291,10886.075371776553,0,0
2026-03-12T18:49:31.448,582205,-0.5698199951171875,0.7158662963867187,8.614337573242187,-8.61384197950803,-2.2461448948988028,-10.508286108169461,-1091.0,10411.0,-2939.0,-0.30413737808035013,1.3494693772190416,-16.508315390243446,-0.13535173260302386,0.8344402904053763,-1.1852022957487325,-0.011733216960289058,0.4697341400340783,-0.1194848292266597,-0.029054552708425194,0.3623909672230368,-0.08332131715056824,8.66279234467212,13.771983062288525,10872.760597014909,0,0
2026-03-12T18:49:31.457,582215,-0.35793314819335936,0.8086416107177734,9.663596450805663,-8.378393157732752,-2.300599644770313,-10.331037853662245,-1091.0,10411.0,-2939.0,-0.3103527087700655,1.338274127748474,-16.61162576878007,0.11941081463094916,0.8628478824926318,-0.14185055323387452,-0.010381022181769872,0.4711871795761196,-0.11908978473761347,-0.02912920456731265,0.3667357361797792,-0.08442770278294644,9.703974121831925,13.498910095443353,10872.760597014909,0,0
2026-03-12T18:49:31.488,582225,-0.8607154968261719,0.9163806854248047,8.960898263549804,-8.273975363650719,-2.3067955756277123,-10.372847508296093,-1093.0,10404.0,-2948.0,-0.2996107923691343,1.3773521246359908,-16.71535424386303,-0.3408889963215007,1.1080937602633885,-0.8325647916103165,-0.013583063462810106,0.4750340954210722,-0.12550420116391087,-0.02923577016673881,0.37111459105685596,-0.08559706204979095,9.048661913055778,13.467588484075355,10868.696748000655,0,0
2026-03-12T18:49:31.491,582235,-0.4674678741455078,0.8996212738037109,9.73661960144043,-8.421813432119636,-2.346642173479934,-10.31375141494948,-1093.0,10404.0,-2948.0,-0.29888810065780963,1.3746338306806327,-16.818491758012524,0.0,0.9774169858213246,0.0,-0.013379317510867954,0.47753614130009614,-0.1236216381464522,-0.029340193778505646,0.37551406251738706,-0.08674644515282422,9.789259722409673,13.520619040012841,10868.696748000655,0,0
2026-03-12T18:49:31.491,582245,-0.5973533142089843,1.1013327636718748,10.478822116088866,-8.421239089257384,-2.5345205556991,-10.074017155412058,-1102.0,10406.0,-2934.0,-0.28735689001860243,1.3777216725715742,-16.919231929566646,0.0,1.2044396369092125,0.6778516074427223,-0.013178627748204934,0.48223682960415043,-0.1150904752409446,-0.029442508075931708,0.37995609438261513,-0.08780945255532843,10.55345809576021,13.372616942589593,10867.731870082183,0,0
2026-03-12T18:49:31.497,582255,-0.4860229370117187,0.8900444671630859,9.718064538574218,-8.347539962116793,-2.7171247649017087,-10.263217734198605,-1102.0,10406.0,-2934.0,-0.28677590559869626,1.3730601081410212,-17.02186410690863,0.0,0.9716531444227037,0.0,-0.01298094833198186,0.4845740606326518,-0.11336411811233042,-0.029542745241692276,0.3844170331539527,-0.08885415064271528,9.77083291356079,13.505474025992116,10867.731870082183,0,0
2026-03-12T18:49:31.507,582265,-0.06584054565429687,0.6111199737548828,9.32122561340332,-8.255346521245011,-2.6656084422461577,-9.910452998389546,-1106.0,10431.0,-2927.0,-0.30752340345416757,1.3322654953443436,-17.120968636892524,0.3387691540774369,0.5874427479270893,-0.4898267209046061,-0.009449357939339377,0.48309176079024385,-0.11648844954155584,-0.029607601582264585,0.3888587028110933,-0.08992901610299271,9.34146934565116,13.170926056526719,10890.194029492772,0,0
2026-03-12T18:49:31.535,582275,-0.3387795349121094,0.8038532073974609,9.657610946655273,-8.419309043447848,-2.579189035159148,-10.073714319493991,-1106.0,10431.0,-2927.0,-0.31446987699674156,1.316908573401636,-17.221705780087465,0.1420849557857617,0.8530241403290691,-0.1483601704996751,-0.007908080755759533,0.4842476721606315,-0.1162024704778543,-0.029656995707432358,0.39330747835316693,-0.09099994976696348,9.696927387026996,13.379712292831494,10890.194029492772,0,0
2026-03-12T18:49:31.538,582285,-0.8607154968261719,0.8834604125976562,8.698733181762694,-8.531130173630556,-2.704561229419587,-9.91659766173935,-1100.0,10419.0,-2949.0,-0.30679665390577693,1.3548469658522027,-17.320871756704857,-0.3483253547533891,1.0828341335507312,-1.094851556449056,-0.011220464288744023,0.48764987329369675,-0.12524372125170968,-0.029739431149969478,0.39778579310901774,-0.0921601345925011,8.785743704126775,13.357909367409395,10884.032432880747,0,0
2026-03-12T18:49:31.543,582295,-0.4782417816162109,0.9044096771240234,9.751583361816406,-8.653517808520599,-2.6930743798465078,-10.215952775629471,-1100.0,10419.0,-2949.0,-0.307950847711057,1.3499329551727839,-17.423031284461153,0.0,0.9873153415447241,0.0,-0.011052157324412863,0.4900601813085068,-0.12336506543293403,-0.02982010277049039,0.4022837085271807,-0.0933003914615836,9.805103269635337,13.656562934781954,10884.032432880747,0,0
2026-03-12T18:49:31.580,582305,-0.4423287567138672,0.6602011077880859,8.524555010986328,-8.766114432619439,-2.682506478239275,-10.491359480408383,-1097.0,10424.0,-2960.0,-0.3232496302250172,1.347683647973559,-17.527944879265238,0.0,0.7482231277082919,-1.2779090330000429,-0.010886374964546669,0.4900792763968059,-0.13410199342649043,-0.029899037553615723,0.4067773167898576,-0.09454676998445265,8.561516125492771,13.93230874617446,10891.50058531881,0,0
2026-03-12T18:49:31.580,582315,-0.3112462158203125,0.8104372619628906,9.673771807861328,-8.957508204839153,-2.667905959980133,-10.505709258561078,-1097.0,10424.0,-2960.0,-0.33479926099183044,1.3287352726908481,-17.63300197185085,0.17974730441921852,0.8525577608645519,-0.1331614915064545,-0.008952568391549166,0.49112578119536965,-0.13340210421643164,-0.02995857467429368,0.41127688602720947,-0.09578491023559035,9.71264864766625,14.061458049451138,10891.50058531881,0,0
2026-03-12T18:49:31.581,582325,-0.6697779144287109,1.0205284576416016,9.80066449584961,-9.192127060647143,-2.620327141718308,-10.31403300568107,-1096.0,10429.0,-2960.0,-0.33114923073755154,1.341322396109212,-17.73614230190766,0.0,1.1600937943059848,0.0,-0.008818279865675929,0.495185818351353,-0.13140107265318518,-0.03001671071547749,0.41581251546651227,-0.09700182204116009,9.876391311998523,14.062026563443322,10896.185433444129,0,0
2026-03-12T18:49:31.581,582335,-0.6470329986572265,0.900818374633789,9.217077841186523,-9.212854456770982,-2.5911887752588925,-10.527934755470488,-1096.0,10429.0,-2960.0,-0.33319866689852895,1.3556277506501673,-17.841421649462365,-0.11588090944143664,1.0399196335472725,-0.5822373820328917,-0.00982743262568894,0.4980012394665233,-0.13516509477641137,-0.030084870056692643,0.4203717353333163,-0.09825511951593528,9.283568784466501,14.227731960017945,10896.185433444129,0,0
2026-03-12T18:49:31.588,582345,-0.7745242370605468,0.8451531860351562,8.63109698486328,-8.929484636814669,-2.6229180634820835,-10.193017048203581,-1094.0,10426.0,-2942.0,-0.3322678824267238,1.3860102134739611,-17.9433518199444,-0.26235006642720526,1.0259146522997418,-1.1643888125203041,-0.012264169290611578,0.5006364801996779,-0.1446068481580902,-0.03017730423784916,0.42495272203517775,-0.09960148680951866,8.706894214573623,13.802644369533638,10888.235669749254,0,0
2026-03-12T18:49:31.597,582355,-0.5776011505126952,0.8319850769042968,9.159617001342772,-8.795613670747544,-2.5252797403547365,-10.509283001420465,-1094.0,10426.0,-2942.0,-0.3360700541228476,1.3942487455874615,-18.048444649958604,0.0,0.9520037568412724,-0.6407268060432507,-0.012080206751252404,0.5025041700015692,-0.14874890447524486,-0.03026780819905632,0.42954778597145826,-0.10098788687841684,9.215443877999181,13.935023746518421,10888.235669749254,0,0
2026-03-12T18:49:31.607,582365,-0.6308721374511719,1.1031284149169922,10.465055456542968,-8.887086528307252,-2.411062239175138,-10.273418410087316,-1093.0,10419.0,-2954.0,-0.3283063377038654,1.4010490035601497,-18.15117883405948,0.0,1.22200951392155,0.6642111953068675,-0.011899003649983617,0.5070034011636729,-0.13997519063434352,-0.0303564114373206,0.4341832021631119,-0.10228525114597552,10.541929503754483,13.796255068369732,10884.683091390396,0,0
2026-03-12T18:49:31.622,582375,-0.7637503295898437,0.9792284790039062,9.527725506591796,-8.761485459701209,-2.491347991748444,-10.480813229963259,-1093.0,10419.0,-2954.0,-0.32166133638754213,1.4238809364675744,-18.25598696635911,-0.17687358832843128,1.1457811384173724,-0.26853395826515225,-0.013462723440268911,0.5106842943596289,-0.14052062226374012,-0.030460547633051567,0.4388507550616015,-0.1035867669112443,9.608317038326785,13.885888096838373,10884.683091390396,0,0
2026-03-12T18:49:31.627,582385,-0.9361328491210937,1.0313023651123046,9.315838659667968,-8.64593247658365,-2.5652108841158854,-10.671616464249125,-1093.0,10416.0,-2892.0,-0.30724144919636615,1.4628106020372624,-18.362703131001602,-0.3219823977048759,1.2461280928545948,-0.4756119374787193,-0.016432309206057902,0.5152983916588522,-0.1430975905139494,-0.030594245854387032,0.4435597352392118,-0.1049127250735674,9.419383165178816,13.971966691545735,10865.144683804261,0,0
2026-03-12T18:49:31.637,582395,-0.8463502868652343,1.007360348510742,9.473257418823241,-8.661574951627689,-2.677067184118322,-10.617887147109194,-1093.0,10416.0,-2892.0,-0.2969013374644828,1.4906518693155768,-18.468882002472693,-0.23420865048521788,1.1920252388002548,-0.31992707049377245,-0.018492779775246427,0.5193103643861519,-0.14410240830060383,-0.030748394478487356,0.44830408604419025,-0.10624739540741686,9.56418787995709,13.961701071849877,10865.144683804261,0,0
2026-03-12T18:49:31.647,582405,-0.3806780639648437,0.8403647827148437,9.715071786499022,-8.549136760375523,-2.8580237606083685,-10.485529346072166,-1090.0,10419.0,-2949.0,-0.3024991536379829,1.4736746459158887,-18.573737295933416,0.16000380115456259,0.8868725910370323,0.0,-0.01663935063724529,0.5202564039420744,-0.14194087217609477,-0.030883873196874946,0.4530531434335274,-0.10755913732504864,9.758778026640462,13.827594325519774,10883.02632542989,0,0
2026-03-12T18:49:31.657,582415,-0.3842693664550781,0.8876502655029296,9.885658654785155,-8.426181429301579,-2.9171867378084793,-10.558882120337612,-1090.0,10419.0,-2949.0,-0.30399565599232303,1.4560922664717277,-18.679326117136792,0.17502691583137525,0.9331868074496807,0.0,-0.014665745256747562,0.5216444479363226,-0.13981175909345334,-0.030999500118792978,0.45781131832497773,-0.10884829766106718,9.932866302270048,13.82029317973891,10883.02632542989,0,0
2026-03-12T18:49:31.667,582425,-0.35015199279785153,0.8996212738037109,10.133458526611328,-8.342330817396478,-2.9082020426862396,-10.221488623881337,-1101.0,10417.0,-2970.0,-0.30550869884458065,1.4351740948880214,-18.781541003375605,0.2158017141347477,0.9338882170821753,0.3274601722383075,-0.012320112193669084,0.5230185801555373,-0.13448910001050418,-0.031091578539488938,0.4625784626224066,-0.11008299547251105,10.179337236033215,13.51040163267188,10887.928636797727,0,0
2026-03-12T18:49:31.677,582435,-0.47884033203125,0.8176198669433593,9.375095150756835,-8.455432156882809,-2.851155635368902,-10.608647582751319,-1101.0,10417.0,-2970.0,-0.3094481341227262,1.4292553317209091,-18.88762747920312,0.0,0.9007898459309913,-0.42707922323297076,-0.012135310510764047,0.5240460814356245,-0.13667849385919137,-0.03118171871295198,0.46735110451332607,-0.11133833063069186,9.422855161581579,13.862424930428265,10887.928636797727,0,0
2026-03-12T18:49:31.692,582445,0.03172317199707031,0.8230068206787109,10.587159741210938,-8.63265612091755,-3.0279412333198774,-10.359955776131214,-1094.0,10415.0,-2907.0,-0.32316271971403465,1.375423833629057,-18.991227036964432,0.5574272578949915,0.7416785575935612,0.7718889228288273,-0.0064626223628369206,0.5234909240063866,-0.12702521056143953,-0.031215098591643765,0.47211342773963655,-0.11249597415356995,10.619147704615605,13.82099357853293,10868.289193796787,0,0
2026-03-12T18:49:31.698,582455,-0.19033903198242186,0.8696937530517578,10.219649786376953,-8.566433875146586,-2.922291300507946,-10.492134923796815,-1094.0,10415.0,-2907.0,-0.329732252410366,1.3419552729472788,-19.0961483862024,0.3499977467537056,0.861390468979457,0.40948165364495637,-0.0029182052218703664,0.5241232562657385,-0.12108643811461511,-0.031213036363218608,0.47687730564199166,-0.11359313169618138,10.2583545428781,13.856712129558014,10868.289193796787,0,0
2026-03-12T18:49:31.707,582465,-0.09337386474609374,0.8834604125976562,10.638635076904297,-8.58843623830559,-2.825093362320969,-10.330812910380875,-1093.0,10425.0,-2975.0,-0.33817585010552126,1.3015158670686278,-19.19945651530621,0.45110714746451425,0.8448794568747163,0.8259629584237604,0.0015689732589831548,0.5245834700719684,-0.11113440640242184,-0.03116614928399815,0.4816410172023686,-0.11458977128444539,10.67566284962125,13.728367889686044,10896.14147301695,0,0
2026-03-12T18:49:31.717,582475,-0.3920505218505859,0.9151835845947265,9.998784683227539,-8.608678412411875,-2.7356712591889503,-10.18239665803821,-1093.0,10425.0,-2975.0,-0.33945347409965426,1.2885878082417705,-19.301280481886593,0.16425212818128562,0.9749108929037706,0.19282647309728418,0.003163322122684071,0.526317590315991,-0.10756804954637726,-0.031103381546708535,0.486417288912423,-0.11554978632812926,10.048231672624821,13.611555493341177,10896.14147301695,0,0
2026-03-12T18:49:31.727,582485,-0.6242880828857421,0.978031378173828,9.770138424682617,-8.710228041857949,-2.5655980462587125,-10.406829315639056,-1091.0,10427.0,-2943.0,-0.3344099000701517,1.298557212623879,-19.405348775042984,0.0,1.1100855818284885,0.0,0.00311587229084381,0.5293571694422617,-0.1059545288031816,-0.031041150600976296,0.49121914974623876,-0.11649272228454492,9.838794937622467,13.811316457202027,10889.162456314076,0,0
2026-03-12T18:49:31.738,582495,-0.24899697265624998,0.6679822631835937,9.124302526855468,-8.764629310704434,-2.4920575196311865,-10.847453702095248,-1091.0,10427.0,-2943.0,-0.35291878208787036,1.277917249351258,-19.513823312063938,0.1989734722845933,0.697787551584651,-0.6833502412459627,0.005029022908484397,0.5282900192837366,-0.11109621074740661,-0.030959869511519564,0.4960055478891371,-0.11748608070762696,9.152108849762492,14.166733196270393,10889.162456314076,0,0
2026-03-12T18:49:31.748,582505,0.011372457885742187,0.7655459808349608,10.258555563354491,-8.50736140487247,-2.604888040011911,-10.59916960104958,-1101.0,10425.0,-3001.0,-0.3674055992685824,1.232140228977845,-19.619815008074433,0.4975267610105495,0.7051966611521818,0.44417030957427706,0.009854226160811044,0.5273118561068296,-0.10505469003688889,-0.030830465922661542,0.5007773877837551,-0.11841809098038786,10.287086673495189,13.838462198016234,10904.073871723356,0,0
2026-03-12T18:49:31.757,582515,-0.2507926239013672,0.9085995300292968,10.357914932250976,-8.67555298028755,-2.5184482163231534,-10.790260423209515,-1101.0,10425.0,-3001.0,-0.3721511411636629,1.209577033472904,-19.727717612306527,0.29907689065804355,0.9294558848030721,0.5481323039212089,0.012652320141380607,0.5285573187305375,-0.09807976649271165,-0.03067323877852649,0.5055568980100894,-0.11927948975666966,10.400714003851876,14.072580464604176,10904.073871723356,0,0
2026-03-12T18:49:31.769,582525,0.12569558715820311,0.7876923461914062,10.681132156372069,-8.781508741864545,-2.4633138224319353,-10.356307882035681,-1088.0,10421.0,-2936.0,-0.38980111419676394,1.1570837373419656,-19.831280691126885,0.6128812000092294,0.6935502633791858,0.8641610011192178,0.01849941515935081,0.5274604290438644,-0.08809658413429668,-0.030457756382306047,0.5103206707982275,-0.12004029514241461,10.710874976152276,13.79985230785975,10881.226079812881,0,0
2026-03-12T18:49:31.787,582535,-0.4034229797363281,0.8960299713134765,9.989806427001952,-8.918012432759284,-2.3979560337105514,-10.757071544155753,-1088.0,10421.0,-2936.0,-0.3949155685076824,1.1506572470065732,-19.938851406568443,0.13833401052335592,0.9762060075134886,0.18283135748137802,0.0195845139356156,0.5291641517822143,-0.08497424650109066,-0.030231649331706942,0.5150967000037336,-0.12076914756981809,10.038020335655874,14.177296184270942,10881.226079812881,0,0
2026-03-12T18:49:31.793,582545,-0.9451111053466796,0.9720458740234375,8.962095364379882,-8.965547047894638,-2.3719732095502923,-10.725774113306219,-1087.0,10428.0,-2933.0,-0.3844493108719951,1.1998102057750533,-20.046109147701504,-0.3577023408778991,1.2292412628899547,-0.8334523282759339,0.01576737816893406,0.5333347159449472,-0.09190913823709225,-0.030043901574467582,0.5199096171160199,-0.12156655071323683,9.064064292738385,14.179193245897538,10887.021723134385,0,0
2026-03-12T18:49:31.799,582555,-0.5692214447021484,0.872087954711914,9.338583575439452,-9.009278893819165,-2.3480690113228544,-10.828687793997819,-1087.0,10428.0,-2933.0,-0.38739716971759514,1.2107796018253194,-20.154396025641482,0.0,1.0060805099447487,-0.46423209491697826,0.015530867496400048,0.5352445882287288,-0.0951031872984681,-0.02985870430660408,0.524736800935309,-0.12239506500363528,9.396472404542564,14.280791771061837,10887.021723134385,0,0
2026-03-12T18:49:31.807,582565,0.06464344482421874,0.6865373260498047,10.01674119567871,-8.756829265240462,-2.326077148953612,-10.923368380234091,-1101.0,10409.0,-2949.0,-0.40902803544241584,1.1641726965175605,-20.263629709443823,0.5139842659581019,0.6182801637242049,0.2015549474277858,0.02036064950364135,0.5333059790179813,-0.09169132325682738,-0.029625442713756098,0.5295397908647633,-0.12318866625796736,10.040449016663812,14.191993181148092,10874.561278506826,0,0
2026-03-12T18:49:31.818,582575,-0.30346506042480464,0.8690952026367187,10.064026678466796,-8.856282924021224,-2.242430001427567,-10.976328178108046,-1101.0,10409.0,-2949.0,-0.41609263612893244,1.1504332905144727,-20.373392991224904,0.23287247344917117,0.9185479196709303,0.2548653247119841,0.022349033624561063,0.5343540863414702,-0.08780552995956194,-0.029372550425132975,0.5343484483964499,-0.1239426548360054,10.106040297714838,14.280827000392557,10874.561278506826,0,0
2026-03-12T18:49:31.827,582585,-0.21128829650878905,0.6829460235595702,9.2948893951416,-8.728268094977574,-2.306938040337752,-10.776270704347208,-1097.0,10404.0,-2909.0,-0.4327904742887066,1.12993401761599,-20.481155698268378,0.23723463865175945,0.71534667050307,-0.5148242509624552,0.024350559310912477,0.5333849397508034,-0.09155946588214868,-0.029099915787191826,0.5391426154961639,-0.12473339124533206,9.322340204221964,14.058187555767375,10858.586740455685,0,0
2026-03-12T18:49:31.837,582595,-0.24899697265624998,0.7577648254394531,9.583989245605467,-8.7373237205501,-2.361407387354634,-11.006851974828699,-1097.0,10404.0,-2909.0,-0.4445503606997283,1.111979310212736,-20.591224218016663,0.23360048798204167,0.8011265231088194,-0.22580014265787263,0.0262862657278719,0.5332752619071632,-0.09241020529909649,-0.028808216076783192,0.5439308927471204,-0.1255318358050247,9.617123108442906,14.250188105513937,10858.586740455685,0,0
2026-03-12T18:49:31.849,582605,-0.3705027069091797,0.9097966308593749,10.00417163696289,-8.731020749735361,-2.5139582110004097,-10.682401377818014,-1084.0,10414.0,-2979.0,-0.44593840867187695,1.1022210459588584,-20.698048231794843,0.18243500423985584,0.9868462550049195,0.19541499905762727,0.0276889565337164,0.5349965685903542,-0.08909921447889241,-0.028502795184934582,0.5487315775745909,-0.12629640512186383,10.052285924463295,14.023708796740397,10885.811545309794,0,0
2026-03-12T18:49:31.857,582615,-0.3938461730957031,0.8655039001464844,9.773131176757811,-8.783758601951654,-2.4982074077789136,-10.92049219442184,-1084.0,10414.0,-2979.0,-0.4498560894227509,1.0955611839238673,-20.80725315373906,0.1411525475900366,0.9543082236157616,0.0,0.028663974779472513,0.5363715560641141,-0.08776272626170901,-0.02818793928170272,0.5535411978420969,-0.12704685835209642,9.819282295939272,14.235610461025878,10885.811545309794,0,0
2026-03-12T18:49:31.869,582625,0.0430956298828125,0.6171054779052734,9.645041387939452,-8.871301816234546,-2.561765449302942,-10.393194282282726,-1089.0,10411.0,-2985.0,-0.4755772600525261,1.050062133484518,-20.91118509656189,0.4540939437549158,0.5727926113955122,-0.1694716217703771,0.03270684050376635,0.5339679899453982,-0.0881155808422216,-0.027833010005788392,0.5583219968638092,-0.12780008614635813,9.66485901496968,13.902558236570814,10885.08461152232,0,0
2026-03-12T18:49:31.888,582635,-0.2950853546142578,0.814627114868164,9.9461122467041,-8.951841573374805,-2.3177998231148043,-10.586128983602547,-1089.0,10411.0,-2985.0,-0.4863846451388417,1.0368864959226758,-21.017046386397915,0.21491284809618919,0.880530223726976,0.13590100664060145,0.03433312944995732,0.5346316927999278,-0.08545522221417835,-0.027462189032577532,0.5631046454780166,-0.1285259837301314,9.983778920169634,14.056094423142667,10885.08461152232,0,0
2026-03-12T18:49:31.900,582645,-0.7996633544921875,0.814028564453125,8.525153561401366,-9.025938149943844,-2.0933514470217176,-10.763628908816782,-1085.0,10427.0,-2925.0,-0.48617867183205765,1.0807322123596184,-21.12468267548608,-0.2764947932598353,1.0570197003201032,-1.2751432624903174,0.03109465879459858,0.5370238614560819,-0.0967335550164953,-0.027124091202186916,0.5679064092084849,-0.12936382596101606,8.601182897121634,14.202302174439042,10883.71163712086,0,0
2026-03-12T18:49:31.901,582655,-0.49380409240722656,0.8026561065673827,9.208698135375975,-9.084350902826385,-1.9892979654063219,-10.65863615708705,-1085.0,10427.0,-2925.0,-0.49364476985718564,1.0907951093050248,-21.23126903705695,0.0,0.937459757356704,-0.5974760229344991,0.0306282389126796,0.5382024821442043,-0.1011676905171527,-0.02679099100424706,0.572715145595897,-0.13024512736332142,9.256793216636364,14.145291175865406,10883.71163712086,0,0
2026-03-12T18:49:31.907,582665,-0.8792705596923828,0.9325415466308593,8.88667801208496,-9.089310147673444,-1.9764955915884503,-10.659603801105453,-1100.0,10430.0,-2964.0,-0.48591194278622574,1.1392638053826822,-21.337865075068006,-0.2876780514778823,1.1944262014880644,-0.9124730323595749,0.027335186521932266,0.5418945429966987,-0.10863803452813722,-0.026491121499888713,0.5775559569348381,-0.1312001762008942,8.978629992588441,14.147411317294406,10898.632758286702,0,0
2026-03-12T18:49:31.917,582675,-0.33399113159179683,0.8122329132080077,9.640851535034178,-9.235336067566886,-2.0037417979199112,-10.792201350675553,-1100.0,10430.0,-2964.0,-0.4973551558490492,1.1320948509325337,-21.44578708857476,0.19390391571734497,0.886361420756427,-0.16849377564280488,0.02883511229391913,0.5424967848461991,-0.10866812770029678,-0.02617656760657257,0.5823979438585168,-0.13215457062041924,9.68076911726807,14.344965091179425,10898.632758286702,0,0
2026-03-12T18:49:31.931,582685,-0.7176619476318359,1.0624269866943359,9.961076007080077,-9.208704304112754,-2.067832697988757,-10.587361827987362,-1092.0,10402.0,-2966.0,-0.4892801326449674,1.1562105644120662,-21.551660706854634,0.0,1.2570360211602993,0.15744529571369448,0.028402585609510346,0.546741137881935,-0.10548726962201244,-0.02586664920872699,0.5872774898820988,-0.13307623387332274,10.04324773128501,14.18338455743833,10871.578726201637,0,0
2026-03-12T18:49:31.937,582695,-0.6171054779052734,0.9050082275390624,9.267954626464844,-9.242739667100805,-2.019479252881364,-10.803787515894713,-1092.0,10402.0,-2966.0,-0.4893238532714725,1.1758469554710618,-21.65969858201358,0.0,1.0722244573312123,-0.5360486416227879,0.02797654682536769,0.5491014317184185,-0.10918503969766671,-0.025561296856732838,0.5921757356950837,-0.1340339161860291,9.33246173423632,14.360653108240566,10871.578726201637,0,0
2026-03-12T18:49:31.947,582705,-0.9211690887451172,0.9971849914550781,9.04708952331543,-9.176491225440056,-2.1603599370410986,-10.602899148769477,-1096.0,10417.0,-3003.0,-0.4780247579839708,1.2236150994886856,-21.765727573501273,-0.27830589676913936,1.2660919910924149,-0.7505848424361599,0.024815585539811152,0.5533359163549025,-0.11494052480019788,-0.025287827860333394,0.5971113857637741,-0.13504813811259705,9.148374677511114,14.187903884193995,10896.472548490176,0,0
2026-03-12T18:49:31.957,582715,-0.4908113403320312,0.8852560638427733,9.567828384399414,-9.174079244478023,-2.080214068907079,-10.82295989979475,-1096.0,10417.0,-3003.0,-0.48192609356505484,1.2286325984352406,-21.87395717249922,0.0,1.0026221874127543,-0.2382799666338684,0.024443351756713985,0.5549117061555946,-0.11556347459953852,-0.025018350948423487,0.6,-0.13606756908573386,9.621222067060298,14.339716927087737,10896.472548490176,0,0
2026-03-12T18:49:31.967,582725,-0.5434837768554687,1.0319009155273438,10.236409197998046,-9.225518758578318,-2.065016455589635,-10.698586522445318,-1086.0,10431.0,-2953.0,-0.47922308682286074,1.235220690769645,-21.980943037723673,0.1188572724952727,1.1571051232654508,0.43010964680807184,0.025247445614441713,0.5579855160274254,-0.10959344245948593,-0.024741110615786793,0.6,-0.13702634000681838,10.302634002236042,14.277053018917629,10895.19921800423,0,0
2026-03-12T18:49:31.977,582735,-0.5021837982177734,0.9032125762939452,9.680355862426758,-9.27284311155059,-2.051034651337586,-10.584163015283838,-1086.0,10431.0,-2953.0,-0.4834151490388141,1.2408421044492788,-22.08678466787651,0.0,1.0226055417496671,-0.12565250203132194,0.02486873393022509,0.5596883978732482,-0.10918721796760217,-0.02446793085320806,0.6,-0.1379800939743079,9.735361890982178,14.220297790360123,10895.19921800423,0,0
2026-03-12T18:49:31.991,582745,-0.11073182678222655,0.9247603912353515,10.87925234375,-9.570040052870445,-1.9991470011817987,-10.600844608207472,-1093.0,10418.0,-2929.0,-0.4975499947399759,1.2112537116846096,-22.192793113958587,0.49524248316936426,0.8987116497237406,1.064073395025984,0.02937384138048995,0.5601453816549283,-0.09706828675708219,-0.024150018246963757,0.6,-0.13881182606503686,10.919046427122204,14.420823893011113,10876.967132431724,0,0
2026-03-12T18:49:31.998,582755,-0.5285200164794922,0.8942343200683593,9.6779616607666,-9.667851482787151,-1.8733615825506695,-10.816191673697215,-1093.0,10418.0,-2929.0,-0.5061288030432146,1.2213216475969166,-22.300955030695558,0.0,1.0287143069174012,-0.12789678036286567,0.0289332337597826,0.5618760368532408,-0.09687204574230018,-0.023836825223456568,0.6,-0.1396407659759374,9.73354664725432,14.627605348599046,10876.967132431724,0,0
2026-03-12T18:49:32.007,582765,-0.5440823272705078,0.661398208618164,8.46529851989746,-9.591984339773935,-1.9283707047271037,-10.550896339801438,-1096.0,10419.0,-2931.0,-0.5260058121543528,1.239002141166797,-22.406463994093574,0.0,0.820909298567352,-1.3379931530449092,0.028499235253385862,0.5615338528913306,-0.10859819761365803,-0.02352828103805179,0.6,-0.1405860212041219,8.508510574723966,14.389099718973162,10878.765463047726,0,0
2026-03-12T18:49:32.017,582775,-0.4955997436523437,0.8289923248291016,9.400234268188475,-9.463649982835923,-1.7984912922513745,-10.697068535056347,-1096.0,10419.0,-2931.0,-0.5357358386378619,1.2477966397850782,-22.51343467944414,0.0,0.9583841557799099,-0.40601270437657533,0.028071746724585074,0.5625509290323928,-0.11096844978756243,-0.023224316007235134,0.6,-0.14155400999629553,9.449722306891285,14.395225499089166,10878.765463047726,0,0
2026-03-12T18:49:32.027,582785,-0.8726865051269531,0.9750386260986328,9.273341580200194,-9.355338472013928,-1.8009534522858988,-10.421790857129889,-1102.0,10409.0,-2956.0,-0.5298158633784537,1.2915422963899272,-22.61765258801544,-0.2046756728802091,1.2343959150576267,-0.5254043553946968,0.025634615145846237,0.5662714648602245,-0.11447915594138676,-0.022945001885920895,0.6,-0.14255610275415367,9.365209347456405,14.120181157938468,10876.56292217353,0,0
2026-03-12T18:49:32.037,582795,-0.49320554199218747,0.8128314636230468,9.277531433105468,-9.153252857667448,-1.8178527858591245,-10.78316953977901,-1102.0,10409.0,-2956.0,-0.5369222021474753,1.299735246320341,-22.72548428341323,0.0,0.9391435120379548,-0.5283405793000568,0.025250095918658542,0.567027956480895,-0.11796612330837151,-0.022669808425807573,0.6,-0.14359202822325015,9.326121175878393,14.260553002989433,10876.56292217353,0,0
2026-03-12T18:49:32.048,582805,0.0005985504150390625,0.5716156463623047,9.312247357177734,-9.099041409541858,-2.033400172746492,-10.569296464401567,-1083.0,10412.0,-2957.0,-0.5658050520561198,1.2601550888808164,-22.831177248057244,0.44664563096819315,0.5319144050744165,-0.5027653063516606,0.029270803944915363,0.5637618940236646,-0.1211488697263098,-0.02235472328597206,0.6,-0.14465871340359274,9.329774683597266,14.093874505880006,10877.79766313016,0,0
2026-03-12T18:49:32.057,582815,-0.47584757995605464,0.757166275024414,9.012373599243164,-9.049166877266314,-2.2317037686828702,-10.37253323505432,-1083.0,10412.0,-2957.0,-0.5744166538443048,1.2644472305644585,-22.934902580407787,0.0,0.8884408605503137,-0.7940122132189131,0.02883174188574163,0.5640566080897302,-0.12715265698062145,-0.022044339461247526,0.6,-0.14578430973342557,9.056633457290825,13.944797187341003,10877.79766313016,0,0
2026-03-12T18:49:32.067,582825,-0.7757213378906249,0.8277952239990234,8.635885388183594,-9.139867673426473,-2.175118686700436,-10.542730576249975,-1093.0,10413.0,-2942.0,-0.5736974863397305,1.3006987355437212,-23.040329886170287,-0.17563940284169563,1.0681727695832919,-1.164100451442728,0.026669217639464803,0.5661172607487797,-0.136711756572623,-0.021755869637568027,0.6,-0.14700427587185264,8.71008065202483,14.121525781316118,10875.687656419708,0,0
2026-03-12T18:49:32.077,582835,-0.32920272827148434,0.7344213592529296,9.27633433227539,-9.26233679613772,-2.162084801520499,-10.552970666735343,-1093.0,10413.0,-2942.0,-0.5884247791046211,1.2902839780068618,-23.145859592837642,0.21538785935018073,0.8102005762808729,-0.5332843267604233,0.028390749789472113,0.5656059775139145,-0.1399139308426238,-0.021450490177533633,0.6,-0.14825501176509862,9.311182943825097,14.20671262139941,10875.687656419708,0,0
2026-03-12T18:49:32.088,582845,0.047884033203124995,0.613514175415039,9.542689266967773,-9.37013034025158,-2.4330204564232494,-10.401415940225785,-1091.0,10426.0,-2933.0,-0.616715625408093,1.2426608411103957,-23.2498737522399,0.5166978439835386,0.5575028651315046,-0.27439817457250193,0.03305436230586788,0.5626132910727512,-0.14051804389952358,-0.02109882660792048,0.6,-0.14951053201188977,9.56251070430632,14.209447022887984,10885.506235357178,0,0
2026-03-12T18:49:32.100,582855,-0.42377369384765623,0.8517372406005859,9.526528405761718,-9.240032108153404,-2.501793454055731,-10.66198559183699,-1091.0,10426.0,-2933.0,-0.621843413696245,1.2374322694562514,-23.35649360815827,0.17836266987266175,0.9633034778684972,-0.28299434138180146,0.03431541916952558,0.5636626309636645,-0.14119776750364146,-0.020734916743809,0.6,-0.15077158717723926,9.573911631951075,14.328820628614258,10885.506235357178,0,0
2026-03-12T18:49:32.110,582865,-0.354341845703125,1.0630255371093749,10.903194360351561,-9.188634417549912,-2.66262558748737,-10.277319427416861,-1099.0,10407.0,-2956.0,-0.6194955594969904,1.22043317322924,-23.45926680243244,0.35790773338041193,1.1319284765747988,1.08949008142657,0.037326079055779754,0.5663571869934713,-0.12834832368903512,-0.020341294297297953,0.6,-0.15190301534371548,10.960621729435108,14.040793143255309,10874.34531362693,0,0
2026-03-12T18:49:32.118,582875,-0.25917232971191406,0.9085995300292968,10.269928021240235,-9.297446103170309,-2.595957003903015,-10.518548507369854,-1099.0,10407.0,-2956.0,-0.625944474269207,1.1981563433362177,-23.564452287506136,0.3672008056793113,0.9534472856355767,0.4559153131045033,0.04038311580588427,0.5672532849520796,-0.12193233299962024,-0.01991752567609987,0.6,-0.15296921633503796,10.313299421810322,14.27660181938834,10874.34531362693,0,0
2026-03-12T18:49:32.127,582885,-0.9265560424804687,1.0630255371093749,9.462483511352538,-9.421943097843512,-2.6370609313956517,-10.218528041414412,-1087.0,10410.0,-2947.0,-0.6132145299460605,1.2375755224929852,-23.66663756792028,-0.19414279843473584,1.3562316007935724,-0.33827801671547775,0.03786506250421386,0.572103366945615,-0.12343538646927339,-0.019519336176006673,0.6,-0.15404936662953095,9.566980902825216,14.147275972004891,10873.567859722953,0,0
2026-03-12T18:49:32.137,582895,-0.5572504364013672,0.8786720092773437,9.433753091430663,-9.395016918308714,-2.7236570324937555,-10.303484822491503,-1087.0,10410.0,-2947.0,-0.6167384651290336,1.2426737181959375,-23.769672416145195,0.0,1.0391990045915152,-0.3730326459314153,0.03729708656665066,0.5737579266366573,-0.12525822723465874,-0.019127218945029827,0.6,-0.15514664695297567,9.49095832562943,14.207267506923083,10873.567859722953,0,0
2026-03-12T18:49:32.148,582905,-0.1005564697265625,0.6147112762451171,9.394847314453125,-9.3702448331367,-2.803325445504011,-10.381645061082427,-1092.0,10419.0,-2956.0,-0.6436308129874986,1.2055997434870676,-23.87348886675602,0.3801607844892081,0.6193387727801061,-0.4192629897025313,0.040482213995369595,0.5712520446489915,-0.1275090942747088,-0.018703674408271052,0.6,-0.15626531615782702,9.415473308264108,14.263193049266087,10885.125676812371,0,0
2026-03-12T18:49:32.173,582915,-0.3441664886474609,0.8385691314697266,9.789890588378906,-9.288917929412595,-2.8327179464490557,-10.33647930985437,-1092.0,10419.0,-2956.0,-0.6520349875405753,1.1897046897312986,-23.976853659854562,0.25714976684079593,0.9252671862086786,0.0,0.04240790598882089,0.5717971457634121,-0.12559645786058818,-0.01826131575303446,0.6,-0.15736375945569647,9.83176517684346,14.182774474218533,10885.125676812371,0,0
2026-03-12T18:49:32.173,582925,-0.5991489654541016,0.7811082916259765,8.946533053588867,-9.340926446279099,-2.7768322180502043,-10.280292672383093,-1112.0,10424.0,-2935.0,-0.6594162621240541,1.2017607944761697,-24.079656586578395,0.0,0.9750193403007504,-0.8590987582600658,0.041771787398988576,0.5728241290789233,-0.132174633761541,-0.01782575428116553,0.6,-0.15852682028751858,9.00053128015284,14.165031643870458,10886.25486565513,0,0
2026-03-12T18:49:32.178,582935,0.0017956512451171875,0.7404068634033203,10.087968695068358,-9.169262086674333,-2.6522466162159444,-10.409088770787568,-1112.0,10424.0,-2935.0,-0.6768767590690475,1.157457184650676,-24.18374747428627,0.539475239447067,0.699955882674987,0.2697752673629026,0.04645904169655735,0.5711263325870881,-0.12753472787159328,-0.017343802700335757,0.6,-0.15964236539866827,10.11510345673327,14.122992188820616,10886.25486565513,0,0
2026-03-12T18:49:32.192,582945,-0.39923312683105466,0.949300958251953,10.335170016479491,-9.0308430709599,-2.620554691796718,-10.166605571563586,-1099.0,10416.0,-2956.0,-0.6769577373307906,1.1473262417407506,-24.285413530001907,0.2652066094643907,1.0556885426469946,0.522507072271404,0.04837444117433324,0.5729579697433547,-0.12047501229164606,-0.016843198230303832,0.6,-0.16068626840606315,10.38635155713661,13.84858484873996,10882.958834802233,0,0
2026-03-12T18:49:32.197,582955,-0.48662148742675776,0.7547720733642578,8.910021478271483,-9.137643917966034,-2.5913981213310295,-10.280106394131181,-1099.0,10416.0,-2956.0,-0.6841792771264316,1.151315676169174,-24.388214593943218,0.0,0.911323735624061,-0.8982956134180942,0.04764882455671824,0.5733401389931013,-0.12751609889943957,-0.016350343274751912,0.6,-0.16179946796566247,8.95516410223817,13.996159047018452,10882.958834802233,0,0
2026-03-12T18:49:32.207,582965,-0.2184709014892578,0.5925649108886718,8.837596878051757,-9.284681185016556,-2.6426228569904007,-9.935746663088493,-1098.0,10423.0,-2929.0,-0.7078311993591604,1.1292100215512642,-24.487572060574102,0.25042386973418945,0.6569924841600275,-0.9744571777961735,0.04940076730524923,0.571211412877181,-0.1352017606172403,-0.015840479266097718,0.6,-0.16298833408626304,8.860134383143643,13.853079875058928,10882.259599917657,0,0
2026-03-12T18:49:32.217,582975,-0.5219359619140624,0.814028564453125,9.1799677154541,-9.25410181216645,-2.5970666869677537,-10.287228393456047,-1098.0,10423.0,-2929.0,-0.7123553738720338,1.1353119451831708,-24.59044434450866,0.0,0.9854738135214696,-0.6289708384447366,0.04865975579567049,0.5723501587472097,-0.13936909696666233,-0.015338527826432871,0.6,-0.16421764303087374,9.230756572939423,14.078715273263692,10882.259599917657,0,0
2026-03-12T18:49:32.227,582985,-0.5991489654541016,0.7679401824951172,8.747215765380858,-9.225968789144353,-2.555155010546919,-9.971567195150296,-1104.0,10408.0,-2996.0,-0.717286674393254,1.1516656168354702,-24.690160016460165,0.0,0.9740423223266743,-1.059455892388728,0.04792985945873543,0.5733592232409194,-0.14771420105219135,-0.01484437000261367,0.6,-0.16552909025635426,8.801278046557943,13.823149769628712,10886.748642271485,0,0
2026-03-12T18:49:32.238,582995,-0.29269115295410153,0.7607575775146483,9.516353048706055,-9.214720554305488,-2.6044011462885313,-9.681158892709005,-1104.0,10408.0,-2996.0,-0.7287329683483676,1.1350783630150643,-24.786971605387254,0.2749465331828741,0.8442362273187773,-0.2968095624977032,0.049919134918705706,0.5730745617313955,-0.14842206222701085,-0.014330833474773187,0.6,-0.16684629756774574,9.551198644692747,13.61685785086294,10886.748642271485,0,0
2026-03-12T18:49:32.248,583005,-0.5476736297607422,1.0755950958251952,10.499771380615234,-9.360469739229343,-2.4301953960488634,-9.64812959592643,-1095.0,10406.0,-2915.0,-0.7222680665392999,1.138670097068973,-24.88345290134652,0.2005299566599748,1.2384597242824515,0.6875415128273445,0.05114556796802587,0.5766772715896067,-0.13942344739225634,-0.013805558417297834,0.6,-0.16807229150962663,10.568919067723305,13.660550797892332,10861.909868895065,0,0
2026-03-12T18:49:32.258,583015,-0.5398924743652344,0.9068038787841797,9.51874725036621,-9.328705330822702,-2.191877325340564,-9.729937764837683,-1095.0,10406.0,-2915.0,-0.7216938597927374,1.1484751487247578,-24.980752278994895,0.11698930734794377,1.078074250283606,-0.29116810008288496,0.051530729125882725,0.5786461438810562,-0.1402001014671889,-0.013276960874912968,0.6,-0.16930481823177423,9.577072954447436,13.656528045820304,10861.909868895065,0,0
2026-03-12T18:49:32.267,583025,-0.1879448303222656,0.6141127258300781,9.101557611083983,-9.358018660454446,-2.265307627118197,-9.556420792431156,-1102.0,10408.0,-2926.0,-0.7451436112043055,1.1266391229779433,-25.076316486919207,0.3021568834039329,0.6672563255054915,-0.7119109239716721,0.053734013490523216,0.5765389265290695,-0.14510942254630205,-0.012726881119267728,0.6,-0.17058515654478001,9.124188108930685,13.565740313632134,10867.490234640194,0,0
2026-03-12T18:49:32.277,583035,-0.4082113830566406,0.8068459594726562,9.430760339355468,-9.492303996886383,-2.2353025291438633,-9.7772729826952,-1102.0,10408.0,-2926.0,-0.7541154120042188,1.124764247947859,-25.17408921674616,0.19394388164274573,0.9374387107390791,-0.3811276299498587,0.05483835052234641,0.5771246139319134,-0.14668688836311364,-0.01216631911643022,0.6,-0.17187997340298272,9.474010635097178,13.80925340285432,10867.490234640194,0,0
2026-03-12T18:49:32.296,583045,0.1292868896484375,0.7463923675537109,10.485406170654297,-9.347553823476936,-2.3247710097391834,-9.580456997738121,-1108.0,10428.0,-2990.0,-0.7738020286457711,1.0744240648729506,-25.269893786723543,0.6735479245863649,0.6639377425276808,0.6634540633369657,0.06065022232168691,0.5750075314868323,-0.1379515625137978,-0.011548257076320137,0.6,-0.17308622953909256,10.512733195024623,13.585524613206195,10904.629659002638,0,0
2026-03-12T18:49:32.307,583055,-0.37289690856933594,0.8882488159179687,9.984419473266602,-9.22413976150122,-2.207082011886878,-9.911581413528829,-1108.0,10428.0,-2990.0,-0.7767950438773695,1.068525077380923,-25.36900960085883,0.2696663040833697,1.0048954534897867,0.17002958258373368,0.062396682082082794,0.5762806387314041,-0.13420749768764106,-0.01091336596524381,0.6,-0.174253876211453,10.030786124803258,13.718433272932902,10904.629659002638,0,0
2026-03-12T18:49:32.308,583065,-0.8708908538818358,1.102529864501953,9.816825357055663,-9.178891507410391,-2.093930085082269,-9.713776851666037,-1093.0,10427.0,-2912.0,-0.7594344631870282,1.107444407789133,-25.46614736937549,0.0,1.4057339470421766,0.0,0.061460731850851553,0.5814829085287985,-0.13219438522232643,-0.010288459888088559,0.6,-0.17540024424361259,9.916858528406301,13.527529457738622,10881.02577885008,0,0
2026-03-12T18:49:32.317,583075,-0.49739539489746093,0.9002198242187499,9.664195001220703,-9.137263113646828,-1.9898303124220291,-9.531796654752267,-1093.0,10427.0,-2912.0,-0.7582188047493088,1.1152371183557794,-25.561465335923014,0.16440861094884085,1.060929346327885,-0.14736112021454062,0.062158245690934866,0.5832108189621962,-0.13166297647810474,-0.009657210553748031,0.6,-0.17654015713438526,9.718768591359755,13.353057677842592,10881.02577885008,0,0
2026-03-12T18:49:32.327,583085,-0.26695348510742184,0.6099228729248046,8.79090994567871,-8.942867430408741,-1.7672292532819254,-9.598521215055012,-1101.0,10418.0,-2933.0,-0.7753995198137498,1.1071293098443231,-25.657450548073562,0.22794149554138193,0.6990655308701178,-1.0212804684822547,0.06347109573665347,0.5813484521568338,-0.13974764444548338,-0.009013477096785115,0.6,-0.17775969594526125,8.81608573841933,13.237431269977646,10878.851685724923,0,0
2026-03-12T18:49:32.340,583095,-0.29568390502929687,0.7092822418212891,9.242216958618164,-8.651828279878481,-1.6014606691169324,-9.737956591021343,-1101.0,10418.0,-2933.0,-0.783161684384049,1.1021538163494509,-25.754830113983775,0.2567302233284197,0.8038389468269445,-0.5710115748330917,0.0650478220003886,0.5805460390007267,-0.14327589379090708,-0.008354635877904448,0.6,-0.17901326242828713,9.274108290311558,13.124275501064792,10878.851685724923,0,0
2026-03-12T18:49:32.348,583105,0.15023615417480468,0.7236474517822266,10.287285983276366,-8.496267383341861,-1.497734059490017,-9.70038347837378,-1097.0,10428.0,-2955.0,-0.794745817013681,1.058349386850351,-25.851833948767514,0.6837239156005569,0.6313115346236053,0.4650809540161518,0.07080678523904825,0.5780562670317583,-0.1365457079869844,-0.0076389214574884515,0.6,-0.18019834078864883,10.31380092100902,12.981802894425034,10893.97163572588,0,0
