recv_time,timestamp,ax,ay,az,gx,gy,gz,mx,my,mz,roll,pitch,yaw
2026-03-11T17:28:54.395,2027371,-917.0,1223.0,16396.0,-146.0,-72.0,-129.0,4051.0,5228.0,-3208.0,4.2658704500951545,3.192269281143395,-54.74105764189569
2026-03-11T17:28:54.395,2027381,-1016.0,1196.0,15630.0,-129.0,-66.0,-235.0,4051.0,5228.0,-3208.0,3.0038674049947054,2.555791216298812,-56.942809325530504
2026-03-11T17:28:54.395,2027391,-990.0,1245.0,16352.0,-141.0,-76.0,-177.0,4053.0,5217.0,-3174.0,1.6490691730225442,1.8289685517400747,-58.44501879878256
2026-03-11T17:28:54.395,2027401,-635.0,1182.0,16782.0,-139.0,-22.0,-274.0,4053.0,5217.0,-3174.0,0.33446454662288283,1.6200208467760262,-60.7702054294576
2026-03-11T17:28:54.395,2027411,-751.0,1123.0,16359.0,-121.0,-72.0,-157.0,4049.0,5219.0,-3231.0,-0.7794840339053513,0.9344663293039017,-61.83920017931101
2026-03-11T17:28:54.395,2027421,-651.0,1057.0,16222.0,-121.0,-72.0,-157.0,4049.0,5219.0,-3231.0,-1.8751336956429068,0.2560415650368984,-62.824095161264786
2026-03-11T17:28:54.395,2027431,-851.0,1219.0,16579.0,-138.0,-65.0,-246.0,4060.0,5221.0,-3203.0,-3.105926914644141,-0.3274689398581098,-64.57123571135425
2026-03-11T17:28:54.396,2027441,-878.0,1055.0,15836.0,-150.0,-53.0,-196.0,4060.0,5221.0,-3203.0,-4.437579710074655,-0.776991298027295,-65.725257147962
2026-03-11T17:28:54.396,2027451,-881.0,1142.0,16036.0,-165.0,-28.0,-141.0,4043.0,5229.0,-3239.0,-5.884359542394432,-0.9731179271693715,-66.27657097697667
2026-03-11T17:28:54.396,2027461,-821.0,1156.0,16180.0,-170.0,-47.0,-232.0,4043.0,5229.0,-3239.0,-7.350939883555576,-1.3563071990666735,-67.63047810661149
2026-03-11T17:28:54.396,2027471,-1065.0,1188.0,15820.0,-83.0,-87.0,-146.0,4053.0,5241.0,-3221.0,-7.931429975900205,-2.1049700348315654,-68.0776001605119
2026-03-11T17:28:54.401,2027481,-843.0,1156.0,16206.0,-131.0,-46.0,-195.0,4053.0,5241.0,-3221.0,-8.974999592189945,-2.454267001089085,-68.94190352085275
2026-03-11T17:28:54.411,2027491,-649.0,1110.0,16557.0,-182.0,-30.0,-128.0,4061.0,5225.0,-3191.0,-10.502390908883688,-2.654387582677795,-69.08655640823105
2026-03-11T17:28:54.421,2027501,-1295.0,1172.0,15278.0,-182.0,-6.0,-222.0,4061.0,5225.0,-3191.0,-11.988209883639549,-2.563483402347805,-70.08583971737426
2026-03-11T17:28:54.431,2027511,-858.0,1202.0,16452.0,-155.0,-6.0,-222.0,4053.0,5220.0,-3139.0,-13.183872408445415,-2.5114647988714327,-71.01420589052985
2026-03-11T17:28:54.442,2027521,-625.0,1101.0,16601.0,-122.0,-29.0,-164.0,4053.0,5220.0,-3139.0,-14.039907475716587,-2.702408489780948,-71.32286532406523
2026-03-11T17:28:54.451,2027531,-996.0,1236.0,16413.0,-143.0,-25.0,-209.0,4057.0,5229.0,-3182.0,-15.07437739676861,-2.8241028250842812,-72.01439281348635
2026-03-11T17:28:54.461,2027541,-844.0,1092.0,16064.0,-165.0,-47.0,-221.0,4057.0,5229.0,-3182.0,-16.312112354920377,-3.1682080990506263,-72.75039667076325
2026-03-11T17:28:54.471,2027551,-818.0,1094.0,16099.0,-114.0,-67.0,-140.0,4051.0,5228.0,-3219.0,-17.025319483333202,-3.7034029242082966,-72.65342016207249
2026-03-11T17:28:54.481,2027561,-1144.0,1251.0,15863.0,-136.0,-59.0,-234.0,4051.0,5228.0,-3219.0,-17.92742967597633,-4.1252915878746155,-73.42633136933338
2026-03-11T17:28:54.491,2027571,-265.0,1076.0,17323.0,-176.0,-42.0,-132.0,4033.0,5212.0,-3163.0,-19.222595062004896,-4.436891097195938,-73.16193260623469
2026-03-11T17:28:54.501,2027581,-1310.0,1207.0,15331.0,-134.0,-42.0,-244.0,4033.0,5212.0,-3163.0,-20.06131165418742,-4.662374463213573,-73.94970743367966
2026-03-11T17:28:54.512,2027591,-1026.0,1212.0,16047.0,-134.0,-42.0,-244.0,4048.0,5220.0,-3219.0,-20.88690056410012,-4.907767190384836,-74.6619612110548
2026-03-11T17:28:54.521,2027601,-583.0,1155.0,16912.0,-167.0,-44.0,-158.0,4048.0,5220.0,-3219.0,-22.02762392220474,-5.201416528561526,-74.48596830153464
2026-03-11T17:28:54.533,2027611,-867.0,1150.0,16142.0,-191.0,-36.0,-198.0,4048.0,5224.0,-3141.0,-23.377370998968683,-5.388854375266586,-74.67196888452717
2026-03-11T17:28:54.542,2027621,-1196.0,1200.0,15503.0,-183.0,-53.0,-221.0,4042.0,5224.0,-3141.0,-24.61470121129931,-5.712510919742754,-75.02929898651476
2026-03-11T17:28:54.551,2027631,-323.0,993.0,16718.0,-155.0,-51.0,-145.0,4042.0,5225.0,-3134.0,-25.573423047872744,-6.0759627384204045,-74.61689666243181
2026-03-11T17:28:54.562,2027641,-930.0,1213.0,16349.0,-159.0,-13.0,-218.0,4038.0,5225.0,-3134.0,-26.535289857177595,-6.016907249949456,-74.88838474127037
2026-03-11T17:28:54.571,2027651,-947.0,1003.0,15318.0,-115.0,-39.0,-137.0,4038.0,5219.0,-3207.0,-27.056658158717752,-6.208166374380719,-74.34095018711659
2026-03-11T17:28:54.581,2027661,-887.0,1365.0,17198.0,-143.0,-21.0,-220.0,4047.0,5219.0,-3207.0,-27.826164290333253,-6.230938686470652,-74.57992285398801
2026-03-11T17:28:54.600,2027671,-363.0,953.0,16439.0,-200.0,-71.0,-110.0,4047.0,5231.0,-3167.0,-29.16328437429532,-6.776862726320522,-73.72844424162545
2026-03-11T17:28:54.602,2027681,-914.0,1212.0,16288.0,-200.0,-71.0,-110.0,4046.0,5231.0,-3167.0,-30.454907264141156,-7.273066594217041,-72.87395818284142
2026-03-11T17:28:54.614,2027691,-1096.0,1171.0,15821.0,-169.0,-59.0,-212.0,4046.0,5222.0,-3113.0,-31.417347922037646,-7.626764088743797,-73.0075608087645
2026-03-11T17:28:54.621,2027701,-634.0,1164.0,16896.0,-152.0,-46.0,-202.0,4052.0,5222.0,-3113.0,-32.19978103336033,-7.882151542417519,-73.00984872181103
2026-03-11T17:28:54.631,2027711,-1063.0,1249.0,16034.0,-118.0,-38.0,-159.0,4052.0,5220.0,-3223.0,-32.62310195520549,-8.021277638433398,-72.55702773464044
2026-03-11T17:28:54.645,2027721,-1020.0,1079.0,15459.0,-150.0,21.0,-213.0,4035.0,5220.0,-3223.0,-33.360787343947365,-7.579735591976039,-72.61273369976595
2026-03-11T17:28:54.651,2027731,-621.0,1276.0,17328.0,-139.0,-84.0,-137.0,4035.0,5236.0,-3167.0,-33.9715406457943,-8.210401934740096,-71.94514600361853
2026-03-11T17:28:54.661,2027741,-1116.0,1265.0,16103.0,-163.0,-43.0,-213.0,4040.0,5236.0,-3167.0,-34.79967487419269,-8.38854706278831,-71.99970033699277
2026-03-11T17:28:54.672,2027751,-515.0,942.0,16120.0,-133.0,-100.0,-110.0,4040.0,5230.0,-3123.0,-35.34019389070439,-9.16424126818783,-71.06848747691504
2026-03-11T17:28:54.681,2027761,-907.0,1313.0,16792.0,-133.0,-100.0,-243.0,4055.0,5230.0,-3123.0,-35.84737052581885,-9.899309060708067,-71.43005173307102
2026-03-11T17:28:54.693,2027771,-726.0,879.0,15200.0,-178.0,-33.0,-243.0,4055.0,5211.0,-3085.0,-36.808629744929945,-9.970122977748154,-71.74096362622467
2026-03-11T17:28:54.701,2027781,-1272.0,1357.0,16111.0,-176.0,-57.0,-185.0,4058.0,5211.0,-3085.0,-37.70096605969006,-10.239352424232578,-71.45148934716013
2026-03-11T17:28:54.714,2027791,-361.0,1254.0,17956.0,-137.0,-16.0,-192.0,4058.0,5217.0,-3127.0,-38.20964872161798,-10.168386144031759,-71.20942325453375
2026-03-11T17:28:54.721,2027801,-955.0,1202.0,16056.0,-149.0,-63.0,-230.0,4056.0,5217.0,-3127.0,-38.820028817786394,-10.514529872373586,-71.31951521614229
2026-03-11T17:28:54.731,2027811,-565.0,1083.0,16614.0,-144.0,-42.0,-183.0,4056.0,5234.0,-3190.0,-39.38023613496536,-10.676967041887726,-70.94038640036015
2026-03-11T17:28:54.758,2027821,-924.0,1071.0,15645.0,-137.0,-24.0,-226.0,4038.0,5234.0,-3190.0,-39.85690837918638,-10.63118546697304,-70.97101180714222
2026-03-11T17:28:54.765,2027831,-586.0,1108.0,16628.0,-142.0,-64.0,-92.0,4038.0,5218.0,-3197.0,-40.37512530693338,-11.005483628733508,-69.70113067772758
2026-03-11T17:28:54.765,2027841,-972.0,1271.0,16597.0,-154.0,-30.0,-200.0,4054.0,5218.0,-3197.0,-40.98923940912106,-11.01253546167024,-69.49052650895943
2026-03-11T17:28:54.770,2027851,-946.0,1094.0,15679.0,-154.0,-30.0,-200.0,4054.0,5218.0,-3254.0,-41.59882790176627,-11.017396184186005,-69.24192274084949
2026-03-11T17:28:54.781,2027861,-798.0,1038.0,16013.0,-146.0,-19.0,-179.0,4040.0,5233.0,-3254.0,-42.12347420273378,-10.92630862849467,-68.78860008880896
2026-03-11T17:28:54.791,2027871,-1015.0,1236.0,16309.0,-152.0,-77.0,-191.0,4040.0,5233.0,-3202.0,-42.68392562520003,-11.391360746404398,-68.47355276319425
2026-03-11T17:28:54.801,2027881,-726.0,1225.0,16970.0,-162.0,-74.0,-217.0,4046.0,5242.0,-3202.0,-43.33527103987502,-11.839866557271693,-68.40132628679831
2026-03-11T17:28:54.811,2027891,-930.0,1173.0,16234.0,-127.0,-44.0,-138.0,4046.0,5242.0,-3100.0,-43.63051026301246,-11.968864772205754,-67.6106149486436
2026-03-11T17:28:54.821,2027901,-830.0,1156.0,16168.0,-108.0,-24.0,-223.0,4041.0,5224.0,-3100.0,-43.734507133121056,-11.906061779609685,-67.6553830559024
2026-03-11T17:28:54.831,2027911,-658.0,1170.0,16642.0,-145.0,-40.0,-114.0,4041.0,5224.0,-3128.0,-44.200386822281814,-12.014767712106973,-66.63202359872176
2026-03-11T17:28:54.844,2027921,-864.0,1117.0,16160.0,-131.0,-12.0,-295.0,4053.0,5205.0,-3128.0,-44.52109770898026,-11.831009283380249,-67.35203153084527
2026-03-11T17:28:54.851,2027931,-603.0,1033.0,16099.0,-131.0,-95.0,-138.0,4053.0,5205.0,-3191.0,-44.84104819714401,-12.482575995800786,-66.5172495128621
2026-03-11T17:28:54.861,2027941,-879.0,1242.0,16354.0,-140.0,-95.0,-138.0,4035.0,5219.0,-3191.0,-45.229367725377365,-13.102568990609909,-65.72632146213867
2026-03-11T17:28:54.871,2027951,-967.0,1310.0,16513.0,-153.0,-54.0,-204.0,4035.0,5219.0,-3245.0,-45.733463232139044,-13.302898885329268,-65.56035076646003
2026-03-11T17:28:54.881,2027961,-990.0,1145.0,15710.0,-182.0,-63.0,-155.0,4034.0,5212.0,-3245.0,-46.51902302668695,-13.582314175056801,-64.90338095311999
2026-03-11T17:28:54.891,2027971,-514.0,1100.0,16738.0,-127.0,-59.0,-99.0,4034.0,5212.0,-3219.0,-46.75804259315977,-13.85376519486121,-63.75278335454015
2026-03-11T17:28:54.901,2027981,-919.0,1228.0,16377.0,-142.0,-43.0,-213.0,4045.0,5226.0,-3219.0,-47.12871780914693,-13.934033330916659,-63.73045409461489
2026-03-11T17:28:54.911,2027991,-981.0,1158.0,15792.0,-117.0,-11.0,-146.0,4045.0,5226.0,-3159.0,-47.24886557119058,-13.692249552449955,-63.086740939489786
2026-03-11T17:28:54.922,2028001,-998.0,1355.0,16826.0,-112.0,4.0,-230.0,4060.0,5231.0,-3159.0,-47.30940623679618,-13.311534998870785,-63.261460175866944
2026-03-11T17:28:54.931,2028011,-946.0,1113.0,15769.0,-148.0,-16.0,-170.0,4060.0,5231.0,-3128.0,-47.7328715558479,-13.133611816046646,-62.84605551680613
2026-03-11T17:28:54.941,2028021,-737.0,1128.0,16583.0,-148.0,-16.0,-170.0,4053.0,5246.0,-3128.0,-48.15078714966302,-12.976962206487382,-62.433497889098994
2026-03-11T17:28:54.953,2028031,-815.0,1336.0,17336.0,-169.0,-41.0,-218.0,4053.0,5246.0,-3128.0,-48.75583554989341,-13.065549729721335,-62.46986583903495
2026-03-11T17:28:54.961,2028041,-933.0,1098.0,15638.0,-171.0,-70.0,-152.0,4033.0,5221.0,-3205.0,-49.37619182983567,-13.422118964392565,-61.81476996270897
2026-03-11T17:28:54.984,2028051,-625.0,1099.0,16561.0,-161.0,-43.0,-190.0,4033.0,5221.0,-3205.0,-49.89053553340946,-13.53194585848563,-61.53015967193614
2026-03-11T17:28:54.984,2028061,-925.0,1331.0,16859.0,-140.0,-40.0,-235.0,4049.0,5230.0,-3176.0,-50.17444327596199,-13.590691600228327,-61.68903065730549
2026-03-11T17:28:54.991,2028071,-935.0,1181.0,16122.0,-123.0,-37.0,-172.0,4049.0,5230.0,-3176.0,-50.29256124807653,-13.615271427483519,-61.23611429795943
2026-03-11T17:28:55.004,2028081,-591.0,1083.0,16345.0,-147.0,-11.0,-258.0,4050.0,5233.0,-3145.0,-50.65149385771884,-13.409440737078253,-61.61398260822558
2026-03-11T17:28:55.010,2028091,-1198.0,1326.0,16103.0,-155.0,-52.0,-140.0,4050.0,5233.0,-3145.0,-51.06331608279824,-13.566043055389379,-60.83513403259435
2026-03-11T17:28:55.025,2028101,-511.0,972.0,15970.0,-176.0,-22.0,-202.0,4054.0,5223.0,-3162.0,-51.69719054823289,-13.473735928460865,-60.63730237333961
2026-03-11T17:28:55.032,2028111,-1027.0,999.0,15021.0,-176.0,-22.0,-202.0,4054.0,5223.0,-3162.0,-52.31194752254863,-13.341807511786035,-60.41332478849902
2026-03-11T17:28:55.040,2028121,-1148.0,1420.0,16734.0,-173.0,-68.0,-161.0,4044.0,5217.0,-3187.0,-52.86410180478725,-13.663161474988401,-59.77815838362391
2026-03-11T17:28:55.059,2028131,-419.0,1206.0,17544.0,-169.0,-70.0,-234.0,4044.0,5217.0,-3187.0,-53.384371594661864,-14.048600160549976,-59.852263311876904
2026-03-11T17:28:55.067,2028141,-940.0,994.0,15121.0,-205.0,-51.0,-224.0,4046.0,5226.0,-3210.0,-54.25046402941967,-14.196436465594676,-59.77778904827134
2026-03-11T17:28:55.071,2028151,-394.0,1054.0,16863.0,-185.0,-61.0,-161.0,4046.0,5226.0,-3210.0,-54.90692383070618,-14.483590678614913,-59.082329142268264
2026-03-11T17:28:55.082,2028161,-1143.0,1053.0,14997.0,-129.0,-30.0,-218.0,4050.0,5224.0,-3158.0,-54.99265781991651,-14.400964403911688,-58.98035296438748
2026-03-11T17:28:55.093,2028171,-704.0,1204.0,16966.0,-131.0,-84.0,-115.0,4050.0,5224.0,-3158.0,-55.09542033764527,-14.888741969412763,-57.91525983710325
2026-03-11T17:28:55.101,2028181,-889.0,1162.0,16281.0,-111.0,-78.0,-216.0,4048.0,5227.0,-3128.0,-54.99966462001027,-15.293016462039757,-57.89657355413493
2026-03-11T17:28:55.112,2028191,-1058.0,1059.0,15144.0,-111.0,-78.0,-197.0,4048.0,5227.0,-3128.0,-54.90746919211454,-15.671823376946,-57.71524060316588
2026-03-11T17:28:55.126,2028201,-578.0,1262.0,17430.0,-136.0,-65.0,-197.0,4052.0,5230.0,-3180.0,-55.059295577691096,-15.957499980012043,-57.52003788979985
2026-03-11T17:28:55.131,2028211,-684.0,1008.0,15978.0,-189.0,-86.0,-209.0,4052.0,5230.0,-3180.0,-55.73811325995173,-16.432221721662746,-57.42869613671801
2026-03-11T17:28:55.141,2028221,-1300.0,1328.0,15927.0,-126.0,-54.0,-145.0,4054.0,5231.0,-3210.0,-55.7628245723015,-16.53977310220355,-56.72196292703232
2026-03-11T17:28:55.158,2028231,-406.0,1378.0,18255.0,-114.0,-63.0,-141.0,4054.0,5231.0,-3210.0,-55.67843104292157,-16.80096839223411,-56.02557021099506
2026-03-11T17:28:55.162,2028241,-709.0,1027.0,15833.0,-138.0,-51.0,-196.0,4050.0,5226.0,-3121.0,-55.84303713548057,-16.91357670292293,-55.923149870559634
2026-03-11T17:28:55.171,2028251,-1422.0,1384.0,15920.0,-129.0,-84.0,-130.0,4050.0,5226.0,-3121.0,-55.89100642675567,-17.29680262759682,-55.20894657464417
2026-03-11T17:28:55.181,2028261,-803.0,1121.0,15907.0,-154.0,-74.0,-218.0,4041.0,5218.0,-3250.0,-56.20176448642396,-17.618411511258817,-55.29672679583137
2026-03-11T17:28:55.192,2028271,-999.0,1249.0,16166.0,-156.0,-48.0,-101.0,4041.0,5218.0,-3250.0,-56.518170239501444,-17.665929411966868,-54.253857274061794
2026-03-11T17:28:55.201,2028281,-794.0,1174.0,16422.0,-156.0,-48.0,-101.0,4038.0,5217.0,-3185.0,-56.83482507432659,-17.727789887194227,-53.28012252178128
2026-03-11T17:28:55.211,2028291,-929.0,1188.0,16154.0,-120.0,-40.0,-237.0,4038.0,5217.0,-3185.0,-56.79000690668858,-17.699583070188428,-53.64842788578829
2026-03-11T17:28:55.221,2028301,-1009.0,1354.0,16860.0,-140.0,-45.0,-180.0,4063.0,5233.0,-3177.0,-56.934377173595564,-17.71831418100502,-53.458561703997304
2026-03-11T17:28:55.231,2028311,-204.0,933.0,16741.0,-170.0,-43.0,-158.0,4063.0,5233.0,-3177.0,-57.397892103636195,-17.771406491916053,-53.04712366489301
2026-03-11T17:28:55.241,2028321,-846.0,1168.0,16386.0,-190.0,-20.0,-250.0,4052.0,5214.0,-3178.0,-58.03039090194452,-17.553017199387607,-53.48355413716405
2026-03-11T17:28:55.258,2028331,-553.0,836.0,15541.0,-155.0,-57.0,-186.0,4052.0,5214.0,-3178.0,-58.3271999817065,-17.71985739254635,-53.28053010699132
2026-03-11T17:28:55.265,2028341,-1301.0,1205.0,15451.0,-136.0,-28.0,-246.0,4043.0,5219.0,-3219.0,-58.40426829417473,-17.54388935203651,-53.62831159892765
2026-03-11T17:28:55.271,2028351,-1223.0,1407.0,16765.0,-142.0,-37.0,-139.0,4043.0,5219.0,-3219.0,-58.53183698149534,-17.472456599916693,-52.932854243379126
2026-03-11T17:28:55.281,2028361,-420.0,1054.0,16837.0,-142.0,-37.0,-247.0,4041.0,5220.0,-3194.0,-58.68115915178296,-17.45708427032779,-53.30238894849949
2026-03-11T17:28:55.293,2028371,-1161.0,1218.0,15814.0,-199.0,-19.0,-247.0,4041.0,5220.0,-3194.0,-59.369651038089685,-17.21041185058362,-53.607547075193615
2026-03-11T17:28:55.302,2028381,-1021.0,1134.0,15706.0,-184.0,-64.0,-160.0,4039.0,5219.0,-3147.0,-59.90286428015962,-17.419208342579868,-53.073419723344884
2026-03-11T17:28:55.311,2028391,-759.0,1233.0,16829.0,-125.0,-52.0,-201.0,4039.0,5219.0,-3147.0,-59.84599964547621,-17.52891543426031,-52.96263697811795
2026-03-11T17:28:55.321,2028401,-1102.0,1116.0,15233.0,-125.0,-35.0,-212.0,4051.0,5236.0,-3143.0,-59.790277305403635,-17.43880281826157,-52.968712914820046
2026-03-11T17:28:55.332,2028411,-873.0,1403.0,17228.0,-153.0,-74.0,-151.0,4051.0,5236.0,-3143.0,-60.00075709084301,-17.75740014691921,-52.39555317738881
2026-03-11T17:28:55.342,2028421,-665.0,951.0,15617.0,-187.0,-52.0,-213.0,4053.0,5217.0,-3209.0,-60.56364727757017,-17.863176511057887,-52.375163371430844
2026-03-11T17:28:55.352,2028431,-1395.0,1353.0,15718.0,-164.0,-59.0,-141.0,4053.0,5217.0,-3209.0,-60.86117686837191,-17.983048535821503,-51.660347633245095
2026-03-11T17:28:55.362,2028441,-379.0,994.0,16629.0,-151.0,-45.0,-243.0,4046.0,5232.0,-3255.0,-61.055337528638056,-18.038321450935715,-51.92235675772861
2026-03-11T17:28:55.372,2028451,-1367.0,1278.0,15697.0,-151.0,-45.0,-243.0,4046.0,5232.0,-3255.0,-61.22093929135961,-18.019338797966846,-52.16151323460001
2026-03-11T17:28:55.382,2028461,-472.0,1123.0,17182.0,-142.0,-65.0,-162.0,4048.0,5229.0,-3161.0,-61.313330872320236,-18.26454790902367,-51.67086321620966
2026-03-11T17:28:55.391,2028471,-897.0,1187.0,16176.0,-129.0,-31.0,-232.0,4048.0,5229.0,-3161.0,-61.267327048509635,-18.139747926033568,-51.86740903845456
2026-03-11T17:28:55.402,2028481,-608.0,1011.0,16311.0,-186.0,-49.0,-202.0,4045.0,5222.0,-3173.0,-61.7938443019756,-18.214539908203797,-51.73539523329625
2026-03-11T17:28:55.414,2028491,-775.0,1269.0,16956.0,-149.0,-83.0,-164.0,4045.0,5222.0,-3173.0,-61.932565801492345,-18.61145547160652,-51.25704041470171
2026-03-11T17:28:55.422,2028501,-678.0,962.0,15750.0,-177.0,-49.0,-227.0,4059.0,5221.0,-3278.0,-62.35860953366763,-18.67021945038119,-51.32746085265803
2026-03-11T17:28:55.434,2028511,-1123.0,1183.0,15781.0,-135.0,-75.0,-137.0,4059.0,5221.0,-3278.0,-62.348695795818145,-18.950634207976897,-50.5511188845096
2026-03-11T17:28:55.441,2028521,-905.0,1251.0,16434.0,-181.0,-24.0,-229.0,4051.0,5243.0,-3192.0,-62.788459629049285,-18.743962540730106,-50.704622512139004
2026-03-11T17:28:55.455,2028531,-1364.0,1241.0,15346.0,-171.0,-59.0,-148.0,4051.0,5243.0,-3192.0,-63.11602377461298,-18.846026543153805,-50.06724878892112
2026-03-11T17:28:55.467,2028541,-736.0,1074.0,15896.0,-171.0,-59.0,-148.0,4054.0,5238.0,-3156.0,-63.45219795468045,-18.994407319907104,-49.46697415158875
2026-03-11T17:28:55.472,2028551,-485.0,1060.0,16614.0,-166.0,-34.0,-254.0,4054.0,5238.0,-3156.0,-63.73694169421684,-18.914344640020943,-49.88499814524225
2026-03-11T17:28:55.482,2028561,-1054.0,1029.0,15068.0,-150.0,-73.0,-181.0,4045.0,5235.0,-3205.0,-63.85406911741189,-19.171617156149374,-49.56596797146647
2026-03-11T17:28:55.492,2028571,-787.0,1335.0,17276.0,-174.0,-30.0,-209.0,4045.0,5235.0,-3205.0,-64.19381292804412,-19.030174079361682,-49.504496131395676
2026-03-11T17:28:55.502,2028581,-465.0,943.0,16173.0,-163.0,-10.0,-234.0,4056.0,5239.0,-3242.0,-64.4405972693225,-18.714688555330536,-49.63971845282429
2026-03-11T17:28:55.514,2028591,-856.0,1124.0,16260.0,-151.0,-61.0,-176.0,4056.0,5239.0,-3242.0,-64.55249778384264,-18.878067462209778,-49.21785295940441
2026-03-11T17:28:55.522,2028601,-955.0,1142.0,15973.0,-178.0,-43.0,-235.0,4046.0,5238.0,-3200.0,-64.92405901798037,-18.85364893968414,-49.376668191638196
2026-03-11T17:28:55.534,2028611,-586.0,1092.0,16646.0,-206.0,-59.0,-163.0,4046.0,5238.0,-3200.0,-65.56931179273253,-19.014538616016555,-48.814671047452485
2026-03-11T17:28:55.542,2028621,-795.0,1135.0,16196.0,-206.0,-59.0,-239.0,4060.0,5225.0,-3146.0,-66.19655197631882,-19.156381603437108,-49.00087324251718
2026-03-11T17:28:55.552,2028631,-764.0,1142.0,16352.0,-168.0,-51.0,-239.0,4060.0,5225.0,-3146.0,-66.43912158388007,-19.21968308961282,-49.167135628625104
2026-03-11T17:28:55.571,2028641,-854.0,1117.0,16099.0,-176.0,-72.0,-133.0,4052.0,5225.0,-3187.0,-66.75575908751188,-19.480304606118764,-48.2895312353542
2026-03-11T17:28:55.577,2028651,-746.0,1203.0,16588.0,-197.0,-35.0,-183.0,4052.0,5225.0,-3187.0,-67.26828470296117,-19.382333508724344,-47.89818628849852
2026-03-11T17:28:55.581,2028661,-740.0,1073.0,16023.0,-168.0,-43.0,-209.0,4064.0,5236.0,-3202.0,-67.49269575675444,-19.36331991326926,-47.7562215366614
2026-03-11T17:28:55.591,2028671,-975.0,1186.0,16043.0,-137.0,-46.0,-166.0,4064.0,5236.0,-3202.0,-67.40088233379075,-19.357485826717056,-47.21768814237454
2026-03-11T17:28:55.602,2028681,-791.0,1208.0,16465.0,-153.0,-41.0,-214.0,4037.0,5235.0,-3200.0,-67.46834180406782,-19.317274360810472,-47.153968754768464
2026-03-11T17:28:55.612,2028691,-1143.0,1030.0,14805.0,-102.0,-31.0,-132.0,4037.0,5235.0,-3200.0,-67.03898062086449,-19.146647220151216,-46.3308873395428
2026-03-11T17:28:55.622,2028701,-682.0,1191.0,16621.0,-117.0,-21.0,-238.0,4049.0,5238.0,-3184.0,-66.76282900025116,-18.92264098749677,-46.572101809678784
2026-03-11T17:28:55.632,2028711,-674.0,1080.0,16243.0,-117.0,-21.0,-238.0,4049.0,5238.0,-3184.0,-66.49809226943785,-18.70257047449668,-46.80644647699814
2026-03-11T17:28:55.642,2028721,-1262.0,1178.0,15233.0,-153.0,-77.0,-115.0,4050.0,5222.0,-3169.0,-66.5790903736957,-18.988681011128577,-45.872797189565475
2026-03-11T17:28:55.652,2028731,-574.0,1058.0,16461.0,-170.0,-81.0,-162.0,4050.0,5222.0,-3169.0,-66.83995815248277,-19.362847335184373,-45.434166916594705
2026-03-11T17:28:55.684,2028741,-1222.0,1359.0,16331.0,-177.0,-47.0,-176.0,4060.0,5211.0,-3135.0,-67.14261971830491,-19.35089815783121,-45.14980233102867
2026-03-11T17:28:55.688,2028751,-253.0,1118.0,17469.0,-164.0,-84.0,-158.0,4060.0,5211.0,-3135.0,-67.3337296577005,-19.770519167368228,-44.71650924680732
2026-03-11T17:28:55.688,2028761,-1226.0,1055.0,15077.0,-151.0,-35.0,-226.0,4047.0,5223.0,-3131.0,-67.38680110289452,-19.6253579834684,-44.94484685901292
2026-03-11T17:28:55.698,2028771,-1776.0,1301.0,14632.0,-134.0,-18.0,-143.0,4047.0,5223.0,-3131.0,-67.25064356969804,-19.271377840021078,-44.36529472778099
2026-03-11T17:28:55.716,2028781,-1179.0,1180.0,15484.0,-142.0,-31.0,-266.0,4042.0,5251.0,-3227.0,-67.21007157706481,-19.102915560713456,-44.9332054908532
2026-03-11T17:28:55.719,2028791,-1261.0,1381.0,16190.0,-142.0,-31.0,-161.0,4042.0,5251.0,-3227.0,-67.1599600789477,-18.935905480596556,-44.47066184978322
2026-03-11T17:28:55.724,2028801,-467.0,1079.0,16744.0,-164.0,-45.0,-161.0,4046.0,5231.0,-3160.0,-67.35021889981473,-18.966301497491756,-44.053228035292
2026-03-11T17:28:55.758,2028811,-1093.0,1285.0,16179.0,-147.0,-57.0,-220.0,4046.0,5231.0,-3160.0,-67.35299203958341,-19.068520551408955,-44.22151353850068
2026-03-11T17:28:55.761,2028821,-684.0,963.0,15609.0,-112.0,-78.0,-180.0,4044.0,5224.0,-3226.0,-67.03292422909503,-19.401462336788242,-43.997304663220774
2026-03-11T17:28:55.761,2028831,-977.0,1165.0,15829.0,-132.0,-38.0,-186.0,4044.0,5224.0,-3226.0,-66.9016791885601,-19.315384386002908,-43.84481226680771
2026-03-11T17:28:55.761,2028841,-1084.0,1214.0,15873.0,-128.0,-25.0,-227.0,4045.0,5242.0,-3188.0,-66.73057389123713,-19.09616789989438,-44.11354855736884
2026-03-11T17:28:55.772,2028851,-818.0,1096.0,16011.0,-125.0,-62.0,-147.0,4045.0,5242.0,-3188.0,-66.5426433007418,-19.263487043789723,-43.62657354976068
2026-03-11T17:28:55.782,2028861,-1196.0,1355.0,16227.0,-155.0,-32.0,-231.0,4042.0,5214.0,-3220.0,-66.63532474387969,-19.10780215920568,-43.926428113905885
2026-03-11T17:28:55.791,2028871,-994.0,1215.0,16124.0,-180.0,-88.0,-112.0,4042.0,5214.0,-3220.0,-66.98043236600614,-19.51769183099757,-43.079605124643
2026-03-11T17:28:55.802,2028881,-799.0,1099.0,16195.0,-180.0,-88.0,-112.0,4047.0,5226.0,-3193.0,-67.32718040773304,-19.93337807088207,-42.291674834654714
2026-03-11T17:28:55.812,2028891,-686.0,1164.0,16713.0,-176.0,-91.0,-214.0,4047.0,5226.0,-3193.0,-67.62575658997815,-20.379615239835616,-42.51535762707966
2026-03-11T17:28:55.841,2028901,-735.0,1099.0,16237.0,-197.0,-41.0,-142.0,4039.0,5218.0,-3212.0,-68.12639837423467,-20.32210435188089,-42.00109625001409
2026-03-11T17:28:55.845,2028911,-857.0,1207.0,16436.0,-145.0,-34.0,-199.0,4039.0,5218.0,-3212.0,-68.10086932440383,-20.189326436523995,-42.04954200662124
2026-03-11T17:28:55.845,2028921,-764.0,1019.0,15766.0,-128.0,-9.0,-231.0,4045.0,5215.0,-3224.0,-67.91929113074225,-19.81836907471264,-42.386955001456585
2026-03-11T17:28:55.851,2028931,-707.0,1315.0,17191.0,-118.0,-55.0,-118.0,4045.0,5215.0,-3224.0,-67.62982056432244,-19.91403815903947,-41.65423062417403
2026-03-11T17:28:55.863,2028941,-1092.0,1162.0,15797.0,-182.0,-35.0,-218.0,4032.0,5233.0,-3162.0,-67.97668412116298,-19.779881874820017,-41.91780804279951
2026-03-11T17:28:55.874,2028951,-710.0,1068.0,15934.0,-171.0,-59.0,-156.0,4032.0,5233.0,-3162.0,-68.21625845572635,-19.911571446295092,-41.57175009863094
2026-03-11T17:28:55.882,2028961,-894.0,1223.0,16228.0,-179.0,-49.0,-263.0,4047.0,5228.0,-3149.0,-68.5199359421179,-19.930653286758208,-42.25130976715138
2026-03-11T17:28:55.892,2028971,-996.0,1280.0,16268.0,-179.0,-49.0,-263.0,4047.0,5228.0,-3149.0,-68.81375958096665,-19.94238494995721,-42.881146193958436
2026-03-11T17:28:55.902,2028981,-431.0,1059.0,16741.0,-103.0,-69.0,-114.0,4046.0,5222.0,-3259.0,-68.37449266709424,-20.190300778415274,-42.04035849800151
2026-03-11T17:28:55.912,2028991,-856.0,1147.0,16166.0,-178.0,-47.0,-203.0,4046.0,5222.0,-3259.0,-68.67023454255866,-20.186626143428974,-42.07060738221348
2026-03-11T17:28:55.922,2029001,-969.0,1265.0,16439.0,-132.0,-51.0,-211.0,4044.0,5235.0,-3245.0,-68.5024237614026,-20.215423890351044,-42.19567311436995
2026-03-11T17:28:55.932,2029011,-755.0,1033.0,15753.0,-113.0,-40.0,-200.0,4044.0,5235.0,-3245.0,-68.1647395173667,-20.148354108054995,-42.225662570472906
2026-03-11T17:28:55.942,2029021,-755.0,1153.0,16411.0,-139.0,-11.0,-239.0,4047.0,5224.0,-3145.0,-68.08326734945203,-19.800634852298536,-42.664139039199185
2026-03-11T17:28:55.952,2029031,-1159.0,1205.0,15834.0,-133.0,-62.0,-128.0,4047.0,5224.0,-3145.0,-67.9379632370572,-19.928734539436743,-42.03988717688451
2026-03-11T17:28:55.962,2029041,-892.0,1227.0,16589.0,-158.0,-14.0,-209.0,4049.0,5211.0,-3203.0,-68.0430007548981,-19.605969967855394,-42.163136902731296
2026-03-11T17:28:55.984,2029051,-859.0,1232.0,16522.0,-158.0,-14.0,-209.0,4049.0,5211.0,-3203.0,-68.14525081748202,-19.291691042579078,-42.26049155331889
2026-03-11T17:28:55.987,2029061,-642.0,1082.0,16424.0,-122.0,-27.0,-157.0,4039.0,5237.0,-3149.0,-67.90256272742634,-19.125783901558734,-41.89802315828018
2026-03-11T17:28:55.992,2029071,-857.0,1082.0,15964.0,-171.0,-30.0,-226.0,4039.0,5237.0,-3149.0,-68.14276278201069,-18.975951108594064,-42.18903253909195
2026-03-11T17:28:56.002,2029081,-712.0,1084.0,16314.0,-220.0,-71.0,-180.0,4037.0,5223.0,-3219.0,-68.85987778294505,-19.242361870399304,-41.95986704658517
2026-03-11T17:28:56.012,2029091,-795.0,1190.0,16477.0,-190.0,-85.0,-168.0,4037.0,5223.0,-3219.0,-69.2620634869845,-19.63541141087426,-41.62352862235365
2026-03-11T17:28:56.022,2029101,-1029.0,1142.0,15613.0,-178.0,-62.0,-207.0,4041.0,5243.0,-3213.0,-69.53755416479542,-19.775089182156794,-41.67335779569221
2026-03-11T17:28:56.031,2029111,-997.0,1193.0,15977.0,-162.0,-53.0,-160.0,4041.0,5243.0,-3213.0,-69.64899624583387,-19.82777009337898,-41.270370021943606
2026-03-11T17:28:56.050,2029121,-967.0,1260.0,16419.0,-95.0,-64.0,-229.0,4029.0,5227.0,-3221.0,-69.0992503612346,-19.991200821979035,-41.571854178115956
2026-03-11T17:28:56.057,2029131,-847.0,1234.0,16600.0,-118.0,-93.0,-136.0,4029.0,5227.0,-3221.0,-68.78863741889447,-20.44451862849854,-41.01250445119101
2026-03-11T17:28:56.061,2029141,-936.0,1237.0,16372.0,-118.0,-93.0,-136.0,4044.0,5233.0,-3175.0,-68.48284826210532,-20.88177219955201,-40.5449643516859
2026-03-11T17:28:56.083,2029151,-976.0,1226.0,16290.0,-174.0,-57.0,-244.0,4044.0,5233.0,-3175.0,-68.73231094326366,-20.954355207447534,-41.116387129260964
2026-03-11T17:28:56.102,2029161,-750.0,1189.0,16513.0,-169.0,-53.0,-162.0,4042.0,5234.0,-3139.0,-68.93149651196028,-21.00279190036831,-40.89030342485782
2026-03-11T17:28:56.107,2029171,-522.0,1007.0,16492.0,-133.0,-9.0,-200.0,4042.0,5234.0,-3139.0,-68.78638384344158,-20.634745336888233,-41.02804907739612
2026-03-11T17:28:56.107,2029181,-1153.0,1160.0,15613.0,-157.0,-32.0,-202.0,4053.0,5233.0,-3155.0,-68.86427414595525,-20.451410715571313,-41.158318037694585
2026-03-11T17:28:56.112,2029191,-935.0,1255.0,16514.0,-158.0,-65.0,-154.0,4053.0,5233.0,-3155.0,-68.94847059143689,-20.614757482156648,-40.82876791632308
2026-03-11T17:28:56.122,2029201,-844.0,1118.0,16107.0,-162.0,-28.0,-219.0,4045.0,5228.0,-3177.0,-69.07768961223749,-20.41701543611374,-41.1034683112818
2026-03-11T17:28:56.133,2029211,-639.0,1065.0,16373.0,-161.0,-51.0,-125.0,4045.0,5228.0,-3177.0,-69.19950332196548,-20.46386956836122,-40.46682740015236
2026-03-11T17:28:56.142,2029221,-917.0,1207.0,16281.0,-161.0,-51.0,-224.0,4046.0,5236.0,-3205.0,-69.30851536033481,-20.490094602258694,-40.78479936942804
2026-03-11T17:28:56.152,2029231,-1067.0,1223.0,15878.0,-147.0,-42.0,-224.0,4046.0,5236.0,-3205.0,-69.27485505036745,-20.415229298234074,-41.08534090521074
2026-03-11T17:28:56.162,2029241,-833.0,1154.0,16036.0,-167.0,-55.0,-142.0,4042.0,5234.0,-3132.0,-69.44363624091378,-20.486605990445163,-40.6231530575621
2026-03-11T17:28:56.172,2029251,-610.0,1167.0,16714.0,-145.0,-39.0,-210.0,4042.0,5234.0,-3132.0,-69.3958833730381,-20.417372123517566,-40.829587410777926
2026-03-11T17:28:56.184,2029261,-967.0,1212.0,16235.0,-137.0,-59.0,-195.0,4037.0,5231.0,-3242.0,-69.26517745796592,-20.51924016400078,-40.83591681208597
2026-03-11T17:28:56.192,2029271,-696.0,1219.0,16933.0,-151.0,-76.0,-187.0,4037.0,5231.0,-3242.0,-69.27732196384808,-20.806702467213928,-40.77830604133811
2026-03-11T17:28:56.202,2029281,-751.0,1082.0,15988.0,-148.0,-71.0,-233.0,4023.0,5234.0,-3177.0,-69.26474288974796,-21.032703742829824,-41.20399430144426
2026-03-11T17:28:56.212,2029291,-674.0,1090.0,16340.0,-120.0,-60.0,-121.0,4023.0,5234.0,-3177.0,-68.97911998928281,-21.152913822830566,-40.56550470814683
2026-03-11T17:28:56.222,2029301,-1138.0,1145.0,15516.0,-171.0,-20.0,-211.0,4032.0,5226.0,-3244.0,-69.19092798676895,-20.842186833058154,-40.75295152032205
2026-03-11T17:28:56.232,2029311,-811.0,1175.0,16507.0,-171.0,-20.0,-211.0,4032.0,5226.0,-3244.0,-69.40147830012958,-20.565230477413554,-40.90682433719786
2026-03-11T17:28:56.242,2029321,-760.0,1138.0,16419.0,-112.0,-68.0,-157.0,4048.0,5229.0,-3172.0,-69.03175220113567,-20.767448422145055,-40.61017936528944
2026-03-11T17:28:56.253,2029331,-922.0,1143.0,16006.0,-134.0,-69.0,-220.0,4048.0,5229.0,-3172.0,-68.88262517281397,-20.962530796067266,-40.943780273124986
2026-03-11T17:28:56.262,2029341,-759.0,1061.0,16150.0,-106.0,-54.0,-130.0,4044.0,5215.0,-3167.0,-68.46859794581398,-21.018780881808112,-40.42991366019207
2026-03-11T17:28:56.272,2029351,-898.0,1247.0,16582.0,-120.0,-56.0,-163.0,4044.0,5215.0,-3167.0,-68.18921271364563,-21.085382868802093,-40.27337679386871
2026-03-11T17:28:56.284,2029361,-1163.0,1238.0,15915.0,-137.0,-16.0,-245.0,4047.0,5221.0,-3246.0,-68.0790688341662,-20.737136063244982,-40.85482569188768
2026-03-11T17:28:56.292,2029371,-744.0,1172.0,16633.0,-129.0,-75.0,-146.0,4047.0,5221.0,-3246.0,-67.90107680338424,-21.006296794823463,-40.48834938734812
2026-03-11T17:28:56.302,2029381,-843.0,1206.0,16411.0,-149.0,-42.0,-237.0,4043.0,5223.0,-3165.0,-67.91919613003529,-20.93911706206271,-41.04274997438069
2026-03-11T17:28:56.312,2029391,-1170.0,1234.0,15685.0,-171.0,-39.0,-151.0,4043.0,5223.0,-3165.0,-68.1466438844482,-20.817476670183122,-40.73467680878383
2026-03-11T17:28:56.337,2029401,-442.0,1049.0,16665.0,-171.0,-39.0,-151.0,4042.0,5244.0,-3151.0,-68.38747490741845,-20.753001530752808,-40.43767603204069
2026-03-11T17:28:56.337,2029411,-819.0,1170.0,16317.0,-140.0,-29.0,-236.0,4042.0,5244.0,-3151.0,-68.30969865657546,-20.564819655485167,-40.958956362799135
2026-03-11T17:28:56.342,2029421,-1259.0,1278.0,15810.0,-163.0,-25.0,-207.0,4042.0,5215.0,-3220.0,-68.44847566409189,-20.307757381820156,-41.11723683573922
2026-03-11T17:28:56.353,2029431,-963.0,1177.0,16199.0,-132.0,-20.0,-219.0,4042.0,5215.0,-3220.0,-68.28999134950317,-20.02973827551388,-41.37789415173884
2026-03-11T17:28:56.362,2029441,-771.0,1169.0,16473.0,-128.0,-35.0,-207.0,4040.0,5235.0,-3157.0,-68.09740816758779,-19.91868359444909,-41.554365401686496
2026-03-11T17:28:56.372,2029451,-754.0,1293.0,17325.0,-116.0,-81.0,-165.0,4040.0,5235.0,-3157.0,-67.78689624784474,-20.264408120474158,-41.35543470230982
2026-03-11T17:28:56.386,2029461,-1199.0,1238.0,15881.0,-136.0,-24.0,-250.0,4048.0,5234.0,-3197.0,-67.6748090087007,-20.00822847631739,-41.94865987560018
2026-03-11T17:28:56.392,2029471,-446.0,945.0,16322.0,-144.0,-66.0,-158.0,4048.0,5234.0,-3197.0,-67.66624137433006,-20.223611768517912,-41.648197931494614
2026-03-11T17:28:56.402,2029481,-1010.0,1236.0,16469.0,-144.0,-66.0,-158.0,4054.0,5222.0,-3231.0,-67.6382763979409,-20.395947827551637,-41.35233734501471
2026-03-11T17:28:56.412,2029491,-858.0,935.0,15254.0,-141.0,-67.0,-219.0,4054.0,5222.0,-3231.0,-67.59715928614305,-20.580362143699137,-41.661151434687646
2026-03-11T17:28:56.422,2029501,-662.0,1285.0,17221.0,-114.0,-65.0,-125.0,4031.0,5240.0,-3167.0,-67.27706811102173,-20.761847882070057,-41.121338692075085
2026-03-11T17:28:56.432,2029511,-1065.0,1211.0,15970.0,-113.0,-84.0,-183.0,4031.0,5240.0,-3167.0,-66.95219831496473,-21.093723414645062,-41.1915606504181
2026-03-11T17:28:56.442,2029521,-427.0,977.0,16419.0,-131.0,-71.0,-178.0,4041.0,5217.0,-3187.0,-66.82884782754695,-21.33790704302855,-41.213571587317524
2026-03-11T17:28:56.453,2029531,-891.0,1160.0,15962.0,-140.0,-19.0,-172.0,4041.0,5217.0,-3187.0,-66.78114034901081,-21.033617844853985,-41.166936499837675
2026-03-11T17:28:56.462,2029541,-1165.0,1157.0,15459.0,-185.0,-19.0,-253.0,4035.0,5237.0,-3208.0,-67.17291322789877,-20.713190987089263,-41.84984120092992
2026-03-11T17:28:56.472,2029551,-768.0,1128.0,16116.0,-142.0,-73.0,-173.0,4035.0,5237.0,-3208.0,-67.14097999543186,-20.959893379014094,-41.75107910921633
2026-03-11T17:28:56.484,2029561,-955.0,1238.0,16238.0,-153.0,-44.0,-228.0,4050.0,5236.0,-3185.0,-67.21036342903189,-20.904773059464908,-42.187148347064834
2026-03-11T17:28:56.492,2029571,-964.0,1266.0,16370.0,-153.0,-44.0,-228.0,4050.0,5236.0,-3185.0,-67.27711100304087,-20.85067472921117,-42.59543910420941
2026-03-11T17:28:56.502,2029581,-797.0,1088.0,16006.0,-116.0,-76.0,-136.0,4042.0,5228.0,-3206.0,-66.99059537039794,-21.121579843350617,-42.12295107761308
2026-03-11T17:28:56.512,2029591,-712.0,1266.0,17305.0,-138.0,-41.0,-220.0,4042.0,5228.0,-3206.0,-66.91949959891595,-21.05395252281352,-42.47300307311653
2026-03-11T17:28:56.539,2029601,-968.0,1208.0,16136.0,-152.0,-58.0,-180.0,4041.0,5237.0,-3171.0,-66.98508190342456,-21.132803333960634,-42.445467878019436
2026-03-11T17:28:56.544,2029611,-742.0,1076.0,16137.0,-134.0,-42.0,-175.0,4041.0,5237.0,-3171.0,-66.88228462918673,-21.06921018188106,-42.37462301226003
2026-03-11T17:28:56.545,2029621,-829.0,1120.0,16004.0,-165.0,-61.0,-186.0,4055.0,5232.0,-3160.0,-67.08157542856515,-21.18646550633432,-42.41236055385988
2026-03-11T17:28:56.552,2029631,-696.0,1059.0,16295.0,-156.0,-58.0,-108.0,4055.0,5232.0,-3160.0,-67.19437629531254,-21.282323869969954,-41.70528827895477
2026-03-11T17:28:56.564,2029641,-1162.0,1162.0,15595.0,-184.0,-34.0,-211.0,4037.0,5226.0,-3232.0,-67.56846287169306,-21.104886232764418,-41.943217818113624
2026-03-11T17:28:56.571,2029651,-970.0,1300.0,16602.0,-184.0,-34.0,-166.0,4037.0,5226.0,-3232.0,-67.93074676768322,-20.949316101155556,-41.71515865744316
2026-03-11T17:28:56.585,2029661,-690.0,1124.0,16358.0,-169.0,-62.0,-166.0,4049.0,5235.0,-3205.0,-68.14971661218185,-21.089735829554517,-41.51035800766223
2026-03-11T17:28:56.594,2029671,-789.0,1139.0,16354.0,-120.0,-22.0,-265.0,4049.0,5235.0,-3205.0,-67.88304185755207,-20.828432448019853,-42.25928667702013
2026-03-11T17:28:56.602,2029681,-858.0,1123.0,16144.0,-164.0,-42.0,-136.0,4058.0,5239.0,-3208.0,-68.05299767111694,-20.762765833403055,-41.73358691583037
2026-03-11T17:28:56.612,2029691,-901.0,1172.0,16262.0,-163.0,-79.0,-175.0,4058.0,5239.0,-3208.0,-68.2068942876471,-21.058449379569915,-41.609378531498635
2026-03-11T17:28:56.622,2029701,-578.0,1191.0,17064.0,-142.0,-59.0,-177.0,4063.0,5244.0,-3147.0,-68.15450550272028,-21.17677431523211,-41.55188801713468
2026-03-11T17:28:56.631,2029711,-1280.0,1149.0,15026.0,-139.0,-31.0,-155.0,4063.0,5244.0,-3147.0,-68.06616033507336,-20.959940434393936,-41.28352585063942
2026-03-11T17:28:56.642,2029721,-406.0,1044.0,16661.0,-131.0,-61.0,-213.0,4057.0,5241.0,-3126.0,-67.91692632021595,-21.110677780665505,-41.60385433306111
2026-03-11T17:28:56.652,2029731,-930.0,902.0,14898.0,-164.0,-74.0,-121.0,4057.0,5241.0,-3126.0,-68.09649287790819,-21.34235397705281,-41.03459977471652
2026-03-11T17:28:56.662,2029741,-921.0,1365.0,17022.0,-164.0,-74.0,-121.0,4027.0,5233.0,-3175.0,-68.25006786973475,-21.578963685776724,-40.46471320242769
2026-03-11T17:28:56.672,2029751,-325.0,947.0,16554.0,-172.0,-17.0,-230.0,4027.0,5233.0,-3175.0,-68.50518381383884,-21.291526573624534,-40.93221688369666
2026-03-11T17:28:56.682,2029761,-688.0,1051.0,16100.0,-182.0,-58.0,-127.0,4036.0,5224.0,-3163.0,-68.84398132442998,-21.385261313862785,-40.38918471715913
2026-03-11T17:28:56.693,2029771,-1117.0,1295.0,16223.0,-154.0,-46.0,-216.0,4036.0,5224.0,-3163.0,-68.88502260391112,-21.329829848074667,-40.71409671064208
2026-03-11T17:28:56.702,2029781,-1129.0,1256.0,15943.0,-164.0,-55.0,-205.0,4050.0,5222.0,-3157.0,-69.02443224011029,-21.361470135905925,-40.91679157115858
2026-03-11T17:28:56.712,2029791,-894.0,1224.0,16452.0,-142.0,-50.0,-174.0,4050.0,5222.0,-3157.0,-68.95044625770507,-21.362204094787433,-40.81890098848483
2026-03-11T17:28:56.722,2029801,-481.0,1170.0,17150.0,-209.0,-29.0,-222.0,4051.0,5230.0,-3179.0,-69.54158211142418,-21.187103817728467,-41.132128879926185
2026-03-11T17:28:56.732,2029811,-197.0,862.0,16346.0,-155.0,-83.0,-173.0,4051.0,5230.0,-3179.0,-69.60937697646584,-21.562971135167324,-40.977480467604664
2026-03-11T17:28:56.744,2029821,-1283.0,1301.0,15988.0,-154.0,-16.0,-273.0,4050.0,5220.0,-3161.0,-69.63334724305595,-21.197052288852056,-41.76996370995078
2026-03-11T17:28:56.752,2029831,-800.0,1161.0,16482.0,-154.0,-16.0,-273.0,4050.0,5220.0,-3161.0,-69.66929456255654,-20.874471796131044,-42.506248269021
2026-03-11T17:28:56.762,2029841,-908.0,1099.0,15799.0,-124.0,-65.0,-161.0,4041.0,5215.0,-3182.0,-69.41152541591465,-21.02835491478617,-42.14944478323502
2026-03-11T17:28:56.772,2029851,-679.0,1074.0,16326.0,-158.0,-43.0,-225.0,4041.0,5215.0,-3182.0,-69.49641972770434,-20.9816591349334,-42.41172027521337
2026-03-11T17:28:56.783,2029861,-1091.0,1111.0,15237.0,-131.0,-92.0,-154.0,4047.0,5219.0,-3206.0,-69.30688494041537,-21.38193200870114,-42.00400854393805
2026-03-11T17:28:56.797,2029871,-1286.0,941.0,14099.0,-173.0,-82.0,-190.0,4047.0,5219.0,-3206.0,-69.5397794341617,-21.653890486708985,-41.958298994358174
2026-03-11T17:28:56.802,2029881,-1304.0,1218.0,15439.0,-178.0,-51.0,-245.0,4042.0,5228.0,-3228.0,-69.80316813342226,-21.624353848643434,-42.411312581213735
2026-03-11T17:28:56.812,2029891,-1613.0,1401.0,15617.0,-165.0,-72.0,-181.0,4042.0,5228.0,-3228.0,-69.92157921140105,-21.7799976291459,-42.23430150880354
2026-03-11T17:28:56.822,2029901,-505.0,1221.0,17302.0,-215.0,-28.0,-246.0,4053.0,5217.0,-3182.0,-70.54941434831551,-21.585443801596046,-42.664091698205254
2026-03-11T17:28:56.832,2029911,-42.0,833.0,16681.0,-215.0,-28.0,-246.0,4053.0,5217.0,-3182.0,-71.18824990782566,-21.425253296388465,-43.03013942946966
2026-03-11T17:28:56.842,2029921,-632.0,900.0,15531.0,-206.0,-37.0,-122.0,4045.0,5229.0,-3134.0,-71.71695486384769,-21.312821388574235,-42.19165481744044
2026-03-11T17:28:56.852,2029931,-677.0,785.0,14588.0,-182.0,-45.0,-233.0,4045.0,5229.0,-3134.0,-72.00461191507156,-21.274500094485056,-42.43195852183026
2026-03-11T17:28:56.896,2029941,-860.0,1046.0,15431.0,-170.0,-14.0,-215.0,4035.0,5228.0,-3155.0,-72.15296171567996,-20.922557729204282,-42.4515317453371
2026-03-11T17:28:56.902,2029951,-828.0,998.0,15414.0,-192.0,-63.0,-188.0,4035.0,5228.0,-3155.0,-72.51741206294672,-21.0601383236154,-42.19989841546695
2026-03-11T17:28:56.902,2029961,-707.0,1330.0,17322.0,-151.0,-65.0,-235.0,4032.0,5225.0,-3210.0,-72.45905159851063,-21.22932781771246,-42.3886571172633
2026-03-11T17:28:56.902,2029971,-816.0,1112.0,15959.0,-141.0,-35.0,-149.0,4032.0,5225.0,-3210.0,-72.31195367288355,-21.089341755341767,-41.75249948099122
2026-03-11T17:28:56.902,2029981,-417.0,1104.0,17048.0,-166.0,-36.0,-244.0,4044.0,5215.0,-3164.0,-72.41841049322943,-20.992389568710916,-42.06473592272217
2026-03-11T17:28:56.912,2029991,-915.0,952.0,15132.0,-116.0,-28.0,-154.0,4044.0,5215.0,-3164.0,-72.0348441498566,-20.77787118023776,-41.51745661956818
2026-03-11T17:28:56.922,2030001,-710.0,1142.0,16521.0,-116.0,-28.0,-154.0,4056.0,5222.0,-3219.0,-71.65186263066566,-20.58761464078992,-40.98439518153204
2026-03-11T17:28:56.932,2030011,-1077.0,1171.0,15943.0,-136.0,-52.0,-254.0,4056.0,5222.0,-3219.0,-71.46760970276763,-20.608376583821617,-41.439148299891755
2026-03-11T17:28:56.942,2030021,-1226.0,1294.0,16096.0,-136.0,-45.0,-163.0,4045.0,5221.0,-3174.0,-71.27913202173941,-20.550374245649554,-41.0358620094925
2026-03-11T17:28:56.952,2030031,-10.0,1074.0,17967.0,-136.0,-33.0,-229.0,4045.0,5221.0,-3174.0,-71.11793224897035,-20.462130108179345,-41.284567924490794
2026-03-11T17:28:56.962,2030041,-857.0,1004.0,15478.0,-157.0,-25.0,-197.0,4045.0,5216.0,-3192.0,-71.15994633377821,-20.23463678448517,-41.19349181043972
2026-03-11T17:28:56.972,2030051,-647.0,1259.0,17125.0,-111.0,-18.0,-169.0,4045.0,5216.0,-3192.0,-70.7404529908183,-19.96318713086368,-40.851663679215015
2026-03-11T17:28:56.982,2030061,-772.0,925.0,15218.0,-170.0,-17.0,-255.0,4056.0,5224.0,-3155.0,-70.92207700934806,-19.672548384134974,-41.3431734847753
2026-03-11T17:28:57.009,2030071,-1506.0,1404.0,15707.0,-173.0,-14.0,-156.0,4056.0,5224.0,-3155.0,-71.09687713466792,-19.307193299981964,-40.842775002307015
2026-03-11T17:28:57.009,2030081,-479.0,1006.0,16304.0,-173.0,-14.0,-289.0,4043.0,5226.0,-3128.0,-71.29972309041669,-19.024656774668614,-41.61881269463575
2026-03-11T17:28:57.012,2030091,-403.0,742.0,15195.0,-121.0,-17.0,-289.0,4043.0,5226.0,-3128.0,-71.00361586146707,-18.780415069208317,-42.36136202989935
2026-03-11T17:28:57.022,2030101,-1197.0,1324.0,15953.0,-155.0,-50.0,-210.0,4060.0,5225.0,-3143.0,-71.00765712104025,-18.809279155044873,-42.31201335728783
2026-03-11T17:28:57.032,2030111,-944.0,1087.0,15632.0,-156.0,-48.0,-255.0,4060.0,5225.0,-3143.0,-71.03674868257274,-18.834542971676452,-42.692173913419424
2026-03-11T17:28:57.042,2030121,-1348.0,1358.0,15802.0,-140.0,-52.0,-185.0,4034.0,5229.0,-3184.0,-70.88977682069793,-18.87029152028754,-42.37290534805581
2026-03-11T17:28:57.052,2030131,-735.0,1031.0,15852.0,-159.0,-60.0,-215.0,4034.0,5229.0,-3184.0,-70.95575677469353,-19.027903529147594,-42.35824856750134
2026-03-11T17:28:57.062,2030141,-987.0,1267.0,16437.0,-193.0,-34.0,-258.0,4035.0,5234.0,-3160.0,-71.33988627370357,-18.9120214537872,-42.73951380992226
2026-03-11T17:28:57.072,2030151,-1156.0,1285.0,16193.0,-132.0,-17.0,-133.0,4035.0,5234.0,-3160.0,-71.11594426048565,-18.618969020417037,-41.913161615463736
2026-03-11T17:28:57.082,2030161,-850.0,1092.0,16085.0,-170.0,-24.0,-248.0,4051.0,5207.0,-3232.0,-71.28194911390604,-18.421429526911435,-42.16125962615762
2026-03-11T17:28:57.092,2030171,-218.0,1134.0,17715.0,-170.0,-24.0,-248.0,4051.0,5207.0,-3232.0,-71.44905595877857,-18.274128861420422,-42.38049273887185
2026-03-11T17:28:57.103,2030181,-975.0,1187.0,16315.0,-159.0,-50.0,-169.0,4051.0,5227.0,-3161.0,-71.49505023588902,-18.33042651074736,-41.87979539048449
2026-03-11T17:28:57.112,2030191,-667.0,1075.0,16362.0,-168.0,-45.0,-211.0,4051.0,5227.0,-3161.0,-71.63636946431328,-18.358230697474397,-41.796414294832545
2026-03-11T17:28:57.122,2030201,-665.0,1037.0,16094.0,-172.0,-59.0,-186.0,4048.0,5240.0,-3184.0,-71.81550813506736,-18.522041879330263,-41.4669181885471
2026-03-11T17:28:57.132,2030211,-775.0,1113.0,16070.0,-102.0,-56.0,-162.0,4048.0,5240.0,-3184.0,-71.29955898153905,-18.645312082826475,-40.961072494969265
2026-03-11T17:28:57.142,2030221,-845.0,1198.0,16223.0,-144.0,-99.0,-172.0,4039.0,5228.0,-3198.0,-71.20030009469603,-19.18313458980464,-40.59521100943637
2026-03-11T17:28:57.160,2030231,-876.0,1297.0,16701.0,-153.0,-88.0,-183.0,4039.0,5228.0,-3198.0,-71.18688052568827,-19.60200136320789,-40.37256848549296
2026-03-11T17:28:57.162,2030241,-807.0,1017.0,15508.0,-189.0,-77.0,-264.0,4040.0,5243.0,-3218.0,-71.54030230298478,-19.905111778033337,-40.91740303436442
2026-03-11T17:28:57.175,2030251,-877.0,1215.0,16290.0,-156.0,-71.0,-125.0,4040.0,5243.0,-3218.0,-71.55298537585467,-20.141347109546373,-40.124900650200445
2026-03-11T17:28:57.182,2030261,-1180.0,1369.0,16293.0,-156.0,-71.0,-125.0,4055.0,5234.0,-3202.0,-71.55466710386587,-20.351763224223554,-39.391197701071064
2026-03-11T17:28:57.193,2030271,-427.0,920.0,16205.0,-171.0,-34.0,-207.0,4055.0,5234.0,-3202.0,-71.73438691355224,-20.247788702853086,-39.45829899606064
2026-03-11T17:28:57.205,2030281,-842.0,1250.0,16734.0,-168.0,-74.0,-148.0,4054.0,5221.0,-3217.0,-71.86065999743369,-20.510582589414902,-38.95651725113444
2026-03-11T17:28:57.212,2030291,-806.0,1076.0,15887.0,-174.0,-76.0,-188.0,4054.0,5221.0,-3217.0,-72.05115419157838,-20.787217196438526,-38.86233082215182
2026-03-11T17:28:57.222,2030301,-748.0,1043.0,15907.0,-184.0,-31.0,-225.0,4050.0,5223.0,-3201.0,-72.33830240584767,-20.621542962924163,-39.108611133327564
2026-03-11T17:28:57.232,2030311,-796.0,1136.0,16190.0,-130.0,-39.0,-160.0,4050.0,5223.0,-3201.0,-72.08526272907345,-20.535155024896245,-38.73502246082761
2026-03-11T17:28:57.242,2030321,-1342.0,1353.0,16057.0,-146.0,-33.0,-208.0,4041.0,5227.0,-3229.0,-71.97802752872215,-20.352637370319222,-38.81786622794123
2026-03-11T17:28:57.252,2030331,-540.0,1005.0,16361.0,-137.0,-4.0,-138.0,4041.0,5227.0,-3229.0,-71.81076565381379,-19.947048115125586,-38.2217233347482
2026-03-11T17:28:57.262,2030341,-1352.0,1204.0,15367.0,-137.0,-4.0,-138.0,4035.0,5226.0,-3156.0,-71.6275512269238,-19.48705325411112,-37.68124980505807
2026-03-11T17:28:57.279,2030351,-790.0,1051.0,15963.0,-130.0,-27.0,-237.0,4035.0,5226.0,-3156.0,-71.39366213609173,-19.305369914046132,-38.112939927270965
2026-03-11T17:28:57.285,2030361,-870.0,1296.0,16731.0,-163.0,-55.0,-156.0,4055.0,5221.0,-3186.0,-71.47460202244893,-19.398906833638474,-37.740025799382366
2026-03-11T17:28:57.292,2030371,-879.0,1022.0,15471.0,-101.0,-30.0,-226.0,4055.0,5221.0,-3186.0,-70.95932167746352,-19.240033439575996,-38.07220763874653
2026-03-11T17:28:57.310,2030381,-499.0,1104.0,16814.0,-143.0,-35.0,-226.0,4047.0,5211.0,-3231.0,-70.86640276568926,-19.164307675647212,-38.36242242407068
2026-03-11T17:28:57.319,2030391,-1023.0,1204.0,15864.0,-138.0,-38.0,-183.0,4047.0,5211.0,-3231.0,-70.71467173085493,-19.079839639695813,-38.23419223994631
2026-03-11T17:28:57.322,2030401,-1153.0,1159.0,15437.0,-119.0,-12.0,-248.0,4045.0,5240.0,-3160.0,-70.38070480493992,-18.730651147724156,-38.775433191108235
2026-03-11T17:28:57.332,2030411,-477.0,1245.0,17463.0,-132.0,-59.0,-175.0,4045.0,5240.0,-3160.0,-70.1851322644064,-18.903024528481396,-38.61518463608507
2026-03-11T17:28:57.344,2030421,-750.0,958.0,15376.0,-139.0,-43.0,-252.0,4062.0,5228.0,-3172.0,-70.07232564310877,-18.89062153506654,-39.19412855242009
2026-03-11T17:28:57.352,2030431,-1092.0,1345.0,16430.0,-139.0,-43.0,-252.0,4062.0,5228.0,-3172.0,-69.93948038668046,-18.858411875851008,-39.75011283255406
2026-03-11T17:28:57.362,2030441,-719.0,1066.0,16159.0,-160.0,-35.0,-148.0,4043.0,5215.0,-3228.0,-70.03320475939461,-18.773399727827158,-39.24580135368909
2026-03-11T17:28:57.372,2030451,-540.0,1069.0,16549.0,-171.0,-28.0,-239.0,4043.0,5215.0,-3228.0,-70.23442174404927,-18.63503103072505,-39.6133873909635
2026-03-11T17:28:57.382,2030461,-1241.0,1236.0,15793.0,-155.0,-27.0,-198.0,4052.0,5225.0,-3150.0,-70.25923349773704,-18.4373428479966,-39.607397761803114
2026-03-11T17:28:57.392,2030471,-175.0,922.0,16863.0,-153.0,-40.0,-207.0,4052.0,5225.0,-3150.0,-70.29085716332075,-18.448722125969503,-39.68594322918272
2026-03-11T17:28:57.414,2030481,-916.0,1216.0,16410.0,-149.0,-9.0,-237.0,4047.0,5222.0,-3177.0,-70.26048125779853,-18.10422377093607,-40.015437488850175
2026-03-11T17:28:57.419,2030491,-984.0,1139.0,15840.0,-97.0,-43.0,-148.0,4047.0,5222.0,-3177.0,-69.7236143549688,-18.09262760931445,-39.51299418392934
2026-03-11T17:28:57.422,2030501,-444.0,1114.0,16893.0,-170.0,-32.0,-250.0,4040.0,5216.0,-3181.0,-69.91968452050124,-18.014329032419912,-39.98541322776302
2026-03-11T17:28:57.496,2030511,-896.0,1154.0,16165.0,-170.0,-32.0,-160.0,4040.0,5216.0,-3181.0,-70.10562383459084,-17.904351859956556,-39.56347829444264
2026-03-11T17:28:57.496,2030521,-750.0,1179.0,16672.0,-153.0,-72.0,-160.0,4038.0,5224.0,-3150.0,-70.12200990251128,-18.20047800722654,-39.19338463875978
2026-03-11T17:28:57.496,2030531,-931.0,1170.0,16004.0,-142.0,-18.0,-242.0,4038.0,5224.0,-3150.0,-70.02754433989658,-17.94645902373079,-39.61439568079867
2026-03-11T17:28:57.496,2030541,-774.0,1133.0,16359.0,-166.0,-45.0,-125.0,4048.0,5228.0,-3220.0,-70.174555577169,-17.974482354380832,-38.860762943464465
2026-03-11T17:28:57.496,2030551,-765.0,1215.0,16562.0,-161.0,-32.0,-215.0,4048.0,5228.0,-3220.0,-70.26494961181479,-17.875841931481524,-38.990028963257835
2026-03-11T17:28:57.496,2030561,-1240.0,1333.0,16092.0,-168.0,-31.0,-197.0,4043.0,5214.0,-3144.0,-70.41134356227629,-17.734298142763087,-38.963870914824504
2026-03-11T17:28:57.496,2030571,-105.0,1074.0,17478.0,-176.0,-55.0,-146.0,4043.0,5214.0,-3144.0,-70.65759011987497,-17.911741074731403,-38.44875468385421
2026-03-11T17:28:57.502,2030581,-983.0,1160.0,15828.0,-140.0,-54.0,-240.0,4049.0,5227.0,-3133.0,-70.53260650961815,-18.011819931196406,-38.87365687966083
2026-03-11T17:28:57.512,2030591,-806.0,1147.0,16264.0,-146.0,-80.0,-124.0,4049.0,5227.0,-3133.0,-70.4720735743858,-18.378981819385718,-38.195876995722216
2026-03-11T17:28:57.522,2030601,-725.0,1070.0,16186.0,-146.0,-80.0,-124.0,4067.0,5233.0,-3209.0,-70.41778967987798,-18.744220414445753,-37.5357456092962
2026-03-11T17:28:57.532,2030611,-856.0,1191.0,16441.0,-139.0,-18.0,-239.0,4067.0,5233.0,-3209.0,-70.28876753757493,-18.48628328930425,-37.996380788843894
2026-03-11T17:28:57.542,2030621,-826.0,1191.0,16404.0,-196.0,-72.0,-177.0,4059.0,5234.0,-3150.0,-70.72073958226531,-18.7646564734607,-37.86374413398297
2026-03-11T17:28:57.553,2030631,-867.0,1147.0,16145.0,-152.0,-63.0,-210.0,4059.0,5234.0,-3150.0,-70.71465129632696,-18.945440033935633,-38.06000912348268
2026-03-11T17:28:57.565,2030641,-783.0,1189.0,16653.0,-135.0,-51.0,-154.0,4045.0,5225.0,-3210.0,-70.54168016590619,-19.01262809747047,-37.691473707072056
2026-03-11T17:28:57.572,2030651,-855.0,1161.0,16323.0,-132.0,-59.0,-180.0,4045.0,5225.0,-3210.0,-70.34307847612041,-19.150758034880212,-37.60599357772376
2026-03-11T17:28:57.583,2030661,-1183.0,1257.0,16025.0,-161.0,-36.0,-248.0,4050.0,5223.0,-3172.0,-70.42431503159759,-19.036359739817712,-38.1814386083957
2026-03-11T17:28:57.592,2030671,-771.0,1084.0,15964.0,-148.0,-86.0,-150.0,4050.0,5223.0,-3172.0,-70.38853713532284,-19.443259038145598,-37.81799277557985
2026-03-11T17:28:57.602,2030681,-665.0,1123.0,16516.0,-148.0,-58.0,-227.0,4050.0,5229.0,-3206.0,-70.35336998206405,-19.576785753686508,-38.19560348152181
2026-03-11T17:28:57.614,2030691,-1529.0,1461.0,15894.0,-98.0,-58.0,-227.0,4050.0,5229.0,-3206.0,-69.80166350657201,-19.644209913528574,-38.58829982359751
2026-03-11T17:28:57.622,2030701,-682.0,1144.0,16621.0,-107.0,-59.0,-187.0,4047.0,5234.0,-3227.0,-69.37548267724694,-19.78264317180889,-38.60101299124549
2026-03-11T17:28:57.632,2030711,-764.0,1133.0,16165.0,-162.0,-28.0,-258.0,4047.0,5234.0,-3227.0,-69.4953872781424,-19.607403872023447,-39.27287912642823
2026-03-11T17:28:57.642,2030721,-1131.0,1326.0,16269.0,-187.0,-38.0,-179.0,4039.0,5221.0,-3172.0,-69.84488801695683,-19.508383201795052,-39.161684125685746
2026-03-11T17:28:57.652,2030731,-901.0,1069.0,15687.0,-154.0,-55.0,-197.0,4039.0,5221.0,-3172.0,-69.87922169478388,-19.591622645590537,-39.22894860061632
2026-03-11T17:28:57.674,2030741,-1173.0,1313.0,16403.0,-166.0,-33.0,-206.0,4049.0,5225.0,-3173.0,-70.01690607983012,-19.441643479496854,-39.36557733226224
2026-03-11T17:28:57.674,2030751,-924.0,1479.0,17603.0,-109.0,-89.0,-161.0,4049.0,5225.0,-3173.0,-69.58871399598493,-19.86512606186756,-39.111180287896964
2026-03-11T17:28:57.684,2030761,-633.0,1187.0,16953.0,-116.0,-45.0,-278.0,4049.0,5225.0,-3221.0,-69.25363675069049,-19.866160960741798,-39.97444163426821
2026-03-11T17:28:57.692,2030771,-28.0,1039.0,17648.0,-116.0,-45.0,-278.0,4049.0,5225.0,-3221.0,-68.93797770741268,-19.908022796604424,-40.813973963409936
2026-03-11T17:28:57.702,2030781,-417.0,981.0,16315.0,-127.0,-37.0,-141.0,4049.0,5229.0,-3223.0,-68.73499857867074,-19.84323268302993,-40.318161284378206
2026-03-11T17:28:57.718,2030791,-690.0,832.0,14849.0,-138.0,-47.0,-234.0,4049.0,5229.0,-3223.0,-68.64855920846755,-19.85384136572021,-40.73591758693688
2026-03-11T17:28:57.725,2030801,-1049.0,1119.0,15334.0,-146.0,-87.0,-205.0,4061.0,5229.0,-3131.0,-68.62291270218,-20.231301259058462,-40.92559032539659
2026-03-11T17:28:57.732,2030811,-1598.0,1326.0,15136.0,-144.0,-70.0,-255.0,4061.0,5229.0,-3131.0,-68.56152134493868,-20.392596966497134,-41.591334788821904
2026-03-11T17:28:57.742,2030821,-1160.0,1283.0,16292.0,-171.0,-62.0,-168.0,4056.0,5226.0,-3167.0,-68.77603556949522,-20.511143175303566,-41.37061927885024
2026-03-11T17:28:57.752,2030831,-1168.0,1413.0,16616.0,-137.0,-34.0,-147.0,4056.0,5226.0,-3167.0,-68.6459017791357,-20.353990217206217,-40.9615506007641
2026-03-11T17:28:57.762,2030841,-434.0,979.0,16492.0,-173.0,-51.0,-237.0,4057.0,5231.0,-3195.0,-68.90043950436403,-20.416614653262545,-41.403277676559796
2026-03-11T17:28:57.772,2030851,-1072.0,986.0,14828.0,-165.0,-57.0,-136.0,4057.0,5231.0,-3195.0,-69.06334413085206,-20.484363127455932,-40.85750699532315
2026-03-11T17:28:57.787,2030861,-724.0,1212.0,16939.0,-165.0,-57.0,-136.0,4047.0,5227.0,-3181.0,-69.21722549397975,-20.584452055386247,-40.34011979353722
2026-03-11T17:28:57.792,2030871,-1233.0,1198.0,15587.0,-153.0,-40.0,-245.0,4047.0,5227.0,-3181.0,-69.24437996229554,-20.47456934352629,-40.87764170163018
2026-03-11T17:28:57.802,2030881,-734.0,1008.0,15966.0,-169.0,-76.0,-150.0,4051.0,5229.0,-3197.0,-69.44344183789241,-20.75733865632175,-40.48025300994536
2026-03-11T17:28:57.821,2030891,-1427.0,1416.0,16023.0,-150.0,-55.0,-197.0,4051.0,5229.0,-3197.0,-69.4235674424604,-20.779798869101146,-40.55134350344522
2026-03-11T17:28:57.830,2030901,-353.0,1003.0,16713.0,-115.0,-47.0,-183.0,4041.0,5240.0,-3186.0,-69.09340845633032,-20.800646730721397,-40.51151253085472
2026-03-11T17:28:57.832,2030911,-924.0,1157.0,16029.0,-115.0,-48.0,-152.0,4041.0,5240.0,-3186.0,-68.75596939014461,-20.789220771316756,-40.19722210048555
2026-03-11T17:28:57.842,2030921,-481.0,974.0,16313.0,-139.0,-20.0,-206.0,4053.0,5212.0,-3189.0,-68.67471197020436,-20.5357180484465,-40.39899515077016
2026-03-11T17:28:57.852,2030931,-796.0,932.0,15221.0,-147.0,-65.0,-149.0,4053.0,5212.0,-3189.0,-68.67173944443594,-20.70224295402707,-40.0567985749075
2026-03-11T17:28:57.862,2030941,-1158.0,1385.0,16523.0,-147.0,-65.0,-248.0,4043.0,5219.0,-3170.0,-68.6430751090872,-20.845298000837072,-40.69017930927065
2026-03-11T17:28:57.877,2030951,-259.0,1068.0,17079.0,-127.0,-26.0,-248.0,4043.0,5219.0,-3170.0,-68.44324932539422,-20.665849635785772,-41.294825801871305
2026-03-11T17:28:57.882,2030961,-855.0,1220.0,16164.0,-152.0,-65.0,-132.0,4045.0,5231.0,-3179.0,-68.47765846837373,-20.829146939369256,-40.77073425966932
2026-03-11T17:28:57.893,2030971,-1118.0,1217.0,15838.0,-179.0,-19.0,-274.0,4045.0,5231.0,-3179.0,-68.77442525047877,-20.518244672112047,-41.59167545041359
2026-03-11T17:28:57.902,2030981,-630.0,1094.0,16375.0,-147.0,-22.0,-189.0,4055.0,5241.0,-3172.0,-68.76309268714286,-20.27951229560627,-41.561162144232156
2026-03-11T17:28:57.912,2030991,-837.0,1008.0,15541.0,-154.0,-24.0,-189.0,4055.0,5241.0,-3172.0,-68.82280992001238,-20.047594461047357,-41.51846317579967
2026-03-11T17:28:57.922,2031001,-1271.0,1336.0,16164.0,-141.0,-2.0,-234.0,4050.0,5227.0,-3204.0,-68.73365537697796,-19.576626830135904,-41.86865405119539
2026-03-11T17:28:57.932,2031011,-701.0,1145.0,16737.0,-146.0,-60.0,-150.0,4050.0,5227.0,-3204.0,-68.71151064379177,-19.72523937789376,-41.411274259058146
2026-03-11T17:28:57.942,2031021,-940.0,1214.0,16467.0,-133.0,-21.0,-247.0,4054.0,5219.0,-3226.0,-68.55635241866882,-19.471368681840865,-41.88276757717923
2026-03-11T17:28:57.952,2031031,-616.0,979.0,16094.0,-133.0,-21.0,-247.0,4054.0,5219.0,-3226.0,-68.41900497160084,-19.24398344035157,-42.32807693709705
2026-03-11T17:28:57.962,2031041,-1208.0,1316.0,16146.0,-132.0,-45.0,-132.0,4049.0,5246.0,-3191.0,-68.25103158842728,-19.214810699188707,-41.69024403939975
2026-03-11T17:28:57.973,2031051,-231.0,1057.0,17267.0,-171.0,-53.0,-222.0,4049.0,5246.0,-3191.0,-68.49175111832477,-19.334613840952034,-41.93119686696348
2026-03-11T17:28:57.982,2031061,-906.0,998.0,15119.0,-151.0,-78.0,-125.0,4058.0,5232.0,-3152.0,-68.52618417847108,-19.643883635742633,-41.26936527865087
2026-03-11T17:28:57.993,2031071,-1503.0,1327.0,15234.0,-149.0,-71.0,-201.0,4058.0,5232.0,-3152.0,-68.51629364823556,-19.83453601807463,-41.371703041275964
2026-03-11T17:28:58.002,2031081,-755.0,1351.0,17262.0,-147.0,-32.0,-209.0,4071.0,5241.0,-3188.0,-68.49706582899748,-19.70151002700831,-41.52479633393136
2026-03-11T17:28:58.012,2031091,-560.0,943.0,15762.0,-147.0,-68.0,-120.0,4071.0,5241.0,-3188.0,-68.49924894500236,-19.933256872764396,-40.83499858672708
2026-03-11T17:28:58.027,2031101,-1193.0,1418.0,16402.0,-168.0,-51.0,-185.0,4064.0,5240.0,-3173.0,-68.67684198567595,-19.95149816156259,-40.79488415520079
2026-03-11T17:28:58.032,2031111,-108.0,998.0,17355.0,-168.0,-103.0,-144.0,4064.0,5240.0,-3173.0,-68.88388171383326,-20.55474902947819,-40.38292689799456
2026-03-11T17:28:58.042,2031121,-1120.0,1092.0,15095.0,-143.0,-103.0,-144.0,4056.0,5236.0,-3157.0,-68.82485060109967,-21.068406738753822,-40.024189952622045
2026-03-11T17:28:58.052,2031131,-1430.0,1403.0,16397.0,-133.0,-40.0,-290.0,4056.0,5236.0,-3157.0,-68.65394220887956,-20.93971538633974,-41.07397608185706
2026-03-11T17:28:58.062,2031141,-811.0,1321.0,17074.0,-149.0,-59.0,-145.0,4065.0,5223.0,-3172.0,-68.65258117756012,-21.044893790427317,-40.689211172090225
2026-03-11T17:28:58.072,2031151,-639.0,927.0,15707.0,-122.0,-34.0,-226.0,4065.0,5223.0,-3172.0,-68.40757795410292,-20.91068374419459,-41.100517782174634
2026-03-11T17:28:58.082,2031161,-1239.0,1318.0,15927.0,-157.0,-31.0,-166.0,4062.0,5218.0,-3172.0,-68.48341452199666,-20.70760753310494,-40.90664108177227
2026-03-11T17:28:58.106,2031171,-991.0,1189.0,16435.0,-148.0,-65.0,-139.0,4062.0,5218.0,-3172.0,-68.48138845680165,-20.861621823007535,-40.472922770010086
2026-03-11T17:28:58.115,2031181,-1100.0,1091.0,15224.0,-155.0,-47.0,-229.0,4068.0,5237.0,-3180.0,-68.5487808984843,-20.8225463489673,-40.91113431356078
2026-03-11T17:28:58.116,2031191,-1314.0,1458.0,16835.0,-149.0,-58.0,-127.0,4068.0,5237.0,-3180.0,-68.53900994332983,-20.88556728856207,-40.36177365824079
2026-03-11T17:28:58.133,2031201,-669.0,981.0,16274.0,-149.0,-58.0,-127.0,4081.0,5222.0,-3188.0,-68.55943720702712,-20.98926077120214,-39.837863399700055
2026-03-11T17:28:58.134,2031211,-752.0,1120.0,16486.0,-125.0,-26.0,-208.0,4081.0,5222.0,-3188.0,-68.33551848464325,-20.772161399634495,-40.11211911186439
2026-03-11T17:28:58.142,2031221,-955.0,1235.0,16395.0,-119.0,-51.0,-164.0,4087.0,5216.0,-3219.0,-68.04885147752438,-20.790032478158707,-39.95446414096931
2026-03-11T17:28:58.152,2031231,-759.0,1188.0,16302.0,-110.0,-66.0,-264.0,4087.0,5216.0,-3219.0,-67.68251378843894,-20.96785878682926,-40.782296671988874
2026-03-11T17:28:58.162,2031241,-915.0,1241.0,16007.0,-100.0,-68.0,-216.0,4103.0,5222.0,-3204.0,-67.2201996622585,-21.14966476725462,-41.15646374747741
2026-03-11T17:28:58.172,2031251,-634.0,1177.0,16356.0,-225.0,-80.0,-239.0,4103.0,5222.0,-3204.0,-67.99847592516952,-21.466389500339837,-41.70277930552003
2026-03-11T17:28:58.182,2031261,-928.0,1324.0,16353.0,-216.0,-49.0,-225.0,4083.0,5208.0,-3171.0,-68.66273072695911,-21.45251437935828,-42.06403036186107
2026-03-11T17:28:58.193,2031271,-1032.0,1105.0,15296.0,-135.0,-74.0,-81.0,4083.0,5208.0,-3171.0,-68.52983745767713,-21.6716677863682,-41.0560568346355
2026-03-11T17:28:58.202,2031281,-787.0,1153.0,16307.0,-138.0,-85.0,-217.0,4094.0,5219.0,-3206.0,-68.43075240960208,-22.01611112694303,-41.396783460543745
2026-03-11T17:28:58.212,2031291,-684.0,1257.0,17123.0,-138.0,-85.0,-217.0,4094.0,5219.0,-3206.0,-68.33056628459062,-22.363160824278445,-41.74109977253062
2026-03-11T17:28:58.233,2031301,-970.0,1150.0,15985.0,-169.0,-63.0,-163.0,4100.0,5219.0,-3184.0,-68.53785677693405,-22.46402504638733,-41.56076549895468
2026-03-11T17:28:58.241,2031311,-1017.0,1161.0,15928.0,-208.0,-5.0,-232.0,4100.0,5219.0,-3184.0,-69.12212072886386,-21.99087003507435,-41.9929807331886
2026-03-11T17:28:58.245,2031321,-784.0,1102.0,16407.0,-169.0,-57.0,-202.0,4087.0,5227.0,-3180.0,-69.31902665734653,-22.055060088109276,-42.11275654490211
2026-03-11T17:28:58.252,2031331,-971.0,1217.0,16537.0,-128.0,-86.0,-223.0,4087.0,5227.0,-3180.0,-69.10286702243286,-22.38973237908423,-42.45251990101802
2026-03-11T17:28:58.269,2031341,-761.0,1171.0,16762.0,-146.0,-28.0,-191.0,4078.0,5217.0,-3169.0,-69.07168541619066,-22.164474739268034,-42.46528936085451
2026-03-11T17:28:58.273,2031351,-760.0,937.0,15618.0,-176.0,-40.0,-137.0,4078.0,5217.0,-3169.0,-69.3463849492819,-22.05756672965164,-41.944968414495484
2026-03-11T17:28:58.282,2031361,-1017.0,1200.0,16189.0,-164.0,-16.0,-231.0,4055.0,5225.0,-3163.0,-69.48187199374425,-21.701519133848066,-42.32176482708744
2026-03-11T17:28:58.292,2031371,-1043.0,1228.0,16269.0,-164.0,-16.0,-156.0,4055.0,5225.0,-3163.0,-69.61310343191712,-21.351132432363606,-41.94430497517081
2026-03-11T17:28:58.302,2031381,-830.0,1187.0,16511.0,-141.0,-53.0,-156.0,4042.0,5231.0,-3165.0,-69.5204012992134,-21.3861015234614,-41.59058599302607
2026-03-11T17:28:58.315,2031391,-1040.0,1243.0,15942.0,-133.0,-32.0,-248.0,4042.0,5231.0,-3165.0,-69.34422647206242,-21.197555014701088,-42.12968701448356
2026-03-11T17:28:58.336,2031401,-561.0,1154.0,16662.0,-154.0,-57.0,-142.0,4053.0,5250.0,-3173.0,-69.38730306253426,-21.293728263358762,-41.63809394124331
2026-03-11T17:28:58.336,2031411,-757.0,1328.0,16755.0,-140.0,-64.0,-200.0,4053.0,5250.0,-3173.0,-69.2809212988484,-21.443477325932378,-41.73462049307147
2026-03-11T17:28:58.342,2031421,-1048.0,1234.0,15745.0,-158.0,-58.0,-163.0,4035.0,5239.0,-3163.0,-69.35407599602074,-21.507079200786404,-41.474054537628696
2026-03-11T17:28:58.352,2031431,-132.0,1110.0,17447.0,-158.0,-48.0,-210.0,4035.0,5239.0,-3163.0,-69.44258801670611,-21.538685539680426,-41.669602738765036
2026-03-11T17:28:58.362,2031441,-863.0,1150.0,15919.0,-146.0,-23.0,-235.0,4034.0,5261.0,-3143.0,-69.40189804638537,-21.2714112591304,-42.09791047746134
2026-03-11T17:28:58.372,2031451,-1006.0,1093.0,15508.0,-117.0,-28.0,-149.0,4034.0,5261.0,-3143.0,-69.07982956989649,-21.046334961797765,-41.69543890232823
2026-03-11T17:28:58.389,2031461,-723.0,1338.0,17154.0,-117.0,-28.0,-149.0,4028.0,5261.0,-3165.0,-68.75563296591258,-20.851685227579864,-41.30986857585015
2026-03-11T17:28:58.392,2031471,-961.0,1027.0,15837.0,-150.0,-19.0,-231.0,4028.0,5261.0,-3165.0,-68.77631371494739,-20.551546952425152,-41.70802636985329
2026-03-11T17:28:58.412,2031481,-711.0,990.0,16038.0,-150.0,-54.0,-117.0,4017.0,5259.0,-3149.0,-68.80014154897063,-20.619044604144374,-41.011466970321166
2026-03-11T17:28:58.422,2031491,-933.0,1072.0,15912.0,-168.0,-35.0,-207.0,4017.0,5259.0,-3149.0,-68.99345425078732,-20.482701249337296,-41.18788365433943
2026-03-11T17:28:58.447,2031501,-936.0,1168.0,16145.0,-157.0,-35.0,-170.0,4019.0,5284.0,-3138.0,-69.06942878725995,-20.34986009030003,-41.0051155780877
2026-03-11T17:28:58.491,2031511,-880.0,1169.0,16392.0,-102.0,-26.0,-169.0,4019.0,5284.0,-3138.0,-68.60605704522388,-20.136359119214507,-40.83839056193096
2026-03-11T17:28:58.491,2031521,-379.0,1077.0,17157.0,-154.0,-73.0,-218.0,4015.0,5275.0,-3125.0,-68.67129736232908,-20.423772355064838,-41.1591030122834
2026-03-11T17:28:58.491,2031531,-584.0,883.0,15560.0,-127.0,-54.0,-149.0,4015.0,5275.0,-3125.0,-68.47751258482299,-20.501577416162558,-40.822530250946066
2026-03-11T17:28:58.491,2031541,-857.0,1252.0,16645.0,-127.0,-31.0,-232.0,4024.0,5299.0,-3134.0,-68.2665311054434,-20.336563998626804,-41.29729769457507
2026-03-11T17:28:58.491,2031551,-837.0,1113.0,15964.0,-149.0,-31.0,-232.0,4024.0,5299.0,-3134.0,-68.28163704262984,-20.173751882149027,-41.74028360184359
2026-03-11T17:28:58.491,2031561,-1240.0,1370.0,16097.0,-166.0,-34.0,-150.0,4005.0,5299.0,-3145.0,-68.44551100552349,-20.01569364143865,-41.357580279330264
2026-03-11T17:28:58.491,2031571,-828.0,1278.0,16708.0,-169.0,18.0,-237.0,4005.0,5299.0,-3145.0,-68.64531969860236,-19.38240293535549,-41.78090983249506
2026-03-11T17:28:58.508,2031581,-618.0,1067.0,15959.0,-125.0,-65.0,-157.0,4016.0,5312.0,-3129.0,-68.42091258699185,-19.587501038579003,-41.457791647270525
2026-03-11T17:28:58.515,2031591,-810.0,1243.0,16393.0,-114.0,-58.0,-190.0,4016.0,5312.0,-3129.0,-68.08297118051831,-19.70773749014098,-41.48878028503519
2026-03-11T17:28:58.524,2031601,-725.0,1187.0,16248.0,-138.0,-42.0,-219.0,4008.0,5305.0,-3107.0,-67.99014518247093,-19.674220510151727,-41.80668861763591
2026-03-11T17:28:58.539,2031611,-850.0,1086.0,15756.0,-117.0,-48.0,-172.0,4008.0,5305.0,-3107.0,-67.69808348271022,-19.68952235597419,-41.679350647252356
2026-03-11T17:28:58.546,2031621,-1328.0,1367.0,15974.0,-113.0,-19.0,-220.0,4015.0,5307.0,-3130.0,-67.35369663463,-19.387229232265103,-42.0096030284648
2026-03-11T17:28:58.552,2031631,-976.0,1205.0,16010.0,-113.0,-19.0,-220.0,4015.0,5307.0,-3130.0,-67.02793714916764,-19.116110105332485,-42.32994482385148
2026-03-11T17:28:58.562,2031641,-811.0,1116.0,16306.0,-149.0,-24.0,-143.0,4004.0,5327.0,-3109.0,-67.06927283662698,-18.912173924112736,-41.90613460628722
2026-03-11T17:28:58.572,2031651,-897.0,1082.0,16148.0,-174.0,-21.0,-233.0,4004.0,5327.0,-3109.0,-67.35641967563596,-18.67628368110146,-42.33180406230332
2026-03-11T17:28:58.582,2031661,-1388.0,1325.0,16120.0,-138.0,-69.0,-114.0,4018.0,5320.0,-3130.0,-67.2677128355068,-18.880861800498693,-41.608473843636716
2026-03-11T17:28:58.592,2031671,-757.0,1176.0,16731.0,-172.0,-55.0,-214.0,4018.0,5320.0,-3130.0,-67.52754593025975,-18.990559888649756,-41.86132041273617
2026-03-11T17:28:58.607,2031681,-859.0,1111.0,16132.0,-160.0,-44.0,-176.0,4026.0,5335.0,-3141.0,-67.66620099072534,-18.98113210140895,-41.7306525250173
2026-03-11T17:28:58.612,2031691,-771.0,1098.0,16229.0,-179.0,-64.0,-130.0,4026.0,5335.0,-3141.0,-67.98966611512897,-19.174434611568728,-41.15961119754869
2026-03-11T17:28:58.629,2031701,-1030.0,1135.0,15792.0,-156.0,-51.0,-197.0,4026.0,5324.0,-3126.0,-68.07645511025306,-19.216303175960572,-41.25611881431199
2026-03-11T17:28:58.643,2031711,-559.0,1133.0,16756.0,-141.0,-47.0,-159.0,4026.0,5324.0,-3126.0,-68.01935974687544,-19.254449183823706,-40.99173354796262
2026-03-11T17:28:58.647,2031721,-859.0,1215.0,16155.0,-141.0,-47.0,-159.0,4025.0,5340.0,-3116.0,-67.95475143074474,-19.26925756761603,-40.753628202309635
2026-03-11T17:28:58.652,2031731,-726.0,1035.0,15583.0,-184.0,-26.0,-274.0,4025.0,5340.0,-3116.0,-68.3228579921758,-19.08544078082788,-41.590795042435595
2026-03-11T17:28:58.665,2031741,-828.0,1252.0,16592.0,-162.0,-44.0,-141.0,4017.0,5331.0,-3108.0,-68.45769583059605,-19.0779557991869,-41.115878232981544
2026-03-11T17:28:58.672,2031751,-1177.0,1052.0,14733.0,-172.0,-42.0,-227.0,4017.0,5331.0,-3108.0,-68.69245721558207,-19.016876022382693,-41.4655313107807
2026-03-11T17:28:58.682,2031761,-800.0,1377.0,17180.0,-163.0,-35.0,-185.0,4016.0,5327.0,-3122.0,-68.82435732953444,-18.9263867844163,-41.37856013541038
2026-03-11T17:28:58.692,2031771,-758.0,1062.0,15992.0,-156.0,-34.0,-162.0,4016.0,5327.0,-3122.0,-68.9006835570776,-18.82690386477665,-41.06857143974638
2026-03-11T17:28:58.702,2031781,-732.0,1149.0,16483.0,-142.0,-18.0,-254.0,4020.0,5325.0,-3120.0,-68.83451919961126,-18.576032739507255,-41.6417756997391
2026-03-11T17:28:58.712,2031791,-640.0,1063.0,16236.0,-179.0,-79.0,-175.0,4020.0,5325.0,-3120.0,-69.13711059444272,-18.93366145083438,-41.43454762719752
2026-03-11T17:28:58.722,2031801,-1232.0,1116.0,15101.0,-179.0,-79.0,-228.0,4026.0,5324.0,-3112.0,-69.42403615026232,-19.236159015401004,-41.7433446900492
2026-03-11T17:28:58.732,2031811,-909.0,1159.0,16176.0,-125.0,-53.0,-228.0,4026.0,5324.0,-3112.0,-69.1785913781726,-19.306673629506385,-42.05390987949684
2026-03-11T17:28:58.742,2031821,-1295.0,1293.0,15938.0,-99.0,-64.0,-111.0,4013.0,5337.0,-3110.0,-68.6724581585826,-19.455138811949716,-41.27508407048883
2026-03-11T17:28:58.781,2031831,-850.0,1130.0,16513.0,-136.0,-23.0,-207.0,4013.0,5337.0,-3110.0,-68.55351498150185,-19.232639770462594,-41.4440744260873
2026-03-11T17:28:58.786,2031841,-898.0,1103.0,16133.0,-107.0,-63.0,-129.0,4019.0,5327.0,-3097.0,-68.15282110104229,-19.40181651809535,-40.89951660578075
2026-03-11T17:28:58.786,2031851,-851.0,1000.0,15713.0,-136.0,-42.0,-189.0,4019.0,5327.0,-3097.0,-68.04973503110554,-19.363504081370284,-40.956349092891536
2026-03-11T17:28:58.786,2031861,-1061.0,1373.0,16717.0,-183.0,-100.0,-152.0,4027.0,5316.0,-3117.0,-68.38823480842316,-19.883845170943985,-40.650635382510984
2026-03-11T17:28:58.797,2031871,-577.0,1159.0,16939.0,-121.0,-113.0,-124.0,4027.0,5316.0,-3117.0,-68.12798630470904,-20.554640513328923,-40.13836910545137
2026-03-11T17:28:58.802,2031881,-839.0,1256.0,16425.0,-139.0,-40.0,-235.0,4026.0,5324.0,-3124.0,-68.04016999310531,-20.477234346945323,-40.70562025367199
2026-03-11T17:28:58.812,2031891,-735.0,1050.0,15804.0,-139.0,-40.0,-235.0,4026.0,5324.0,-3124.0,-67.9655449740964,-20.406551673738985,-41.24557359622428
2026-03-11T17:28:58.822,2031901,-886.0,1253.0,16307.0,-169.0,-55.0,-138.0,4042.0,5330.0,-3119.0,-68.17455669464675,-20.475403792523956,-40.834305589550695
2026-03-11T17:28:58.832,2031911,-724.0,1100.0,15963.0,-198.0,1.0,-211.0,4042.0,5330.0,-3119.0,-68.67262589137802,-20.0042811492375,-41.088399227899075
2026-03-11T17:28:58.876,2031951,-1065.0,1309.0,16474.0,-141.0,-20.0,-120.0,4032.0,5334.0,-3107.0,-72.73551149571428,-20.31444988554309,-43.67489372961593
2026-03-11T17:28:58.884,2031961,-831.0,1137.0,16262.0,-124.0,-39.0,-236.0,4036.0,5339.0,-3111.0,-72.41601177133612,-20.231996893962826,-43.82784162085108
2026-03-11T17:28:58.911,2031971,-845.0,1182.0,16484.0,-124.0,-43.0,-128.0,4036.0,5339.0,-3111.0,-72.10086302843432,-20.190216642744232,-42.96314089146958
2026-03-11T17:28:58.921,2031981,-885.0,1199.0,16262.0,-143.0,-43.0,-128.0,4025.0,5316.0,-3116.0,-71.97590981802686,-20.14567981245554,-42.13796395693758
2026-03-11T17:28:58.924,2031991,-1012.0,1212.0,16236.0,-197.0,-38.0,-241.0,4025.0,5316.0,-3116.0,-72.38160861380281,-20.04403028251279,-42.399649478906
2026-03-11T17:28:58.928,2032001,-496.0,921.0,16171.0,-133.0,-37.0,-189.0,4041.0,5336.0,-3114.0,-72.17218261673074,-19.970669764301412,-42.17020211842885
2026-03-11T17:28:58.937,2032011,-732.0,1217.0,16773.0,-153.0,-30.0,-263.0,4041.0,5336.0,-3114.0,-72.14514011468738,-19.81540940248388,-42.6494689747988
2026-03-11T17:28:58.948,2032021,-885.0,978.0,15589.0,-127.0,-57.0,-203.0,4016.0,5336.0,-3113.0,-71.87504062298245,-19.912843660804366,-42.551049900004045
2026-03-11T17:28:58.957,2032031,-587.0,1117.0,16766.0,-100.0,-62.0,-225.0,4016.0,5336.0,-3113.0,-71.34130821376647,-20.082171771752872,-42.70502181416148
2026-03-11T17:28:58.962,2032041,-1011.0,1259.0,16249.0,-136.0,-71.0,-222.0,4023.0,5329.0,-3094.0,-71.15867161029202,-20.305334397637804,-42.85352304209589
2026-03-11T17:28:58.972,2032051,-1075.0,1072.0,15085.0,-158.0,-75.0,-144.0,4023.0,5329.0,-3094.0,-71.20260153392735,-20.552908707151502,-42.26253914636492
2026-03-11T17:28:58.982,2032061,-630.0,1214.0,16761.0,-158.0,-75.0,-144.0,4018.0,5328.0,-3111.0,-71.24409546943417,-20.833911355864945,-41.70166348192955
2026-03-11T17:28:58.992,2032071,-1173.0,1394.0,16244.0,-186.0,-44.0,-230.0,4018.0,5328.0,-3111.0,-71.54391566321182,-20.766129937640695,-41.96572662891762
2026-03-11T17:28:59.015,2032081,-910.0,1081.0,15342.0,-173.0,-31.0,-186.0,4028.0,5328.0,-3115.0,-71.72782915792132,-20.586885206288855,-41.77937396018539
2026-03-11T17:28:59.018,2032091,-1247.0,1529.0,16616.0,-128.0,-24.0,-263.0,4028.0,5328.0,-3115.0,-71.44252184544163,-20.32486936198727,-42.33783773702064
2026-03-11T17:28:59.022,2032101,-372.0,1078.0,16906.0,-135.0,-31.0,-187.0,4027.0,5342.0,-3118.0,-71.2637016413393,-20.19701237065573,-42.15148806706205
2026-03-11T17:28:59.032,2032111,-1079.0,1198.0,15878.0,-150.0,-43.0,-208.0,4027.0,5342.0,-3118.0,-71.22213142990647,-20.1369399069015,-42.173541442618
2026-03-11T17:28:59.046,2032121,-699.0,1050.0,16178.0,-120.0,-37.0,-135.0,4031.0,5342.0,-3115.0,-70.89941966047539,-20.0474242698433,-41.51749430991244
2026-03-11T17:28:59.052,2032131,-1268.0,1418.0,16553.0,-158.0,-77.0,-133.0,4031.0,5342.0,-3115.0,-70.93190635965622,-20.313785417432282,-40.88568330406724
2026-03-11T17:28:59.062,2032141,-368.0,998.0,16787.0,-172.0,-44.0,-252.0,4018.0,5325.0,-3090.0,-71.1308227645234,-20.31363753950469,-41.41270056300591
2026-03-11T17:28:59.073,2032151,-1058.0,1151.0,15958.0,-172.0,-44.0,-252.0,4018.0,5325.0,-3090.0,-71.31129792618428,-20.262898702786863,-41.900754779655834
2026-03-11T17:28:59.082,2032161,-243.0,975.0,17112.0,-118.0,-44.0,-142.0,4023.0,5343.0,-3107.0,-70.97625101150426,-20.272595522828233,-41.33405787491352
2026-03-11T17:28:59.092,2032171,-994.0,1067.0,15432.0,-134.0,-49.0,-234.0,4023.0,5343.0,-3107.0,-70.79082094363143,-20.27381023922555,-41.68030962582306
2026-03-11T17:28:59.102,2032181,-441.0,1119.0,16931.0,-135.0,-62.0,-177.0,4024.0,5340.0,-3126.0,-70.6223789047956,-20.446158169301995,-41.474673338269916
2026-03-11T17:28:59.112,2032191,-1222.0,1118.0,15147.0,-110.0,-67.0,-190.0,4024.0,5340.0,-3126.0,-70.20350439709999,-20.601836044746065,-41.43365131486958
2026-03-11T17:28:59.122,2032201,-891.0,1394.0,17167.0,-129.0,-62.0,-168.0,4012.0,5331.0,-3105.0,-69.97078703486102,-20.738172038052817,-41.21261760145462
2026-03-11T17:28:59.132,2032211,-811.0,1052.0,15808.0,-159.0,-52.0,-172.0,4012.0,5331.0,-3105.0,-70.05342451371827,-20.77440043788014,-41.037614965836354
2026-03-11T17:28:59.142,2032221,-857.0,1213.0,16370.0,-155.0,-30.0,-263.0,4020.0,5332.0,-3097.0,-70.08659976423662,-20.59313990122355,-41.73141514286218
2026-03-11T17:28:59.153,2032231,-885.0,1250.0,16404.0,-155.0,-30.0,-134.0,4020.0,5332.0,-3097.0,-70.11671636266865,-20.413692733382433,-41.155179098885725
2026-03-11T17:28:59.162,2032241,-820.0,1209.0,16213.0,-148.0,-64.0,-134.0,4012.0,5344.0,-3103.0,-70.0794892117292,-20.574871655452377,-40.615196006532486
2026-03-11T17:28:59.172,2032251,-790.0,1286.0,16781.0,-170.0,-29.0,-263.0,4012.0,5344.0,-3103.0,-70.25625430785912,-20.39382506139025,-41.30945027086115
2026-03-11T17:28:59.182,2032261,-993.0,1216.0,15995.0,-185.0,-57.0,-168.0,4003.0,5334.0,-3115.0,-70.5771796669985,-20.473703039509193,-41.0421244995848
2026-03-11T17:28:59.192,2032271,-448.0,904.0,15923.0,-150.0,-43.0,-240.0,4003.0,5334.0,-3115.0,-70.57064851714851,-20.453448479646255,-41.47160867794573
2026-03-11T17:28:59.202,2032281,-803.0,1322.0,16930.0,-120.0,-62.0,-170.0,4002.0,5337.0,-3121.0,-70.24593651485792,-20.59783333238786,-41.23690542935655
2026-03-11T17:28:59.212,2032291,-999.0,1157.0,16025.0,-151.0,-16.0,-178.0,4002.0,5337.0,-3121.0,-70.23822634827603,-20.27151725724939,-41.075496321994386
2026-03-11T17:28:59.224,2032301,-721.0,1005.0,16186.0,-135.0,-38.0,-184.0,3987.0,5332.0,-3089.0,-70.08540234889873,-20.187574120556192,-40.997994678187496
2026-03-11T17:28:59.232,2032311,-1124.0,1161.0,15883.0,-109.0,-127.0,-143.0,3987.0,5332.0,-3089.0,-69.66827999518814,-20.947678750872488,-40.59291459173097
2026-03-11T17:28:59.243,2032321,-806.0,1229.0,16931.0,-109.0,-127.0,-143.0,3975.0,5328.0,-3106.0,-69.26007945966983,-21.7189578646724,-40.25389927165973
2026-03-11T17:28:59.253,2032331,-1039.0,946.0,14926.0,-158.0,-47.0,-250.0,3975.0,5328.0,-3106.0,-69.35074751178414,-21.665698861863344,-40.94089612869582
2026-03-11T17:28:59.264,2032341,-828.0,1363.0,17283.0,-138.0,-72.0,-151.0,3970.0,5331.0,-3099.0,-69.22594816353909,-21.883297445060027,-40.673340691090424
2026-03-11T17:28:59.272,2032351,-781.0,969.0,15359.0,-153.0,-54.0,-269.0,3970.0,5331.0,-3099.0,-69.26862902680914,-21.916727540861373,-41.53926477665644
2026-03-11T17:28:59.282,2032361,-878.0,1317.0,16741.0,-152.0,-26.0,-186.0,3960.0,5332.0,-3114.0,-69.2828935404195,-21.673333814733656,-41.55259313537823
2026-03-11T17:28:59.324,2032371,-974.0,1081.0,15451.0,-109.0,-46.0,-190.0,3960.0,5332.0,-3114.0,-68.88539427853496,-21.618701828361328,-41.62313047683957
2026-03-11T17:28:59.331,2032381,-1224.0,1410.0,16401.0,-144.0,-30.0,-160.0,3949.0,5335.0,-3125.0,-68.82061324217018,-21.39527937131548,-41.39216681737446
2026-03-11T17:28:59.331,2032391,-759.0,1153.0,16269.0,-72.0,-71.0,-76.0,3949.0,5335.0,-3125.0,-68.06872437430096,-21.609885418853054,-40.42640564605092
2026-03-11T17:28:59.331,2032401,-832.0,1268.0,16666.0,-72.0,-66.0,-208.0,3927.0,5339.0,-3099.0,-67.32593278617107,-21.767493217654298,-40.8232856975069
2026-03-11T17:28:59.331,2032411,-1251.0,1165.0,15111.0,-136.0,-66.0,-208.0,3927.0,5339.0,-3099.0,-67.22404285962114,-21.884570638181554,-41.21099451732348
2026-03-11T17:28:59.342,2032421,-493.0,1201.0,17228.0,-160.0,-54.0,-121.0,3913.0,5339.0,-3113.0,-67.36780685450815,-21.94337574139943,-40.73824047906664
2026-03-11T17:28:59.359,2032431,-1104.0,1081.0,15159.0,-144.0,-44.0,-203.0,3913.0,5339.0,-3113.0,-67.3500726853792,-21.85261081256897,-41.06522573939881
2026-03-11T17:28:59.362,2032441,-782.0,1116.0,16181.0,-124.0,-42.0,-134.0,3895.0,5346.0,-3094.0,-67.13936264617136,-21.77195245881895,-40.73838341196919
2026-03-11T17:28:59.372,2032451,-627.0,1073.0,16372.0,-151.0,-42.0,-201.0,3895.0,5346.0,-3094.0,-67.2013807995597,-21.704343421148405,-41.05801963858991
2026-03-11T17:28:59.382,2032461,-641.0,1095.0,16673.0,-168.0,-82.0,-205.0,3885.0,5366.0,-3104.0,-67.42860304949286,-22.029917630000355,-41.39880026988658
2026-03-11T17:28:59.392,2032471,-982.0,894.0,14729.0,-139.0,-26.0,-139.0,3885.0,5366.0,-3104.0,-67.37276305023948,-21.76797234027777,-41.08748431934849
2026-03-11T17:28:59.402,2032481,-843.0,1087.0,16374.0,-180.0,-25.0,-266.0,3870.0,5379.0,-3102.0,-67.71334679978514,-21.518797779625867,-41.970380708749275
2026-03-11T17:28:59.412,2032491,-715.0,1122.0,16626.0,-180.0,-25.0,-266.0,3870.0,5379.0,-3102.0,-68.04586521129178,-21.28428377540166,-42.779894670130915
2026-03-11T17:28:59.430,2032501,-1107.0,1191.0,15860.0,-124.0,-35.0,-120.0,3869.0,5403.0,-3090.0,-67.81425706957259,-21.12196820759456,-42.18001182739468
2026-03-11T17:28:59.432,2032511,-977.0,1076.0,15367.0,-165.0,-35.0,-226.0,3869.0,5403.0,-3090.0,-67.9948654654509,-20.96994920919693,-42.60007922161804
2026-03-11T17:28:59.466,2032521,-1136.0,1451.0,16751.0,-134.0,-10.0,-153.0,3847.0,5412.0,-3068.0,-67.84915415720589,-20.571245249167212,-42.308239108268694
2026-03-11T17:28:59.474,2032531,-459.0,895.0,15780.0,-145.0,-28.0,-260.0,3847.0,5412.0,-3068.0,-67.84824731994317,-20.400951412251935,-43.040162136598575
2026-03-11T17:28:59.474,2032541,-1243.0,1255.0,15273.0,-205.0,-47.0,-204.0,3849.0,5428.0,-3058.0,-68.40633224384088,-20.360787832473743,-43.178196848081576
2026-03-11T17:28:59.474,2032551,-416.0,1163.0,17183.0,-120.0,-38.0,-196.0,3849.0,5428.0,-3058.0,-68.13676450202577,-20.298298196405273,-43.24652943688403
2026-03-11T17:28:59.484,2032561,-865.0,1010.0,15275.0,-127.0,-57.0,-214.0,3850.0,5450.0,-3076.0,-67.94297013011985,-20.38625094629217,-43.49287945264865
2026-03-11T17:28:59.492,2032571,-642.0,1132.0,16492.0,-103.0,-77.0,-116.0,3850.0,5450.0,-3076.0,-67.5149790131791,-20.68864483229917,-42.834170536989305
2026-03-11T17:28:59.502,2032581,-1172.0,1210.0,15721.0,-103.0,-77.0,-116.0,3852.0,5461.0,-3070.0,-67.08605515999302,-20.944452231737213,-42.25041970024794
2026-03-11T17:28:59.512,2032591,-861.0,1185.0,16471.0,-160.0,-17.0,-265.0,3852.0,5461.0,-3070.0,-67.23003338513536,-20.63247042502674,-43.089676456090615
2026-03-11T17:28:59.522,2032601,-342.0,1024.0,17133.0,-141.0,-47.0,-143.0,3835.0,5486.0,-3075.0,-67.19882535545872,-20.65759061524692,-42.732080314487874
2026-03-11T17:28:59.532,2032611,-1054.0,1026.0,15551.0,-168.0,1.0,-247.0,3835.0,5486.0,-3075.0,-67.42575480137795,-20.15725840984946,-43.34551703061406
2026-03-11T17:28:59.542,2032621,-749.0,1139.0,16569.0,-138.0,-57.0,-168.0,3834.0,5510.0,-3059.0,-67.35098995404964,-20.26106919737171,-43.20096405444423
2026-03-11T17:28:59.630,2032631,-841.0,1155.0,15886.0,-146.0,-16.0,-245.0,3834.0,5510.0,-3059.0,-67.3516020969309,-19.952199229874857,-43.78189988515433
2026-03-11T17:28:59.633,2032641,-839.0,1236.0,16667.0,-151.0,-51.0,-201.0,3820.0,5521.0,-3060.0,-67.39954592338502,-19.995477225808923,-43.9152514886068
2026-03-11T17:28:59.633,2032651,-1129.0,958.0,14739.0,-140.0,-45.0,-144.0,3820.0,5521.0,-3060.0,-67.34917783515715,-19.94914594947553,-43.50148622182427
2026-03-11T17:28:59.633,2032661,-1224.0,1392.0,16016.0,-140.0,-45.0,-211.0,3832.0,5544.0,-3083.0,-67.27484886319299,-19.90408496420555,-43.741374290834266
2026-03-11T17:28:59.633,2032671,-692.0,1362.0,16601.0,-189.0,-53.0,-211.0,3832.0,5544.0,-3083.0,-67.68774733885928,-19.97782396361741,-43.947503153399595
2026-03-11T17:28:59.635,2032681,-907.0,1055.0,16688.0,-112.0,-16.0,-152.0,3843.0,5546.0,-3082.0,-67.35924494320999,-19.672971415736672,-43.591801568014866
2026-03-11T17:28:59.635,2032691,-798.0,954.0,15162.0,-116.0,12.0,-280.0,3843.0,5546.0,-3082.0,-67.07685343361419,-19.10177494168004,-44.46253338694504
2026-03-11T17:28:59.635,2032701,-938.0,1229.0,16133.0,-143.0,-67.0,-198.0,3846.0,5573.0,-3090.0,-67.04958964357517,-19.309980727716326,-44.523531960402536
2026-03-11T17:28:59.635,2032711,-888.0,1282.0,16705.0,-108.0,-29.0,-253.0,3846.0,5573.0,-3090.0,-66.67922832735884,-19.147302201360194,-45.11958909293376
2026-03-11T17:28:59.642,2032721,-601.0,1116.0,16131.0,-194.0,-64.0,-168.0,3862.0,5565.0,-3098.0,-67.16769136457229,-19.348983665720237,-44.85260925095928
2026-03-11T17:28:59.652,2032731,-716.0,1254.0,17192.0,-118.0,-13.0,-145.0,3862.0,5565.0,-3098.0,-66.89730118121304,-19.041833524087167,-44.38374990862404
2026-03-11T17:28:59.663,2032741,-633.0,986.0,15737.0,-153.0,-32.0,-221.0,3875.0,5596.0,-3090.0,-66.9870516718403,-18.928618810989963,-44.66307621187998
2026-03-11T17:28:59.672,2032751,-938.0,1147.0,15945.0,-153.0,-32.0,-221.0,3875.0,5596.0,-3090.0,-67.06442120064669,-18.79648614995536,-44.91806700274004
2026-03-11T17:28:59.736,2032761,-964.0,1077.0,16306.0,-118.0,-66.0,-124.0,3895.0,5596.0,-3115.0,-66.8039556205079,-18.99983618874926,-44.25159826065824
2026-03-11T17:28:59.739,2032771,-451.0,899.0,16156.0,-170.0,-37.0,-226.0,3895.0,5596.0,-3115.0,-67.07017776963494,-18.950508534534897,-44.56919371265831
2026-03-11T17:28:59.739,2032781,-860.0,1277.0,16684.0,-192.0,-107.0,-135.0,3882.0,5586.0,-3130.0,-67.52283605812255,-19.561254592351517,-43.99331669528486
2026-03-11T17:28:59.739,2032791,-840.0,1115.0,16168.0,-131.0,-1.0,-232.0,3882.0,5586.0,-3130.0,-67.3772780447944,-19.12048822687821,-44.35752910168116
2026-03-11T17:28:59.739,2032801,-1096.0,1086.0,15271.0,-163.0,-28.0,-220.0,3881.0,5594.0,-3116.0,-67.54577744698693,-18.930582969799865,-44.580466727047565
2026-03-11T17:28:59.739,2032811,-469.0,1293.0,17393.0,-86.0,-89.0,-187.0,3881.0,5594.0,-3116.0,-66.9526306552734,-19.39336429884588,-44.534722206847526
2026-03-11T17:28:59.742,2032821,-1096.0,1041.0,15237.0,-150.0,-105.0,-194.0,3892.0,5598.0,-3111.0,-67.00540994596925,-19.952403540040304,-44.58315837131376
2026-03-11T17:28:59.773,2032831,-1396.0,1442.0,15801.0,-150.0,-75.0,-153.0,3892.0,5598.0,-3111.0,-67.03101431210993,-20.187793079688543,-44.24813687886978
2026-03-11T17:28:59.777,2032842,-631.0,1338.0,17608.0,-132.0,-75.0,-153.0,3880.0,5608.0,-3117.0,-67.02644499753582,-20.55160766795956,-44.088729398474406
2026-03-11T17:28:59.777,2032852,-51.0,1009.0,17678.0,-130.0,-39.0,-232.0,3880.0,5608.0,-3117.0,-66.89458202609767,-20.51947499577083,-44.5489295418363
2026-03-11T17:28:59.782,2032862,-785.0,903.0,15190.0,-126.0,-69.0,-137.0,3877.0,5595.0,-3114.0,-66.7234492120925,-20.726222746438044,-44.10077752594454
2026-03-11T17:28:59.792,2032872,-1334.0,1024.0,14526.0,-157.0,-45.0,-257.0,3877.0,5595.0,-3114.0,-66.84693314020814,-20.64801544712726,-44.804434677703526
2026-03-11T17:28:59.802,2032882,-820.0,1194.0,16468.0,-149.0,-58.0,-179.0,3876.0,5596.0,-3125.0,-66.88725585544827,-20.746592052032252,-44.72784851964133
2026-03-11T17:28:59.812,2032892,-1015.0,1151.0,15749.0,-131.0,-38.0,-199.0,3876.0,5596.0,-3125.0,-66.74971126831582,-20.63050526228698,-44.84834963643618
2026-03-11T17:28:59.822,2032902,-807.0,1092.0,15976.0,-158.0,-36.0,-236.0,3903.0,5588.0,-3124.0,-66.88491245559088,-20.51299477508707,-45.30277889086394
2026-03-11T17:28:59.835,2032912,-443.0,1137.0,17034.0,-111.0,-41.0,-169.0,3903.0,5588.0,-3124.0,-66.55863894587884,-20.474806110287624,-45.115612868440685
2026-03-11T17:28:59.843,2032922,-1033.0,1247.0,15966.0,-111.0,-41.0,-169.0,3897.0,5596.0,-3142.0,-66.22594750781147,-20.393296627824395,-44.9456194940328
2026-03-11T17:28:59.855,2032932,-678.0,1119.0,16277.0,-150.0,-43.0,-263.0,3897.0,5596.0,-3142.0,-66.29277369776143,-20.359238658522788,-45.67175923924297
2026-03-11T17:28:59.870,2032942,-1224.0,1231.0,15634.0,-119.0,-40.0,-176.0,3892.0,5585.0,-3139.0,-66.04307615470749,-20.254796885306646,-45.54401085313423
2026-03-11T17:28:59.882,2032952,-612.0,1020.0,16396.0,-139.0,-22.0,-260.0,3892.0,5585.0,-3139.0,-66.01321863558213,-20.02263056055637,-46.2127499271538
2026-03-11T17:28:59.886,2032962,-1237.0,1382.0,16462.0,-131.0,-65.0,-178.0,3893.0,5569.0,-3141.0,-65.88077864669225,-20.17353236473221,-46.0783223577245
2026-03-11T17:28:59.893,2032972,-439.0,1028.0,16656.0,-186.0,-58.0,-283.0,3893.0,5569.0,-3141.0,-66.31532733583586,-20.308323283949548,-46.92814256833463
2026-03-11T17:28:59.902,2032982,-1288.0,1219.0,15533.0,-128.0,-26.0,-226.0,3919.0,5581.0,-3134.0,-66.15367547477724,-20.062443388585034,-47.20226215585074
2026-03-11T17:28:59.911,2032992,-618.0,1189.0,17013.0,-116.0,-52.0,-171.0,3919.0,5581.0,-3134.0,-65.88744652877233,-20.129288395923183,-46.958590078900954
2026-03-11T17:28:59.924,2033002,-981.0,1088.0,15252.0,-140.0,-42.0,-257.0,3906.0,5575.0,-3124.0,-65.86009205012365,-20.0648854221245,-47.54582311929115
2026-03-11T17:28:59.932,2033012,-481.0,1314.0,17963.0,-140.0,-42.0,-257.0,3906.0,5575.0,-3124.0,-65.83121510130478,-20.04459226915924,-48.10455037036175
2026-03-11T17:28:59.942,2033022,-730.0,1058.0,16064.0,-157.0,2.0,-134.0,3910.0,5562.0,-3128.0,-65.97782786062119,-19.572174467336684,-47.433627332507285
2026-03-11T17:28:59.952,2033032,-429.0,963.0,16480.0,-167.0,-23.0,-238.0,3910.0,5562.0,-3128.0,-66.22798639670022,-19.376358514486654,-47.76120331145443
2026-03-11T17:28:59.970,2033042,-949.0,1218.0,16379.0,-157.0,-38.0,-155.0,3905.0,5544.0,-3116.0,-66.35696891576441,-19.29509330062222,-47.27454552184028
2026-03-11T17:28:59.976,2033052,-796.0,1142.0,16238.0,-81.0,-68.0,-234.0,3905.0,5544.0,-3116.0,-65.74317108099224,-19.519600726712316,-47.60848785391965
2026-03-11T17:28:59.983,2033062,-1076.0,1185.0,15769.0,-147.0,-75.0,-142.0,3916.0,5562.0,-3130.0,-65.78295658455227,-19.786356845359197,-47.058232514571124
2026-03-11T17:28:59.992,2033072,-473.0,1169.0,17183.0,-139.0,-68.0,-162.0,3916.0,5562.0,-3130.0,-65.75165805648957,-20.025566507889973,-46.737243578079294
2026-03-11T17:29:00.003,2033082,-995.0,1190.0,15801.0,-180.0,-24.0,-231.0,3895.0,5569.0,-3139.0,-66.1144866654536,-19.788394193381443,-47.05148857444069
2026-03-11T17:29:00.012,2033092,-851.0,1276.0,16690.0,-180.0,-24.0,-176.0,3895.0,5569.0,-3139.0,-66.46875838300075,-19.569617790605804,-46.79723232978238
2026-03-11T17:29:00.022,2033102,-1209.0,1105.0,15132.0,-169.0,-53.0,-176.0,3900.0,5559.0,-3120.0,-66.71205207867122,-19.606505994188783,-46.55118949937878
2026-03-11T17:29:00.032,2033112,-925.0,1182.0,16055.0,-136.0,-76.0,-229.0,3900.0,5559.0,-3120.0,-66.62639845591727,-19.893405095067777,-46.83818945786494
2026-03-11T17:29:00.044,2033122,-1348.0,1317.0,15850.0,-156.0,-89.0,-155.0,3908.0,5550.0,-3141.0,-66.72767288764315,-20.27084620457526,-46.40518667550826
2026-03-11T17:29:00.051,2033132,-1119.0,1107.0,15514.0,-182.0,-38.0,-235.0,3908.0,5550.0,-3141.0,-67.09509108145272,-20.155527643534,-46.72725081613858
2026-03-11T17:29:00.061,2033142,-461.0,1105.0,17225.0,-166.0,-69.0,-152.0,3906.0,5559.0,-3119.0,-67.30657828716933,-20.39801865063825,-46.25631631286592
2026-03-11T17:29:00.073,2033152,-879.0,787.0,14560.0,-95.0,-68.0,-196.0,3906.0,5559.0,-3119.0,-66.82956768115879,-20.58746268098618,-46.26305147417345
2026-03-11T17:29:00.082,2033162,-1184.0,1307.0,16014.0,-127.0,-71.0,-237.0,3909.0,5569.0,-3146.0,-66.64425801899864,-20.787222937485954,-46.666335370147635
2026-03-11T17:29:00.092,2033172,-942.0,1192.0,16241.0,-142.0,-62.0,-177.0,3909.0,5569.0,-3146.0,-66.61901949147544,-20.912865902790266,-46.48621583406029
2026-03-11T17:29:00.102,2033182,-704.0,1187.0,16571.0,-142.0,-62.0,-177.0,3899.0,5548.0,-3144.0,-66.59629579511821,-21.053679121921157,-46.3175341059656
2026-03-11T17:29:00.112,2033192,-830.0,1223.0,16375.0,-119.0,-65.0,-234.0,3899.0,5548.0,-3144.0,-66.34514346019448,-21.21173306616479,-46.71997665609791
2026-03-11T17:29:00.123,2033202,-830.0,1239.0,16117.0,-110.0,-77.0,-141.0,3906.0,5559.0,-3143.0,-66.00832085452976,-21.48331080182379,-46.25326876924139
2026-03-11T17:29:00.132,2033212,-932.0,1210.0,16250.0,-156.0,-42.0,-283.0,3906.0,5559.0,-3143.0,-66.13178497552941,-21.399774694426178,-47.14834282161782
2026-03-11T17:29:00.149,2033222,-1073.0,1066.0,15149.0,-162.0,-54.0,-187.0,3895.0,5557.0,-3141.0,-66.31624655098852,-21.420148809066212,-47.076416991991415
2026-03-11T17:29:00.157,2033232,-1366.0,1468.0,16169.0,-155.0,-74.0,-192.0,3895.0,5557.0,-3141.0,-66.40516723369417,-21.620758938827233,-47.058810004626494
2026-03-11T17:29:00.162,2033242,-956.0,1050.0,15598.0,-137.0,-97.0,-184.0,3911.0,5554.0,-3129.0,-66.34264126755602,-22.068956441711013,-46.99552281031389
2026-03-11T17:29:00.177,2033252,-1160.0,1182.0,15958.0,-77.0,-70.0,-170.0,3911.0,5554.0,-3129.0,-65.68566583632638,-22.230652394684547,-46.846236248870326
2026-03-11T17:29:00.182,2033262,-797.0,1203.0,16342.0,-77.0,-32.0,-271.0,3901.0,5568.0,-3135.0,-65.0423489695942,-22.04394769801704,-47.69194483744267
2026-03-11T17:29:00.195,2033272,-963.0,1105.0,15921.0,-152.0,-32.0,-271.0,3901.0,5568.0,-3135.0,-65.15169684004947,-21.847606799188032,-48.48129121608824
2026-03-11T17:29:00.202,2033282,-961.0,1155.0,16189.0,-130.0,-97.0,-114.0,3901.0,5555.0,-3139.0,-65.04104614403434,-22.293483219564393,-47.758610128360246
2026-03-11T17:29:00.212,2033292,-866.0,1096.0,15640.0,-157.0,-34.0,-252.0,3901.0,5555.0,-3139.0,-65.19865426961161,-22.11758271700501,-48.36713165610308
2026-03-11T17:29:00.222,2033302,-976.0,1115.0,16228.0,-125.0,-38.0,-161.0,3898.0,5561.0,-3135.0,-65.04107069878276,-21.978956741968094,-48.08733114606112
2026-03-11T17:29:00.232,2033312,-833.0,1143.0,16485.0,-82.0,-5.0,-238.0,3898.0,5561.0,-3135.0,-64.46452331264011,-21.530661133117142,-48.56764233812349
2026-03-11T17:29:00.243,2033322,-741.0,1159.0,15971.0,-139.0,-60.0,-175.0,3906.0,5549.0,-3131.0,-64.45442037975448,-21.635058575993618,-48.42987554006587
2026-03-11T17:29:00.252,2033332,-1006.0,1257.0,16381.0,-168.0,-55.0,-219.0,3906.0,5549.0,-3131.0,-64.72397184490673,-21.67127751393441,-48.70328560636672
2026-03-11T17:29:00.263,2033342,-947.0,1146.0,16741.0,-168.0,-4.0,-254.0,3905.0,5548.0,-3115.0,-64.9975712953826,-21.2124500195539,-49.26975578685045
2026-03-11T17:29:00.278,2033352,-598.0,1095.0,16150.0,-168.0,-4.0,-254.0,3905.0,5548.0,-3115.0,-65.26644339383674,-20.785086650020506,-49.77522448164657
2026-03-11T17:29:00.284,2033362,-689.0,1341.0,16252.0,-172.0,-78.0,-115.0,3913.0,5567.0,-3145.0,-65.55237539445427,-21.085397393455576,-48.92003686708129
2026-03-11T17:29:00.292,2033372,-1063.0,1313.0,16764.0,-183.0,-25.0,-235.0,3913.0,5567.0,-3145.0,-65.94515965403679,-20.836345412785192,-49.214674218301894
2026-03-11T17:29:00.302,2033382,-839.0,1226.0,15934.0,-162.0,-58.0,-193.0,3894.0,5558.0,-3132.0,-66.12586035593726,-20.927913656811064,-49.09194958052534
2026-03-11T17:29:00.312,2033392,-955.0,1228.0,16740.0,-151.0,-31.0,-280.0,3894.0,5558.0,-3132.0,-66.19923225806654,-20.748027468461952,-49.790106016849116
2026-03-11T17:29:00.322,2033402,-700.0,1187.0,15978.0,-186.0,-54.0,-224.0,3898.0,5557.0,-3135.0,-66.61307403904986,-20.812233864059163,-49.89842023208498
2026-03-11T17:29:00.333,2033412,-974.0,1214.0,16501.0,-169.0,-32.0,-211.0,3898.0,5557.0,-3135.0,-66.8528576775924,-20.642209620107188,-49.85659516873293
2026-03-11T17:29:00.346,2033422,-916.0,988.0,15846.0,-151.0,-29.0,-168.0,3903.0,5571.0,-3135.0,-66.92424491978662,-20.4475257807827,-49.39966151244757
2026-03-11T17:29:00.352,2033432,-748.0,1137.0,15978.0,-133.0,-77.0,-153.0,3903.0,5571.0,-3135.0,-66.80775349569039,-20.73970410259822,-48.84229380140257
2026-03-11T17:29:00.386,2033442,-1008.0,1137.0,16309.0,-133.0,-77.0,-153.0,3904.0,5568.0,-3123.0,-66.69523870372326,-21.008945962381713,-48.336565519127454
2026-03-11T17:29:00.386,2033452,-853.0,1097.0,16089.0,-150.0,-45.0,-277.0,3904.0,5568.0,-3123.0,-66.75332244357462,-20.969210524696727,-49.02906669233258
2026-03-11T17:29:00.386,2033462,-838.0,1090.0,16810.0,-159.0,-77.0,-166.0,3891.0,5560.0,-3145.0,-66.90225600406602,-21.247467626800983,-48.62049142185062
2026-03-11T17:29:00.404,2033472,-725.0,1196.0,16272.0,-174.0,-17.0,-287.0,3891.0,5560.0,-3145.0,-67.18533670582914,-20.938232760342725,-49.352152004612954
2026-03-11T17:29:00.417,2033482,-680.0,1073.0,16031.0,-136.0,-61.0,-216.0,3899.0,5571.0,-3134.0,-67.09784484331638,-21.068798311486614,-49.3927025872569
2026-03-11T17:29:00.436,2033492,-822.0,1104.0,16362.0,-154.0,-30.0,-226.0,3899.0,5571.0,-3134.0,-67.1878861254354,-20.884032060008707,-49.513096529169296
2026-03-11T17:29:00.476,2033502,-757.0,1402.0,16183.0,-157.0,-58.0,-193.0,3914.0,5567.0,-3132.0,-67.28370026862926,-20.98138701553959,-49.3142817371584
2026-03-11T17:29:00.743,2033542,-853.0,1483.0,15895.0,-134.0,-75.0,-163.0,3904.0,5553.0,-3117.0,-71.08422120320758,-23.440588177630794,-53.37612841112708
2026-03-11T17:29:00.743,2033552,-899.0,1168.0,16612.0,-173.0,-71.0,-219.0,3904.0,5553.0,-3117.0,-71.27749912066078,-23.605775030104724,-53.117622124875254
2026-03-11T17:29:00.743,2033562,-847.0,1252.0,15873.0,-133.0,-73.0,-110.0,3901.0,5559.0,-3133.0,-71.06515055533686,-23.788158997550976,-51.849176082340314
2026-03-11T17:29:00.743,2033572,-783.0,1081.0,16241.0,-135.0,-32.0,-217.0,3901.0,5559.0,-3133.0,-70.89068780599247,-23.570914150598757,-51.66098678825009
2026-03-11T17:29:00.743,2033592,-1128.0,1296.0,16406.0,-188.0,-65.0,-138.0,3901.0,5559.0,-3131.0,-73.06733947983444,-24.295075396251875,-51.95035154254819
2026-03-11T17:29:01.048,2033612,-712.0,1105.0,15911.0,-129.0,-53.0,-223.0,3903.0,5559.0,-3141.0,-74.05493779401561,-24.796852565123395,-53.801278041570676
2026-03-11T17:29:01.048,2033622,-867.0,1041.0,16142.0,-134.0,-64.0,-178.0,3900.0,5568.0,-3129.0,-73.8132409649277,-24.86675375971969,-53.038215628342485
2026-03-11T17:29:01.048,2033632,-870.0,1120.0,16246.0,-151.0,-54.0,-235.0,3900.0,5568.0,-3129.0,-73.7379014699338,-24.837456476603926,-52.85781842888387
2026-03-11T17:29:01.048,2033642,-866.0,1143.0,16343.0,-178.0,-73.0,-154.0,3900.0,5570.0,-3141.0,-73.927530454475,-24.995590655650258,-51.90726786232208
2026-03-11T17:29:01.048,2033652,-832.0,1178.0,16247.0,-160.0,-33.0,-234.0,3900.0,5570.0,-3141.0,-73.9340395788733,-24.760601586782904,-51.75287181573081
2026-03-11T17:29:01.058,2033662,-751.0,1155.0,16040.0,-126.0,-46.0,-177.0,3912.0,5582.0,-3144.0,-73.60778646449893,-24.662714680680317,-51.08179945247184
2026-03-11T17:29:01.093,2033672,-761.0,1110.0,16248.0,-114.0,-24.0,-269.0,3912.0,5582.0,-3144.0,-73.17466769764455,-24.35115340019013,-51.32900322743364
2026-03-11T17:29:01.144,2033682,-1011.0,1247.0,16363.0,-212.0,-59.0,-247.0,3916.0,5553.0,-3129.0,-73.7016142871438,-24.37182291221435,-51.32903449989207
2026-03-11T17:29:01.197,2033692,-914.0,1267.0,16619.0,-212.0,-43.0,-151.0,3916.0,5553.0,-3129.0,-74.21798831103044,-24.24300943280602,-50.38097982116059
2026-03-11T17:29:01.250,2033702,-740.0,1165.0,16216.0,-153.0,-43.0,-151.0,3899.0,5566.0,-3133.0,-74.15084416165593,-24.127427004427226,-49.475402449704966
2026-03-11T17:29:01.418,2033712,-947.0,1232.0,15847.0,-152.0,-16.0,-242.0,3899.0,5566.0,-3133.0,-74.06851871422747,-23.73348637872497,-49.465880157609114
2026-03-11T17:29:01.418,2033722,-850.0,1064.0,16268.0,-118.0,-50.0,-166.0,3903.0,5549.0,-3134.0,-73.66870692835445,-23.689124476280565,-48.75369892430689
2026-03-11T17:29:01.418,2033732,-974.0,1189.0,16436.0,-171.0,-18.0,-272.0,3903.0,5549.0,-3134.0,-73.78838003269723,-23.324090544435634,-49.05993537479205
2026-03-11T17:29:01.418,2033742,-959.0,1276.0,16192.0,-141.0,-87.0,-129.0,3902.0,5555.0,-3145.0,-73.60429553909427,-23.642628064706283,-48.013082321883005
2026-03-11T17:29:01.418,2033752,-651.0,1080.0,16526.0,-156.0,-50.0,-242.0,3902.0,5555.0,-3145.0,-73.5862285865767,-23.614754319817614,-48.09182495330199
2026-03-11T17:29:01.418,2033762,-692.0,1115.0,15691.0,-128.0,-35.0,-214.0,3895.0,5558.0,-3144.0,-73.28761207681369,-23.435081982875044,-47.90947825037633
2026-03-11T17:29:01.418,2033772,-1030.0,1165.0,16612.0,-107.0,-49.0,-136.0,3895.0,5558.0,-3144.0,-72.79022810496546,-23.375793968102,-47.02176127437412
2026-03-11T17:29:01.418,2033782,-779.0,1153.0,16543.0,-107.0,-49.0,-136.0,3901.0,5586.0,-3161.0,-72.30328543637904,-23.334687736439204,-46.202124986280246
2026-03-11T17:29:01.418,2033792,-910.0,1093.0,16150.0,-180.0,-40.0,-238.0,3901.0,5586.0,-3161.0,-72.54378451286094,-23.195640468503406,-46.371856741134984
2026-03-11T17:29:01.418,2033802,-1011.0,1112.0,15845.0,-171.0,-78.0,-148.0,3894.0,5579.0,-3151.0,-72.68842025845672,-23.4232894559371,-45.682969124710766
2026-03-11T17:29:01.418,2033812,-862.0,1274.0,16688.0,-137.0,-36.0,-218.0,3894.0,5579.0,-3151.0,-72.48993940264282,-23.248656516619505,-45.69714838286074
2026-03-11T17:29:01.419,2033822,-799.0,1165.0,16526.0,-179.0,-79.0,-169.0,3923.0,5568.0,-3152.0,-72.71369273846135,-23.50266053473478,-45.2464807567977
2026-03-11T17:29:01.419,2033832,-829.0,1152.0,16286.0,-162.0,-21.0,-275.0,3923.0,5568.0,-3152.0,-72.7660966414551,-23.180272532077783,-45.80731463560394
2026-03-11T17:29:01.419,2033842,-760.0,1183.0,16544.0,-203.0,-61.0,-152.0,3892.0,5558.0,-3150.0,-73.2183737709252,-23.261996659881092,-45.14239920912107
2026-03-11T17:29:01.419,2033852,-952.0,1041.0,15867.0,-180.0,-140.0,-134.0,3892.0,5558.0,-3150.0,-73.44293281159572,-24.100232525730913,-44.36572037425264
2026-03-11T17:29:01.419,2033862,-800.0,1342.0,16153.0,-82.0,-94.0,-210.0,3904.0,5567.0,-3151.0,-72.6826890069582,-24.48291551362426,-44.41516625161689
2026-03-11T17:29:01.419,2033872,-1092.0,1407.0,16213.0,-82.0,-94.0,-210.0,3904.0,5567.0,-3151.0,-71.93343866068747,-24.83768003382832,-44.521641943295634
2026-03-11T17:29:01.419,2033882,-559.0,1057.0,16625.0,-118.0,-145.0,-93.0,3901.0,5579.0,-3162.0,-71.57841171138597,-25.723488161528913,-43.56750856142605
2026-03-11T17:29:01.419,2033892,-973.0,1175.0,15832.0,-155.0,-105.0,-180.0,3901.0,5579.0,-3162.0,-71.58095295071242,-26.167873839705976,-43.50740499844967
2026-03-11T17:29:01.419,2033902,-993.0,1170.0,15856.0,-166.0,-90.0,-212.0,3900.0,5567.0,-3143.0,-71.6917307745501,-26.45503951848002,-43.768581359814725
2026-03-11T17:29:01.419,2033912,-741.0,1149.0,16393.0,-146.0,-86.0,-242.0,3900.0,5567.0,-3143.0,-71.60850905369256,-26.717102544284113,-44.31810462687593
2026-03-11T17:29:01.419,2033922,-896.0,1220.0,16493.0,-149.0,-103.0,-144.0,3898.0,5560.0,-3144.0,-71.55192870304565,-27.130137649599742,-43.928638610628276
2026-03-11T17:29:01.419,2033932,-771.0,1119.0,16296.0,-191.0,-92.0,-215.0,3898.0,5560.0,-3144.0,-71.91412668790701,-27.435086565073398,-44.22663283092777
2026-03-11T17:29:01.419,2033942,-768.0,1134.0,16347.0,-195.0,-55.0,-206.0,3906.0,5555.0,-3141.0,-72.30747853273292,-27.37171680735339,-44.401560078569126
2026-03-11T17:29:01.419,2033952,-959.0,1263.0,16524.0,-195.0,-55.0,-137.0,3906.0,5555.0,-3141.0,-72.684911703885,-27.297044495705656,-43.88781173777843
2026-03-11T17:29:01.419,2033962,432.0,914.0,16548.0,-156.0,-51.0,-137.0,3898.0,5568.0,-3144.0,-72.69678506015808,-27.280766444357,-43.39756596767644
2026-03-11T17:29:01.419,2033972,2484.0,171.0,16210.0,-196.0,52.0,440.0,3898.0,5568.0,-3144.0,-73.15156149357728,-26.399784803392052,-37.38442038801915
2026-03-11T17:29:01.419,2033982,2010.0,678.0,16448.0,-154.0,105.0,2189.0,3906.0,5530.0,-3156.0,-73.1505214130162,-24.982015814189747,-14.97987512324358
2026-03-11T17:29:01.419,2033992,410.0,1157.0,16512.0,-136.0,235.0,2991.0,3906.0,5530.0,-3156.0,-72.94014741608308,-22.20775367276002,14.040534799962323
2026-03-11T17:29:01.419,2034002,-316.0,1553.0,16551.0,-153.0,243.0,3232.0,3920.0,5473.0,-3135.0,-72.87353574305948,-19.360418507303805,44.02616730837392
2026-03-11T17:29:01.419,2034012,-1273.0,1573.0,16137.0,-155.0,194.0,2731.0,3920.0,5473.0,-3135.0,-72.82371543431104,-16.98222289851353,67.8641847333624
2026-03-11T17:29:01.420,2034022,-1010.0,577.0,16567.0,-90.0,228.0,3078.0,3931.0,5447.0,-3137.0,-72.20934698995744,-14.338446723728998,93.90082237782799
2026-03-11T17:29:01.420,2034032,-365.0,1009.0,16474.0,-102.0,238.0,3672.0,3931.0,5447.0,-3137.0,-71.69466254615418,-11.693940358055846,124.37574559141916
2026-03-11T17:29:01.420,2034042,-1702.0,2477.0,14583.0,-102.0,238.0,3672.0,3927.0,5397.0,-3123.0,-71.06756953709468,-8.99638613884239,153.42295506306536
2026-03-11T17:29:01.420,2034052,-1656.0,2144.0,17124.0,-151.0,87.0,2333.0,3927.0,5397.0,-3123.0,-70.98328721308958,-7.854235224424285,168.34923543059912
2026-03-11T17:29:01.420,2034062,-992.0,1553.0,15944.0,-126.0,-72.0,170.0,3944.0,5430.0,-3133.0,-70.68715636779194,-8.331880532946313,161.93260806024745
2026-03-11T17:29:01.420,2034072,1363.0,901.0,16408.0,-125.0,-169.0,-1569.0,3944.0,5430.0,-3133.0,-70.43555158354776,-9.91627298907634,139.2206521508659
2026-03-11T17:29:01.420,2034082,1209.0,207.0,16198.0,-146.0,-144.0,-807.0,3960.0,5433.0,-3144.0,-70.44299728630864,-11.21451210128579,124.82307903804802
2026-03-11T17:29:01.420,2034092,-587.0,356.0,16418.0,-175.0,97.0,1967.0,3960.0,5433.0,-3144.0,-70.72429375227449,-9.998678493605183,137.57663597827516
2026-03-11T17:29:01.420,2034102,-450.0,1263.0,16757.0,-137.0,215.0,3564.0,3960.0,5384.0,-3135.0,-70.56620151130346,-7.661026361469116,164.9755155287368
