recv_time,timestamp,ax,ay,az,gx,gy,gz,mx,my,mz
2026-03-11T17:23:02.797248,1675888,-688.0,794.0,14960.0,-158.0,-22.0,-186.0,1952.0,2645.0,-1534.0
2026-03-11T17:23:02.805539,1675898,-809.0,1282.0,16178.0,-119.0,-68.0,-145.0,1952.0,2645.0,-1534.0
2026-03-11T17:23:02.815517,1675908,-390.0,1362.0,18299.0,-123.0,-31.0,-108.0,3886.0,5259.0,-3079.0
2026-03-11T17:23:02.825690,1675918,-310.0,1043.0,16637.0,-123.0,-31.0,-147.0,3886.0,5259.0,-3079.0
2026-03-11T17:23:02.835339,1675928,-1541.0,1296.0,14914.0,-111.0,-40.0,-147.0,3889.0,5252.0,-3074.0
2026-03-11T17:23:02.868709,1675938,-765.0,1344.0,17012.0,-143.0,-37.0,-211.0,3889.0,5252.0,-3074.0
2026-03-11T17:23:02.871477,1675948,-962.0,1572.0,17752.0,-149.0,-24.0,-164.0,3883.0,5267.0,-3041.0
2026-03-11T17:23:02.876679,1675958,-455.0,1216.0,17271.0,-170.0,-73.0,-151.0,3883.0,5267.0,-3041.0
2026-03-11T17:23:02.876721,1675968,-556.0,851.0,15289.0,-142.0,-64.0,-66.0,3895.0,5258.0,-3019.0
2026-03-11T17:23:02.885330,1675978,-1261.0,1277.0,15792.0,-172.0,-34.0,-224.0,3895.0,5258.0,-3019.0
2026-03-11T17:23:02.895397,1675988,-1327.0,1546.0,17126.0,-187.0,-14.0,-139.0,3882.0,5231.0,-3044.0
2026-03-11T17:23:02.905772,1675998,-822.0,1332.0,17338.0,-166.0,-1.0,-209.0,3882.0,5231.0,-3044.0
2026-03-11T17:23:02.915666,1676008,-34.0,1069.0,18091.0,-166.0,-1.0,-209.0,3884.0,5249.0,-3029.0
2026-03-11T17:23:02.925366,1676018,-471.0,1125.0,17228.0,-145.0,-14.0,-205.0,3884.0,5249.0,-3029.0
2026-03-11T17:23:02.935352,1676028,-309.0,898.0,16460.0,-77.0,-13.0,-126.0,3884.0,5244.0,-3098.0
2026-03-11T17:23:02.944721,1676038,-866.0,1072.0,15655.0,-150.0,-4.0,-226.0,3884.0,5244.0,-3098.0
2026-03-11T17:23:02.955473,1676048,-1.0,755.0,16379.0,-145.0,-47.0,-136.0,3897.0,5272.0,-3065.0
2026-03-11T17:23:02.975247,1676058,-438.0,974.0,16264.0,-173.0,-45.0,-205.0,3897.0,5272.0,-3065.0
2026-03-11T17:23:02.982944,1676068,-1013.0,1078.0,15211.0,-149.0,-36.0,-128.0,3903.0,5247.0,-3019.0
2026-03-11T17:23:02.985357,1676078,-1289.0,1284.0,15656.0,-159.0,-49.0,-180.0,3903.0,5247.0,-3019.0
2026-03-11T17:23:02.998174,1676088,-1292.0,1605.0,17150.0,-118.0,-41.0,-113.0,3899.0,5258.0,-3093.0
2026-03-11T17:23:03.005934,1676098,-890.0,1357.0,16705.0,-118.0,-41.0,-113.0,3899.0,5258.0,-3093.0
2026-03-11T17:23:03.016589,1676108,-665.0,1442.0,17682.0,-136.0,-13.0,-136.0,3879.0,5262.0,-3039.0
2026-03-11T17:23:03.025364,1676118,-509.0,1146.0,16803.0,-133.0,10.0,-191.0,3879.0,5262.0,-3039.0
2026-03-11T17:23:03.035482,1676128,-416.0,1381.0,18232.0,-123.0,-42.0,-105.0,3878.0,5267.0,-3065.0
2026-03-11T17:23:03.046712,1676138,-413.0,1015.0,16503.0,-151.0,-19.0,-208.0,3878.0,5267.0,-3065.0
2026-03-11T17:23:03.055458,1676148,65.0,896.0,17188.0,-146.0,-45.0,-140.0,3889.0,5270.0,-3099.0
2026-03-11T17:23:03.075680,1676158,-590.0,1054.0,16420.0,-157.0,-57.0,-221.0,3889.0,5270.0,-3099.0
2026-03-11T17:23:03.077742,1676168,-535.0,717.0,14956.0,-189.0,-73.0,-154.0,3880.0,5244.0,-3092.0
2026-03-11T17:23:03.085492,1676178,-914.0,1150.0,16069.0,-189.0,-73.0,-154.0,3880.0,5244.0,-3092.0
2026-03-11T17:23:03.101457,1676188,-1502.0,1162.0,14836.0,-127.0,-37.0,-154.0,3891.0,5240.0,-3066.0
2026-03-11T17:23:03.107388,1676198,-844.0,1085.0,15974.0,-124.0,-55.0,-158.0,3891.0,5240.0,-3066.0
2026-03-11T17:23:03.115407,1676208,-1742.0,1506.0,15869.0,-139.0,-65.0,-157.0,3887.0,5270.0,-3005.0
2026-03-11T17:23:03.127638,1676218,-1253.0,1372.0,16171.0,-157.0,-31.0,-176.0,3887.0,5270.0,-3005.0
2026-03-11T17:23:03.135396,1676228,-1442.0,1086.0,14265.0,-116.0,-56.0,-132.0,3881.0,5262.0,-3040.0
2026-03-11T17:23:03.145763,1676238,-1138.0,1121.0,15198.0,-124.0,-20.0,-259.0,3881.0,5262.0,-3040.0
2026-03-11T17:23:03.155808,1676248,-216.0,803.0,15767.0,-189.0,-42.0,-204.0,3892.0,5264.0,-3115.0
2026-03-11T17:23:03.168276,1676258,-695.0,1213.0,16653.0,-143.0,-52.0,-222.0,3892.0,5264.0,-3115.0
2026-03-11T17:23:03.176201,1676268,-219.0,776.0,15618.0,-143.0,-52.0,-222.0,3881.0,5258.0,-3032.0
2026-03-11T17:23:03.185472,1676278,-340.0,993.0,16534.0,-143.0,-65.0,-185.0,3881.0,5258.0,-3032.0
2026-03-11T17:23:03.195391,1676288,-44.0,869.0,16595.0,-154.0,-21.0,-156.0,3877.0,5246.0,-3031.0
2026-03-11T17:23:03.205627,1676298,-786.0,1258.0,16962.0,-145.0,-8.0,-206.0,3877.0,5246.0,-3031.0
2026-03-11T17:23:03.215693,1676308,-1523.0,1617.0,16902.0,-160.0,-78.0,-159.0,3902.0,5255.0,-3112.0
2026-03-11T17:23:03.225417,1676318,-1138.0,1321.0,16432.0,-130.0,-62.0,-213.0,3902.0,5255.0,-3112.0
2026-03-11T17:23:03.235427,1676328,-627.0,1427.0,18273.0,-171.0,-60.0,-103.0,3884.0,5256.0,-3126.0
2026-03-11T17:23:03.265655,1676338,-562.0,1140.0,16890.0,-147.0,-16.0,-140.0,3884.0,5256.0,-3126.0
2026-03-11T17:23:03.272829,1676348,-30.0,737.0,16397.0,-147.0,-16.0,-171.0,3886.0,5250.0,-3094.0
2026-03-11T17:23:03.278342,1676358,-521.0,886.0,15890.0,-106.0,-78.0,-171.0,3886.0,5250.0,-3094.0
2026-03-11T17:23:03.278391,1676368,-405.0,723.0,15006.0,-156.0,-57.0,-177.0,3880.0,5256.0,-3071.0
2026-03-11T17:23:03.285655,1676378,-703.0,1126.0,16462.0,-149.0,-25.0,-208.0,3880.0,5256.0,-3071.0
2026-03-11T17:23:03.297318,1676388,-1203.0,1593.0,17353.0,-153.0,-34.0,-133.0,3885.0,5271.0,-3101.0
2026-03-11T17:23:03.306499,1676398,-977.0,1258.0,16449.0,-127.0,-40.0,-157.0,3885.0,5271.0,-3101.0
2026-03-11T17:23:03.318048,1676408,-1704.0,1379.0,14992.0,-116.0,-67.0,-117.0,3883.0,5253.0,-3042.0
2026-03-11T17:23:03.325613,1676418,-1039.0,1308.0,16258.0,-155.0,-26.0,-218.0,3883.0,5253.0,-3042.0
2026-03-11T17:23:03.335438,1676428,-1483.0,1466.0,15934.0,-145.0,-81.0,-143.0,3890.0,5256.0,-3133.0
2026-03-11T17:23:03.345836,1676438,-425.0,1171.0,17052.0,-145.0,-81.0,-143.0,3890.0,5256.0,-3133.0
2026-03-11T17:23:03.355690,1676448,-34.0,832.0,16343.0,-153.0,-88.0,-145.0,3884.0,5262.0,-3041.0
2026-03-11T17:23:03.365441,1676458,-690.0,964.0,15558.0,-121.0,-43.0,-184.0,3884.0,5262.0,-3041.0
2026-03-11T17:23:03.384001,1676468,-204.0,1199.0,17884.0,-101.0,-26.0,-125.0,3888.0,5259.0,-3114.0
2026-03-11T17:23:03.392376,1676478,-640.0,1223.0,17163.0,-131.0,-41.0,-252.0,3888.0,5259.0,-3114.0
2026-03-11T17:23:03.395194,1676488,-939.0,1510.0,17877.0,-100.0,-31.0,-139.0,3895.0,5258.0,-3036.0
2026-03-11T17:23:03.407475,1676498,-968.0,1220.0,16348.0,-131.0,-18.0,-208.0,3895.0,5258.0,-3036.0
2026-03-11T17:23:03.415438,1676508,-1118.0,844.0,14041.0,-155.0,-68.0,-109.0,3896.0,5257.0,-3115.0
2026-03-11T17:23:03.426003,1676518,-847.0,1056.0,15608.0,-144.0,-74.0,-161.0,3896.0,5257.0,-3115.0
2026-03-11T17:23:03.435705,1676528,-253.0,747.0,15708.0,-144.0,-74.0,-161.0,3901.0,5248.0,-3010.0
2026-03-11T17:23:03.445328,1676538,-854.0,1070.0,15679.0,-130.0,-67.0,-185.0,3901.0,5248.0,-3010.0
2026-03-11T17:23:03.456499,1676548,-111.0,786.0,15876.0,-177.0,-19.0,-145.0,3890.0,5258.0,-3103.0
2026-03-11T17:23:03.465842,1676558,-705.0,1071.0,15915.0,-123.0,-27.0,-200.0,3890.0,5258.0,-3103.0
2026-03-11T17:23:03.477007,1676568,42.0,812.0,16526.0,-118.0,-63.0,-143.0,3886.0,5265.0,-3096.0
2026-03-11T17:23:03.485446,1676578,-338.0,955.0,16498.0,-131.0,-43.0,-234.0,3886.0,5265.0,-3096.0
2026-03-11T17:23:03.494640,1676588,-1222.0,975.0,14216.0,-154.0,-54.0,-117.0,3882.0,5256.0,-3155.0
2026-03-11T17:23:03.510069,1676598,-992.0,1139.0,15601.0,-155.0,-56.0,-193.0,3882.0,5256.0,-3155.0
2026-03-11T17:23:03.515920,1676608,-311.0,775.0,15596.0,-155.0,-56.0,-193.0,3884.0,5253.0,-3086.0
2026-03-11T17:23:03.539981,1676618,-875.0,1057.0,15459.0,-155.0,-37.0,-185.0,3884.0,5253.0,-3086.0
2026-03-11T17:23:03.540631,1676628,-1279.0,1037.0,14741.0,-166.0,-57.0,-171.0,3887.0,5262.0,-3042.0
2026-03-11T17:23:03.545571,1676638,-1158.0,1260.0,16133.0,-162.0,-42.0,-186.0,3887.0,5262.0,-3042.0
2026-03-11T17:23:03.555425,1676648,-1429.0,983.0,13964.0,-172.0,-84.0,-151.0,3884.0,5270.0,-3119.0
2026-03-11T17:23:03.566584,1676658,-879.0,1050.0,15548.0,-178.0,-20.0,-268.0,3884.0,5270.0,-3119.0
2026-03-11T17:23:03.577743,1676668,-29.0,736.0,16165.0,-182.0,-51.0,-170.0,3867.0,5262.0,-2988.0
2026-03-11T17:23:03.585824,1676678,-758.0,1087.0,16173.0,-196.0,-31.0,-196.0,3867.0,5262.0,-2988.0
2026-03-11T17:23:03.595456,1676688,-1321.0,1584.0,17145.0,-143.0,-54.0,-131.0,3894.0,5265.0,-3042.0
2026-03-11T17:23:03.615024,1676698,-1195.0,1285.0,15768.0,-143.0,-54.0,-131.0,3894.0,5265.0,-3042.0
2026-03-11T17:23:03.624760,1676708,-834.0,836.0,14409.0,-149.0,-37.0,-131.0,3886.0,5244.0,-3051.0
2026-03-11T17:23:03.624827,1676718,-780.0,1091.0,15818.0,-143.0,-51.0,-180.0,3886.0,5244.0,-3051.0
2026-03-11T17:23:03.635478,1676728,85.0,905.0,17207.0,-145.0,-73.0,-158.0,3871.0,5254.0,-3024.0
2026-03-11T17:23:03.645436,1676738,-550.0,1056.0,16466.0,-167.0,-49.0,-206.0,3871.0,5254.0,-3024.0
2026-03-11T17:23:03.655655,1676748,-356.0,780.0,15403.0,-168.0,-65.0,-126.0,3880.0,5258.0,-3118.0
2026-03-11T17:23:03.666729,1676758,-452.0,961.0,16098.0,-117.0,-43.0,-202.0,3880.0,5258.0,-3118.0
2026-03-11T17:23:03.675755,1676768,-804.0,800.0,14509.0,-153.0,-35.0,-140.0,3893.0,5257.0,-3097.0
2026-03-11T17:23:03.695563,1676778,-982.0,1034.0,15384.0,-153.0,-35.0,-177.0,3893.0,5257.0,-3097.0
2026-03-11T17:23:03.701909,1676788,-1272.0,939.0,14012.0,-115.0,-51.0,-177.0,3890.0,5251.0,-3117.0
2026-03-11T17:23:03.706578,1676798,-887.0,1078.0,15798.0,-157.0,-68.0,-178.0,3890.0,5251.0,-3117.0
2026-03-11T17:23:03.715620,1676808,-258.0,1099.0,17448.0,-123.0,-41.0,-130.0,3890.0,5268.0,-3136.0
2026-03-11T17:23:03.726055,1676818,-870.0,1169.0,16482.0,-150.0,-36.0,-169.0,3890.0,5268.0,-3136.0
2026-03-11T17:23:03.735482,1676828,-41.0,852.0,16545.0,-120.0,-70.0,-101.0,3890.0,5248.0,-3071.0
2026-03-11T17:23:03.745918,1676838,-620.0,1137.0,16712.0,-144.0,-34.0,-167.0,3890.0,5248.0,-3071.0
2026-03-11T17:23:03.755546,1676848,-1571.0,1604.0,16548.0,-120.0,-59.0,-106.0,3883.0,5243.0,-3132.0
2026-03-11T17:23:03.765483,1676858,-1037.0,1343.0,16571.0,-149.0,-27.0,-180.0,3883.0,5243.0,-3132.0
2026-03-11T17:23:03.775788,1676868,-689.0,1381.0,17459.0,-149.0,-27.0,-180.0,3886.0,5264.0,-3145.0
2026-03-11T17:23:03.791055,1676878,-469.0,943.0,16057.0,-157.0,-35.0,-188.0,3886.0,5264.0,-3145.0
2026-03-11T17:23:03.796202,1676888,-85.0,796.0,16285.0,-141.0,-5.0,-184.0,3882.0,5244.0,-3044.0
2026-03-11T17:23:03.805698,1676898,-780.0,1011.0,15502.0,-132.0,-20.0,-202.0,3882.0,5244.0,-3044.0
2026-03-11T17:23:03.817216,1676908,-1190.0,1013.0,14698.0,-185.0,-69.0,-134.0,3884.0,5259.0,-3117.0
2026-03-11T17:23:03.825449,1676918,-448.0,1168.0,17233.0,-149.0,-15.0,-201.0,3884.0,5259.0,-3117.0
2026-03-11T17:23:03.835494,1676928,-526.0,807.0,15275.0,-151.0,-39.0,-117.0,3891.0,5261.0,-3094.0
2026-03-11T17:23:03.845548,1676938,-1190.0,1066.0,15000.0,-166.0,-29.0,-204.0,3891.0,5261.0,-3094.0
2026-03-11T17:23:03.855623,1676948,-1217.0,1389.0,16474.0,-152.0,-44.0,-179.0,3879.0,5253.0,-3045.0
2026-03-11T17:23:03.865605,1676958,-964.0,1053.0,15464.0,-152.0,-44.0,-179.0,3879.0,5253.0,-3045.0
2026-03-11T17:23:03.875087,1676968,-1676.0,1427.0,15619.0,-152.0,-40.0,-174.0,3881.0,5254.0,-3022.0
2026-03-11T17:23:03.885568,1676978,-1111.0,1297.0,16489.0,-146.0,-63.0,-197.0,3881.0,5254.0,-3022.0
2026-03-11T17:23:03.895524,1676988,-1815.0,1331.0,14877.0,-157.0,-67.0,-111.0,3890.0,5259.0,-3091.0
2026-03-11T17:23:03.905623,1676998,-1066.0,1113.0,15541.0,-112.0,-67.0,-177.0,3890.0,5259.0,-3091.0
2026-03-11T17:23:03.917389,1677008,-316.0,733.0,15366.0,-143.0,-92.0,-135.0,3896.0,5262.0,-3134.0
2026-03-11T17:23:03.925544,1677018,-792.0,1084.0,15990.0,-129.0,-68.0,-201.0,3896.0,5262.0,-3134.0
2026-03-11T17:23:03.937662,1677028,-1681.0,1255.0,14632.0,-156.0,-92.0,-136.0,3875.0,5257.0,-3102.0
2026-03-11T17:23:03.945587,1677038,-873.0,1082.0,15515.0,-156.0,-92.0,-136.0,3875.0,5257.0,-3102.0
2026-03-11T17:23:03.955744,1677048,129.0,913.0,17378.0,-145.0,-50.0,-169.0,3885.0,5250.0,-3124.0
2026-03-11T17:23:03.965590,1677058,-384.0,1035.0,16863.0,-157.0,-73.0,-210.0,3885.0,5250.0,-3124.0
2026-03-11T17:23:03.975600,1677068,23.0,975.0,17459.0,-126.0,-56.0,-110.0,3887.0,5253.0,-3103.0
2026-03-11T17:23:03.985577,1677078,-671.0,1089.0,16436.0,-157.0,-39.0,-169.0,3887.0,5253.0,-3103.0
2026-03-11T17:23:03.998292,1677088,-729.0,1448.0,17957.0,-126.0,-41.0,-129.0,3869.0,5247.0,-3103.0
2026-03-11T17:23:04.006117,1677098,-602.0,1158.0,16785.0,-175.0,-3.0,-207.0,3869.0,5247.0,-3103.0
2026-03-11T17:23:04.015678,1677108,-968.0,1541.0,17954.0,-164.0,-23.0,-177.0,3887.0,5246.0,-3102.0
2026-03-11T17:23:04.025550,1677118,-1022.0,1386.0,17048.0,-163.0,-62.0,-225.0,3887.0,5246.0,-3102.0
2026-03-11T17:23:04.035505,1677128,-194.0,1059.0,17379.0,-163.0,-62.0,-225.0,3884.0,5266.0,-3074.0
2026-03-11T17:23:04.045935,1677138,-769.0,1095.0,16200.0,-176.0,-24.0,-191.0,3884.0,5266.0,-3074.0
2026-03-11T17:23:04.055636,1677148,-1267.0,1041.0,14425.0,-160.0,-18.0,-147.0,3890.0,5253.0,-3012.0
2026-03-11T17:23:04.065696,1677158,-797.0,1117.0,16172.0,-158.0,-9.0,-164.0,3890.0,5253.0,-3012.0
2026-03-11T17:23:04.075977,1677168,-647.0,1475.0,18265.0,-126.0,-58.0,-108.0,3890.0,5259.0,-3097.0
2026-03-11T17:23:04.086632,1677178,-795.0,1214.0,16539.0,-113.0,-31.0,-178.0,3890.0,5259.0,-3097.0
2026-03-11T17:23:04.099102,1677188,-1792.0,1339.0,14831.0,-82.0,-39.0,-123.0,3899.0,5262.0,-3114.0
2026-03-11T17:23:04.105521,1677198,-975.0,1188.0,15946.0,-134.0,-5.0,-241.0,3899.0,5262.0,-3114.0
2026-03-11T17:23:04.115607,1677208,12.0,1086.0,17784.0,-134.0,-5.0,-155.0,3886.0,5256.0,-3122.0
2026-03-11T17:23:04.125550,1677218,-511.0,1040.0,16283.0,-178.0,-31.0,-155.0,3886.0,5256.0,-3122.0
2026-03-11T17:23:04.136077,1677228,-275.0,1261.0,18169.0,-117.0,-41.0,-151.0,3896.0,5260.0,-3061.0
2026-03-11T17:23:04.145563,1677238,-639.0,907.0,15489.0,-110.0,-26.0,-185.0,3896.0,5260.0,-3061.0
2026-03-11T17:23:04.155672,1677248,33.0,811.0,16630.0,-139.0,-45.0,-139.0,3893.0,5256.0,-3080.0
2026-03-11T17:23:04.165621,1677258,-530.0,946.0,16140.0,-154.0,12.0,-219.0,3893.0,5256.0,-3080.0
2026-03-11T17:23:04.178499,1677268,79.0,977.0,17714.0,-100.0,-28.0,-138.0,3890.0,5255.0,-3117.0
2026-03-11T17:23:04.185718,1677278,-480.0,1080.0,16852.0,-113.0,-32.0,-161.0,3890.0,5255.0,-3117.0
2026-03-11T17:23:04.219314,1677288,-743.0,1486.0,18121.0,-150.0,-67.0,-144.0,3885.0,5253.0,-3057.0
2026-03-11T17:23:04.230911,1677298,-699.0,1135.0,16464.0,-150.0,-67.0,-144.0,3885.0,5253.0,-3057.0
2026-03-11T17:23:04.232964,1677308,-1704.0,1231.0,14435.0,-129.0,-55.0,-206.0,3888.0,5252.0,-3101.0
2026-03-11T17:23:04.233002,1677318,-1386.0,1295.0,15644.0,-119.0,-19.0,-187.0,3888.0,5252.0,-3101.0
2026-03-11T17:23:04.234734,1677328,-1581.0,1222.0,14685.0,-113.0,-35.0,-132.0,3873.0,5258.0,-3091.0
2026-03-11T17:23:04.244488,1677338,-1131.0,1231.0,15793.0,-110.0,6.0,-230.0,3873.0,5258.0,-3091.0
2026-03-11T17:23:04.255603,1677348,-1177.0,902.0,14015.0,-117.0,-67.0,-162.0,3867.0,5256.0,-3081.0
2026-03-11T17:23:04.265593,1677358,-916.0,1153.0,15781.0,-93.0,-15.0,-231.0,3867.0,5256.0,-3081.0
2026-03-11T17:23:04.275625,1677368,137.0,960.0,17547.0,-92.0,-12.0,-158.0,3886.0,5266.0,-3085.0
2026-03-11T17:23:04.285650,1677378,-630.0,1048.0,16308.0,-127.0,-36.0,-233.0,3886.0,5266.0,-3085.0
2026-03-11T17:23:04.295649,1677388,-1237.0,940.0,14124.0,-127.0,-36.0,-233.0,3892.0,5261.0,-3132.0
2026-03-11T17:23:04.305688,1677398,-1003.0,1151.0,15879.0,-157.0,-62.0,-175.0,3892.0,5261.0,-3132.0
2026-03-11T17:23:04.315589,1677408,-206.0,1217.0,18100.0,-216.0,-16.0,-118.0,3887.0,5247.0,-3024.0
2026-03-11T17:23:04.327043,1677418,-851.0,1155.0,16418.0,-186.0,-9.0,-202.0,3887.0,5247.0,-3024.0
2026-03-11T17:23:04.335622,1677428,-1778.0,1471.0,15658.0,-173.0,-38.0,-147.0,3896.0,5236.0,-3107.0
2026-03-11T17:23:04.348073,1677438,-966.0,1219.0,16243.0,-159.0,-34.0,-201.0,3896.0,5236.0,-3107.0
2026-03-11T17:23:04.355695,1677448,-534.0,1243.0,17572.0,-134.0,-84.0,-138.0,3896.0,5261.0,-3077.0
2026-03-11T17:23:04.365696,1677458,-1149.0,1356.0,16423.0,-149.0,-63.0,-193.0,3896.0,5261.0,-3077.0
2026-03-11T17:23:04.375602,1677468,-1746.0,1425.0,15225.0,-149.0,-63.0,-193.0,3883.0,5253.0,-3057.0
2026-03-11T17:23:04.385608,1677478,-1470.0,1446.0,16070.0,-140.0,-97.0,-133.0,3883.0,5253.0,-3057.0
2026-03-11T17:23:04.395600,1677488,-843.0,952.0,15105.0,-121.0,-62.0,-100.0,3884.0,5263.0,-3007.0
2026-03-11T17:23:04.405726,1677498,-572.0,1055.0,16323.0,-183.0,-38.0,-175.0,3884.0,5263.0,-3007.0
2026-03-11T17:23:04.415644,1677508,27.0,1060.0,17782.0,-165.0,-67.0,-141.0,3885.0,5252.0,-3064.0
2026-03-11T17:23:04.433513,1677518,-352.0,973.0,16401.0,-167.0,-45.0,-185.0,3885.0,5252.0,-3064.0
2026-03-11T17:23:04.440833,1677528,-196.0,746.0,15752.0,-137.0,-19.0,-125.0,3887.0,5268.0,-3061.0
2026-03-11T17:23:04.445502,1677538,-659.0,966.0,15843.0,-93.0,-40.0,-210.0,3887.0,5268.0,-3061.0
2026-03-11T17:23:04.455705,1677548,-596.0,768.0,14915.0,-83.0,-51.0,-130.0,3904.0,5259.0,-3105.0
2026-03-11T17:23:04.467867,1677558,-879.0,1151.0,16075.0,-83.0,-51.0,-130.0,3904.0,5259.0,-3105.0
2026-03-11T17:23:04.475582,1677568,16.0,814.0,16783.0,-137.0,-46.0,-198.0,3897.0,5261.0,-3075.0
2026-03-11T17:23:04.486243,1677578,-626.0,1056.0,16268.0,-182.0,-24.0,-210.0,3897.0,5261.0,-3075.0
2026-03-11T17:23:04.514496,1677588,-81.0,1137.0,18138.0,-126.0,-38.0,-132.0,3881.0,5250.0,-3082.0
2026-03-11T17:23:04.523999,1677598,-536.0,1056.0,16671.0,-152.0,-60.0,-207.0,3881.0,5250.0,-3082.0
2026-03-11T17:23:04.524057,1677608,-485.0,1419.0,18402.0,-149.0,-35.0,-125.0,3886.0,5249.0,-3115.0
2026-03-11T17:23:04.525467,1677618,-681.0,1139.0,16648.0,-123.0,-10.0,-229.0,3886.0,5249.0,-3115.0
2026-03-11T17:23:04.540635,1677628,-440.0,821.0,15344.0,-147.0,-48.0,-150.0,3875.0,5256.0,-3078.0
2026-03-11T17:23:04.545624,1677638,-587.0,1058.0,16112.0,-147.0,-48.0,-189.0,3875.0,5256.0,-3078.0
2026-03-11T17:23:04.557973,1677648,-442.0,764.0,14887.0,-146.0,-30.0,-189.0,3901.0,5254.0,-3036.0
2026-03-11T17:23:04.565907,1677658,-812.0,1146.0,16107.0,-155.0,-32.0,-186.0,3901.0,5254.0,-3036.0
2026-03-11T17:23:04.575651,1677668,-1231.0,1547.0,17075.0,-136.0,-50.0,-135.0,3876.0,5265.0,-3076.0
2026-03-11T17:23:04.590653,1677678,-806.0,1131.0,16334.0,-170.0,-36.0,-196.0,3876.0,5265.0,-3076.0
2026-03-11T17:23:04.616827,1677688,16.0,939.0,17154.0,-132.0,-28.0,-155.0,3879.0,5262.0,-3084.0
2026-03-11T17:23:04.618823,1677698,-912.0,1129.0,15972.0,-142.0,3.0,-206.0,3879.0,5262.0,-3084.0
2026-03-11T17:23:04.618858,1677708,-601.0,890.0,15468.0,-160.0,-35.0,-152.0,3886.0,5241.0,-3100.0
2026-03-11T17:23:04.625648,1677718,-781.0,1065.0,16072.0,-137.0,-44.0,-194.0,3886.0,5241.0,-3100.0
2026-03-11T17:23:04.636201,1677728,-1280.0,1559.0,17190.0,-137.0,-44.0,-194.0,3887.0,5266.0,-3102.0
2026-03-11T17:23:04.645914,1677738,-822.0,1309.0,17071.0,-130.0,-61.0,-205.0,3887.0,5266.0,-3102.0
2026-03-11T17:23:04.655655,1677748,-852.0,1480.0,17956.0,-116.0,-70.0,-171.0,3876.0,5260.0,-3036.0
2026-03-11T17:23:04.665684,1677758,-639.0,981.0,15866.0,-135.0,-57.0,-184.0,3876.0,5260.0,-3036.0
2026-03-11T17:23:04.675820,1677768,-1070.0,1313.0,16320.0,-134.0,-76.0,-108.0,3894.0,5252.0,-3109.0
2026-03-11T17:23:04.686787,1677778,-1095.0,1115.0,15339.0,-165.0,-55.0,-198.0,3894.0,5252.0,-3109.0
2026-03-11T17:23:04.695616,1677788,-441.0,1322.0,17910.0,-128.0,-42.0,-125.0,3889.0,5261.0,-3051.0
2026-03-11T17:23:04.713984,1677798,-553.0,1218.0,17169.0,-138.0,8.0,-189.0,3889.0,5261.0,-3051.0
2026-03-11T17:23:04.719513,1677808,-85.0,1096.0,17685.0,-177.0,-6.0,-148.0,3879.0,5258.0,-3102.0
2026-03-11T17:23:04.725589,1677818,-645.0,1124.0,16443.0,-177.0,-6.0,-148.0,3879.0,5258.0,-3102.0
2026-03-11T17:23:04.738773,1677828,-482.0,1416.0,18339.0,-129.0,-59.0,-191.0,3884.0,5252.0,-3053.0
2026-03-11T17:23:04.745680,1677838,-441.0,977.0,16269.0,-138.0,-61.0,-157.0,3884.0,5252.0,-3053.0
2026-03-11T17:23:04.756568,1677848,-857.0,804.0,14647.0,-91.0,-28.0,-140.0,3886.0,5262.0,-3075.0
2026-03-11T17:23:04.766989,1677858,-1063.0,1067.0,15221.0,-146.0,-39.0,-236.0,3886.0,5262.0,-3075.0
2026-03-11T17:23:04.775828,1677868,-687.0,755.0,14585.0,-167.0,-61.0,-126.0,3885.0,5272.0,-3111.0
2026-03-11T17:23:04.785951,1677878,-992.0,1037.0,15411.0,-106.0,-15.0,-177.0,3885.0,5272.0,-3111.0
2026-03-11T17:23:04.796801,1677888,-1690.0,1515.0,16065.0,-123.0,-59.0,-132.0,3895.0,5262.0,-3105.0
2026-03-11T17:23:04.808534,1677898,-966.0,1224.0,16260.0,-123.0,-59.0,-132.0,3895.0,5262.0,-3105.0
2026-03-11T17:23:04.817100,1677908,30.0,946.0,17496.0,-139.0,-55.0,-160.0,3885.0,5261.0,-3090.0
2026-03-11T17:23:04.826853,1677918,-437.0,987.0,16392.0,-194.0,-68.0,-149.0,3885.0,5261.0,-3090.0
2026-03-11T17:23:04.840507,1677928,27.0,955.0,17277.0,-137.0,-61.0,-162.0,3893.0,5254.0,-3050.0
2026-03-11T17:23:04.847064,1677938,-723.0,974.0,15577.0,-132.0,-2.0,-225.0,3893.0,5254.0,-3050.0
2026-03-11T17:23:04.855822,1677948,79.0,968.0,17559.0,-125.0,-27.0,-96.0,3894.0,5264.0,-3096.0
2026-03-11T17:23:04.907426,1677958,-611.0,930.0,15695.0,-135.0,-26.0,-200.0,3894.0,5264.0,-3096.0
2026-03-11T17:23:04.920043,1677968,-1144.0,922.0,14111.0,-122.0,-67.0,-158.0,3890.0,5252.0,-3076.0
2026-03-11T17:23:04.920077,1677978,-866.0,1131.0,15867.0,-207.0,-21.0,-225.0,3890.0,5252.0,-3076.0
2026-03-11T17:23:04.920099,1677988,64.0,1007.0,17724.0,-207.0,-21.0,-225.0,3892.0,5256.0,-3057.0
2026-03-11T17:23:04.920118,1677998,-693.0,1191.0,16747.0,-249.0,-38.0,-193.0,3892.0,5256.0,-3057.0
2026-03-11T17:23:04.920184,1678008,-1204.0,1592.0,17411.0,-145.0,-60.0,-157.0,3886.0,5254.0,-3071.0
2026-03-11T17:23:04.925921,1678018,-758.0,1233.0,16757.0,-135.0,-47.0,-169.0,3886.0,5254.0,-3071.0
2026-03-11T17:23:04.945326,1678028,-1744.0,1242.0,14495.0,-97.0,-36.0,-122.0,3890.0,5246.0,-3057.0
2026-03-11T17:23:04.954916,1678038,-912.0,1165.0,15890.0,-138.0,-22.0,-223.0,3890.0,5246.0,-3057.0
2026-03-11T17:23:04.955004,1678048,-986.0,985.0,15015.0,-109.0,-40.0,-152.0,3887.0,5267.0,-3093.0
2026-03-11T17:23:04.965701,1678058,-1017.0,1360.0,16843.0,-128.0,-22.0,-205.0,3887.0,5267.0,-3093.0
2026-03-11T17:23:04.975677,1678068,-116.0,862.0,16647.0,-128.0,-22.0,-160.0,3879.0,5247.0,-3074.0
2026-03-11T17:23:04.985712,1678078,-576.0,931.0,15582.0,-133.0,-23.0,-160.0,3879.0,5247.0,-3074.0
2026-03-11T17:23:04.998727,1678088,-1307.0,1260.0,15532.0,-156.0,-69.0,-152.0,3880.0,5257.0,-3082.0
2026-03-11T17:23:05.023483,1678098,-556.0,1247.0,17291.0,-160.0,-47.0,-198.0,3880.0,5257.0,-3082.0
2026-03-11T17:23:05.031277,1678108,-32.0,1037.0,17675.0,-145.0,-64.0,-185.0,3889.0,5257.0,-3149.0
2026-03-11T17:23:05.031337,1678118,-508.0,966.0,15910.0,-126.0,-56.0,-247.0,3889.0,5257.0,-3149.0
2026-03-11T17:23:05.035612,1678128,-589.0,765.0,14802.0,-145.0,-73.0,-137.0,3874.0,5256.0,-3110.0
2026-03-11T17:23:05.045755,1678138,-943.0,1065.0,15492.0,-133.0,-38.0,-225.0,3874.0,5256.0,-3110.0
2026-03-11T17:23:05.055954,1678148,-759.0,790.0,14598.0,-137.0,-35.0,-179.0,3883.0,5266.0,-3082.0
2026-03-11T17:23:05.066045,1678158,-494.0,1050.0,16559.0,-137.0,-35.0,-179.0,3883.0,5266.0,-3082.0
2026-03-11T17:23:05.084705,1678168,-349.0,1331.0,18552.0,-108.0,-22.0,-194.0,3885.0,5257.0,-3068.0
2026-03-11T17:23:05.105076,1678178,-791.0,1184.0,16514.0,-117.0,-32.0,-199.0,3885.0,5257.0,-3068.0
2026-03-11T17:23:05.112313,1678188,-1766.0,1313.0,14699.0,-113.0,-50.0,-164.0,3888.0,5254.0,-3073.0
2026-03-11T17:23:05.127568,1678198,-1324.0,1215.0,15316.0,-123.0,-56.0,-204.0,3888.0,5254.0,-3073.0
2026-03-11T17:23:05.130836,1678208,-1648.0,1168.0,14309.0,-122.0,-49.0,-139.0,3883.0,5259.0,-3050.0
2026-03-11T17:23:05.130888,1678218,-1211.0,1160.0,15402.0,-150.0,9.0,-210.0,3883.0,5259.0,-3050.0
2026-03-11T17:23:05.181589,1678228,-1070.0,867.0,14170.0,-139.0,-29.0,-135.0,3875.0,5264.0,-3047.0
2026-03-11T17:23:05.182856,1678238,-1073.0,1047.0,15008.0,-130.0,-71.0,-173.0,3875.0,5264.0,-3047.0
2026-03-11T17:23:05.182898,1678248,-1074.0,1350.0,16419.0,-130.0,-71.0,-173.0,3885.0,5247.0,-3111.0
2026-03-11T17:23:05.182930,1678258,-400.0,1042.0,16590.0,-123.0,-39.0,-189.0,3885.0,5247.0,-3111.0
2026-03-11T17:23:05.182961,1678268,-928.0,1084.0,15703.0,-159.0,-76.0,-136.0,3893.0,5267.0,-3078.0
2026-03-11T17:23:05.185606,1678278,-464.0,1208.0,17208.0,-180.0,-46.0,-177.0,3893.0,5267.0,-3078.0
2026-03-11T17:23:05.196912,1678288,-1177.0,1010.0,14797.0,-142.0,-55.0,-155.0,3890.0,5254.0,-3095.0
2026-03-11T17:23:05.206828,1678298,-1333.0,1231.0,15595.0,-174.0,-37.0,-238.0,3890.0,5254.0,-3095.0
2026-03-11T17:23:05.226870,1678308,-686.0,1229.0,16902.0,-140.0,-60.0,-138.0,3880.0,5249.0,-3055.0
2026-03-11T17:23:05.230100,1678318,-948.0,1028.0,15275.0,-154.0,-25.0,-170.0,3880.0,5249.0,-3055.0
2026-03-11T17:23:05.236945,1678328,-1106.0,1453.0,17081.0,-154.0,-25.0,-170.0,3886.0,5267.0,-3150.0
2026-03-11T17:23:05.254534,1678338,-494.0,1221.0,17407.0,-141.0,-44.0,-138.0,3886.0,5267.0,-3150.0
2026-03-11T17:23:05.268546,1678348,-470.0,937.0,16123.0,-147.0,-40.0,-150.0,3882.0,5255.0,-3040.0
2026-03-11T17:23:05.290598,1678358,-798.0,1332.0,17179.0,-145.0,-33.0,-208.0,3882.0,5255.0,-3040.0
2026-03-11T17:23:05.298428,1678368,-402.0,1382.0,18391.0,-170.0,-78.0,-101.0,3870.0,5261.0,-3032.0
2026-03-11T17:23:05.298484,1678378,-541.0,1298.0,17531.0,-164.0,-49.0,-202.0,3870.0,5261.0,-3032.0
2026-03-11T17:23:05.301333,1678388,-199.0,1265.0,18351.0,-125.0,-98.0,-122.0,3885.0,5252.0,-3050.0
2026-03-11T17:23:05.306801,1678398,-791.0,1190.0,16501.0,-118.0,-21.0,-205.0,3885.0,5252.0,-3050.0
2026-03-11T17:23:05.318011,1678408,-144.0,878.0,16444.0,-150.0,-14.0,-144.0,3888.0,5247.0,-3115.0
2026-03-11T17:23:05.334741,1678418,-717.0,1148.0,16500.0,-150.0,-14.0,-144.0,3888.0,5247.0,-3115.0
2026-03-11T17:23:05.346239,1678428,-1428.0,1050.0,14426.0,-178.0,-41.0,-180.0,3889.0,5248.0,-3082.0
2026-03-11T17:23:05.346304,1678438,-870.0,1038.0,15658.0,-169.0,-47.0,-180.0,3889.0,5248.0,-3082.0
2026-03-11T17:23:05.360309,1678448,29.0,847.0,17077.0,-163.0,-53.0,-142.0,3883.0,5254.0,-3130.0
2026-03-11T17:23:05.370870,1678458,-568.0,1156.0,17039.0,-183.0,-47.0,-226.0,3883.0,5254.0,-3130.0
2026-03-11T17:23:05.385651,1678468,-1030.0,1540.0,17739.0,-139.0,-51.0,-197.0,3885.0,5244.0,-3032.0
2026-03-11T17:23:05.385700,1678478,-448.0,1197.0,17328.0,-162.0,-54.0,-230.0,3885.0,5244.0,-3032.0
2026-03-11T17:23:05.395758,1678488,-627.0,931.0,15795.0,-159.0,-52.0,-154.0,3884.0,5246.0,-3032.0
2026-03-11T17:23:05.407560,1678498,-938.0,1142.0,15691.0,-159.0,-52.0,-172.0,3884.0,5246.0,-3032.0
2026-03-11T17:23:05.416065,1678508,-754.0,798.0,14664.0,-166.0,-31.0,-172.0,3896.0,5256.0,-3115.0
2026-03-11T17:23:05.429087,1678518,-1360.0,1297.0,15678.0,-165.0,-60.0,-165.0,3896.0,5256.0,-3115.0
2026-03-11T17:23:05.435776,1678528,-1101.0,1582.0,17635.0,-84.0,-43.0,-145.0,3883.0,5247.0,-3096.0
2026-03-11T17:23:05.445691,1678538,-851.0,1333.0,17119.0,-147.0,10.0,-222.0,3883.0,5247.0,-3096.0
2026-03-11T17:23:05.462855,1678548,-835.0,1511.0,17867.0,-146.0,-10.0,-165.0,3882.0,5238.0,-3046.0
2026-03-11T17:23:05.469011,1678558,-853.0,1203.0,16448.0,-120.0,-19.0,-218.0,3882.0,5238.0,-3046.0
2026-03-11T17:23:05.475776,1678568,-301.0,709.0,15380.0,-183.0,-70.0,-143.0,3883.0,5256.0,-3133.0
2026-03-11T17:23:05.485744,1678578,-811.0,957.0,15368.0,-114.0,-26.0,-185.0,3883.0,5256.0,-3133.0
2026-03-11T17:23:05.495622,1678588,-1358.0,1008.0,14179.0,-114.0,-26.0,-185.0,3879.0,5256.0,-3053.0
2026-03-11T17:23:05.505767,1678598,-938.0,1193.0,16111.0,-176.0,-16.0,-149.0,3879.0,5256.0,-3053.0
2026-03-11T17:23:05.515788,1678608,35.0,1049.0,17983.0,-181.0,-30.0,-137.0,3893.0,5247.0,-3100.0
2026-03-11T17:23:05.525619,1678618,-435.0,944.0,16217.0,-192.0,17.0,-176.0,3893.0,5247.0,-3100.0
2026-03-11T17:23:05.535653,1678628,-1076.0,1416.0,17000.0,-145.0,-68.0,-149.0,3888.0,5255.0,-3095.0
2026-03-11T17:23:05.545728,1678638,-394.0,1118.0,17193.0,-165.0,-3.0,-223.0,3888.0,5255.0,-3095.0
2026-03-11T17:23:05.564378,1678648,-905.0,902.0,14849.0,-150.0,-23.0,-162.0,3885.0,5252.0,-3094.0
2026-03-11T17:23:05.565530,1678658,-1213.0,1247.0,15754.0,-146.0,-24.0,-207.0,3885.0,5252.0,-3094.0
2026-03-11T17:23:05.575714,1678668,-190.0,786.0,15907.0,-142.0,-54.0,-149.0,3888.0,5259.0,-3117.0
2026-03-11T17:23:05.585703,1678678,-468.0,1089.0,16723.0,-142.0,-54.0,-149.0,3888.0,5259.0,-3117.0
2026-03-11T17:23:05.595686,1678688,-96.0,1203.0,18205.0,-120.0,-29.0,-135.0,3870.0,5258.0,-3085.0
2026-03-11T17:23:05.607023,1678698,-420.0,1175.0,17399.0,-147.0,-44.0,-162.0,3870.0,5258.0,-3085.0
2026-03-11T17:23:05.616167,1678708,-34.0,1102.0,18059.0,-111.0,-58.0,-125.0,3868.0,5251.0,-3140.0
2026-03-11T17:23:05.626485,1678718,-382.0,1012.0,16721.0,-125.0,-10.0,-200.0,3868.0,5251.0,-3140.0
2026-03-11T17:23:05.635790,1678728,-1409.0,1045.0,14379.0,-90.0,-57.0,-131.0,3878.0,5238.0,-3119.0
2026-03-11T17:23:05.645757,1678738,-1164.0,1201.0,15513.0,-103.0,-61.0,-192.0,3878.0,5238.0,-3119.0
2026-03-11T17:23:05.660451,1678748,-1574.0,1096.0,14140.0,-156.0,-16.0,-166.0,3884.0,5258.0,-3060.0
2026-03-11T17:23:05.665762,1678758,-973.0,1225.0,16125.0,-156.0,-16.0,-166.0,3884.0,5258.0,-3060.0
2026-03-11T17:23:05.677492,1678768,-186.0,1098.0,17478.0,-116.0,-60.0,-189.0,3877.0,5258.0,-3036.0
2026-03-11T17:23:05.686300,1678778,-571.0,1140.0,16747.0,-144.0,-12.0,-160.0,3877.0,5258.0,-3036.0
2026-03-11T17:23:05.695861,1678788,-509.0,732.0,14964.0,-153.0,-52.0,-155.0,3885.0,5248.0,-3095.0
2026-03-11T17:23:05.706053,1678798,-459.0,1010.0,16434.0,-130.0,-42.0,-193.0,3885.0,5248.0,-3095.0
2026-03-11T17:23:05.715790,1678808,-463.0,905.0,15979.0,-103.0,-56.0,-157.0,3896.0,5255.0,-3125.0
2026-03-11T17:23:05.789941,1678818,-1045.0,1086.0,15335.0,-191.0,-28.0,-215.0,3896.0,5255.0,-3125.0
2026-03-11T17:23:05.847968,1678828,-900.0,786.0,14252.0,-155.0,-50.0,-156.0,3882.0,5260.0,-3122.0
2026-03-11T17:23:05.848021,1678838,-841.0,1130.0,15957.0,-186.0,-21.0,-218.0,3882.0,5260.0,-3122.0
2026-03-11T17:23:05.848055,1678848,-785.0,1525.0,18212.0,-186.0,-21.0,-218.0,3887.0,5258.0,-3096.0
2026-03-11T17:23:05.848086,1678858,-1115.0,1294.0,16211.0,-203.0,-42.0,-166.0,3887.0,5258.0,-3096.0
2026-03-11T17:23:05.848116,1678868,-1730.0,1362.0,14991.0,-186.0,-42.0,-153.0,3882.0,5245.0,-3018.0
2026-03-11T17:23:05.848146,1678878,-967.0,1366.0,17065.0,-170.0,-69.0,-156.0,3882.0,5245.0,-3018.0
2026-03-11T17:23:05.848176,1678888,-1329.0,1597.0,17179.0,-144.0,-101.0,-136.0,3883.0,5259.0,-3115.0
2026-03-11T17:23:05.848206,1678898,-709.0,1137.0,16454.0,-114.0,-34.0,-219.0,3883.0,5259.0,-3115.0
2026-03-11T17:23:05.848236,1678908,-449.0,735.0,14958.0,-114.0,-62.0,-180.0,3885.0,5265.0,-3054.0
2026-03-11T17:23:05.848266,1678918,-655.0,1020.0,15964.0,-128.0,-64.0,-210.0,3885.0,5265.0,-3054.0
2026-03-11T17:23:05.848397,1678928,84.0,862.0,17036.0,-128.0,-64.0,-153.0,3892.0,5260.0,-3054.0
2026-03-11T17:23:05.848435,1678938,-504.0,974.0,16009.0,-153.0,-78.0,-153.0,3892.0,5260.0,-3054.0
2026-03-11T17:23:05.855977,1678948,-372.0,761.0,15320.0,-161.0,-60.0,-174.0,3889.0,5250.0,-3133.0
2026-03-11T17:23:05.865872,1678958,-774.0,931.0,15195.0,-143.0,-30.0,-145.0,3889.0,5250.0,-3133.0
2026-03-11T17:23:05.883581,1678968,-51.0,837.0,16471.0,-109.0,-68.0,-162.0,3880.0,5271.0,-3126.0
2026-03-11T17:23:05.886843,1678978,-335.0,1090.0,17062.0,-99.0,-28.0,-241.0,3880.0,5271.0,-3126.0
2026-03-11T17:23:05.907814,1678988,-60.0,827.0,16508.0,-124.0,-48.0,-149.0,3894.0,5264.0,-3013.0
2026-03-11T17:23:05.956275,1678998,-523.0,1061.0,16540.0,-158.0,-38.0,-217.0,3894.0,5264.0,-3013.0
2026-03-11T17:23:05.969864,1679008,-706.0,1471.0,18266.0,-149.0,-41.0,-140.0,3893.0,5263.0,-3144.0
2026-03-11T17:23:05.969928,1679018,-622.0,1151.0,16781.0,-149.0,-41.0,-140.0,3893.0,5263.0,-3144.0
2026-03-11T17:23:05.969961,1679028,-789.0,784.0,14428.0,-171.0,-73.0,-212.0,3882.0,5257.0,-3087.0
2026-03-11T17:23:05.969992,1679038,-644.0,1110.0,16396.0,-142.0,-20.0,-173.0,3882.0,5257.0,-3087.0
2026-03-11T17:23:05.970023,1679048,-1450.0,1547.0,16719.0,-98.0,-46.0,-125.0,3882.0,5260.0,-3138.0
2026-03-11T17:23:05.970052,1679058,-960.0,1210.0,16104.0,-153.0,-65.0,-177.0,3882.0,5260.0,-3138.0
2026-03-11T17:23:05.975946,1679068,-845.0,1468.0,17837.0,-99.0,-61.0,-111.0,3885.0,5266.0,-3122.0
2026-03-11T17:23:05.989817,1679078,-1026.0,1231.0,16225.0,-151.0,-46.0,-226.0,3885.0,5266.0,-3122.0
2026-03-11T17:23:06.035809,1679088,-1362.0,993.0,14225.0,-169.0,-76.0,-89.0,3886.0,5262.0,-3022.0
2026-03-11T17:23:06.038675,1679098,-999.0,1147.0,15881.0,-127.0,-51.0,-168.0,3886.0,5262.0,-3022.0
2026-03-11T17:23:06.040115,1679108,-127.0,1164.0,18075.0,-127.0,-51.0,-168.0,3877.0,5252.0,-3083.0
2026-03-11T17:23:06.040157,1679118,-646.0,1075.0,16448.0,-88.0,-51.0,-150.0,3877.0,5252.0,-3083.0
2026-03-11T17:23:06.040190,1679128,-966.0,818.0,14160.0,-120.0,-23.0,-158.0,3890.0,5256.0,-3063.0
2026-03-11T17:23:06.045931,1679138,-851.0,1143.0,15974.0,-143.0,-32.0,-184.0,3890.0,5256.0,-3063.0
2026-03-11T17:23:06.067896,1679148,-256.0,1317.0,18427.0,-119.0,-80.0,-135.0,3877.0,5260.0,-3127.0
2026-03-11T17:23:06.074810,1679158,-743.0,1205.0,16685.0,-181.0,-21.0,-239.0,3877.0,5260.0,-3127.0
2026-03-11T17:23:06.074870,1679168,-1356.0,1495.0,16572.0,-147.0,5.0,-122.0,3891.0,5258.0,-3019.0
2026-03-11T17:23:06.089490,1679178,-389.0,1177.0,17313.0,-140.0,-35.0,-188.0,3891.0,5258.0,-3019.0
2026-03-11T17:23:06.096117,1679188,41.0,931.0,17374.0,-140.0,-35.0,-188.0,3880.0,5267.0,-3035.0
2026-03-11T17:23:06.106286,1679198,-580.0,977.0,15955.0,-143.0,-65.0,-154.0,3880.0,5267.0,-3035.0
2026-03-11T17:23:06.116013,1679208,-65.0,750.0,16135.0,-175.0,-32.0,-150.0,3876.0,5245.0,-3073.0
2026-03-11T17:23:06.126026,1679218,-590.0,1076.0,16297.0,-132.0,-51.0,-155.0,3876.0,5245.0,-3073.0
2026-03-11T17:23:06.135989,1679228,-320.0,1327.0,18440.0,-96.0,-39.0,-80.0,3878.0,5251.0,-3121.0
2026-03-11T17:23:06.147193,1679238,-764.0,1106.0,16239.0,-165.0,-7.0,-192.0,3878.0,5251.0,-3121.0
2026-03-11T17:23:06.156085,1679248,-1427.0,1078.0,14414.0,-182.0,-57.0,-117.0,3881.0,5244.0,-3122.0
2026-03-11T17:23:06.166292,1679258,-728.0,928.0,15261.0,-174.0,-65.0,-221.0,3881.0,5244.0,-3122.0
2026-03-11T17:23:06.176014,1679268,-166.0,717.0,15760.0,-150.0,-58.0,-112.0,3878.0,5255.0,-3106.0
2026-03-11T17:23:06.214111,1679278,-793.0,1051.0,15759.0,-150.0,-58.0,-112.0,3878.0,5255.0,-3106.0
2026-03-11T17:23:06.250341,1679288,-816.0,1500.0,18035.0,-156.0,-42.0,-158.0,3889.0,5259.0,-3024.0
2026-03-11T17:23:06.256603,1679298,-363.0,978.0,16706.0,-167.0,-68.0,-133.0,3889.0,5259.0,-3024.0
2026-03-11T17:23:06.256653,1679308,-1261.0,1050.0,14618.0,-123.0,-47.0,-141.0,3883.0,5257.0,-3058.0
2026-03-11T17:23:06.256686,1679318,-830.0,1170.0,16353.0,-169.0,-41.0,-214.0,3883.0,5257.0,-3058.0
2026-03-11T17:23:06.256716,1679328,-586.0,798.0,14809.0,-161.0,-11.0,-120.0,3881.0,5264.0,-3125.0
2026-03-11T17:23:06.256746,1679338,-606.0,999.0,15963.0,-136.0,-22.0,-236.0,3881.0,5264.0,-3125.0
2026-03-11T17:23:06.256776,1679348,4.0,878.0,16924.0,-108.0,-62.0,-171.0,3876.0,5255.0,-3007.0
2026-03-11T17:23:06.282035,1679358,-472.0,1009.0,16439.0,-108.0,-62.0,-214.0,3876.0,5255.0,-3007.0
2026-03-11T17:23:06.289335,1679368,-74.0,1190.0,18322.0,-155.0,-32.0,-214.0,3894.0,5272.0,-3107.0
2026-03-11T17:23:06.291500,1679378,-619.0,1082.0,16484.0,-167.0,-67.0,-176.0,3894.0,5272.0,-3107.0
2026-03-11T17:23:06.295804,1679388,-299.0,921.0,16478.0,-163.0,-53.0,-172.0,3881.0,5254.0,-3127.0
2026-03-11T17:23:06.306026,1679398,-685.0,1172.0,16670.0,-217.0,-45.0,-219.0,3881.0,5254.0,-3127.0
2026-03-11T17:23:06.315986,1679408,-169.0,704.0,15554.0,-126.0,-72.0,-123.0,3882.0,5249.0,-3100.0
2026-03-11T17:23:06.332418,1679418,-325.0,1061.0,16699.0,-143.0,-29.0,-240.0,3882.0,5249.0,-3100.0
2026-03-11T17:23:06.335778,1679428,-121.0,1234.0,18242.0,-163.0,-43.0,-124.0,3891.0,5246.0,-3148.0
2026-03-11T17:23:06.351825,1679438,-697.0,1358.0,17423.0,-164.0,-22.0,-203.0,3891.0,5246.0,-3148.0
2026-03-11T17:23:06.356006,1679448,-432.0,1428.0,18411.0,-164.0,-22.0,-203.0,3875.0,5253.0,-3020.0
2026-03-11T17:23:06.365953,1679458,-609.0,1218.0,17023.0,-137.0,-34.0,-162.0,3875.0,5253.0,-3020.0
2026-03-11T17:23:06.376947,1679468,-889.0,1557.0,18138.0,-149.0,-57.0,-157.0,3881.0,5262.0,-3014.0
2026-03-11T17:23:06.386505,1679478,-938.0,1303.0,16594.0,-135.0,-64.0,-172.0,3881.0,5262.0,-3014.0
2026-03-11T17:23:06.400088,1679488,-1580.0,1179.0,14417.0,-108.0,-53.0,-193.0,3894.0,5258.0,-3137.0
2026-03-11T17:23:06.437559,1679498,-1043.0,1044.0,15223.0,-135.0,-55.0,-261.0,3894.0,5258.0,-3137.0
2026-03-11T17:23:06.437618,1679508,-1576.0,1162.0,14412.0,-127.0,-36.0,-144.0,3881.0,5252.0,-3030.0
2026-03-11T17:23:06.437654,1679518,-641.0,1223.0,17065.0,-141.0,0.0,-207.0,3881.0,5252.0,-3030.0
2026-03-11T17:23:06.437686,1679528,-141.0,775.0,16191.0,-130.0,-39.0,-143.0,3879.0,5242.0,-3037.0
2026-03-11T17:23:06.446022,1679538,-1133.0,1132.0,15397.0,-130.0,-39.0,-143.0,3879.0,5242.0,-3037.0
2026-03-11T17:23:06.456072,1679548,-964.0,792.0,14240.0,-133.0,-51.0,-150.0,3888.0,5259.0,-3101.0
2026-03-11T17:23:06.466023,1679558,-1240.0,1160.0,15373.0,-185.0,-32.0,-203.0,3888.0,5259.0,-3101.0
2026-03-11T17:23:06.482273,1679568,-1238.0,946.0,14170.0,-179.0,-7.0,-152.0,3890.0,5263.0,-3067.0
2026-03-11T17:23:06.492047,1679578,-1198.0,1222.0,15674.0,-178.0,-33.0,-206.0,3890.0,5263.0,-3067.0
2026-03-11T17:23:06.495967,1679588,-1013.0,1353.0,16560.0,-158.0,-53.0,-118.0,3896.0,5260.0,-3017.0
2026-03-11T17:23:06.506206,1679598,-768.0,1044.0,15651.0,-165.0,-24.0,-214.0,3896.0,5260.0,-3017.0
2026-03-11T17:23:06.515955,1679608,-694.0,1209.0,16514.0,-112.0,-39.0,-126.0,3889.0,5259.0,-3141.0
2026-03-11T17:23:06.525968,1679618,-915.0,1194.0,15993.0,-112.0,-39.0,-126.0,3889.0,5259.0,-3141.0
2026-03-11T17:23:06.536067,1679628,-953.0,1153.0,15770.0,-101.0,-28.0,-202.0,3878.0,5247.0,-3046.0
2026-03-11T17:23:06.546010,1679638,-364.0,954.0,16323.0,-115.0,-62.0,-164.0,3878.0,5247.0,-3046.0
2026-03-11T17:23:06.556164,1679648,-957.0,860.0,14573.0,-111.0,-105.0,-121.0,3882.0,5244.0,-3076.0
2026-03-11T17:23:06.565984,1679658,-1147.0,1236.0,16020.0,-111.0,-49.0,-186.0,3882.0,5244.0,-3076.0
2026-03-11T17:23:06.575949,1679668,-1068.0,1321.0,16595.0,-112.0,-48.0,-151.0,3880.0,5252.0,-3052.0
2026-03-11T17:23:06.586106,1679678,-393.0,910.0,16118.0,-152.0,-29.0,-190.0,3880.0,5252.0,-3052.0
2026-03-11T17:23:06.596040,1679688,-1464.0,1250.0,15226.0,-187.0,-59.0,-123.0,3882.0,5265.0,-3106.0
2026-03-11T17:23:06.606066,1679698,-867.0,1365.0,17366.0,-204.0,-46.0,-216.0,3882.0,5265.0,-3106.0
2026-03-11T17:23:06.615992,1679708,-423.0,1183.0,17409.0,-204.0,-46.0,-216.0,3894.0,5266.0,-3070.0
2026-03-11T17:23:06.625961,1679718,-1263.0,1102.0,15001.0,-173.0,-29.0,-181.0,3894.0,5266.0,-3070.0
2026-03-11T17:23:06.636847,1679728,-1204.0,1396.0,16501.0,-140.0,-13.0,-150.0,3894.0,5265.0,-3124.0
2026-03-11T17:23:06.646016,1679738,-566.0,1016.0,16105.0,-159.0,-36.0,-129.0,3894.0,5265.0,-3124.0
2026-03-11T17:23:06.658759,1679748,-1818.0,1368.0,14985.0,-145.0,-64.0,-99.0,3882.0,5255.0,-3081.0
2026-03-11T17:23:06.666056,1679758,-1008.0,1207.0,16077.0,-129.0,-19.0,-199.0,3882.0,5255.0,-3081.0
2026-03-11T17:23:06.676018,1679768,-741.0,1455.0,18105.0,-147.0,-52.0,-145.0,3890.0,5255.0,-3037.0
2026-03-11T17:23:06.686598,1679778,-832.0,1308.0,16953.0,-145.0,-44.0,-202.0,3890.0,5255.0,-3037.0
2026-03-11T17:23:06.695966,1679788,-1711.0,1495.0,15475.0,-145.0,-44.0,-160.0,3888.0,5261.0,-3085.0
2026-03-11T17:23:06.705999,1679798,-1018.0,1363.0,16954.0,-145.0,-30.0,-160.0,3888.0,5261.0,-3085.0
2026-03-11T17:23:06.716244,1679808,-83.0,1098.0,17723.0,-158.0,-65.0,-172.0,3887.0,5256.0,-3075.0
2026-03-11T17:23:06.726048,1679818,-1006.0,993.0,14997.0,-146.0,-21.0,-165.0,3887.0,5256.0,-3075.0
2026-03-11T17:23:06.738340,1679828,-1442.0,1337.0,15670.0,-115.0,-34.0,-123.0,3889.0,5260.0,-3008.0
2026-03-11T17:23:06.746938,1679838,-385.0,1095.0,17080.0,-101.0,-35.0,-222.0,3889.0,5260.0,-3008.0
2026-03-11T17:23:06.760501,1679848,-1244.0,1266.0,15796.0,-149.0,-51.0,-143.0,3881.0,5260.0,-3118.0
2026-03-11T17:23:06.766073,1679858,-519.0,1246.0,17299.0,-156.0,-63.0,-202.0,3881.0,5260.0,-3118.0
2026-03-11T17:23:06.776028,1679868,24.0,830.0,16669.0,-103.0,-72.0,-128.0,3885.0,5266.0,-3085.0
2026-03-11T17:23:06.786352,1679878,-850.0,1134.0,16138.0,-103.0,-72.0,-128.0,3885.0,5266.0,-3085.0
2026-03-11T17:23:06.796048,1679888,-1647.0,1266.0,14677.0,-137.0,-56.0,-190.0,3877.0,5266.0,-3116.0
2026-03-11T17:23:06.806058,1679898,-1190.0,1176.0,15260.0,-175.0,15.0,-193.0,3877.0,5266.0,-3116.0
2026-03-11T17:23:06.815990,1679908,-1426.0,1044.0,14172.0,-134.0,-70.0,-144.0,3899.0,5261.0,-3047.0
2026-03-11T17:23:06.844412,1679918,-1097.0,1378.0,16621.0,-110.0,-65.0,-181.0,3899.0,5261.0,-3047.0
2026-03-11T17:23:06.846177,1679928,-429.0,1017.0,16716.0,-144.0,-47.0,-156.0,3891.0,5258.0,-3045.0
2026-03-11T17:23:06.846223,1679938,-962.0,1092.0,15670.0,-179.0,-43.0,-190.0,3891.0,5258.0,-3045.0
2026-03-11T17:23:06.855130,1679948,-256.0,721.0,15552.0,-139.0,-87.0,-96.0,3894.0,5265.0,-3132.0
2026-03-11T17:23:06.865834,1679958,-1122.0,1092.0,15040.0,-139.0,-46.0,-223.0,3894.0,5265.0,-3132.0
2026-03-11T17:23:06.876080,1679968,-941.0,1262.0,16574.0,-149.0,-46.0,-223.0,3897.0,5267.0,-3022.0
2026-03-11T17:23:06.887178,1679978,-580.0,932.0,15791.0,-118.0,-70.0,-157.0,3897.0,5267.0,-3022.0
2026-03-11T17:23:06.896104,1679988,-1361.0,1041.0,14238.0,-126.0,-71.0,-154.0,3890.0,5251.0,-3101.0
2026-03-11T17:23:06.906197,1679998,-1218.0,1306.0,16134.0,-131.0,-52.0,-180.0,3890.0,5251.0,-3101.0
2026-03-11T17:23:06.916055,1680008,-1398.0,1552.0,17020.0,-156.0,-70.0,-131.0,3880.0,5244.0,-3048.0
2026-03-11T17:23:06.937087,1680018,-360.0,1033.0,16946.0,-190.0,-44.0,-245.0,3880.0,5244.0,-3048.0
2026-03-11T17:23:06.937147,1680028,-174.0,1172.0,17946.0,-151.0,-45.0,-146.0,3885.0,5249.0,-3005.0
2026-03-11T17:23:06.946098,1680038,-1021.0,1512.0,17425.0,-125.0,1.0,-214.0,3885.0,5249.0,-3005.0
2026-03-11T17:23:06.956397,1680048,-1214.0,1546.0,17322.0,-125.0,1.0,-214.0,3881.0,5249.0,-3114.0
2026-03-11T17:23:06.966002,1680058,-1267.0,1434.0,16501.0,-172.0,-44.0,-166.0,3881.0,5249.0,-3114.0
2026-03-11T17:23:06.976084,1680068,-1344.0,1075.0,14588.0,-142.0,-56.0,-155.0,3890.0,5254.0,-3017.0
2026-03-11T17:23:06.989230,1680078,-625.0,948.0,15553.0,-159.0,-17.0,-172.0,3890.0,5254.0,-3017.0
2026-03-11T17:23:06.996406,1680088,-834.0,1160.0,16129.0,-169.0,-59.0,-120.0,3881.0,5249.0,-3111.0
2026-03-11T17:23:07.007907,1680098,-1145.0,1028.0,14833.0,-171.0,-57.0,-214.0,3881.0,5249.0,-3111.0
2026-03-11T17:23:07.016643,1680108,-880.0,1142.0,16035.0,-177.0,-51.0,-135.0,3887.0,5256.0,-3054.0
2026-03-11T17:23:07.026043,1680118,-1310.0,1152.0,14862.0,-159.0,-12.0,-186.0,3887.0,5256.0,-3054.0
2026-03-11T17:23:07.036711,1680128,-920.0,1154.0,15946.0,-120.0,-40.0,-81.0,3866.0,5246.0,-3048.0
2026-03-11T17:23:07.046304,1680138,-1039.0,970.0,14626.0,-120.0,-40.0,-81.0,3866.0,5246.0,-3048.0
2026-03-11T17:23:07.056106,1680148,-618.0,1184.0,17019.0,-98.0,-85.0,-135.0,3897.0,5252.0,-3137.0
2026-03-11T17:23:07.068027,1680158,-1512.0,1274.0,15099.0,-160.0,-25.0,-169.0,3897.0,5252.0,-3137.0
2026-03-11T17:23:07.076073,1680168,-750.0,1037.0,15911.0,-169.0,-39.0,-200.0,3880.0,5258.0,-3092.0
2026-03-11T17:23:07.086070,1680178,-1453.0,1360.0,15913.0,-122.0,-55.0,-235.0,3880.0,5258.0,-3092.0
2026-03-11T17:23:07.096067,1680188,-673.0,1083.0,16204.0,-108.0,-57.0,-141.0,3890.0,5236.0,-3055.0
2026-03-11T17:23:07.106169,1680198,-1480.0,1434.0,16101.0,-127.0,0.0,-203.0,3890.0,5236.0,-3055.0
2026-03-11T17:23:07.116142,1680208,-982.0,1125.0,16063.0,-119.0,-50.0,-144.0,3887.0,5257.0,-3132.0
2026-03-11T17:23:07.126138,1680218,-822.0,849.0,14825.0,-119.0,-50.0,-194.0,3887.0,5257.0,-3132.0
2026-03-11T17:23:07.136124,1680228,-350.0,1080.0,17026.0,-124.0,-41.0,-194.0,3895.0,5248.0,-3098.0
2026-03-11T17:23:07.147966,1680238,-1135.0,1318.0,16015.0,-153.0,-45.0,-171.0,3895.0,5248.0,-3098.0
2026-03-11T17:23:07.156846,1680248,-1326.0,1266.0,15416.0,-184.0,-46.0,-175.0,3889.0,5258.0,-3042.0
2026-03-11T17:23:07.182428,1680258,-554.0,1077.0,16496.0,-128.0,-24.0,-199.0,3889.0,5258.0,-3042.0
2026-03-11T17:23:07.188628,1680268,-1310.0,1619.0,17225.0,-114.0,-65.0,-110.0,3883.0,5266.0,-3067.0
2026-03-11T17:23:07.190145,1680278,-927.0,1196.0,16041.0,-173.0,-45.0,-182.0,3883.0,5266.0,-3067.0
2026-03-11T17:23:07.196245,1680288,-488.0,1339.0,18059.0,-173.0,-46.0,-113.0,3881.0,5253.0,-3092.0
2026-03-11T17:23:07.206378,1680298,-1183.0,1248.0,16083.0,-131.0,-46.0,-197.0,3881.0,5253.0,-3092.0
2026-03-11T17:23:07.216345,1680308,-1126.0,894.0,14171.0,-131.0,-46.0,-197.0,3888.0,5246.0,-3056.0
2026-03-11T17:23:07.226475,1680318,-1001.0,1028.0,15388.0,-119.0,-67.0,-135.0,3888.0,5246.0,-3056.0
2026-03-11T17:23:07.236078,1680328,-699.0,1125.0,16473.0,-128.0,-58.0,-157.0,3874.0,5258.0,-3109.0
2026-03-11T17:23:07.246079,1680338,-1267.0,1327.0,16164.0,-100.0,-43.0,-146.0,3874.0,5258.0,-3109.0
2026-03-11T17:23:07.256688,1680348,-1170.0,934.0,14309.0,-117.0,-55.0,-139.0,3872.0,5260.0,-3117.0
2026-03-11T17:23:07.266130,1680358,-878.0,1108.0,16074.0,-108.0,-59.0,-241.0,3872.0,5260.0,-3117.0
2026-03-11T17:23:07.276109,1680368,-873.0,1504.0,17891.0,-128.0,-70.0,-143.0,3882.0,5247.0,-3007.0
2026-03-11T17:23:07.286047,1680378,-895.0,1295.0,16763.0,-129.0,-52.0,-195.0,3882.0,5247.0,-3007.0
2026-03-11T17:23:07.300412,1680388,-428.0,1304.0,18131.0,-129.0,-69.0,-124.0,3889.0,5258.0,-3043.0
2026-03-11T17:23:07.306443,1680398,-532.0,1127.0,16950.0,-121.0,-69.0,-124.0,3889.0,5258.0,-3043.0
2026-03-11T17:23:07.316205,1680408,-78.0,843.0,16458.0,-119.0,-74.0,-138.0,3887.0,5256.0,-3052.0
2026-03-11T17:23:07.326117,1680418,-766.0,1144.0,16278.0,-118.0,-21.0,-112.0,3887.0,5256.0,-3052.0
2026-03-11T17:23:07.336126,1680428,-955.0,833.0,14231.0,-127.0,-41.0,-115.0,3878.0,5237.0,-3094.0
2026-03-11T17:23:07.346130,1680438,-490.0,940.0,15934.0,-161.0,-45.0,-218.0,3878.0,5237.0,-3094.0
2026-03-11T17:23:07.356129,1680448,-444.0,879.0,15624.0,-132.0,-65.0,-130.0,3879.0,5259.0,-3092.0
2026-03-11T17:23:07.366048,1680458,-860.0,1224.0,16598.0,-121.0,-45.0,-210.0,3879.0,5259.0,-3092.0
2026-03-11T17:23:07.376119,1680468,-1760.0,1319.0,14619.0,-171.0,-83.0,-156.0,3886.0,5247.0,-3126.0
2026-03-11T17:23:07.386037,1680478,-1055.0,1209.0,15976.0,-171.0,-83.0,-156.0,3886.0,5247.0,-3126.0
2026-03-11T17:23:07.398951,1680488,18.0,999.0,17636.0,-95.0,-91.0,-227.0,3891.0,5246.0,-3085.0
2026-03-11T17:23:07.406087,1680498,-482.0,1102.0,16802.0,-88.0,-75.0,-153.0,3891.0,5246.0,-3085.0
2026-03-11T17:23:07.417288,1680508,-1129.0,1518.0,17359.0,-139.0,-75.0,-135.0,3876.0,5254.0,-3054.0
2026-03-11T17:23:07.429557,1680518,-814.0,1319.0,17143.0,-187.0,-34.0,-219.0,3876.0,5254.0,-3054.0
2026-03-11T17:23:07.436100,1680528,-519.0,1420.0,18450.0,-170.0,-59.0,-132.0,3886.0,5245.0,-3061.0
2026-03-11T17:23:07.446061,1680538,-704.0,1165.0,16831.0,-131.0,-55.0,-204.0,3886.0,5245.0,-3061.0
2026-03-11T17:23:07.456059,1680548,-1325.0,1583.0,17219.0,-129.0,-62.0,-147.0,3889.0,5258.0,-3095.0
2026-03-11T17:23:07.466375,1680558,-1203.0,1253.0,15877.0,-137.0,-37.0,-235.0,3889.0,5258.0,-3095.0
2026-03-11T17:23:07.478648,1680568,-1622.0,1181.0,14333.0,-137.0,-37.0,-235.0,3892.0,5245.0,-3106.0
2026-03-11T17:23:07.486145,1680579,-1304.0,1284.0,15621.0,-114.0,-21.0,-221.0,3892.0,5245.0,-3106.0
2026-03-11T17:23:07.496109,1680589,-240.0,1035.0,17159.0,-103.0,-56.0,-174.0,3886.0,5247.0,-3054.0
2026-03-11T17:23:07.506160,1680599,-1237.0,1192.0,15298.0,-135.0,-9.0,-198.0,3886.0,5247.0,-3054.0
2026-03-11T17:23:07.516131,1680609,-606.0,1356.0,17655.0,-126.0,-52.0,-165.0,3886.0,5256.0,-3035.0
2026-03-11T17:23:07.526126,1680619,-480.0,983.0,16034.0,-81.0,-41.0,-205.0,3891.0,5256.0,-3035.0
2026-03-11T17:23:07.536051,1680629,-1102.0,926.0,14478.0,-136.0,-31.0,-140.0,3891.0,5266.0,-3072.0
2026-03-11T17:23:07.545573,1680639,-1290.0,1307.0,16003.0,-151.0,-23.0,-242.0,3886.0,5266.0,-3072.0
2026-03-11T17:23:07.558716,1680649,-1526.0,1584.0,16689.0,-151.0,-23.0,-163.0,3878.0,5266.0,-3118.0
2026-03-11T17:23:07.566377,1680659,-971.0,1214.0,16200.0,-174.0,-52.0,-163.0,3878.0,5266.0,-3118.0
2026-03-11T17:23:07.581874,1680669,-653.0,722.0,14678.0,-173.0,-44.0,-188.0,3878.0,5258.0,-3064.0
2026-03-11T17:23:07.603858,1680679,-568.0,1025.0,16130.0,-152.0,-1.0,-203.0,3874.0,5258.0,-3064.0
2026-03-11T17:23:07.603918,1680689,2.0,1088.0,18087.0,-159.0,-22.0,-154.0,3874.0,5259.0,-3072.0
2026-03-11T17:23:07.606182,1680699,-445.0,1145.0,17159.0,-201.0,-29.0,-180.0,3889.0,5259.0,-3072.0
2026-03-11T17:23:07.616847,1680709,2.0,949.0,17337.0,-176.0,-43.0,-124.0,3889.0,5251.0,-3101.0
2026-03-11T17:23:07.627372,1680719,-1117.0,1077.0,15278.0,-120.0,-42.0,-193.0,3898.0,5251.0,-3101.0
2026-03-11T17:23:07.636932,1680729,-1594.0,1527.0,16083.0,-98.0,-61.0,-152.0,3898.0,5262.0,-3090.0
2026-03-11T17:23:07.646150,1680739,-962.0,1328.0,16680.0,-98.0,-61.0,-152.0,3910.0,5262.0,-3090.0
2026-03-11T17:23:07.663046,1680749,-806.0,1431.0,17529.0,-130.0,-15.0,-209.0,3910.0,5252.0,-3135.0
2026-03-11T17:23:07.667190,1680759,-378.0,1159.0,17235.0,-124.0,-17.0,-190.0,3894.0,5252.0,-3135.0
2026-03-11T17:23:07.684718,1680769,-885.0,1148.0,15983.0,-128.0,-23.0,-181.0,3894.0,5263.0,-3015.0
2026-03-11T17:23:07.694945,1680779,-993.0,1319.0,16539.0,-146.0,16.0,-195.0,3890.0,5263.0,-3015.0
2026-03-11T17:23:07.698906,1680789,-1837.0,1426.0,15084.0,-137.0,-69.0,-169.0,3890.0,5270.0,-3113.0
2026-03-11T17:23:07.708224,1680799,-1250.0,1369.0,16242.0,-125.0,8.0,-223.0,3884.0,5270.0,-3113.0
2026-03-11T17:23:07.717053,1680809,-1703.0,1510.0,15920.0,-168.0,-54.0,-147.0,3884.0,5242.0,-3099.0
2026-03-11T17:23:07.727700,1680819,-1026.0,1195.0,16108.0,-168.0,-34.0,-172.0,3890.0,5242.0,-3099.0
2026-03-11T17:23:07.736213,1680829,-1239.0,943.0,14267.0,-142.0,-34.0,-172.0,3890.0,5259.0,-3173.0
2026-03-11T17:23:07.747093,1680839,-1141.0,1192.0,15656.0,-103.0,-60.0,-127.0,3884.0,5259.0,-3173.0
2026-03-11T17:23:07.758356,1680849,-1728.0,1374.0,15099.0,-128.0,-70.0,-164.0,3884.0,5250.0,-3115.0
2026-03-11T17:23:07.767838,1680859,-1353.0,1348.0,15941.0,-129.0,-77.0,-151.0,3879.0,5250.0,-3115.0
2026-03-11T17:23:07.791134,1680869,-1577.0,1204.0,14473.0,-139.0,-31.0,-116.0,3879.0,5269.0,-3079.0
2026-03-11T17:23:07.812504,1680879,-1230.0,1200.0,15518.0,-174.0,-5.0,-206.0,3878.0,5269.0,-3079.0
2026-03-11T17:23:07.837875,1680889,-1409.0,1121.0,14500.0,-167.0,-43.0,-152.0,3878.0,5267.0,-3116.0
2026-03-11T17:23:07.837969,1680899,-845.0,1118.0,15893.0,-139.0,-34.0,-211.0,3890.0,5267.0,-3116.0
2026-03-11T17:23:07.838050,1680909,-1324.0,1091.0,14741.0,-139.0,-34.0,-211.0,3890.0,5266.0,-3123.0
2026-03-11T17:23:07.838087,1680919,-830.0,1116.0,15939.0,-151.0,-83.0,-143.0,3886.0,5266.0,-3123.0
2026-03-11T17:23:07.838120,1680929,-909.0,908.0,14667.0,-139.0,-88.0,-153.0,3886.0,5270.0,-3124.0
2026-03-11T17:23:07.847247,1680939,-992.0,918.0,14594.0,-154.0,-43.0,-200.0,3882.0,5270.0,-3124.0
2026-03-11T17:23:07.856924,1680949,-799.0,1029.0,15721.0,-183.0,-27.0,-126.0,3882.0,5261.0,-3113.0
2026-03-11T17:23:07.868335,1680959,-912.0,1394.0,17223.0,-133.0,-37.0,-192.0,3873.0,5261.0,-3113.0
2026-03-11T17:23:07.895294,1680969,-523.0,1353.0,18201.0,-134.0,-37.0,-134.0,3873.0,5261.0,-3131.0
2026-03-11T17:23:07.905381,1680979,-1017.0,1262.0,16313.0,-181.0,-28.0,-168.0,3882.0,5261.0,-3131.0
2026-03-11T17:23:07.916857,1680989,-1363.0,1315.0,15835.0,-162.0,-47.0,-136.0,3882.0,5266.0,-2995.0
2026-03-11T17:23:07.918690,1680999,-575.0,988.0,16169.0,-162.0,-47.0,-136.0,3871.0,5266.0,-2995.0
2026-03-11T17:23:07.918746,1681009,-1359.0,1020.0,14306.0,-119.0,-45.0,-198.0,3871.0,5263.0,-3009.0
2026-03-11T17:23:07.934480,1681019,-606.0,1022.0,15863.0,-124.0,-2.0,-169.0,3883.0,5263.0,-3009.0
2026-03-11T17:23:07.942562,1681029,-274.0,892.0,16188.0,-155.0,-60.0,-158.0,3883.0,5263.0,-3075.0
2026-03-11T17:23:07.946097,1681039,-819.0,1278.0,16643.0,-130.0,-47.0,-221.0,3881.0,5255.0,-3075.0
2026-03-11T17:23:07.956074,1681049,-824.0,913.0,14849.0,-118.0,-25.0,-148.0,3881.0,5245.0,-3116.0
2026-03-11T17:23:07.967365,1681059,-914.0,1235.0,16316.0,-186.0,-37.0,-218.0,3896.0,5245.0,-3116.0
2026-03-11T17:23:07.976134,1681069,-1456.0,1332.0,15569.0,-179.0,-70.0,-167.0,3896.0,5255.0,-3127.0
2026-03-11T17:23:07.990526,1681079,-1164.0,1026.0,14800.0,-179.0,-70.0,-208.0,3880.0,5255.0,-3127.0
2026-03-11T17:23:07.996106,1681089,-222.0,904.0,16430.0,-181.0,-56.0,-208.0,3880.0,5249.0,-3151.0
2026-03-11T17:23:08.006189,1681099,-241.0,1006.0,16947.0,-146.0,-78.0,-181.0,3897.0,5249.0,-3151.0
2026-03-11T17:23:08.016408,1681109,-839.0,1295.0,17000.0,-153.0,-37.0,-195.0,3897.0,5249.0,-3045.0
2026-03-11T17:23:08.026787,1681119,-1036.0,1185.0,15995.0,-172.0,-74.0,-165.0,3875.0,5250.0,-3045.0
2026-03-11T17:23:08.036272,1681129,-809.0,780.0,14510.0,-191.0,-63.0,-125.0,3875.0,5257.0,-3159.0
2026-03-11T17:23:08.046199,1681139,-412.0,799.0,15503.0,-167.0,-13.0,-207.0,3892.0,5257.0,-3159.0
2026-03-11T17:23:08.056237,1681149,-1426.0,1034.0,14093.0,-164.0,-20.0,-90.0,3892.0,5261.0,-3161.0
2026-03-11T17:23:08.066215,1681159,-1051.0,1144.0,15499.0,-149.0,-15.0,-206.0,3857.0,5261.0,-3161.0
2026-03-11T17:23:08.076189,1681169,-640.0,765.0,14781.0,-149.0,-15.0,-206.0,3857.0,5261.0,-3081.0
2026-03-11T17:23:08.092583,1681179,-1212.0,1235.0,15615.0,-201.0,-41.0,-167.0,3892.0,5263.0,-3081.0
2026-03-11T17:23:08.098909,1681189,-1711.0,1247.0,14434.0,-188.0,-44.0,-180.0,3892.0,5263.0,-3075.0
2026-03-11T17:23:08.106211,1681199,-970.0,1162.0,15752.0,-166.0,-61.0,-150.0,3894.0,5270.0,-3075.0
2026-03-11T17:23:08.120282,1681209,-75.0,1168.0,17949.0,-154.0,-57.0,-82.0,3894.0,5270.0,-3125.0
2026-03-11T17:23:08.128734,1681219,-726.0,1238.0,16917.0,-156.0,8.0,-187.0,3880.0,5250.0,-3125.0
2026-03-11T17:23:08.136815,1681229,-1576.0,1562.0,16370.0,-154.0,-26.0,-129.0,3880.0,5250.0,-3092.0
2026-03-11T17:23:08.147159,1681239,-968.0,1157.0,15954.0,-139.0,-21.0,-221.0,3886.0,5250.0,-3092.0
2026-03-11T17:23:08.156299,1681249,-5.0,771.0,16190.0,-139.0,-23.0,-154.0,3886.0,5250.0,-3080.0
2026-03-11T17:23:08.168404,1681259,-1080.0,1078.0,15210.0,-139.0,-23.0,-154.0,3865.0,5259.0,-3080.0
2026-03-11T17:23:08.176304,1681269,-1407.0,1034.0,14290.0,-152.0,-27.0,-248.0,3865.0,5259.0,-3019.0
2026-03-11T17:23:08.188057,1681279,-901.0,1110.0,15887.0,-203.0,-19.0,-233.0,3881.0,5256.0,-3019.0
2026-03-11T17:23:08.196173,1681289,-1574.0,1548.0,16587.0,-117.0,-33.0,-155.0,3881.0,5256.0,-3135.0
2026-03-11T17:23:08.206283,1681299,-988.0,1193.0,16121.0,-58.0,-3.0,-246.0,3890.0,5251.0,-3135.0
2026-03-11T17:23:08.221801,1681309,-1117.0,1495.0,17325.0,-123.0,-5.0,-154.0,3890.0,5251.0,-3042.0
2026-03-11T17:23:08.226993,1681319,-1168.0,1304.0,16200.0,-141.0,-13.0,-219.0,3876.0,5255.0,-3042.0
2026-03-11T17:23:08.303873,1681329,-554.0,956.0,15818.0,-128.0,-15.0,-116.0,3876.0,5255.0,-3046.0
2026-03-11T17:23:08.303917,1681339,-538.0,1231.0,17330.0,-128.0,-15.0,-116.0,3900.0,5255.0,-3046.0
2026-03-11T17:23:08.303942,1681349,-45.0,1155.0,18096.0,-112.0,-51.0,-206.0,3900.0,5255.0,-3076.0
2026-03-11T17:23:08.303963,1681359,-606.0,1088.0,16591.0,-123.0,-54.0,-189.0,3889.0,5256.0,-3076.0
2026-03-11T17:23:08.303984,1681369,22.0,1042.0,17838.0,-179.0,-74.0,-122.0,3889.0,5256.0,-3112.0
2026-03-11T17:23:08.304005,1681379,-538.0,950.0,15881.0,-184.0,-84.0,-189.0,3891.0,5253.0,-3112.0
2026-03-11T17:23:08.304025,1681389,-1008.0,868.0,14323.0,-146.0,-65.0,-128.0,3891.0,5253.0,-3121.0
2026-03-11T17:23:08.304896,1681399,-788.0,983.0,15428.0,-178.0,0.0,-219.0,3901.0,5253.0,-3121.0
2026-03-11T17:23:08.323656,1681409,-933.0,925.0,14736.0,-150.0,-18.0,-110.0,3901.0,5253.0,-3022.0
2026-03-11T17:23:08.330893,1681419,-279.0,969.0,16685.0,-139.0,-38.0,-236.0,3884.0,5256.0,-3022.0
2026-03-11T17:23:08.337973,1681429,-469.0,1263.0,17727.0,-139.0,-38.0,-236.0,3884.0,5256.0,-3037.0
2026-03-11T17:23:08.349683,1681439,-947.0,1181.0,16231.0,-115.0,-52.0,-173.0,3887.0,5245.0,-3037.0
2026-03-11T17:23:08.356090,1681449,-393.0,796.0,15433.0,-126.0,-47.0,-201.0,3887.0,5245.0,-3103.0
2026-03-11T17:23:08.373253,1681459,-433.0,1014.0,16622.0,-133.0,-4.0,-195.0,3878.0,5260.0,-3103.0
2026-03-11T17:23:08.386086,1681469,-198.0,1038.0,17287.0,-126.0,-62.0,-123.0,3878.0,5260.0,-3124.0
2026-03-11T17:23:08.402772,1681479,-1060.0,1353.0,16544.0,-159.0,-29.0,-184.0,3886.0,5259.0,-3124.0
2026-03-11T17:23:08.412373,1681489,-1096.0,947.0,14550.0,-131.0,-67.0,-126.0,3886.0,5259.0,-3029.0
2026-03-11T17:23:08.412464,1681499,-661.0,1053.0,16017.0,-144.0,-58.0,-217.0,3880.0,5251.0,-3029.0
2026-03-11T17:23:08.417905,1681509,-229.0,1313.0,18410.0,-144.0,-58.0,-148.0,3880.0,5251.0,-3083.0
2026-03-11T17:23:08.427720,1681519,-690.0,1090.0,16395.0,-155.0,-64.0,-148.0,3894.0,5272.0,-3083.0
2026-03-11T17:23:08.437910,1681529,-1231.0,935.0,14040.0,-111.0,-39.0,-170.0,3894.0,5272.0,-2962.0
2026-03-11T17:23:08.504529,1681539,-1326.0,1158.0,14986.0,-129.0,-58.0,-194.0,3877.0,5245.0,-2962.0
2026-03-11T17:23:08.508671,1681549,-1677.0,1488.0,15810.0,-134.0,-41.0,-135.0,3877.0,5245.0,-3128.0
2026-03-11T17:23:08.508712,1681559,-971.0,1196.0,16198.0,-157.0,-22.0,-222.0,3883.0,5262.0,-3128.0
2026-03-11T17:23:08.508745,1681569,-578.0,737.0,14807.0,-144.0,-41.0,-158.0,3883.0,5262.0,-3024.0
2026-03-11T17:23:08.508776,1681579,-761.0,973.0,15488.0,-119.0,-13.0,-231.0,3882.0,5259.0,-3024.0
2026-03-11T17:23:08.508807,1681589,-86.0,1086.0,17651.0,-125.0,-64.0,-116.0,3882.0,5259.0,-3019.0
2026-03-11T17:23:08.508838,1681599,-607.0,1128.0,16598.0,-125.0,-64.0,-116.0,3879.0,5262.0,-3019.0
2026-03-11T17:23:08.538236,1681609,-260.0,1268.0,18142.0,-145.0,-23.0,-201.0,3879.0,5262.0,-3093.0
2026-03-11T17:23:08.540040,1681619,-942.0,1244.0,16508.0,-118.0,-39.0,-158.0,3888.0,5248.0,-3093.0
2026-03-11T17:23:08.540085,1681629,-1022.0,843.0,14180.0,-164.0,-40.0,-147.0,3888.0,5248.0,-3146.0
2026-03-11T17:23:08.546243,1681639,-895.0,1048.0,15539.0,-141.0,-12.0,-229.0,3891.0,5244.0,-3146.0
2026-03-11T17:23:08.556302,1681649,-1221.0,1047.0,14614.0,-144.0,-41.0,-131.0,3891.0,5244.0,-3090.0
2026-03-11T17:23:08.566349,1681659,-888.0,1014.0,15285.0,-113.0,-46.0,-223.0,3885.0,5257.0,-3090.0
2026-03-11T17:23:08.576334,1681669,-528.0,1000.0,16148.0,-152.0,-67.0,-123.0,3885.0,5257.0,-3013.0
2026-03-11T17:23:08.586259,1681679,-931.0,1251.0,16386.0,-152.0,-50.0,-225.0,3889.0,5253.0,-3013.0
2026-03-11T17:23:08.596228,1681689,-704.0,815.0,14807.0,-209.0,-50.0,-225.0,3889.0,5253.0,-3002.0
2026-03-11T17:23:08.606226,1681699,-673.0,851.0,15140.0,-137.0,-28.0,-211.0,3881.0,5264.0,-3002.0
2026-03-11T17:23:08.616248,1681709,-846.0,1274.0,16862.0,-117.0,-44.0,-192.0,3881.0,5264.0,-3214.0
2026-03-11T17:23:08.630538,1681719,-1161.0,1206.0,15544.0,-192.0,-3.0,-214.0,3885.0,5255.0,-3214.0
2026-03-11T17:23:08.636271,1681729,-1700.0,1400.0,15192.0,-130.0,-11.0,-173.0,3885.0,5255.0,-3089.0
2026-03-11T17:23:08.646302,1681739,-1149.0,1152.0,15454.0,-143.0,-5.0,-226.0,3890.0,5253.0,-3089.0
2026-03-11T17:23:08.656510,1681749,-128.0,993.0,17135.0,-155.0,-42.0,-125.0,3890.0,5253.0,-3120.0
2026-03-11T17:23:08.666310,1681759,-1146.0,1490.0,17081.0,-142.0,-19.0,-166.0,3881.0,5261.0,-3120.0
2026-03-11T17:23:08.676237,1681769,-1085.0,1145.0,15447.0,-142.0,-19.0,-166.0,3881.0,5261.0,-3047.0
2026-03-11T17:23:08.686865,1681779,-780.0,1165.0,16475.0,-162.0,-94.0,-140.0,3880.0,5249.0,-3047.0
2026-03-11T17:23:08.697052,1681789,-1044.0,946.0,14587.0,-132.0,-74.0,-227.0,3880.0,5249.0,-3039.0
2026-03-11T17:23:08.706352,1681799,-1011.0,1061.0,15290.0,-154.0,-1.0,-169.0,3900.0,5271.0,-3039.0
2026-03-11T17:23:08.716310,1681809,-1756.0,1477.0,15620.0,-193.0,-49.0,-122.0,3900.0,5271.0,-3161.0
2026-03-11T17:23:08.732936,1681819,-1290.0,1252.0,15475.0,-114.0,-37.0,-217.0,3891.0,5243.0,-3161.0
2026-03-11T17:23:08.739436,1681829,-1574.0,1194.0,14595.0,-87.0,-32.0,-144.0,3891.0,5243.0,-2905.0
2026-03-11T17:23:08.747366,1681839,-611.0,968.0,15792.0,-102.0,-40.0,-228.0,3888.0,5243.0,-3014.0
2026-03-11T17:23:08.756323,1681849,-241.0,1185.0,17829.0,-122.0,-27.0,-145.0,3888.0,5243.0,-3078.0
2026-03-11T17:23:08.766275,1681859,-845.0,1339.0,17052.0,-122.0,-27.0,-145.0,3892.0,5257.0,-3078.0
2026-03-11T17:23:08.776298,1681869,-1255.0,1275.0,15820.0,-155.0,-24.0,-170.0,3892.0,5257.0,-3137.0
2026-03-11T17:23:08.786899,1681879,-842.0,1019.0,15448.0,-125.0,-44.0,-190.0,3875.0,5264.0,-3137.0
2026-03-11T17:23:08.796227,1681889,-1753.0,1276.0,14636.0,-87.0,-74.0,-152.0,3875.0,5264.0,-2881.0
2026-03-11T17:23:08.808097,1681899,-1031.0,1198.0,15906.0,-122.0,-35.0,-198.0,3895.0,5250.0,-3057.0
2026-03-11T17:23:08.816332,1681909,-6.0,765.0,16290.0,-117.0,-55.0,-138.0,3895.0,5250.0,-3057.0
2026-03-11T17:23:08.826293,1681919,-719.0,1127.0,16326.0,-141.0,-70.0,-187.0,3888.0,5255.0,-2966.0
2026-03-11T17:23:08.836258,1681929,-782.0,1010.0,15609.0,-130.0,-54.0,-128.0,3888.0,5255.0,-2966.0
2026-03-11T17:23:08.846340,1681939,-764.0,1155.0,16474.0,-130.0,-54.0,-224.0,3880.0,5263.0,-3022.0
2026-03-11T17:23:08.856325,1681949,-1667.0,1468.0,15728.0,-161.0,-22.0,-224.0,3880.0,5263.0,-3022.0
2026-03-11T17:23:08.866264,1681959,-1024.0,1163.0,15745.0,-177.0,-29.0,-170.0,3880.0,5272.0,-3057.0
2026-03-11T17:23:08.876303,1681969,-458.0,765.0,15026.0,-152.0,-69.0,-180.0,3880.0,5272.0,-3057.0
2026-03-11T17:23:08.888771,1681979,-726.0,963.0,15492.0,-191.0,-38.0,-170.0,3879.0,5261.0,-3056.0
2026-03-11T17:23:08.896292,1681989,-929.0,812.0,14351.0,-136.0,-47.0,-175.0,3879.0,5261.0,-3056.0
2026-03-11T17:23:08.938366,1681999,-782.0,1067.0,15869.0,-179.0,-39.0,-262.0,3885.0,5246.0,-3013.0
2026-03-11T17:23:08.947044,1682009,-1019.0,1478.0,17524.0,-105.0,-49.0,-157.0,3885.0,5246.0,-3013.0
2026-03-11T17:23:08.947094,1682019,-1115.0,1298.0,16390.0,-121.0,3.0,-215.0,3882.0,5259.0,-3023.0
2026-03-11T17:23:08.947126,1682029,-510.0,903.0,15730.0,-121.0,3.0,-215.0,3882.0,5259.0,-3023.0
2026-03-11T17:23:08.947156,1682039,-750.0,1149.0,16544.0,-150.0,-33.0,-142.0,3891.0,5249.0,-3001.0
2026-03-11T17:23:08.956341,1682049,-1765.0,1260.0,14603.0,-100.0,-60.0,-176.0,3891.0,5249.0,-3001.0
2026-03-11T17:23:08.966288,1682059,-1116.0,1289.0,16332.0,-133.0,-19.0,-174.0,3874.0,5245.0,-2997.0
2026-03-11T17:23:08.980061,1682069,-1530.0,1382.0,15751.0,-126.0,-60.0,-131.0,3874.0,5245.0,-2997.0
2026-03-11T17:23:08.987178,1682079,-1005.0,1154.0,15712.0,-165.0,-17.0,-225.0,3881.0,5254.0,-3048.0
2026-03-11T17:23:08.996330,1682089,-460.0,773.0,15110.0,-141.0,-27.0,-118.0,3881.0,5254.0,-3048.0
2026-03-11T17:23:09.006309,1682099,-424.0,1010.0,16378.0,-176.0,-8.0,-220.0,3894.0,5261.0,-2985.0
2026-03-11T17:23:09.016871,1682109,5.0,1104.0,18019.0,-176.0,-8.0,-145.0,3894.0,5261.0,-2985.0
2026-03-11T17:23:09.026376,1682119,-519.0,940.0,15926.0,-188.0,-46.0,-145.0,3887.0,5262.0,-3128.0
2026-03-11T17:23:09.044182,1682129,-1425.0,1121.0,14564.0,-118.0,-50.0,-211.0,3887.0,5262.0,-3128.0
2026-03-11T17:23:09.051429,1682139,-985.0,1257.0,16239.0,-110.0,-50.0,-173.0,3886.0,5262.0,-3154.0
2026-03-11T17:23:09.056383,1682149,-688.0,1497.0,18191.0,-135.0,-30.0,-115.0,3886.0,5262.0,-3154.0
2026-03-11T17:23:09.066981,1682159,-860.0,1487.0,17747.0,-168.0,-18.0,-205.0,3872.0,5250.0,-3137.0
2026-03-11T17:23:09.076282,1682169,-1564.0,1456.0,16076.0,-169.0,-29.0,-148.0,3872.0,5250.0,-3137.0
2026-03-11T17:23:09.086367,1682179,-1043.0,1191.0,15864.0,-148.0,1.0,-176.0,3898.0,5275.0,-3021.0
2026-03-11T17:23:09.096341,1682189,-934.0,1440.0,17642.0,-149.0,-47.0,-146.0,3898.0,5275.0,-3277.0
2026-03-11T17:23:09.108721,1682199,-985.0,1179.0,16220.0,-149.0,-47.0,-146.0,3895.0,5252.0,-3158.0
2026-03-11T17:23:09.116401,1682209,-815.0,764.0,14502.0,-137.0,10.0,-225.0,3895.0,5252.0,-3158.0
2026-03-11T17:23:09.126343,1682219,-684.0,1105.0,16449.0,-171.0,-5.0,-130.0,3880.0,5260.0,-3178.0
2026-03-11T17:23:09.146265,1682229,-1426.0,1217.0,15101.0,-127.0,-63.0,-167.0,3880.0,5260.0,-3178.0
2026-03-11T17:23:09.156775,1682239,-744.0,1070.0,16024.0,-144.0,-76.0,-199.0,3886.0,5258.0,-3142.0
2026-03-11T17:23:09.157942,1682249,-1615.0,1567.0,16387.0,-135.0,-71.0,-119.0,3886.0,5258.0,-3142.0
2026-03-11T17:23:09.166598,1682259,-947.0,1259.0,16327.0,-132.0,0.0,-208.0,3878.0,5242.0,-3133.0
2026-03-11T17:23:09.176347,1682269,58.0,830.0,16745.0,-167.0,-46.0,-151.0,3878.0,5242.0,-3133.0
2026-03-11T17:23:09.186309,1682279,-652.0,1155.0,16379.0,-121.0,-16.0,-231.0,3874.0,5243.0,-3130.0
2026-03-11T17:23:09.196327,1682289,-1701.0,1259.0,14627.0,-121.0,-16.0,-231.0,3874.0,5243.0,-3130.0
2026-03-11T17:23:09.206420,1682299,-930.0,1086.0,15508.0,-169.0,-47.0,-162.0,3876.0,5262.0,-3154.0
2026-03-11T17:23:09.218120,1682309,-535.0,1439.0,18358.0,-163.0,-57.0,-191.0,3876.0,5262.0,-3154.0
2026-03-11T17:23:09.226329,1682319,-662.0,1148.0,16756.0,-143.0,-54.0,-214.0,3889.0,5274.0,-3004.0
2026-03-11T17:23:09.236295,1682329,-479.0,1187.0,17274.0,-130.0,-66.0,-141.0,3889.0,5274.0,-3004.0
2026-03-11T17:23:09.246382,1682339,-873.0,1333.0,16986.0,-152.0,0.0,-189.0,3891.0,5257.0,-3030.0
2026-03-11T17:23:09.256358,1682349,-282.0,1298.0,18317.0,-143.0,-72.0,-131.0,3891.0,5257.0,-3030.0
2026-03-11T17:23:09.266342,1682359,-601.0,1043.0,16509.0,-125.0,-34.0,-226.0,3894.0,5260.0,-3113.0
2026-03-11T17:23:09.276299,1682369,-394.0,832.0,15640.0,-125.0,-34.0,-169.0,3894.0,5260.0,-3113.0
2026-03-11T17:23:09.286413,1682379,-793.0,1168.0,16487.0,-166.0,-45.0,-169.0,3879.0,5264.0,-3052.0
2026-03-11T17:23:09.298275,1682389,-1740.0,1389.0,15216.0,-118.0,-51.0,-209.0,3879.0,5264.0,-3052.0
2026-03-11T17:23:09.307015,1682399,-733.0,1229.0,16577.0,-138.0,-38.0,-239.0,3880.0,5262.0,-3141.0
2026-03-11T17:23:09.321334,1682409,13.0,1031.0,17683.0,-158.0,-29.0,-124.0,3880.0,5262.0,-3141.0
2026-03-11T17:23:09.326331,1682419,-755.0,1334.0,17297.0,-147.0,-49.0,-194.0,3899.0,5257.0,-3101.0
2026-03-11T17:23:09.336309,1682429,-1293.0,1369.0,16162.0,-157.0,-54.0,-94.0,3899.0,5257.0,-3101.0
2026-03-11T17:23:09.346559,1682439,-978.0,1076.0,15485.0,-137.0,-24.0,-206.0,3889.0,5232.0,-3142.0
2026-03-11T17:23:09.356672,1682449,-1704.0,1238.0,14482.0,-117.0,-43.0,-153.0,3889.0,5232.0,-3142.0
2026-03-11T17:23:09.366342,1682459,-972.0,1195.0,15932.0,-117.0,-43.0,-153.0,3872.0,5251.0,-3083.0
2026-03-11T17:23:09.376317,1682469,-1089.0,1550.0,17544.0,-121.0,-16.0,-246.0,3872.0,5251.0,-3083.0
2026-03-11T17:23:09.386382,1682479,-879.0,1304.0,16869.0,-143.0,-55.0,-188.0,3880.0,5258.0,-3072.0
2026-03-11T17:23:09.426101,1682489,-1252.0,1434.0,16648.0,-159.0,-50.0,-140.0,3880.0,5258.0,-3072.0
2026-03-11T17:23:09.426319,1682499,-1064.0,1065.0,15307.0,-143.0,-57.0,-192.0,3885.0,5243.0,-3111.0
2026-03-11T17:23:09.427220,1682509,-464.0,1130.0,17049.0,-123.0,-47.0,-135.0,3885.0,5243.0,-3111.0
2026-03-11T17:23:09.427260,1682519,-1366.0,1077.0,14532.0,-116.0,-36.0,-217.0,3893.0,5260.0,-3064.0
2026-03-11T17:23:09.436431,1682529,-410.0,999.0,16589.0,-137.0,-52.0,-143.0,3893.0,5260.0,-3064.0
2026-03-11T17:23:09.448939,1682539,-1548.0,1251.0,14899.0,-137.0,-24.0,-217.0,3870.0,5258.0,-3112.0
2026-03-11T17:23:09.456373,1682549,-278.0,1023.0,16871.0,-152.0,-24.0,-217.0,3870.0,5258.0,-3112.0
2026-03-11T17:23:09.471143,1682559,-588.0,1352.0,17968.0,-153.0,-58.0,-122.0,3883.0,5251.0,-3018.0
2026-03-11T17:23:09.476625,1682569,-1232.0,1576.0,17405.0,-123.0,-90.0,-170.0,3883.0,5251.0,-3018.0
2026-03-11T17:23:09.486372,1682579,-1498.0,1421.0,15970.0,-173.0,-49.0,-216.0,3876.0,5258.0,-3120.0
2026-03-11T17:23:09.496651,1682589,-753.0,926.0,15183.0,-189.0,-45.0,-141.0,3876.0,5258.0,-3120.0
2026-03-11T17:23:09.506434,1682599,-746.0,1190.0,16617.0,-133.0,-26.0,-221.0,3885.0,5259.0,-3120.0
2026-03-11T17:23:09.516377,1682609,-1616.0,1275.0,14950.0,-133.0,-53.0,-154.0,3885.0,5259.0,-3120.0
2026-03-11T17:23:09.526370,1682619,-1216.0,1177.0,15331.0,-114.0,-12.0,-236.0,3883.0,5243.0,-3007.0
2026-03-11T17:23:09.536396,1682629,-1259.0,1125.0,14972.0,-114.0,-12.0,-236.0,3883.0,5243.0,-3007.0
2026-03-11T17:23:09.553250,1682639,-757.0,1005.0,15772.0,-144.0,-21.0,-129.0,3882.0,5252.0,-3111.0
2026-03-11T17:23:09.559860,1682649,-670.0,1086.0,16134.0,-137.0,-17.0,-193.0,3882.0,5252.0,-3111.0
2026-03-11T17:23:09.566396,1682659,-996.0,1237.0,16197.0,-161.0,-13.0,-219.0,3880.0,5253.0,-2952.0
2026-03-11T17:23:09.588560,1682669,-1350.0,956.0,14112.0,-189.0,-57.0,-149.0,3880.0,5253.0,-2952.0
2026-03-11T17:23:09.588616,1682679,-1228.0,1180.0,15536.0,-201.0,-31.0,-225.0,3879.0,5250.0,-3058.0
2026-03-11T17:23:09.596413,1682689,-57.0,874.0,16816.0,-175.0,-26.0,-136.0,3879.0,5250.0,-3058.0
2026-03-11T17:23:09.606407,1682699,-576.0,1106.0,16636.0,-147.0,-15.0,-216.0,3887.0,5244.0,-3044.0
2026-03-11T17:23:09.617422,1682709,-181.0,803.0,15987.0,-154.0,-24.0,-151.0,3887.0,5244.0,-3044.0
2026-03-11T17:23:09.627935,1682719,-585.0,1061.0,16241.0,-154.0,-24.0,-151.0,3884.0,5251.0,-3010.0
2026-03-11T17:23:09.636420,1682729,-328.0,1359.0,18435.0,-148.0,-69.0,-192.0,3884.0,5251.0,-3010.0
2026-03-11T17:23:09.646529,1682739,-821.0,1323.0,16939.0,-150.0,-37.0,-227.0,3893.0,5266.0,-3176.0
2026-03-11T17:23:09.656502,1682749,-698.0,1477.0,18228.0,-158.0,-43.0,-199.0,3893.0,5266.0,-3176.0
2026-03-11T17:23:09.669657,1682759,-790.0,1251.0,16649.0,-132.0,-69.0,-183.0,3888.0,5265.0,-3165.0
2026-03-11T17:23:09.676443,1682769,-952.0,823.0,14256.0,-144.0,-63.0,-132.0,3888.0,5265.0,-3165.0
2026-03-11T17:23:09.686523,1682779,-708.0,1090.0,16238.0,-134.0,-38.0,-227.0,3883.0,5250.0,-3094.0
2026-03-11T17:23:09.696392,1682789,-1413.0,1607.0,17096.0,-155.0,-58.0,-194.0,3883.0,5250.0,-3094.0
2026-03-11T17:23:09.709144,1682799,-789.0,1194.0,16620.0,-155.0,-58.0,-214.0,3875.0,5263.0,-3081.0
2026-03-11T17:23:09.716821,1682809,-594.0,761.0,14895.0,-132.0,-14.0,-214.0,3875.0,5263.0,-3081.0
2026-03-11T17:23:09.730336,1682819,-754.0,1112.0,16519.0,-142.0,-32.0,-172.0,3885.0,5251.0,-2998.0
2026-03-11T17:23:09.740133,1682829,-1744.0,1472.0,15641.0,-124.0,-33.0,-173.0,3885.0,5251.0,-2998.0
2026-03-11T17:23:09.746353,1682839,-974.0,1323.0,16610.0,-144.0,-25.0,-221.0,3884.0,5265.0,-3074.0
2026-03-11T17:23:09.756453,1682849,-1775.0,1525.0,15791.0,-131.0,-48.0,-141.0,3884.0,5265.0,-3074.0
2026-03-11T17:23:09.766376,1682859,-936.0,1358.0,16841.0,-153.0,-14.0,-206.0,3895.0,5259.0,-3058.0
2026-03-11T17:23:09.776571,1682869,-540.0,1409.0,18277.0,-148.0,-54.0,-157.0,3895.0,5259.0,-3058.0
2026-03-11T17:23:09.786385,1682879,-814.0,1293.0,16970.0,-184.0,-20.0,-184.0,3893.0,5256.0,-3161.0
2026-03-11T17:23:09.796515,1682889,-1558.0,1608.0,16622.0,-184.0,-20.0,-184.0,3893.0,5256.0,-3161.0
2026-03-11T17:23:09.806415,1682899,-944.0,1260.0,16400.0,-110.0,-19.0,-139.0,3885.0,5261.0,-3169.0
2026-03-11T17:23:09.816391,1682909,-1071.0,1339.0,16255.0,-104.0,-48.0,-198.0,3885.0,5261.0,-3169.0
2026-03-11T17:23:09.832929,1682919,-578.0,1184.0,16886.0,-88.0,-59.0,-175.0,3880.0,5266.0,-3115.0
2026-03-11T17:23:09.838904,1682929,-393.0,1352.0,18345.0,-122.0,-40.0,-149.0,3880.0,5266.0,-3115.0
2026-03-11T17:23:09.846343,1682939,-746.0,1279.0,17130.0,-165.0,-27.0,-205.0,3895.0,5250.0,-3091.0
2026-03-11T17:23:09.859198,1682949,-636.0,1304.0,17646.0,-154.0,-58.0,-144.0,3895.0,5250.0,-3091.0
2026-03-11T17:23:09.866822,1682959,-455.0,964.0,16234.0,-123.0,-47.0,-217.0,3880.0,5258.0,-3063.0
2026-03-11T17:23:09.876375,1682969,-595.0,744.0,14725.0,-123.0,209.0,-176.0,3880.0,5258.0,-3063.0
2026-03-11T17:23:09.913256,1682979,-1080.0,1075.0,15355.0,-159.0,7.0,-176.0,3870.0,5254.0,-3102.0
2026-03-11T17:23:09.917009,1682989,-1830.0,1351.0,14870.0,-101.0,-3.0,-192.0,3870.0,5254.0,-3102.0
2026-03-11T17:23:09.917033,1682999,-1226.0,1264.0,15759.0,-180.0,-81.0,-158.0,3876.0,5267.0,-3021.0
2026-03-11T17:23:09.917052,1683009,-1594.0,1471.0,15872.0,-170.0,-51.0,-152.0,3876.0,5267.0,-3021.0
2026-03-11T17:23:09.940316,1683019,-428.0,1175.0,17258.0,-164.0,-29.0,-162.0,3887.0,5265.0,-3111.0
2026-03-11T17:23:09.944332,1683029,-236.0,846.0,16248.0,-133.0,-94.0,-111.0,3887.0,5265.0,-3111.0
2026-03-11T17:23:09.945464,1683039,-682.0,956.0,15555.0,-143.0,-54.0,-201.0,3877.0,5254.0,-3101.0
2026-03-11T17:23:09.959541,1683049,-1458.0,1055.0,14178.0,-116.0,-48.0,-117.0,3877.0,5254.0,-3101.0
2026-03-11T17:23:09.966723,1683059,-971.0,1071.0,15374.0,-116.0,-48.0,-117.0,3884.0,5248.0,-2979.0
2026-03-11T17:23:09.985465,1683069,-1537.0,1134.0,14346.0,-147.0,-36.0,-178.0,3884.0,5248.0,-2979.0
2026-03-11T17:23:09.994388,1683079,-1268.0,1339.0,16042.0,-131.0,-47.0,-157.0,3873.0,5243.0,-3112.0
2026-03-11T17:23:09.996276,1683089,-1617.0,1224.0,14624.0,-124.0,-39.0,-171.0,3873.0,5243.0,-3112.0
2026-03-11T17:23:10.006473,1683099,-1135.0,1194.0,15840.0,-134.0,-56.0,-191.0,3885.0,5250.0,-3055.0
2026-03-11T17:23:10.017138,1683109,-182.0,808.0,16116.0,-106.0,-55.0,-137.0,3885.0,5250.0,-3055.0
2026-03-11T17:23:10.026492,1683119,-727.0,1166.0,16676.0,-160.0,-59.0,-190.0,3893.0,5244.0,-3064.0
2026-03-11T17:23:10.037011,1683129,-1412.0,1197.0,15048.0,-177.0,-41.0,-133.0,3893.0,5244.0,-3064.0
2026-03-11T17:23:10.046465,1683139,-956.0,1122.0,15786.0,-154.0,-31.0,-226.0,3877.0,5259.0,-3062.0
2026-03-11T17:23:10.067876,1683149,-1696.0,1206.0,14385.0,-154.0,-31.0,-226.0,3877.0,5259.0,-3062.0
2026-03-11T17:23:10.069249,1683159,-1324.0,1245.0,15298.0,-126.0,-21.0,-172.0,3884.0,5251.0,-3082.0
2026-03-11T17:23:10.077560,1683169,-1036.0,948.0,14643.0,-135.0,-76.0,-210.0,3884.0,5251.0,-3082.0
2026-03-11T17:23:10.086542,1683179,-153.0,951.0,16840.0,-187.0,-68.0,-204.0,3884.0,5245.0,-3024.0
2026-03-11T17:23:10.096560,1683189,-923.0,1244.0,16457.0,-159.0,-43.0,-150.0,3884.0,5245.0,-3024.0
2026-03-11T17:23:10.106567,1683199,-748.0,1033.0,15706.0,-142.0,-24.0,-222.0,3881.0,5254.0,-3074.0
2026-03-11T17:23:10.119968,1683209,-795.0,816.0,14498.0,-161.0,-82.0,-126.0,3881.0,5254.0,-3074.0
2026-03-11T17:23:10.128547,1683219,-1241.0,1138.0,14960.0,-149.0,-39.0,-239.0,3892.0,5257.0,-3096.0
2026-03-11T17:23:10.154878,1683229,-1191.0,975.0,14442.0,-149.0,-39.0,-168.0,3892.0,5257.0,-3096.0
2026-03-11T17:23:10.187555,1683239,-625.0,956.0,15682.0,-148.0,-55.0,-168.0,3885.0,5255.0,-2981.0
2026-03-11T17:23:10.194424,1683249,-1496.0,1044.0,13971.0,-146.0,-42.0,-186.0,3885.0,5255.0,-2981.0
2026-03-11T17:23:10.194488,1683259,-1118.0,1115.0,15338.0,-173.0,-27.0,-185.0,3883.0,5263.0,-3042.0
2026-03-11T17:23:10.194525,1683269,-212.0,719.0,15639.0,-123.0,-37.0,-157.0,3883.0,5263.0,-3042.0
2026-03-11T17:23:10.194557,1683279,-527.0,1041.0,16312.0,-138.0,-52.0,-217.0,3885.0,5264.0,-3065.0
2026-03-11T17:23:10.196555,1683289,55.0,838.0,16953.0,-115.0,-93.0,-133.0,3885.0,5264.0,-3065.0
2026-03-11T17:23:10.206618,1683299,-646.0,1117.0,16545.0,-146.0,-42.0,-212.0,3875.0,5255.0,-3164.0
2026-03-11T17:23:10.216550,1683309,-1141.0,1025.0,14908.0,-146.0,-36.0,-129.0,3875.0,5255.0,-3164.0
2026-03-11T17:23:10.226688,1683319,-617.0,1086.0,16322.0,-146.0,-36.0,-129.0,3884.0,5266.0,-3107.0
2026-03-11T17:23:10.272138,1683329,-228.0,1275.0,18415.0,-170.0,-36.0,-220.0,3884.0,5266.0,-3107.0
2026-03-11T17:23:10.277346,1683339,-526.0,1025.0,16324.0,-134.0,-16.0,-189.0,3878.0,5257.0,-3163.0
2026-03-11T17:23:10.277389,1683349,-193.0,1105.0,17529.0,-110.0,-34.0,-179.0,3878.0,5257.0,-3163.0
2026-03-11T17:23:10.277422,1683359,-686.0,977.0,15598.0,-147.0,-37.0,-193.0,3884.0,5270.0,-3032.0
2026-03-11T17:23:10.277454,1683369,-906.0,843.0,14557.0,-148.0,-40.0,-127.0,3884.0,5270.0,-3032.0
2026-03-11T17:23:10.286540,1683379,-1128.0,1099.0,15298.0,-147.0,-31.0,-240.0,3876.0,5258.0,-3134.0
2026-03-11T17:23:10.296575,1683389,-1424.0,1044.0,14116.0,-98.0,-22.0,-178.0,3876.0,5258.0,-3134.0
2026-03-11T17:23:10.306579,1683399,-1309.0,1437.0,16240.0,-98.0,-22.0,-213.0,3878.0,5247.0,-3156.0
2026-03-11T17:23:10.317379,1683409,-438.0,1239.0,17607.0,-106.0,-18.0,-213.0,3878.0,5247.0,-3156.0
2026-03-11T17:23:10.326577,1683419,-617.0,1168.0,16779.0,-137.0,-39.0,-162.0,3887.0,5270.0,-3097.0
2026-03-11T17:23:10.337450,1683429,-346.0,1322.0,18295.0,-101.0,-48.0,-209.0,3887.0,5270.0,-3097.0
2026-03-11T17:23:10.346695,1683439,-756.0,1162.0,16611.0,-82.0,-37.0,-198.0,3876.0,5266.0,-3040.0
2026-03-11T17:23:10.356727,1683449,-1716.0,1216.0,14500.0,-50.0,-77.0,-177.0,3876.0,5266.0,-3040.0
2026-03-11T17:23:10.372559,1683459,-854.0,1065.0,15569.0,-143.0,-7.0,-243.0,3878.0,5266.0,-3026.0
2026-03-11T17:23:10.378220,1683469,-2.0,1032.0,17812.0,-106.0,-32.0,-158.0,3878.0,5266.0,-3026.0
2026-03-11T17:23:10.386583,1683479,-768.0,1181.0,16418.0,-125.0,-55.0,-214.0,3874.0,5263.0,-3029.0
2026-03-11T17:23:10.396765,1683489,-786.0,1005.0,15537.0,-125.0,-55.0,-214.0,3874.0,5263.0,-3029.0
2026-03-11T17:23:10.406594,1683499,-732.0,1141.0,16373.0,-84.0,-58.0,-139.0,3888.0,5259.0,-3146.0
2026-03-11T17:23:10.416588,1683509,-1209.0,1044.0,14692.0,-140.0,-15.0,-191.0,3888.0,5259.0,-3146.0
2026-03-11T17:23:10.426624,1683519,-754.0,1099.0,16113.0,-117.0,-9.0,-203.0,3873.0,5256.0,-3077.0
2026-03-11T17:23:10.436594,1683529,-939.0,889.0,14547.0,-126.0,-52.0,-131.0,3873.0,5256.0,-3077.0
2026-03-11T17:23:10.446676,1683539,-863.0,1028.0,15527.0,-113.0,-51.0,-199.0,3883.0,5254.0,-3104.0
2026-03-11T17:23:10.456563,1683549,-1454.0,1081.0,14311.0,-104.0,-19.0,-149.0,3883.0,5254.0,-3104.0
2026-03-11T17:23:10.484335,1683559,-814.0,996.0,15595.0,-181.0,-52.0,-227.0,3884.0,5259.0,-3075.0
2026-03-11T17:23:10.490675,1683569,-951.0,868.0,14514.0,-177.0,-58.0,-163.0,3884.0,5259.0,-3075.0
2026-03-11T17:23:10.490732,1683579,-560.0,954.0,15994.0,-177.0,-58.0,-163.0,3887.0,5251.0,-3129.0
2026-03-11T17:23:10.496530,1683589,-226.0,836.0,16064.0,-136.0,-73.0,-187.0,3887.0,5251.0,-3129.0
2026-03-11T17:23:10.506673,1683599,-874.0,1052.0,15677.0,-136.0,-57.0,-195.0,3882.0,5263.0,-3105.0
2026-03-11T17:23:10.516586,1683609,-1184.0,926.0,14167.0,-110.0,-69.0,-238.0,3882.0,5263.0,-3105.0
2026-03-11T17:23:10.527232,1683619,-603.0,959.0,15751.0,-165.0,-81.0,-229.0,3893.0,5250.0,-3070.0
