recv_time,timestamp,ax,ay,az,gx,gy,gz,mx,my,mz,roll,pitch,yaw,ax_w,ay_w,az_w,vx,vy,vz,x,y,z,a_norm,g_norm,m_norm,stationary,bias_ready
2026-03-12T20:09:49.024,318074,-0.814028564453125,1.1468225952148436,9.029731561279297,-9.207317073170733,-2.682926829268293,-13.841463414634148,1170.0,9787.0,-2803.0,7.2381085859849215,5.110447145565633,0.0,0.0,0.0,-0.668056200218528,0.0,0.0,-0.0065803535721525004,0.0,0.0,-6.573773218580348e-05,9.138593799781473,16.83920703346106,10247.491302753078,0,0
2026-03-12T20:09:49.025,318084,-0.38367081604003905,1.0690110412597655,9.801263046264648,-9.178048780487806,-2.760975609756098,-13.641463414634147,1165.0,9772.0,-2799.0,7.132501751749167,5.040022305739602,-0.13641463414634147,0.4834934383988579,-0.1573805600828162,0.0,0.00476241036822875,-0.0015501985168157398,-0.0064816482685702125,4.7576479578605215e-05,-1.5486483182989242e-05,-0.0001304236606566341,9.866850825034758,16.671805236010997,10231.500867419209,0,0
2026-03-12T20:09:49.025,318094,-0.27832594299316404,1.150413897705078,10.644620581054687,-9.073073170731709,-2.842536585365854,-13.320878048780488,1165.0,9772.0,-2799.0,7.0286686784013925,4.958759632911108,-0.26962341463414635,0.6473125382589324,-0.16381857385284082,0.8827379494507372,0.011067002714555805,-0.0031405584915139857,0.0023105452575481024,0.0001580882602174391,-4.6845176030030975e-05,-0.0001072108898730719,10.710222443123627,16.366015489149362,10231.500867419209,0,0
2026-03-12T20:09:49.026,318104,-0.6332663391113281,1.1001356628417969,9.4481183013916,-9.078934634146343,-2.7956214634146344,-13.09911024390244,1174.0,9767.0,-2800.0,6.933435032945875,4.913974785466365,-0.40061451707317075,0.18350067252543167,0.0,-0.2755368340722324,0.01270847929821297,-0.0030934501141412756,-0.0004381507369266081,0.0002848878801463692,-7.77018974942723e-05,-0.00011148080484509564,9.53300918755451,16.181138484041117,10228.02840238528,0,0
2026-03-12T20:09:49.026,318114,-0.7607575775146483,1.199495031738281,9.661800799560547,-9.103839375609757,-2.7085571121951224,-12.79264483902439,1174.0,9767.0,-2800.0,6.845915041027125,4.880605074813875,-0.5285409654634147,0.0,0.0,0.0,0.012517852108739775,-0.0030470483624291562,-0.000431578475872709,0.0004096563348325332,-0.00010806420873744528,-0.00011568079301421891,9.765650777766917,15.933233663771546,10228.02840238528,0,0
2026-03-12T20:09:49.026,318124,-0.6464344482421874,0.9720458740234375,8.765172277832031,-9.126751737756098,-2.6284579090731715,-12.92533081287805,1159.0,9768.0,-2810.0,6.748250322517555,4.8443907666177495,-0.6577942735921951,0.0,0.0,-0.9648915417241515,0.012330084327108679,-0.0030013426369927187,-0.009929286484717512,0.0005324242209255164,-0.00013793955747226508,-0.00021475868420353262,8.842567259408057,16.039656008927935,10230.014907125014,0,0
2026-03-12T20:09:49.037,318134,-0.40282442932128903,1.0193313568115234,9.612121115112304,-9.181977452394147,-2.6572056665912203,-13.047401908823417,1159.0,9768.0,-2810.0,6.647384940409753,4.781347128554917,-0.7882682926804293,0.4028129727269014,-0.10575911293638374,-0.14120986586958928,0.016112840843562026,-0.003998049759861208,-0.011171264366262203,0.0006928590767317754,-0.00017774213501580628,-0.0003261448565382885,9.674408316141356,16.174181539144662,10230.014907125014,0,0
2026-03-12T20:09:49.043,318144,-0.14305354919433594,0.8595183959960937,9.460089309692382,-9.232785109861151,-2.5860926278980694,-12.813365853678519,1175.0,9778.0,-2800.0,6.534603540361807,4.697095845593754,-0.9164019512172145,0.6314295172258433,-0.23278317609526378,-0.33038308227064483,0.022090728975583153,-0.006230993298001638,-0.014257968761134122,0.0009128526001211194,-0.00023981201592782685,-0.0004682558196054801,9.500132943193421,16.003578989249785,10238.64781111256,0,0
2026-03-12T20:09:49.053,318154,-0.3962403747558593,1.1055226165771483,9.962871658325195,-9.284406203511283,-2.27676619327598,-12.695613658554969,1175.0,9778.0,-2800.0,6.440111284742345,4.6381683294316165,-1.0433580878027642,0.41521369573467604,0.0,0.21656773133610052,0.025849222943935966,-0.006137528398531613,-0.01191090707605652,0.0011701734847309186,-0.0003008861126132299,-0.0005867775254756794,10.0318491999536,15.89221410055662,10238.64781111256,0,0
2026-03-12T20:09:49.063,318164,-0.7404068634033203,1.0474632263183594,8.91840118408203,-9.019702487718186,-2.23121026366756,-12.518988956114473,1174.0,9796.0,-2793.0,6.355145762281001,4.617321908735834,-1.168547977363909,0.0,0.0,-0.7966481713423423,0.025461484599776926,-0.0060454654725536384,-0.019579227957637745,0.0014233635423979592,-0.0003609794265714275,-0.0007817872352470048,9.010175426377655,15.590330871760267,10253.815923840255,0,0
2026-03-12T20:09:49.073,318174,-0.4644751220703125,0.9876081848144531,9.369109646606445,-9.020077508212928,-2.184420759647326,-12.356494229869217,1174.0,9796.0,-2793.0,6.2612316561062435,4.56888320960217,-1.2921129196626011,0.28647228085854787,0.0,-0.37865509780730555,0.027901314297236968,-0.005954783490465334,-0.02301529225167514,0.0017006743086849586,-0.00042010673421460476,-0.0010109282176059924,9.432461112343303,15.453687002205596,10253.815923840255,0,0
2026-03-12T20:09:49.084,318184,-0.3022679595947265,0.8655039001464844,9.254786517333983,-9.020422527068089,-2.307228074485296,-12.153340545138215,1167.0,9785.0,-2807.0,6.158603098757099,4.505561789255761,-1.4136463251139832,0.4253864694981155,-0.14289218050399666,-0.5174000529745708,0.03167285130733485,-0.007272949716072721,-0.027766453389699533,0.002015385418936549,-0.0004923433951439566,-0.0012873041587514848,9.300082601890868,15.309964414087677,10246.334124944395,0,0
2026-03-12T20:09:49.110,318194,-0.30705636291503907,1.0660182891845702,10.280701928710936,-8.971959456609959,-2.278747389502082,-11.868878179575939,1167.0,9785.0,-2807.0,6.066648927988068,4.441057317635493,-1.5323351069097426,0.4933170871802626,0.0,0.5218820725876903,0.03605693184645041,-0.00716385547033163,-0.022209418173865292,0.002373578782663652,-0.0005634179678974257,-0.0015078889421496476,10.340382524350023,15.051877470861543,10246.334124944395,0,0
2026-03-12T20:09:49.110,318204,-0.7643488800048828,1.1162965240478515,9.270947378540038,-8.693227090325065,-2.159862232488257,-12.051075242283034,1155.0,9781.0,-2797.0,5.993008190893757,4.423358982056903,-1.652845859332573,0.0,0.14339405492091317,-0.43868232350764913,0.03551607786875365,-0.00564396619730566,-0.026197297787807657,0.0027260108217898376,-0.0006192377722406119,-0.0017680920581076964,9.369141499391736,15.015512532126827,10238.417602344613,0,0
2026-03-12T20:09:49.113,318214,-0.8870517150878906,1.1156979736328125,9.101557611083983,-8.436793313342962,-2.050487888035538,-12.21869653997356,1155.0,9781.0,-2797.0,5.924840155309547,4.419693081906212,-1.7750328247323086,-0.17254534936849453,0.17566989821838963,-0.597450151437652,0.033283765009442676,-0.003828958206894937,-0.03168922231265142,0.0030557896234123805,-0.0006568698269552517,-0.0020828992969529766,9.212491175653279,14.98934712143964,10238.417602344613,0,0
2026-03-12T20:09:49.124,318224,-0.4782417816162109,0.8714894042968749,8.89266351623535,-8.347215701934061,-1.9401073935780608,-11.98754228019031,1171.0,9776.0,-2787.0,5.837704987856966,4.380243369739563,-1.8949082475342116,0.20422911664224624,0.0,-0.8610364186556794,0.03479616533322716,-0.003771523833791513,-0.03969509270172009,0.003400347525467907,-0.0006938904802278737,-0.002477370373746207,8.948054168167983,14.735711607946902,10232.731111487294,0,0
2026-03-12T20:09:49.133,318234,-0.44592005920410155,1.0749965454101562,9.95389340209961,-8.284316494559825,-1.784898802091816,-12.038294995336061,1171.0,9776.0,-2787.0,5.7609976388474875,4.33521212168021,-2.015291197487572,0.31442535655234094,0.0,0.20993955562352795,0.03737131261526931,-0.0037149509762846402,-0.03703176168830254,0.0037702865909689798,-0.0007303089500007294,-0.0028448403026386034,10.02169926370805,14.721966917177815,10232.731111487294,0,0
2026-03-12T20:09:49.149,318244,-0.38307226562499996,0.8259995727539062,8.775347634887694,-8.548400443287722,-2.0421068979244708,-11.802060664001859,1173.0,9780.0,-2802.0,5.6710397144970335,4.2873977793251115,-2.1333118041275907,0.27505626184306486,0.0,-0.9886563130258228,0.03952004710519447,-0.0036592267116403706,-0.04621454994628236,0.004161321574958903,-0.0007661343159000159,-0.0033036788162993254,8.822456900887063,14.715093837218044,10240.875597330532,0,0
2026-03-12T20:09:49.158,318254,-0.3130418670654297,1.0091559997558592,9.795277542114258,-8.727943041971045,-2.1958115168222205,-11.823749469418296,1173.0,9780.0,-2802.0,5.588235839561982,4.228770519040264,-2.251549298821774,0.4155825356638224,0.0,0.0,0.043020734374905195,-0.0036043383109657648,-0.04552133169708812,0.004586937389789247,-0.0008013755213106639,-0.0037551332411369367,9.852098922028087,14.859328029115897,10240.875597330532,0,0
2026-03-12T20:09:49.163,318264,-0.6248866333007812,1.1887211242675781,10.018536846923828,-8.683366135198728,-2.2250246442569304,-11.887605609425808,1169.0,9785.0,-2794.0,5.520380633454785,4.196586832308849,-2.3704253549160317,0.12387834471880321,0.21448639884615783,0.2984611576938203,0.043595625054761826,-0.0014375822076666234,-0.04189866931834767,0.005017870746696529,-0.0008149355920439429,-0.004169945814386093,10.108146307257746,14.888477062168539,10243.008444788084,0,0
2026-03-12T20:09:49.173,318274,-0.34057518615722654,0.9618705169677734,9.492411032104492,-8.871623673651122,-2.2128763312529616,-11.790255697257109,1169.0,9785.0,-2794.0,5.436980315553196,4.142506534282493,-2.488327911888603,0.3517144627628437,0.0,-0.2661306155738785,0.04640607813715441,-0.0014160184745516241,-0.04389157584197516,0.005476449596540005,-0.0008282666810126697,-0.004604252711233038,9.547096603222204,14.920209705999788,10243.008444788084,0,0
2026-03-12T20:09:49.183,318284,-0.5728127471923827,1.2455834136962889,10.297461340332031,-8.869210852929765,-2.318773054021017,-11.793376704891173,1176.0,9781.0,-2806.0,5.371518944354716,4.104942448361448,-2.6062616789375146,0.18327436885402726,0.2680764311236138,0.5765984354488669,0.04751523949830926,0.0012457746491342462,-0.03755370761517419,0.005945650389531575,-0.0008149931255868059,-0.0049748099975973955,10.388325300040144,14.937313805810296,10243.26964401504,0,0
2026-03-12T20:09:49.193,318294,-0.5416881256103515,1.0839748016357422,9.49360813293457,-8.818210570061238,-2.2454663316505554,-11.67429681240232,1176.0,9781.0,-2806.0,5.30179364759427,4.069919720534062,-2.7230046470615377,0.1471476542207904,0.1953412051808534,-0.23914185215158845,0.04825191529990941,0.0031511989004286384,-0.03934594924463972,0.0064217413729881385,-0.0007826976554459371,-0.0053629012205537495,9.570633353009084,14.801762150790793,10243.26964401504,0,0
2026-03-12T20:09:49.203,318304,-0.4285620971679687,0.8708908538818358,8.802282403564453,-8.771290309822193,-2.178024147069731,-11.564743311312574,1182.0,9794.0,-2803.0,5.220625679323859,4.029025454896462,-2.8386520801746635,0.1970114867173544,0.0,-0.953386885284397,0.04946869971457671,0.0031039309169222087,-0.04814662082602144,0.006909511941763772,-0.0007509066879304383,-0.00583852306138515,8.855636163630733,14.677282130590406,10255.553081136093,0,0
2026-03-12T20:09:49.213,318314,-0.28490999755859375,1.0133458526611328,9.912593423461914,-8.9964163533291,-2.067196849450494,-11.698100431773423,1182.0,9794.0,-2803.0,5.141256042648843,3.972795540859977,-2.9556330844923977,0.4117735964029419,0.0,0.15266809332266185,0.05278263914342704,0.0030573719531683755,-0.0459206407944029,0.007429900994864845,-0.0007196126354303557,-0.006291431739859851,9.968327437573203,14.901488641363414,10255.553081136093,0,0
2026-03-12T20:09:49.224,318324,-0.16998831787109375,1.1049240661621094,10.723030685424805,-8.92548353286765,-2.0091381746651864,-11.650057275280329,1177.0,9797.0,-2808.0,5.064467942258158,3.9069650533183045,-3.072133657245201,0.5722734346419862,0.1235255134415093,0.9585896566119647,0.0576277928874992,0.004228237681269716,-0.03578972306485901,0.007998172744816097,-0.0006766529283590408,-0.0066426796415379324,10.781147448243104,14.812991832094577,10259.210593413121,0,0
2026-03-12T20:09:49.233,318334,-0.5231330627441406,1.0893617553710937,9.753977563476562,-8.996810703896776,-2.0825534621553863,-11.752199034721317,1177.0,9797.0,-2808.0,4.995471412220686,3.873613298295981,-3.189655647592414,0.15381144390353713,0.2276712003621223,0.0,0.058278418716636554,0.006407375439617574,-0.035252877218886126,0.00857237597505048,-0.0006119665947889022,-0.006988213205313067,9.828553074802285,14.946364571901476,10259.210593413121,0,0
2026-03-12T20:09:49.248,318344,-0.7721300354003906,0.996586441040039,8.675389715576172,-8.940480481731374,-1.8476565022561262,-11.787632868041172,1169.0,9780.0,-2808.0,4.930772627839138,3.8731046823657542,-3.3075319762728257,-0.16618785849359696,0.2572477448406759,-1.0454879060411866,0.05576729202972508,0.008845155094703967,-0.04502213993510852,0.009120918846452383,-0.0005229915287980207,-0.007430996170059488,8.766513334453844,14.90953769995145,10242.061560057135,0,0
2026-03-12T20:09:49.253,318354,-0.4369418029785156,1.045069024658203,9.770736975097655,-8.6106078968514,-1.753502518661002,-11.849500287378365,1169.0,9780.0,-2808.0,4.863572947697003,3.835926499851482,-3.4260269791466094,0.2335969348409001,0.19930577737949606,0.0,0.05723171245746207,0.010675639675471445,-0.04434680783608189,0.009683542735055976,-0.0004158188969112629,-0.007866589784171886,9.836177532051291,14.7522200531598,10242.061560057135,0,0
2026-03-12T20:09:49.263,318364,-0.023942016601562498,0.8696937530517578,9.871293444824218,-8.516881216322801,-1.9156613415583656,-11.979589044875901,1176.0,9775.0,-2807.0,4.782252293479238,3.7615947843259856,-3.5458228695953684,0.6277228118108291,0.0,0.0,0.06255630646693681,0.010515505080339374,-0.04368160571854066,0.010298796693925619,-0.0003103531822617613,-0.008295102435515936,9.909559764090723,14.822873463421459,10237.814708227532,0,0
2026-03-12T20:09:49.273,318374,-0.5219359619140624,1.006761798095703,9.386467608642578,-8.528213645846247,-2.172164531794672,-11.733417043237047,1176.0,9775.0,-2807.0,4.718344910627319,3.731243289190783,-3.663157040027739,0.10791113373244365,0.22480641384544908,-0.35521741556863695,0.06268088653719733,0.012572115680511956,-0.04652527317611363,0.010914679953738295,-0.0001844473934311851,-0.008751594812109796,9.454721605343034,14.667031132881341,10237.814708227532,0,0
2026-03-12T20:09:49.283,318384,-0.15442600708007811,1.1240776794433593,10.774506021118164,-8.538639481007817,-2.4081474668120735,-11.506938801729302,1167.0,9789.0,-2792.0,4.652803855703127,3.663804972605293,-3.778226428045032,0.5530240842665839,0.21038799310252498,1.0112647378215396,0.06718796046916523,0.014455855677364148,-0.035866436410929764,0.011574972998871518,-3.9848947820886096e-05,-0.009101148917042876,10.83408408773889,14.529871953850185,10246.056509701672,0,0
2026-03-12T20:09:49.295,318394,-0.8481459381103515,1.1462240447998047,9.243414059448241,-8.670182468868655,-2.4398859133695465,-11.318091014664127,1167.0,9789.0,-2792.0,4.603643154343854,3.6628595248050715,-3.8914073381916734,-0.22415202334653828,0.4168015334523384,-0.46588360104979465,0.06397224363216435,0.01834451294670922,-0.0399173933351063,0.012202480739757967,0.00014345258546455986,-0.009490822527543545,9.35274743418295,14.464587499474616,10246.056509701672,0,0
2026-03-12T20:09:49.303,318404,-0.6350619903564453,1.0492588775634766,9.134477883911133,-8.58144592013965,-2.434938942739007,-10.978497392027583,1178.0,9781.0,-2813.0,4.548352213680317,3.6431991701444377,-4.001192312111949,0.0,0.32428419136271935,-0.5959482258878754,0.06301265997768188,0.021263544537431366,-0.04518872246007528,0.01281977473219525,0.00035573194280803463,-0.009932767042392153,9.216449106646381,14.145584000736939,10245.419171512702,0,0
2026-03-12T20:09:49.316,318414,-0.4375403533935547,0.9995791931152344,9.485826977539062,-8.407125368479699,-2.352338949271106,-11.148998088470254,1178.0,9781.0,-2813.0,4.487547813461776,3.604776861562094,-4.112682292996652,0.18064371130255502,0.2419883611859801,-0.26304884243993243,0.06384681063434682,0.023328176727051796,-0.04710192272120748,0.01344478459570018,0.000588424696368474,-0.010393382483334624,9.548377536103425,14.16027591081142,10245.419171512702,0,0
2026-03-12T20:09:49.323,318424,-0.7056909393310546,1.0025719451904296,8.773551983642578,-8.20772607070864,-2.2470786625977106,-10.99854165602678,1190.0,9782.0,-2807.0,4.437173945387853,3.5971067099010625,-4.22266770955692,-0.12660056112084112,0.3310137017965,-0.9549401739854595,0.06164209294779132,0.02623873903884154,-0.05580155459414614,0.014047144319652915,0.0008499612746701325,-0.010940446631246808,8.85880153388795,13.906259321868284,10246.115019850207,0,0
2026-03-12T20:09:49.333,318434,-0.3711012573242187,0.9726444244384765,9.522338552856445,-8.404766521637315,-2.335605052516723,-10.923536372325126,1190.0,9782.0,-2807.0,4.375311805866377,3.5534480179254784,-4.331903073280172,0.24042768581358936,0.22584108268315062,-0.23325587001339976,0.0630856742588383,0.02806969261768795,-0.05726210159486593,0.014663323061179057,0.0011295275426461652,-0.011501554579548271,9.579075364292477,13.979227379297006,10246.115019850207,0,0
2026-03-12T20:09:49.346,318444,-0.7140706451416016,0.9594763153076171,8.634089736938476,-8.347019346247794,-2.3390005507544096,-11.0155071210757,1191.0,9786.0,-2800.0,4.3225799428478044,3.5475923715286664,-4.442058144490929,-0.15126465894401392,0.3186537846744143,-1.0972541518448153,0.06064943225435719,0.03078738700746561,-0.06721112346661437,0.015254547566338907,0.0014359640113081006,-0.0121614921484002,8.716535852699485,14.017312605401003,10248.135293798574,0,0
2026-03-12T20:09:49.354,318454,-0.30885201416015623,0.9576806640625,9.50617769165039,-8.137794383913825,-2.3762707505964955,-10.74890069773111,1191.0,9786.0,-2800.0,4.263875041073239,3.498744685087091,-4.54954715146824,0.2934195911146136,0.2256825316931388,-0.2545335609776931,0.06262987374302077,0.03254854913953104,-0.06871011219024543,0.015864965457465345,0.0017596880532007076,-0.012835744677032352,9.559286381639662,13.689748950389271,10248.135293798574,0,0
2026-03-12T20:09:49.365,318464,-0.297479556274414,1.0606313354492187,10.065822329711914,-8.101404979542183,-2.2251934807926785,-11.010939861424815,1166.0,9775.0,-2787.0,4.210343614029305,3.4495975524950144,-4.659656550082488,0.33663965481982555,0.2923728088802202,0.30944628131796925,0.06500632623685075,0.03494019306990825,-0.06463141463640976,0.01649851369111402,0.00210698089391589,-0.013468576764573054,10.125917839359797,13.850091887833345,10231.204718897965,0,0
2026-03-12T20:09:49.374,318474,-0.5985504150390625,1.1761515655517578,9.899425314331054,-8.067926727520272,-2.086202392573167,-11.252015892023024,1166.0,9775.0,-2787.0,4.169352702086007,3.428843949445753,-4.772176709002718,0.0,0.45188699404820587,0.17005931730504287,0.064031231343298,0.038867177065234446,-0.06198685914140893,0.017121687178542455,0.0024931570119036666,-0.014074356910631155,9.98700238602714,14.001840726767059,10231.204718897965,0,0
2026-03-12T20:09:49.387,318484,-0.8158242156982422,1.0558429321289062,8.67658681640625,-7.9737121015137715,-2.1729647377526793,-11.117708279197767,1185.0,9783.0,-2791.0,4.132343425057817,3.4359934362216458,-4.883353791794695,-0.25365236999281154,0.4510891445455819,-1.0433337732653332,0.060572287028719335,0.042727397483029915,-0.07133389392095132,0.017709682638780817,0.0029175105557472315,-0.014772908153990828,8.77858372580002,13.852988768157083,10242.118677305003,0,0
2026-03-12T20:09:49.393,318494,-0.18854338073730467,1.015740054321289,10.117297665405273,-7.994351718758524,-2.07717633922027,-11.194145275398531,1185.0,9783.0,-2791.0,4.07761008311011,3.3799276526452147,-4.9952952445486805,0.4350319939384262,0.25684707540723073,0.350700306989129,0.06394876786358204,0.04461643021354569,-0.06680948748829413,0.01833082114709922,0.0033603111830248058,-0.015425562025844896,10.169906022908346,13.911621379054317,10242.118677305003,0,0
2026-03-12T20:09:49.404,318504,-0.6985083343505859,1.0019733947753906,8.729259252929687,-8.140169434916379,-2.140270524765575,-10.820564872878844,1185.0,9791.0,-2808.0,4.034484415883617,3.3763265122782586,-5.103500893277469,-0.14532619144469955,0.39983973126686567,-1.0026259104580983,0.06155807335989802,0.04788560511332113,-0.07568321039398197,0.018927455478817502,0.0038353280669238586,-0.016166211735654933,8.814297004404464,13.70867391531751,10254.402469183662,0,0
2026-03-12T20:09:49.413,318514,-0.39264907226562495,1.121683477783203,10.17655415649414,-8.269443685001116,-2.193439126686768,-10.75004163426805,1185.0,9791.0,-2808.0,3.986861393547945,3.33702072343753,-5.2110013096201495,0.2400159906613542,0.3912342489613976,0.4287752332283432,0.06299885976751389,0.051020978388891074,-0.07032452619077306,0.019537886632416148,0.0043411923129619565,-0.0168525875405651,10.245711376880623,13.738932607753112,10254.402469183662,0,0
2026-03-12T20:09:49.424,318524,-0.8684966522216796,1.1049240661621094,8.968679418945312,-8.339595507274197,-2.1155249721615825,-10.690038303526604,1179.0,9793.0,-2812.0,3.9502635527637757,3.3484750261733427,-5.317901692655416,-0.2936017894154239,0.5138655279388892,-0.7478369234890465,0.05916189924525926,0.05531723916325577,-0.07663585199427858,0.02010937611924387,0.004889470339889919,-0.017601327114447375,9.078125034758978,13.72228909707317,10256.716531132173,0,0
2026-03-12T20:09:49.433,318534,-0.37768531188964843,1.0283096130371092,9.843760125732421,-8.604135183765433,-2.097502486583778,-10.351908409976184,1179.0,9793.0,-2812.0,3.895713829617018,3.310367995588778,-5.421420776755178,0.22696528743535072,0.3372066707610595,0.0,0.06051007883781858,0.05780896628280337,-0.0754863142143644,0.020693762430714434,0.005462092442715234,-0.01833783406633443,9.904528270848708,13.623239947614188,10256.716531132173,0,0
2026-03-12T20:09:49.445,318544,-0.2597708801269531,0.8319850769042968,9.121908325195312,-8.286536076381271,-2.0418974096082954,-10.450585005470773,1170.0,9786.0,-2785.0,3.833826401510981,3.2649668574529866,-5.525926626809886,0.2821683244558608,0.19393486541839478,-0.6495946940476625,0.06238178565114153,0.05885209021293251,-0.08075252723751841,0.021296262706938626,0.006044562731499715,-0.019126213979370903,9.16345412885452,13.492618431316581,10241.626872719002,0,0
2026-03-12T20:09:49.453,318554,-0.469263525390625,0.9995791931152344,9.453505255126952,-7.994344897587842,-1.9907407387908511,-10.258440644057501,1170.0,9786.0,-2785.0,3.7881120044126466,3.238774313777392,-5.628511033250461,0.10438457204680623,0.36435059673916403,-0.29641966987348667,0.06247424690103546,0.061558162237619285,-0.08246097307720948,0.021899084170773034,0.006653484209522032,-0.019930872886432856,9.517779595487797,13.15705907406063,10241.626872719002,0,0
2026-03-12T20:09:49.468,318564,-0.18375497741699218,1.1342530364990233,10.873865390014648,-8.198699744805205,-1.836359528468071,-10.08166783155729,1183.0,9795.0,-2793.0,3.7398579502536418,3.1865482502187534,-5.729327711566033,0.4638691007828607,0.3781549136056199,1.1113657849925307,0.0661062438402311,0.06435961570307036,-0.0702771054988749,0.02253758646256617,0.007289783286186183,-0.020613010297480184,10.934406447662864,13.123677841562612,10253.895016041466,0,0
2026-03-12T20:09:49.473,318574,-0.8200140686035156,1.0857704528808594,9.041104019165038,-8.167194009123229,-1.9528654003369668,-10.250744161130267,1183.0,9795.0,-2793.0,3.706033346063653,3.1966995878431956,-5.831835153177336,-0.25938373612829346,0.5281960079535025,-0.6826918956993726,0.06255972038176394,0.0685969521458663,-0.0759474640890306,0.023140020482717426,0.007967777054837201,-0.02135111245343212,9.142914329382016,13.251207383157125,10253.895016041466,0,0
2026-03-12T20:09:49.483,318584,-0.19931728820800781,0.7906850982666015,9.056666329956053,-8.162598976198248,-2.0502947048953755,-10.006294384337409,1191.0,9783.0,-2792.0,3.6448839214100026,3.147393309361718,-5.93189809702071,0.3204321780414904,0.18118707582759785,-0.7208033261347762,0.06477758152974616,0.06935269056058013,-0.08190816489012269,0.023764008501716873,0.00865264265648256,-0.022148023908231014,9.09330057339793,13.075077733198265,10243.087132305378,0,0
2026-03-12T20:09:49.493,318594,-0.22685060729980466,1.052850180053711,10.372280142211913,-8.41690813127312,-2.07651503094277,-10.049693272614807,1191.0,9783.0,-2792.0,3.5942444432472427,3.0984263057168695,-6.0323950297468585,0.37681105620223476,0.3629486985732501,0.6082639083490644,0.06751750671039199,0.07188744488311793,-0.07468814291953256,0.02441474438525197,0.009362145588208425,-0.022872010432088915,10.428046319814417,13.2722489442318,10243.087132305378,0,0
2026-03-12T20:09:49.503,318604,-0.7003039855957031,0.9409212524414062,8.56166513671875,-8.582579871015172,-2.012832852857592,-10.084742201049524,1193.0,9773.0,-2806.0,3.5498663551872083,3.1018473050090534,-6.133242451757353,-0.18869813812651415,0.43163265041721743,-1.1778636046484614,0.06464606744918994,0.07506071481648076,-0.08516977728152691,0.025036143854684126,0.01010263998363686,-0.02369998449669928,8.641635747290117,13.394558544331607,10237.598058138443,0,0
2026-03-12T20:09:49.514,318614,-0.020350714111328123,0.8445546356201171,9.675567459106444,-8.569144213041275,-1.9347330538972773,-10.024304288380197,1193.0,9773.0,-2806.0,3.487040583711014,3.0380632864234633,-6.2334854946411555,0.5189609976647308,0.19932565566503435,-0.11019492065639724,0.06878814226444968,0.07589816180253414,-0.08497765059076953,0.025698301252051293,0.01085075998006054,-0.024525211241604367,9.712378305020446,13.328919723660244,10237.598058138443,0,0
2026-03-12T20:09:49.523,318624,-0.016160861206054686,0.9798270294189453,10.39322940673828,-8.615319993071143,-1.7555641656830563,-10.066262384334172,1190.0,9803.0,-2795.0,3.4306591365843238,2.9765305031416576,-6.334148118484498,0.5617089792985812,0.2959701088252066,0.6133511707946351,0.07328915357657395,0.07767499494742441,-0.07766147679958084,0.026404761595029216,0.011615882419605249,-0.025276524183590575,10.439326591409248,13.365454818789479,10262.891113131816,0,0
2026-03-12T20:09:49.533,318634,-0.5111620544433594,1.1845312713623046,10.084377392578125,-8.794387076552281,-1.8053629348674363,-9.890229686270365,1190.0,9803.0,-2795.0,3.393065221789632,2.957329334355064,-6.433050415347202,0.0,0.5805176392779771,0.34302873991898863,0.07218981627292534,0.08222796877010112,-0.07311772155938508,0.02709953309800071,0.012425723945198953,-0.025981693697785243,10.166566203722805,13.357290991290357,10262.891113131816,0,0
2026-03-12T20:09:49.579,318644,-0.6602011077880859,1.0019733947753906,8.903437423706054,-8.959128793354928,-1.8511778025170658,-9.728279604051663,1189.0,9776.0,-2793.0,3.3502357191901964,2.9579496031095682,-6.530333211387719,-0.14177408891691412,0.49931357913924745,-0.8377258615199121,0.06971049425299986,0.08591278799307119,-0.08027255547196543,0.02776884140249018,0.013271566973304534,-0.02675763483325239,8.983930884886183,13.354110679751791,10236.442057668279,0,0
2026-03-12T20:09:49.579,318654,-0.4321533996582031,1.0857704528808594,9.891045608520507,-9.203374099642632,-1.9372299197791152,-9.701236747922652,1189.0,9776.0,-2793.0,3.3032957217579515,2.9318009585166926,-6.6273455788669455,0.13548396816486918,0.501746431340985,0.13962226050166748,0.06999935392562882,0.08956629852188382,-0.07769318787394452,0.02844036610680472,0.014153062728564848,-0.02750703214527984,9.959841226998453,13.511807762816384,10236.442057668279,0,0
2026-03-12T20:09:49.580,318664,-0.5135562561035156,1.1031284149169922,9.715670336914062,-9.135396854598051,-1.904202745708981,-9.603186588576644,1175.0,9773.0,-2795.0,3.260927947351655,2.9141646672926176,-6.723377444752712,0.0,0.5468490664360482,0.0,0.06894936361674439,0.09360926734845064,-0.07652779005583536,0.029100729883229193,0.015074066246647306,-0.028244037735792357,9.79157200982417,13.390394185489235,10232.505998043685,0,0
2026-03-12T20:09:49.580,318674,-0.5201403106689453,1.1378443389892579,9.967061511230469,-9.102126081839963,-2.0006470138571406,-9.761760929783195,1175.0,9773.0,-2795.0,3.2200488517919714,2.8952670208561067,-6.820995054050544,0.0,0.5737265882053274,0.2220773221784924,0.06791512316249322,0.09785633523204634,-0.07319241158153969,0.029750101233739272,0.0160365769693688,-0.028946985889756145,10.045275051047854,13.496046240807285,10232.505998043685,0,0
2026-03-12T20:09:49.583,318684,-0.6063315704345703,1.0013748443603514,9.077017044067382,-9.134931605048862,-1.97230256982174,-9.858868835888345,1192.0,9776.0,-2814.0,3.1762000856023818,2.8893901376609614,-6.9195837424094275,0.0,0.510868096714082,-0.6691219177237553,0.06689639631505583,0.10142054095619935,-0.07868537629739558,0.03038864613169294,0.017033731596551863,-0.02970410581307737,9.15219252258786,13.584338319516943,10242.540505167652,0,0
2026-03-12T20:09:49.593,318694,-0.3651157531738281,0.9756371765136718,9.497199435424804,-9.365112686401051,-1.9998842178945375,-9.792110548529472,1192.0,9776.0,-2814.0,3.124291113514966,2.859202115960476,-7.017504847894722,0.16597283903247106,0.4395849331400591,-0.26405115938513113,0.06752778283479983,0.10422914443328594,-0.08010599957287819,0.031032860036080898,0.01805794701784384,-0.030474660642997344,9.554160064058195,13.696360885600075,10242.540505167652,0,0
2026-03-12T20:09:49.609,318704,-0.7960720520019531,1.2401964599609374,9.813832604980469,-9.596391476367016,-1.9813568950971208,-9.842888046110529,1188.0,9790.0,-2799.0,3.090938587568956,2.86581410711476,-7.115933728355827,-0.21160322984532887,0.7411431254424883,0.0,0.06443057427830134,0.10996596705239516,-0.07890440957928502,0.03164548861308505,0.019138449081679422,-0.0312324410340514,9.92386660379189,13.888806629862191,10251.333815655405,0,0
2026-03-12T20:09:49.618,318714,-0.2771288421630859,0.9157821350097656,9.39843861694336,-9.467704548501557,-1.9935800508064243,-9.904237490226564,1188.0,9790.0,-2799.0,3.0347974380579723,2.828405382649744,-7.214976103258093,0.23958412989186395,0.3899189316193217,-0.3707256456040451,0.06582401934356168,0.11215717902305955,-0.08137249104479558,0.03227142507771415,0.020239760851038107,-0.03201411977855485,9.447015706053097,13.845783152263355,10251.333815655405,0,0
2026-03-12T20:09:49.638,318724,0.009576806640625,1.0301052642822266,10.672752450561523,-9.305410135840946,-2.0194595004004467,-10.087508247106,1181.0,9786.0,-2804.0,2.980311549440169,2.7653200088597614,-7.315851185729152,0.5824112299444248,0.40292218160881377,0.8922894014779157,0.07057340966836084,0.11444360482656048,-0.07136285307456616,0.03294418201522335,0.021362812702404407,-0.03269502056099122,10.722352980651886,13.8717950210274,10248.071672270837,0,0
2026-03-12T20:09:49.645,318734,-0.5201403106689453,1.0462661254882812,9.552864624023437,-9.156099276193183,-2.043268594026948,-10.25611734343508,1181.0,9786.0,-2804.0,2.939174391994771,2.7501856472743262,-7.418412359163503,0.0,0.5580581938768101,-0.19879672288168848,0.06951480852333543,0.11822382396384866,-0.0722505579988323,0.03360569077035625,0.022522505891100848,-0.03338410861483856,9.624055344450461,13.899533929781676,10248.071672270837,0,0
2026-03-12T20:09:49.650,318744,-0.0718260498046875,0.8062474090576172,9.439140045166015,-9.072391821902606,-1.9041973504072311,-10.172213321813931,1178.0,9785.0,-2796.0,2.8789550506960566,2.6966924517427087,-7.520134492381643,0.4138217194437777,0.27938284102521493,-0.346033980365938,0.0725482303320066,0.11920238758848929,-0.07457523433545431,0.034296841900602636,0.023690815237218756,-0.034095731097234905,9.473782700605886,13.762564615067644,10244.585155095348,0,0
2026-03-12T20:09:49.657,318754,-0.42317514343261714,1.140238540649414,10.269329470825195,-9.039283402979667,-1.9323493672527015,-10.402338695093206,1178.0,9785.0,-2796.0,2.8417706835798113,2.6723878367486895,-7.624157879332575,0.14117169373096633,0.6164238452068482,0.5150960300043206,0.07285054806027652,0.12348612664994939,-0.06838290992487993,0.03499032203382419,0.02490075082721453,-0.03474478063628722,10.34109998558956,13.91586392732909,10244.585155095348,0,0
2026-03-12T20:09:49.664,318764,-0.6721721160888672,0.9469067565917968,8.619125976562499,-8.930774877082758,-1.9533711739700463,-10.272590623875995,1184.0,9780.0,-2798.0,2.8052175272075397,2.679551616737748,-7.726883785571335,-0.19394211465052885,0.555061373087491,-1.1295494654059617,0.06984746001006466,0.12710118927511194,-0.07848322851025545,0.035653107837290914,0.026145590957245682,-0.035494083308468385,8.696998353407974,13.751382365935967,10241.04779795505,0,0
2026-03-12T20:09:49.674,318774,-0.27952304382324217,1.0289081634521484,10.064625228881836,-8.826068984477113,-1.8800283093207355,-10.211758983722012,1184.0,9780.0,-2798.0,2.7637586570369406,2.6445792484013375,-7.829001375408555,0.25905176977749245,0.5118995729860918,0.2980180869013829,0.07135140804222198,0.13023688222989824,-0.07437050192662299,0.03633025529579542,0.027420511819765122,-0.03620155053940688,10.12094195906149,13.62769319086042,10241.04779795505,0,0
2026-03-12T20:09:49.683,318784,-0.7320271575927734,1.0396820709228516,8.978854776000976,-8.856568831572602,-1.9345040933555644,-10.1753060699023,1179.0,9784.0,-2808.0,2.7341399870197765,2.6553071257231835,-7.930754436107578,-0.22626132712421426,0.6476051325157484,-0.7641918684544322,0.06805246284941514,0.1346622395517299,-0.08078223430199981,0.03697376914436529,0.028738367081067136,-0.036972363509544456,9.068441743572448,13.627838096036484,10247.0269346772,0,0
2026-03-12T20:09:49.694,318794,-0.3699041564941406,1.1043255157470702,10.135852728271484,-8.962677471388258,-1.960231570765168,-10.214940120895482,1179.0,9784.0,-2808.0,2.698115311476571,2.627335870432937,-8.032903837316534,0.18349858902122276,0.6062766595891931,0.37620968374281283,0.06883913700853296,0.1386141310554075,-0.0758648354026031,0.037624498353936164,0.030094383883229592,-0.037693280851706916,10.202542548743924,13.730152837482738,10247.0269346772,0,0
2026-03-12T20:09:49.703,318804,-0.7535749725341796,1.149216796875,9.446322650146485,-8.821273029774758,-1.8668276792502962,-10.40750100878482,1181.0,9780.0,-2811.0,2.674799733223565,2.6374551042940975,-8.136978847404382,-0.21283031592868756,0.7447540130945084,-0.29236438242884333,0.06571017134150739,0.14387074611855732,-0.07760665203848816,0.03824331846728389,0.031501558253070744,-0.03843087802471971,9.545762729929967,13.77011186220735,10244.260929906071,0,0
2026-03-12T20:09:49.713,318814,-0.699705435180664,1.0510545288085937,9.115922821044922,-8.69118094349034,-1.780896099056614,-10.58465702564301,1181.0,9780.0,-2811.0,2.6477259498545016,2.645757997857361,-8.242825417660812,-0.18336101531957377,0.6619481753662633,-0.6293652409338257,0.06291841277048699,0.14823287445413666,-0.08264179988110901,0.038833630092393774,0.03295090311061449,-0.039218038727507266,9.202953449724607,13.81098046695522,10244.260929906071,0,0
2026-03-12T20:09:49.723,318824,-0.07122749938964844,0.8984241729736328,9.868899243164062,-8.615398663133064,-1.8433024599125727,-10.220811292859862,1181.0,9781.0,-2806.0,2.601172911402558,2.5940923204678956,-8.345033530589411,0.43816055881438504,0.39015287067700577,0.0,0.06629051808325137,0.1498523871134931,-0.08140217288289237,0.03945703873795306,0.034414977554767676,-0.039992028395879856,9.909965268505074,13.493992795599322,10243.844883636222,0,0
2026-03-12T20:09:49.733,318834,-0.6338648895263671,1.1695675109863282,9.862315188598632,-8.511532623740957,-1.895838263119567,-10.27631712113839,1181.0,9781.0,-2806.0,2.5797631384364985,2.5912854713551465,-8.447796701800796,0.0,0.7438546478483297,0.11684188626399994,0.0652961603120026,0.15493156958809676,-0.07903024770994857,0.040069890340732016,0.035928328957398,-0.04074154854210636,9.9516297027267,13.477502880694066,10243.844883636222,0,0
2026-03-12T20:09:49.743,318844,-0.15023615417480468,0.8277952239990234,9.265560424804686,-8.533049038231924,-1.8661224215821968,-10.151772727057075,1179.0,9779.0,-2801.0,2.533595848376767,2.5479137036668402,-8.549314429071366,0.32216354965570576,0.37365923706756415,-0.5160625458918933,0.06749002887143125,0.1562881395293908,-0.08292801007133449,0.040704045838816885,0.03745371914233921,-0.041529257814176886,9.303678080232766,13.392304815938981,10240.3360784693,0,0
2026-03-12T20:09:49.781,318854,0.03890577697753906,0.8601169464111328,10.011952792358398,-8.60650267614898,-1.9021984815141577,-10.164021152794948,1179.0,9779.0,-2801.0,2.484470375449235,2.4876309026948644,-8.650954640599315,0.5332068964927131,0.3490736004262047,0.22202646124936543,0.07172976636881301,0.15738219240064807,-0.07949712927695822,0.04137992215900251,0.03898851352527934,-0.042281904877839525,10.0489060866046,13.453533861855682,10240.3360784693,0,0
2026-03-12T20:09:49.794,318864,-0.21248539733886718,1.0390835205078124,10.230423693847655,-8.683836120593647,-1.7451445542125374,-10.038704338620134,1185.0,9775.0,-2789.0,2.4486604643644254,2.45088332933117,-8.751341683985515,0.3154991843121976,0.5595606146363997,0.4585224654561326,0.07376148683875595,0.16053313156880689,-0.07378822605306094,0.042075419490362684,0.040553250996126444,-0.04297676735123176,10.285252236202702,13.387685538682751,10233.932333174771,0,0
2026-03-12T20:09:49.794,318874,-0.411802685546875,1.139639990234375,10.31661495361328,-8.794007279726642,-1.6640695752413883,-9.79658360128662,1185.0,9775.0,-2789.0,2.4198651476603055,2.4318093677058132,-8.849307519998382,0.1357764069979861,0.6903655221526495,0.5570300931622647,0.07399246214510478,0.1649252349884784,-0.06719465624461671,0.04277252876770191,0.04216030084266522,-0.043605065199764245,10.387536034126773,13.269391163279767,10233.932333174771,0,0
2026-03-12T20:09:49.794,318884,-0.7493851196289062,1.0378864196777342,9.000402590942382,-8.82707206320217,-1.4870415701976871,-9.973832522939789,1166.0,9780.0,-2811.0,2.3952911067520946,2.4516101409086413,-8.94904584522778,-0.2549788790968405,0.7091164278156059,-0.7469495226259486,0.07037103325382434,0.16943615327763492,-0.07354418919881306,0.043432762861139916,0.04381080771306613,-0.04429616658466062,9.090986364345458,13.401709929561664,10242.542506624026,0,0
2026-03-12T20:09:49.794,318894,-0.3190273712158203,0.9642647186279296,9.454103805541992,-8.828223371316728,-1.519297756776994,-10.068608847933875,1166.0,9780.0,-2811.0,2.3597593060321125,2.4287119595491227,-9.049731933707118,0.1725105039592659,0.5539453752675447,-0.31586244972881694,0.07101469621901574,0.1723509729248557,-0.07555227149065971,0.04409876691350674,0.04548878312487237,-0.04500663761026765,9.508504807651887,13.476745812706524,10242.542506624026,0,0
2026-03-12T20:09:49.813,318914,-0.4291606475830078,0.9307458953857422,9.111732968139648,-9.004892330879683,-1.436778326478737,-10.180193310830871,1189.0,9788.0,-2790.0,2.234452890936933,2.404217050729378,-9.253335799923736,0.0,0.5745918327859827,-0.6556001142823984,0.0699494757757305,0.18108516743686673,-0.08733430966966306,0.04545225867259233,0.04906137598713609,-0.046706570479857254,9.169195409952515,13.667068218753442,10247.085683256484,0,0
2026-03-12T20:09:49.825,318924,-0.1149216796875,1.0324994659423827,10.401010562133788,-9.162549724897112,-1.4193970359701942,-10.092607114257085,1189.0,9779.0,-2792.0,2.195721933687589,2.3636218994530402,-9.354261871066306,0.4141755894056235,0.5735529711848313,0.622145636296537,0.07297986319473992,0.18401838669148432,-0.07989616050709723,0.04613587524723519,0.05085065829419688,-0.0474580265528433,10.452764364188647,13.705025493215466,10239.034427132277,0,0
2026-03-12T20:09:49.836,318934,-0.43454760131835934,1.0989385620117187,9.964667309570311,-9.068570137149244,-1.2765769804096518,-10.133979032921395,1189.0,9779.0,-2792.0,2.1678609110247677,2.3528231610588453,-9.455601661395521,0.0,0.7153083221338111,0.20186531862673363,0.07188516524681883,0.1883038978641301,-0.07670934471101745,0.046807872172803675,0.05268096357556535,-0.04817689487995352,10.034495112924574,13.658921778786105,10239.034427132277,0,0
2026-03-12T20:09:49.844,318944,-0.17357962036132812,0.7888894470214843,9.126098178100586,-9.216255257884622,-1.3256703341720015,-10.113504612726707,1179.0,9773.0,-2805.0,2.118671147549019,2.3207568796818423,-9.556736707522788,0.26917762704343584,0.41199190323852486,-0.6581009086236715,0.07345828739449439,0.18953745964306762,-0.08204099849029535,0.04749491259170187,0.054521761833824026,-0.04894830755999161,9.161776268855155,13.746990156577331,10235.701978858118,0,0
2026-03-12T20:09:49.867,318954,-0.31184476623535157,0.9900023864746094,9.701903677368163,-9.342369471400195,-1.4927874391455584,-10.328814487611009,1179.0,9773.0,-2805.0,2.082264942420299,2.2987140626315035,-9.660024852398898,0.18447501168271646,0.6145952991028445,0.0,0.07417349194865173,0.19274816144458462,-0.08081038351294093,0.04818841086367719,0.0563927942048216,-0.049706654983725895,9.757268411209342,14.006880109364262,10235.701978858118,0,0
2026-03-12T20:09:49.876,318964,0.052073886108398436,0.9193734375,10.366893188476562,-9.580345767346715,-1.6953156635261089,-10.639094694455787,1183.0,9786.0,-2779.0,2.032683629877175,2.2432343731759583,-9.766415799343456,0.5456661830257405,0.46526607093132843,0.5763269087877188,0.0784357014722255,0.19443980982158943,-0.07392140770868777,0.04892379511052105,0.058278855110734454,-0.05039542319175196,10.40771029518389,14.416915625004968,10241.490418879472,0,0
2026-03-12T20:09:49.881,318974,-0.3908534210205078,1.0624269866943359,10.032902056884765,-9.735869325471173,-1.7499343128830445,-10.607479314021274,1183.0,9786.0,-2779.0,1.9969665858878671,2.225627421579725,-9.872490592483668,0.12236967251533154,0.7015774636729365,0.2647677704798408,0.07846450722441813,0.198433750691444,-0.07020462405383103,0.049658731742582465,0.06020292942503125,-0.05104637196285798,10.09656581129556,14.504069739884914,10241.490418879472,0,0
2026-03-12T20:09:49.883,318984,-0.8164227661132812,1.0708066925048827,8.833407025146483,-9.878950998945674,-1.8001834702914252,-10.661319993289817,1165.0,9790.0,-2785.0,1.9733815223047868,2.2531467178989644,-9.979103792416566,-0.3274580204786844,0.8353747732027599,-0.916364683387874,0.07406207811433682,0.20368568594711953,-0.07817774682439413,0.05034895317120211,0.06217754649821794,-0.05177632128167082,8.935449220808573,14.645752878073608,10244.879208658343,0,0
2026-03-12T20:09:49.893,318994,-0.4626794708251953,1.1581950531005858,10.25376716003418,-9.737415406834899,-1.7244614755949406,-10.710853418216876,1165.0,9790.0,-2785.0,1.9445336051563356,2.2408729896736057,-10.086212326598735,0.0,0.8076089666550581,0.4907365790320881,0.07295114694262177,0.20858534897946504,-0.07217132531856216,0.0510273861759877,0.06419913658802458,-0.052445536500321584,10.329338267572863,14.57783959071456,10244.879208658343,0,0
2026-03-12T20:09:49.903,319004,-0.6039373687744141,1.121084927368164,9.626486325073241,-9.475495345019814,-1.7621143136449062,-10.590570510613185,1195.0,9798.0,-2804.0,1.9216717313622387,2.243390470402369,-10.192118031704867,0.0,0.8249432079403713,-0.13174594520736882,0.07185687973848244,0.21358225934298572,-0.07238645299907631,0.051694209018399155,0.06626862422227298,-0.053116231629282036,9.710345551348642,14.319575504466396,10261.152225749309,0,0
2026-03-12T20:09:49.913,319014,-0.5925649108886718,1.0708066925048827,9.364919793701171,-9.312577668637742,-1.5772427295289235,-10.918934625861692,1195.0,9798.0,-2804.0,1.8989628164508554,2.2481615432656445,-10.301307377963484,0.0,0.7876206753557593,-0.3953764414439398,0.0707790265424052,0.21813658910509517,-0.07519511415231298,0.05234959728453938,0.0683815401232106,-0.05381431458803436,9.444547786357255,14.437275741153647,10261.152225749309,0,0
2026-03-12T20:09:49.923,319024,-0.7044938385009765,1.2138602416992186,9.87608184814453,-9.401717796610138,-1.4900877014105123,-10.855175953353731,1188.0,9790.0,-2802.0,1.8829768884157234,2.260508986457569,-10.40985913749702,-0.14731033967611756,0.9306292660953706,0.12405942878831233,0.06826633429845937,0.22403123853955814,-0.0728452020664634,0.052979228366896454,0.07055123065609757,-0.054488223842090296,9.97530756047721,14.437711171209228,10252.15333478777,0,0
2026-03-12T20:09:49.936,319034,-0.36571430358886714,1.0390835205078124,9.755773214721678,-9.332507202149618,-1.4440514170049885,-11.074566755134214,1188.0,9790.0,-2802.0,1.854001490533029,2.244399087094511,-10.520604805048363,0.14943754578485166,0.7075214068341873,0.0,0.06871429910996327,0.22763985581878152,-0.07175252403546645,0.053612704986638095,0.0727548015850711,-0.055150543333362514,9.817767186663236,14.554277858659033,10252.15333478777,0,0
2026-03-12T20:09:49.948,319044,-0.18136077575683593,0.8265981231689452,9.124302526855468,-9.361516382075209,-1.4992590109616626,-11.256894097650306,1182.0,9785.0,-2800.0,1.8116275415774938,2.212976248406291,-10.633173746024866,0.26820471310497496,0.49677395241658556,-0.6605943112421784,0.07032540104739782,0.22911848141280317,-0.0771830901406699,0.05426164303811496,0.07497094041279993,-0.05586645186053445,9.163462925651558,14.717453287832326,10246.138248140125,0,0
2026-03-12T20:09:49.972,319054,-0.4285620971679687,1.0899603057861327,9.903016616821288,-9.358936534923826,-1.569562192523754,-11.370976716179745,1182.0,9785.0,-2800.0,1.7864809711539476,2.201268297653177,-10.746883513186663,0.0,0.7757293698895049,0.1346643729398913,0.06927052003168685,0.23332263848502274,-0.07469889971510192,0.054899393890193396,0.07722686263085252,-0.05655682741682778,9.972031741443514,14.810547931148053,10246.138248140125,0,0
2026-03-12T20:09:49.981,319064,-0.6512228515624999,1.0606313354492187,9.312247357177734,-9.27851429505675,-1.3513142902925854,-11.471054676446341,1200.0,9784.0,-2794.0,1.7657571149804132,2.214558937424687,-10.861594059951127,-0.13891449993080857,0.8139439862219139,-0.44795464100899096,0.06686315440689308,0.23784014717203325,-0.07799076943331396,0.05551245740882806,0.07952565883847028,-0.05727939837604976,9.395050871251186,14.815598982988938,10245.637705872681,0,0
2026-03-12T20:09:49.981,319074,-0.842758984375,1.0684124908447266,8.86812294921875,-9.204525834379039,-1.1505262202399105,-11.56312639989161,1200.0,9784.0,-2794.0,1.7516526189896073,2.2508564906475472,-10.977225323950043,-0.3319476608851137,0.8760769676352997,-0.8837775647351158,0.06259052263107132,0.24290190309566045,-0.08552611690445515,0.05608222427250364,0.08187272319155746,-0.05807652488554922,8.971920229181602,14.82406484602253,10245.637705872681,0,0
2026-03-12T20:09:49.983,319084,-0.4878185882568359,0.9510966094970703,9.139266287231445,-9.073041816409205,-1.2145816835963275,-11.428320190339305,1188.0,9796.0,-2794.0,1.7251266294281284,2.250714213297162,-11.091508525853436,0.0,0.6874532198505189,-0.6308053390390125,0.06165166479160525,0.24602978876475318,-0.0904566577404226,0.056642042179499266,0.08424868805812578,-0.05892211037149049,9.20156182419979,14.642465599800968,10255.70065865809,0,0
2026-03-12T20:09:49.993,319094,-0.23104046020507812,0.833182177734375,9.1416604888916,-9.127686275974517,-1.2393663684208163,-11.392103355599964,1188.0,9796.0,-2794.0,1.6874563228503079,2.2263723704761302,-11.205429559409437,0.2322091107700634,0.5285743932997921,-0.6423596963632292,0.0630141495608163,0.24754579970728482,-0.09542705088349406,0.057214911491432326,0.08663742190914343,-0.0598165044994451,9.18245766283231,14.65028001822689,10255.70065865809,0,0
2026-03-12T20:09:50.003,319104,-0.3806780639648437,0.9379285003662109,9.440337145996093,-9.109666495847774,-1.237778034556907,-11.129515574956844,1191.0,9786.0,-2788.0,1.6575228168019824,2.215252850065048,-11.316724715159005,0.1160822715821084,0.6544169057720323,-0.335490909903319,0.06321234769248783,0.25027861923353006,-0.09730023058278933,0.05778918793338885,0.08905106789337726,-0.060728717298467724,9.494450541777386,14.435519909639902,10244.863151843465,0,0
2026-03-12T20:09:50.013,319114,-0.18734627990722655,0.9510966094970703,9.964068759155273,-9.205283420082392,-1.4070484747191836,-11.078178719204198,1191.0,9786.0,-2788.0,1.6237756348301535,2.184248924744909,-11.427506502351047,0.32201410241265627,0.6167957442758673,0.18025240034699586,0.06543600138586518,0.2525998780261444,-0.09406524098062959,0.05838510439930025,0.09148548960696506,-0.061607700338565746,10.011111308259737,14.472148147005756,10244.863151843465,0,0
2026-03-12T20:09:50.024,319124,-0.536899722290039,1.2078747375488281,10.375871444702147,-9.20544611232946,-1.4018016699123805,-11.094363446058106,1193.0,9803.0,-2805.0,1.608345695838184,2.18181187570453,-11.538450136811628,0.0,0.9257370353123153,0.6119319639088179,0.0644544613650772,0.25792938965357853,-0.08662673252141828,0.058970619363938076,0.09397071871999735,-0.06241149369611615,10.459729008458545,14.484135677423108,10265.967221845198,0,0
2026-03-12T20:09:50.039,319134,-0.7062894897460937,1.0229226593017577,9.077017044067382,-9.025107984318714,-1.4847794875389022,-10.772668028910044,1193.0,9803.0,-2805.0,1.5917693886770317,2.2007804342433186,-11.646176817100729,-0.1933917328189122,0.8264396474432432,-0.6843119677113627,0.061582735876334754,0.2622008793360908,-0.09206780441555393,0.05952686027597872,0.0964961347858449,-0.06326883956853141,9.161738592021088,14.131791136169905,10265.967221845198,0,0
2026-03-12T20:09:50.044,319144,-0.16220716247558592,1.1067197174072265,10.759542260742187,-9.171392028500046,-1.6733142017065217,-10.652318001231386,1186.0,9779.0,-2806.0,1.5656459529702225,2.164174187612447,-11.752699997113043,0.40553257735463843,0.7453550087541223,0.977545778860037,0.06465349072513292,0.2656096129822776,-0.08105796142754926,0.06011322178804682,0.09905307868475201,-0.0640153397636241,10.817526951995701,14.155786483181538,10242.513021714934,0,0
2026-03-12T20:09:50.053,319154,-0.411802685546875,1.0720037933349609,9.923965881347655,-9.032802617439556,-1.710180772887073,-10.507449634303606,1186.0,9779.0,-2806.0,1.5456673902117868,2.150302925885735,-11.857774493456079,0.12780316197305472,0.7946228589388828,0.15106626743511953,0.06494254950969051,0.2694525039480914,-0.07835408927190009,0.06070188463586058,0.10164585612050868,-0.06473408177568675,9.990188806969591,13.961473389975804,10242.513021714934,0,0
2026-03-12T20:09:50.063,319164,-0.8553285430908203,1.1767501159667968,9.330802420043945,-8.905300359263904,-1.7440980183731805,-10.374170736730049,1193.0,9781.0,-2789.0,1.5425834499846207,2.1788175973715256,-11.961516200823379,-0.29632056724449435,1.008449567473332,-0.42179916766161796,0.061049653679686885,0.27534394462848233,-0.08133349973428852,0.061251068791484786,0.1042948962712267,-0.0654818693562566,9.443526965808466,13.782948554689781,10240.592316853552,0,0
2026-03-12T20:09:50.074,319174,-0.2765302917480469,0.9085995300292968,9.342773428344726,-8.97824218418133,-1.5704238354399114,-10.793017565596523,1193.0,9781.0,-2789.0,1.5143285778291227,2.155977763307397,-12.069446376479345,0.21253611096191607,0.6308863930738549,-0.43935326069578196,0.062227389567466464,0.27742801643083254,-0.08444112685612765,0.06181146934447229,0.10696210725909949,-0.06625995434419306,9.3909231410766,14.126722617507784,10240.592316853552,0,0
2026-03-12T20:09:50.083,319184,-0.63206923828125,1.2581529724121092,10.237606298828124,-9.001446224080969,-1.4740582212876454,-10.812502989617094,1180.0,9793.0,-2783.0,1.508043102361027,2.161718205097934,-12.177571406375515,0.0,1.0175949148396746,0.4770565990134621,0.061293978723954465,0.28328990609554083,-0.07847550245300314,0.06236198472258012,0.10968521131373485,-0.06697766465935437,10.33397518643122,14.145992459535874,10248.918869812562,0,0
2026-03-12T20:09:50.093,319194,-0.27174188842773433,1.0085574493408203,9.783905084228515,-8.969135404203271,-1.3756457587065851,-10.971892994350165,1180.0,9793.0,-2783.0,1.4853582444986142,2.1394807799274917,-12.287290336319016,0.25298079926225736,0.7171963653023299,0.0,0.06286642991582839,0.2861049417023357,-0.07729836991620809,0.06292765837271667,0.11243371447002744,-0.06768289771015794,9.839503568765029,14.237985357200303,10248.918869812562,0,0
2026-03-12T20:09:50.103,319204,-0.4070142822265625,0.8978256225585937,8.82921717224121,-8.910141157232863,-1.2655940980100584,-10.89901960358264,1194.0,9789.0,-2796.0,1.462408019614846,2.1343104055886783,-12.396280532354842,0.0,0.6730961488248801,-0.9483760785149862,0.06192343346709096,0.28844336464272574,-0.08548039874083758,0.0634833458146802,0.11520282996833824,-0.06846916399586875,8.884077180498725,14.13438969966555,10250.257216284868,0,0
2026-03-12T20:09:50.113,319214,-0.508169302368164,1.0767921966552734,9.592967501831055,-8.704646937824966,-1.2472733994375464,-10.822219986515542,1194.0,9789.0,-2796.0,1.4507991197707215,2.1352112858507573,-12.504502732219997,0.0,0.8461638937285927,-0.1772389257073943,0.060994581965084595,0.29245142852631145,-0.08594399617794285,0.06402919834269671,0.11800921690934775,-0.06925927535369052,9.666578658751698,13.944425935895191,10250.257216284868,0,0
2026-03-12T20:09:50.123,319224,0.1005564697265625,0.8672995513916015,10.081983190917969,-8.603397134018483,-1.1767598201654696,-10.932052143691859,1185.0,9787.0,-2786.0,1.4180448843327134,2.0830519389615434,-12.613823253656916,0.5911889751238011,0.5005120770572214,0.2833791592151691,0.06590287464057777,0.29299470105743036,-0.0818635515170043,0.06462353886201339,0.12081822475600214,-0.0700078329579917,10.119718631335578,13.961123521851352,10244.578566246637,0,0
2026-03-12T20:09:50.134,319234,-0.43993455505371093,1.0438719238281249,9.631274728393555,-8.61756438768725,-1.1704239126010125,-10.955048947806265,1185.0,9787.0,-2786.0,1.4046778271988465,2.0792792224573233,-12.723373743134978,0.0,0.807316458925907,-0.14307480795029015,0.0649143315209691,0.29655184766198905,-0.08204488510255958,0.06520740949504586,0.12365995948938942,-0.07075745352720829,9.697662806051738,13.98733017984329,10244.578566246637,0,0
2026-03-12T20:09:50.143,319244,-0.031124621582031248,1.0516530792236327,10.82119295349121,-8.630598261062513,-1.1645948776417119,-10.97620600759152,1190.0,9775.0,-2781.0,1.381858783088798,2.039079144146928,-12.833135803210894,0.5214101764686768,0.6918573440462092,1.0309984866949442,0.06907650678637103,0.2989183647859144,-0.07065887673207599,0.06583227638834666,0.1265224939941113,-0.07139257825223452,10.872219638960434,14.011445531920423,10232.335315068598,0,0
2026-03-12T20:09:50.153,319254,-0.4908113403320312,1.0582371337890624,9.779116680908203,-8.452345522128732,-1.120207775235253,-11.171280258691516,1190.0,9775.0,-2781.0,1.370517862123082,2.0403079131629016,-12.944848605797809,0.0,0.8348038685936319,0.0,0.06804035918457546,0.30265740741977293,-0.06959899358109485,0.06644616730021222,0.12941951900024073,-0.07201647961985742,9.848445799309944,14.053274099062394,10232.335315068598,0,0
2026-03-12T20:09:50.201,319294,-0.6105214233398437,1.0408791717529295,9.282319836425781,-8.702987148651117,-1.3574204215091157,-11.06294369165473,1178.0,9785.0,-2810.0,1.1030349854159416,2.0123163571468194,-13.387366353463998,0.0,0.904228236527051,-0.49031052815790943,0.06701975379680683,0.33374413882764215,-0.08787324348680006,0.0690578304946324,0.14262651526879308,-0.0754558779499701,9.360428804507276,14.141191556408522,10248.414950615534,0,0
2026-03-12T20:09:50.203,319304,-0.0987608184814453,1.0492588775634766,10.634445223999023,-8.840894518222441,-1.3463877633981425,-11.109615513395523,1194.0,9796.0,-2800.0,1.0839303166625176,1.9768123832832214,-13.498462508597953,0.4592446239835789,0.7617448127376947,0.842808311541388,0.07053801703609298,0.3362411631506938,-0.0782534829658154,0.06969344745432833,0.14584293797339973,-0.07616217436684862,10.686539342258959,14.261757701883816,10258.03353474729,0,0
2026-03-12T20:09:50.214,319314,-0.412401235961914,1.0366893188476562,9.746196408081055,-9.03606198115489,-1.3947743033019009,-11.0940170040312,1194.0,9796.0,-2800.0,1.0697407826742817,1.969562616823984,-13.609402678638265,0.12664023299570618,0.8485803068387345,0.0,0.07072735307555929,0.33955606172579494,-0.07707968072132816,0.07033032026409883,0.14908926009206702,-0.07685603820288785,9.80984933360996,14.376126904356317,10258.03353474729,0,0
2026-03-12T20:09:50.223,319324,-0.7984662536621093,1.2054805358886718,9.549871871948241,-9.02049409583323,-1.4490460175743343,-11.367471253464801,1185.0,9789.0,-2797.0,1.0727587537740637,1.9968751212718887,-13.723077391172913,-0.20771835622888762,1.1073639065782634,-0.21387236710528335,0.06762041697057135,0.3453702552797039,-0.07803012832649528,0.07093551790937073,0.1523904196822192,-0.07755870314666664,9.6587154659029,14.583842113529576,10249.485596848263,0,0
2026-03-12T20:09:50.235,319334,-0.4147954376220703,1.0319009155273438,9.673173257446289,-9.006171641337303,-1.4989759947049728,-11.619049162943714,1185.0,9789.0,-2797.0,1.0592929171305354,1.988780488487591,-13.83926788280235,0.12803811570683024,0.8468527459243145,-0.10749527957415239,0.06786728615572506,0.34853120099786283,-0.07791850490540324,0.07154257658015706,0.1557198559605056,-0.07825955030752495,9.736896611503703,14.777021354685559,10249.485596848263,0,0
2026-03-12T20:09:50.244,319344,-0.062249243164062495,0.9822212310791015,10.167575900268554,-8.74909254417666,-1.6229603541529651,-11.430988644542364,1183.0,9788.0,-2784.0,1.03999253936371,1.9481999295505859,-13.953577769247774,0.46792135774897875,0.70550070285696,0.3733083282059493,0.07145830223721662,0.3502524149060359,-0.07307264029899359,0.07218490244292669,0.1590631577294564,-0.07891128643380436,10.215098296285698,14.48613551121818,10244.759099168707,0,0
2026-03-12T20:09:50.259,319354,-0.5644330413818359,1.0779892974853515,9.469067565917967,-8.610140750398624,-1.6004405989914596,-11.492119309076536,1183.0,9788.0,-2784.0,1.037004393626411,1.954053800957059,-14.06849896233854,0.0,0.9377414296148255,-0.30589441887671853,0.07038642770365837,0.3542353817641514,-0.07498961072044437,0.07281587795324332,0.1624429060355508,-0.0795815213584678,9.546930718907314,14.44869336883529,10244.759099168707,0,0
2026-03-12T20:09:50.267,319364,-0.4477157104492187,0.9050082275390624,8.799289651489257,-8.39937827085454,-1.4870394974136063,-11.377627813130902,1191.0,9786.0,-2786.0,1.0267989257743153,1.9535580060660385,-14.182275240469849,0.0,0.7604191548662307,-0.9824160097024226,0.06933063128810349,0.35641197971312155,-0.08354156425520656,0.07343567508185822,0.16584101880684934,-0.08033652006401884,8.857030406411756,14.220100437686838,10244.319059849708,0,0
2026-03-12T20:09:50.274,319374,-0.3190273712158203,1.025316860961914,9.81263550415039,-8.21035483845447,-1.6071007278644203,-11.24302734417799,1191.0,9786.0,-2786.0,1.0200023151962854,1.9362056312655542,-14.294705513911628,0.22283575446773168,0.8208702414963402,0.0,0.0704856040002891,0.3591513718961637,-0.08228844079137847,0.07406639059073926,0.16926309999328518,-0.08107824506746068,9.871214143471432,14.014220034834942,10244.319059849708,0,0
2026-03-12T20:09:50.285,319384,-0.010175357055664061,0.8589198455810546,9.743203656005859,-8.143770353817136,-1.6297521818303886,-11.250902229814482,1181.0,9783.0,-2803.0,1.00005510979412,1.892003576468364,-14.407214536209773,0.47351032655630676,0.5894597392303422,0.0,0.07409239665686437,0.3595702797491401,-0.0810541141795078,0.0747325072427506,0.1726859439879858,-0.0818068974230465,9.780995057836913,13.98427290690282,10244.933333116423,0,0
2026-03-12T20:09:50.293,319394,-0.2932897033691406,1.0193313568115234,9.95389340209961,-8.14592726209713,-1.8310793243571282,-11.04351297825859,1181.0,9783.0,-2803.0,0.992522034111258,1.870771585687696,-14.517649665992359,0.24357344536424153,0.8116138580202601,0.16766722212736873,0.07538020914384919,0.36217112205440255,-0.0781867803288606,0.07541082302485491,0.1761313475533213,-0.08250617646110878,10.010247206010634,13.84442708646448,10244.933333116423,0,0
2026-03-12T20:09:50.307,319404,-0.022146365356445312,1.0139444030761717,10.593145245361328,-8.186936007958629,-1.7675198076768508,-11.135641696095464,1198.0,9780.0,-2800.0,0.9790057602705534,1.827088530186164,-14.629006082953314,0.5161962258650171,0.7259661184672896,0.797585689317243,0.07933403883146187,0.3638893214904893,-0.06915775958415285,0.07612795924975636,0.17959047052745797,-0.08311455630289336,10.641583524238735,13.933863909654042,10243.222344555448,0,0
2026-03-12T20:09:50.313,319414,-0.5482721801757812,1.1103110198974608,9.766547122192382,-8.224664054151207,-1.7090450523309952,-10.971619628700509,1198.0,9780.0,-2800.0,0.9805952015455786,1.8307365566114453,-14.738722279240319,0.0,0.9718707338552854,0.0,0.07814402824898994,0.3680039083966065,-0.06812039319039055,0.07683249013271402,0.1830872391018126,-0.08371196447456246,9.844736443118462,13.818189862331112,10243.222344555448,0,0
2026-03-12T20:09:50.323,319424,0.03651157531738281,0.9421183532714843,10.426149679565428,-8.327666539575208,-1.7040287652176864,-10.820719326697152,1195.0,9795.0,-2794.0,0.9613080655072842,1.7834933682768417,-14.846929472507291,0.5459150151990302,0.6488425416358914,0.6276442923682737,0.08234913072496554,0.36887494880577093,-0.0609162910127072,0.07757832545852371,0.18658921260128042,-0.08423680625730484,10.468692240552562,13.760149373251988,10255.558785361234,0,0
2026-03-12T20:09:50.333,319434,-0.4495113616943359,1.0558429321289062,9.74859060974121,-8.437062972506752,-1.5969747566831984,-10.964817878122355,1195.0,9795.0,-2794.0,0.9565051603080978,1.7803817596037719,-14.956577651288514,0.0,0.900365528904924,0.0,0.08111389376409106,0.37221042503339785,-0.06000254664751659,0.07831107493176846,0.19012100553476277,-0.08475199489205623,9.81589953279644,13.927009408911859,10255.558785361234,0,0
2026-03-12T20:09:50.346,319444,-0.766743081665039,1.244386312866211,9.951499200439452,-8.284049154218406,-1.4643387273680548,-10.90226659421403,1179.0,9787.0,-2789.0,0.9674731165541579,1.8048308946736138,-15.065600317230654,-0.1570501352430949,1.1567603488989553,0.1836437562171973,0.07835024152548521,0.37802135809455156,-0.05729361744906445,0.07901548276967629,0.19370731789659257,-0.08523960613548033,10.058266678969941,13.77059095279835,10244.702582310529,0,0
2026-03-12T20:09:50.353,319454,-0.5536591339111328,1.0330980163574217,9.452906704711914,-8.157910587734593,-1.308167238934708,-11.04471941301837,1179.0,9787.0,-2789.0,0.9661612139419807,1.8148560281365682,-15.176047511360839,0.0,0.9094553542295205,-0.32488271215910913,0.07717498790260294,0.38130917296229405,-0.05963430790209571,0.07970744541605362,0.19732288921658928,-0.08575011326528678,9.525296589395646,13.793064691894948,10244.702582310529,0,0
2026-03-12T20:09:50.396,319464,0.004189852905273437,0.8858546142578124,9.959280355834961,-8.329667984618265,-1.3059528842101753,-11.131873567293974,1184.0,9790.0,-2808.0,0.9458657919309617,1.7744094100768657,-15.287366247033779,0.4920923063638484,0.6132843472879745,0.16098505702222354,0.08086447230174779,0.3816303861886462,-0.057154090471895375,0.08043557404893203,0.20093805388539726,-0.08623533251583572,9.99860096006383,13.964508254427352,10253.33214130899,0,0
2026-03-12T20:09:50.399,319474,-0.6446387969970703,1.2048819854736328,9.996390481567381,-8.27305064340978,-1.2990376290831174,-11.060835877032407,1184.0,9790.0,-2808.0,0.953280308642195,1.7899471258266795,-15.397974605804103,0.0,1.0891510181291675,0.22365143571452606,0.07965150521722157,0.3866340679243888,-0.054093812473028864,0.08115085701200316,0.2045995901700765,-0.08668949436992544,10.08935688919188,13.873462293488389,10253.33214130899,0,0
2026-03-12T20:09:50.399,319484,-0.6111199737548828,0.9157821350097656,8.518569506835936,-8.362426104132119,-1.5756024236345167,-11.302798275162498,1190.0,9783.0,-2792.0,0.9486507888526925,1.8087771286725798,-15.511002588555728,-0.12190553255176964,0.8377317466571772,-1.2590482576575166,0.07725596314332832,0.3890862146100962,-0.06568403062385997,0.081841493226793,0.20828196186386128,-0.08725898834148788,8.589420875933387,14.148001349782577,10242.970906919534,0,0
2026-03-12T20:09:50.400,319494,-0.14425065002441406,1.0821791503906248,10.603919152832031,-8.483675918240573,-1.6885786199876578,-11.013208559490963,1190.0,9783.0,-2792.0,0.9382637076871752,1.7766432163437946,-15.621134674150637,0.42285222751396023,0.8250035861112202,0.8129350408554448,0.08026221813719091,0.39137620671414025,-0.056691360012075934,0.08256147129275675,0.21198352820707167,-0.08773807603966703,10.659972859410601,14.004100028793692,10242.970906919534,0,0
2026-03-12T20:09:50.403,319504,-0.7637503295898437,1.197699380493164,9.662399349975585,-8.59522574722035,-1.7925167206325476,-10.74678602107315,1179.0,9799.0,-2800.0,0.9455173242211632,1.7996164841783373,-15.728602534361368,-0.1607490529850327,1.1237437163760424,-0.10659230057054181,0.07747490669323047,0.3965744392197321,-0.05689092377251463,0.08325288413932935,0.21573332332666972,-0.08821867829211479,9.76625616960721,13.877479296405388,10259.163806080884,0,0
2026-03-12T20:09:50.413,319514,-0.7613561279296874,1.0977414611816405,9.10993731689453,-8.624680858174429,-1.7808227000551144,-10.83826265158242,1179.0,9799.0,-2800.0,0.9494460956547874,1.8262290723872574,-15.836985160877193,-0.19392824335027534,1.0389987993896288,-0.6601462571385337,0.0744025898958318,0.40085996080542396,-0.06254000054874148,0.08391291312824939,0.21952218101178925,-0.08875523421930459,9.20736973227864,13.965113200367492,10259.163806080884,0,0
2026-03-12T20:09:50.423,319524,-0.008978256225585938,1.0462661254882812,10.809820495605468,-8.74446248708145,-1.7846983474653395,-10.41022602969973,1176.0,9796.0,-2806.0,0.9319967177726249,1.7819668550513448,-15.94108742117419,0.5540812422955335,0.7468407741797645,1.0138026428703508,0.07874425128400532,0.4022034430190133,-0.0516159445082374,0.08461565528544834,0.2233206712265374,-0.08918212227072259,10.860339431235156,13.712168988488218,10257.593674931757,0,0
2026-03-12T20:09:50.433,319534,-0.5847837554931641,1.0504559783935545,9.373898049926757,-8.810759146651518,-1.676068821131527,-10.431066483909119,1176.0,9796.0,-2806.0,0.9271406821026699,1.7919417869558292,-16.045398086013282,0.0,0.9440307701515864,-0.4032873552339673,0.07756308751474524,0.40546909445972124,-0.05481408578966842,0.0853058948744352,0.22714798680896348,-0.08964053286549065,9.450682221599248,13.756664981935293,10257.593674931757,0,0
2026-03-12T20:09:50.443,319544,-0.1227028350830078,0.9127893829345702,9.871891995239258,-8.725410610041349,-1.6785686812946634,-10.416093360318339,1191.0,9799.0,-2793.0,0.9065294642162804,1.7591652235521167,-16.149559019616465,0.38409084783197,0.6763454688310921,0.0,0.08018293605316897,0.40604906091081167,-0.05399187450282339,0.08602161651073192,0.23097726894065354,-0.09009027115890836,9.914761318811685,13.691069498856297,10258.64177169668,0,0
2026-03-12T20:09:50.453,319554,-0.6386532928466796,1.1037269653320312,9.558850128173827,-8.544450931969749,-1.832088064839871,-10.353537598809945,1191.0,9799.0,-2793.0,0.9075672995002456,1.771690486827299,-16.253094395604563,0.0,1.0099353550051018,-0.2163488219964016,0.07898019201237143,0.40990618824394975,-0.0553130322819456,0.08672460701242479,0.23484125449226995,-0.09055275808024608,9.643531874544395,13.548429031298744,10258.64177169668,0,0
2026-03-12T20:09:50.477,319564,-0.22385785522460935,0.8056488586425781,9.066841687011719,-8.61211436960729,-1.8806429708721935,-10.349644834807588,1180.0,9789.0,-2779.0,0.8852910611397554,1.7477225194293495,-16.356590843952638,0.23837506703911357,0.623571832899867,-0.7258385771843407,0.08014348354252113,0.4098997779743542,-0.06163284678298217,0.08743851580600215,0.23870131201974149,-0.09107791746152782,9.105317160874264,13.594869624448288,10244.011030841386,0,0
2026-03-12T20:09:50.477,319574,-0.37229835815429685,1.1791443176269532,10.631452471923827,-8.684120829794805,-1.978972021007296,-10.350941540705907,1180.0,9789.0,-2779.0,0.881406035531228,1.7319145688795226,-16.4601002593597,0.23948692189595172,0.9880999456801934,0.8480707172989366,0.08130027747005843,0.41348406576968877,-0.052354857515842915,0.08816326706212203,0.24259331652476093,-0.09150986457064957,10.703119594401045,13.655485184551917,10244.011030841386,0,0
2026-03-12T20:09:50.483,319584,-0.8678981018066406,1.0821791503906248,8.904035974121093,-8.750366773167318,-2.030410356887688,-10.527744266229922,1185.0,9787.0,-2784.0,0.8859382856935845,1.7688376748907602,-16.565377702021998,-0.2983308937641462,1.0740098923673,-0.8644066077619303,0.0771422140044307,0.41786080222296135,-0.060083939739560284,0.08884575451296417,0.24652515262244354,-0.09201859326407713,9.011449131915594,13.839251577214876,10244.03484960882,0,0
2026-03-12T20:09:50.493,319594,-0.3716998077392578,0.9074024291992187,9.092579354858398,-8.874727675216372,-2.0777336258976487,-10.690402773712016,1185.0,9787.0,-2784.0,0.870718390138425,1.7567798311979994,-16.672281729759117,0.13215790916941908,0.7632961011062509,-0.694216044734965,0.07728683619968303,0.41911135678551353,-0.06602070868410628,0.08952900425208604,0.2504655499241084,-0.09258612155056727,9.145301484368199,14.048575721176391,10244.03484960882,0,0
2026-03-12T20:09:50.503,319604,-0.3190273712158203,1.1647791076660157,10.592546694946288,-8.935481168516134,-2.1602954236307146,-10.561999820107738,1183.0,9790.0,-2803.0,0.8637704531251237,1.7348710516383625,-16.777901727960195,0.292296407052585,0.9615193793160166,0.8070476408545542,0.07900665326615575,0.4222956523199936,-0.05708097879142733,0.09022875171396286,0.254433817940861,-0.09306377440714306,10.66116946295563,14.00234052686272,10251.848516243303,0,0
2026-03-12T20:09:50.514,319614,-0.36631285400390623,1.0295067138671874,9.847351428222655,-9.220642675034844,-2.1630815458378185,-10.702405688157656,1183.0,9790.0,-2803.0,0.8495164884736843,1.7193241311538014,-16.884925784841773,0.18934257291305184,0.8657201361257528,0.0,0.07968657781035697,0.4244885608760324,-0.05622476410955592,0.09093459187457437,0.2584200248460717,-0.09353239602619037,9.907794877359184,14.291279180973522,10251.848516243303,0,0
2026-03-12T20:09:50.523,319624,-0.2902969512939453,1.071405242919922,10.155006341552733,-9.20982052932474,-2.1802789246098175,-10.553530306275775,1184.0,9801.0,-2788.0,0.8363977720228066,1.69648469462003,-16.99046108790453,0.2801517680824589,0.8795815172126882,0.36705073537064337,0.08125077405881384,0.4267851104074369,-0.051765942904511746,0.09165535251554734,0.2624251880741959,-0.09395600539978026,10.215494863757852,14.175733219024348,10258.381987428622,0,0
2026-03-12T20:09:50.533,319634,-0.32920272827148434,1.0606313354492187,10.095749850463866,-9.112059277222663,-2.196100513080056,-10.387296662261518,1184.0,9801.0,-2788.0,0.824058049674572,1.6772672402760034,-17.094334054527145,0.23737342601142358,0.8846304610837261,0.3086137688359738,0.08237014069414415,0.429096943793,-0.04794960813790972,0.09238657486856629,0.2664494413546138,-0.09434106597967819,10.156647001308027,13.991011889245158,10258.381987428622,0,0
2026-03-12T20:09:50.544,319644,-0.0047884033203125,0.978031378173828,10.403404763793946,-9.192850632605825,-1.9911441793507247,-10.185581221963524,1187.0,9783.0,-2780.0,0.801707074665316,1.6328893001875209,-17.19618986674678,0.5250560556183433,0.7088275369583134,0.6053276529791702,0.08630639073157267,0.42964244087514436,-0.041267886633996255,0.09315638913710614,0.27047511989760187,-0.09465899110117212,10.44927743840834,13.864314722537841,10239.358280673649,0,0
2026-03-12T20:09:50.553,319654,-0.40462008056640625,1.0313023651123046,9.682151513671874,-9.447666484436384,-2.026974596222179,-10.073173748596687,1187.0,9783.0,-2780.0,0.7878216942714027,1.6241238197384003,-17.296921604232747,0.1432187618197905,0.8960171589290191,-0.10366069006309075,0.08642249967452402,0.43202357327746804,-0.041669926131607755,0.09392659351971752,0.2745205602747462,-0.09498061467212571,9.745325028524311,13.958361558015683,10239.358280673649,0,0
2026-03-12T20:09:50.563,319664,-0.354341845703125,1.1575965026855468,10.51533369140625,-9.652828775437571,-2.0696946773048923,-10.277075946269928,1186.0,9785.0,-2791.0,0.7751569523584102,1.6081517822906446,-17.399692363695447,0.2475872762158033,0.9863275364184507,0.7291788226331892,0.08756489685013183,0.4352585459120278,-0.03386246583669673,0.09470744024573062,0.2785942725881326,-0.09522392009116218,10.584792414037675,14.250579968218126,10244.14476664597,0,0
2026-03-12T20:09:50.574,319674,-0.8152256652832031,1.1474211456298828,9.33379517211914,-9.841578083158664,-2.1089971519009887,-10.46466596812931,1186.0,9785.0,-2791.0,0.7717147970117865,1.6375735498198143,-17.50433902337674,-0.21510215870215402,1.139046822161164,-0.4387684954069879,0.08413266713416363,0.4399492789216348,-0.03767639852890511,0.09545321815015519,0.2827107716119716,-0.09550508339237478,9.439327332275834,14.519427054059646,10244.14476664597,0,0
2026-03-12T20:09:50.583,319684,-0.5135562561035156,0.9277531433105468,8.92498523864746,-10.103032324310849,-2.3110090870659827,-10.41773659311799,1188.0,9788.0,-2798.0,0.7496430242946258,1.6393810659665418,-17.60851638930792,0.0,0.8508642673907618,-0.8592561147573434,0.08287067712715118,0.4417310527716093,-0.045574925281331356,0.09618564299650528,0.286840954057548,-0.0958648718125429,8.98775986735186,14.694939975044507,10249.15079409021,0,0
2026-03-12T20:09:50.593,319694,-0.18734627990722655,0.9253589416503906,9.686939916992188,-10.270399494463542,-2.326128360100704,-10.63309815347343,1188.0,9788.0,-2798.0,0.7190855092125045,1.608422200508034,-17.714847370842655,0.32545760367711934,0.7397614977122611,-0.10742203950668561,0.08483337436646354,0.4423917377325009,-0.04594940849125224,0.09693694276342975,0.2909736065634381,-0.09622804153155796,9.732840939566618,14.965117950251573,10249.15079409021,0,0
2026-03-12T20:09:50.603,319704,-0.4010287780761719,1.188122573852539,10.50874963684082,-10.424377291004019,-2.2473551644633796,-10.758060057293116,1178.0,9801.0,-2802.0,0.7023764207168502,1.5947335046349624,-17.822427971415586,0.2213413479661852,1.0414459108599003,0.7229595218948663,0.08574108602843351,0.4460141038884834,-0.03813901607321902,0.09769655927009037,0.2951383138547206,-0.09651282226059786,10.583301860059805,15.147742516189206,10261.505201479946,0,0
2026-03-12T20:09:50.613,319714,-0.6332663391113281,1.034893667602539,9.316437210083008,-10.439207595528575,-2.204152117159968,-10.834000618563325,1178.0,9801.0,-2802.0,0.6840932145418888,1.6070748970824495,-17.930767977601217,0.0,0.9930727730264713,-0.4644299645381267,0.08445496973800701,0.4491056591444669,-0.04214156598282128,0.09844256785850297,0.29932974107571914,-0.09683730368250565,9.395106888637008,15.205621038982681,10261.505201479946,0,0
2026-03-12T20:09:50.624,319724,-0.2753331909179687,1.1623849060058593,10.658985791015624,-10.550412451300923,-2.281478484372536,-10.820939105663625,1183.0,9795.0,-2794.0,0.6632647375129355,1.5825607052466837,-18.038977368657854,0.3402545989226241,0.9818152231987548,0.8686106902225799,0.08653965299132474,0.4520399542058076,-0.03295362719438655,0.09920865642402779,0.3035462904771594,-0.09706967311449506,10.725713269000076,15.284275255820953,10254.167445482837,0,0
2026-03-12T20:09:50.633,319734,-0.43933600463867184,1.0307038146972656,9.612719665527344,-10.228330674709044,-2.411155327573953,-10.745507879649558,1183.0,9795.0,-2794.0,0.6443672852081408,1.5741010602915517,-18.146432447454348,0.1212050775634354,0.9310933634434689,-0.1745100340140464,0.0864354282104547,0.45443062452263866,-0.034178246621509104,0.0999729376954262,0.30778250612566344,-0.09731404412512945,9.677796538810862,15.029915435440513,10254.167445482837,0,0
2026-03-12T20:09:50.644,319744,-0.5506663818359374,1.2294225524902342,10.378265646362305,-10.117381293903053,-2.4475311940509634,-10.846842859033691,1179.0,9806.0,-2793.0,0.6363832687589658,1.5716242351728138,-18.254900876044687,0.0,1.1411635747311042,0.5958242995997072,0.08513889678729789,0.4588546263659004,-0.02779670357112935,0.10072350233663589,0.3120586813369331,-0.0974944191496799,10.465329001188634,15.033489721306964,10263.943004518293,0,0
2026-03-12T20:09:50.653,319754,-0.297479556274414,1.026513961791992,9.922768780517577,-9.888478595268857,-2.71026528389274,-10.632753966896363,1179.0,9806.0,-2793.0,0.6180298909974572,1.5469748664424359,-18.36122841571365,0.2619039477295141,0.8818150182442154,0.13102446979080895,0.08644156722062413,0.4606576849001174,-0.02608916199012294,0.1014863300908333,0.31634859292774836,-0.09765755545881155,9.980158579490077,14.771019049433079,10263.943004518293,0,0
2026-03-12T20:09:50.663,319764,-0.527322915649414,0.8864531646728515,8.683769421386717,-9.677888112525398,-2.9519806465471747,-10.435792186130021,1170.0,9782.0,-2796.0,0.6008620734386101,1.5465497886516946,-18.46558633757495,0.0,0.8470435378497942,-1.102996495380804,0.08514494371231476,0.4620911984744361,-0.03656234003977202,0.1022354417484285,0.3206485354075802,-0.09792515568035007,8.744811034798781,14.53552429767299,10240.802702913477,0,0
2026-03-12T20:09:50.680,319774,-0.4991910461425781,1.0594342346191405,9.606734161376952,-9.56219364888922,-3.0475295118965713,-10.557026372215228,1170.0,9782.0,-2796.0,0.5920590877359487,1.5376834352793984,-18.571156601297105,0.0,0.9868505503179359,-0.17954910616200692,0.08386776955663004,0.4648803084179512,-0.0377824636348712,0.1029710453245508,0.324972041153268,-0.09820467733638208,9.677857916160937,14.566186506027778,10240.802702913477,0,0
2026-03-12T20:09:50.683,319784,-0.4100070343017578,0.8774749084472656,8.907627276611327,-9.441120596002474,-3.1354344680180164,-10.512464262438009,1185.0,9781.0,-2793.0,0.5745725158304782,1.523074907262609,-18.676281243921483,0.0,0.80196530676461,-0.8829234864106041,0.08260975301328059,0.46580646206331333,-0.04591252302149258,0.10369334571182892,0.3293004756681272,-0.0985651387640304,8.960127883136579,14.47334143453176,10240.75363437672,0,0
2026-03-12T20:09:50.694,319794,-0.39444472351074217,1.0019733947753906,9.502586389160156,-9.461440704419838,-3.182160686186331,-10.695857365345407,1185.0,9781.0,-2793.0,0.563045993068553,1.5043422184753066,-18.783239817574938,0.1556479923337044,0.9067161752648658,-0.2875993704891666,0.08290373944256837,0.46775051945872254,-0.04805668897548848,0.10441786072314835,0.3336440028818517,-0.0989466599481315,9.563403442665955,14.63032370167441,10240.75363437672,0,0
2026-03-12T20:09:50.703,319804,-1.6047136627197265,0.4782417816162109,9.76175871887207,-9.797208374895519,-3.2983195386084976,-10.659700971239726,1183.0,9792.0,-2824.0,0.5001691306427527,1.5891523338481266,-18.889836827287336,-1.1342314283722021,0.8034890469356483,0.0,0.07048800378146365,0.4686486287791578,-0.04733583864085615,0.10501761802020201,0.3379921586804736,-0.09932059831620552,9.904330084689104,14.849021129897372,10259.518945837568,0,0
2026-03-12T20:09:50.715,319814,-0.34177228698730466,0.8547299926757812,9.999981784057617,-9.65245609514778,-2.6003076340564033,-4.80692489354055,1183.0,9792.0,-2824.0,0.47087055857207116,1.5689572207490359,-18.937906076222742,0.18671742847374193,0.7526629052942495,0.20562459126618293,0.07126985039520804,0.4690326289646188,-0.04460039883727141,0.10562458620762995,0.34233980248514967,-0.09966683570227365,10.042261067011564,11.092251141793868,10259.518945837568,0,0
2026-03-12T20:09:50.723,319824,1.256357321166992,1.6645687042236328,10.228029492187499,-9.065625461194495,-1.2264293647953062,4.777629097942689,1229.0,9778.0,-2786.0,0.5131651784983412,1.4296508160521664,-18.890129785243314,1.9393363541808815,0.9988233570999643,0.4013437494716303,0.0893032657279616,0.47183554959758417,-0.03997815692241678,0.10641110124604466,0.34671109982314435,-0.09996655065422633,10.438477378554207,10.320631462609194,10241.167950971218,0,0
2026-03-12T20:09:50.733,319834,-0.4417302062988281,1.0229226593017577,9.79946739501953,-9.10622908283552,-1.196607698538511,4.995418770107274,1229.0,9778.0,-2786.0,0.5051603713865335,1.434925119547291,-18.840175597542242,0.11693708654213483,0.949599138068411,0.0,0.0891155470444822,0.47411156786359426,-0.03937848456858053,0.107194954459773,0.35110076328627854,-0.10025997516441222,9.862609064954396,10.45511773161934,10241.167950971218,0,0
2026-03-12T20:09:50.743,319844,-0.584185205078125,0.9145850341796874,8.779537487792968,-9.143584414745265,-1.1691717655822595,4.595785268498692,1224.0,9794.0,-2790.0,0.49672643544422745,1.4586806958039575,-18.794217744857256,0.0,0.9098145469343287,-1.0074900394476511,0.08777881383881496,0.4759615676329435,-0.048711584188611184,0.107964669855563,0.35550451858364535,-0.10064634391529204,8.846356122050462,10.300162173536727,10256.934824790495,0,0
2026-03-12T20:09:50.760,319854,-0.11133037719726561,0.8678981018066406,9.943119494628906,-8.704780588394913,-1.1049063170186058,4.228122447018797,1224.0,9794.0,-2790.0,0.47836084875364104,1.4355031874132902,-18.75193652038707,0.38295349577265214,0.6988403285634671,0.1430352044536889,0.09023422356459336,0.4757057213547995,-0.04657201366191318,0.10875814507911771,0.35990131422139615,-0.10101095198785925,9.981546315700582,9.740176717517436,10256.934824790495,0,0
2026-03-12T20:09:50.763,319864,-0.7230489013671875,1.0702081420898437,9.39843861694336,-7.969373751079418,-0.7628552750717515,4.289872651257293,1222.0,9788.0,-2803.0,0.4901321570542754,1.47202340496032,-18.709037793874497,-0.13824342760663635,1.0918064566988772,-0.3839305924483707,0.08751901244919909,0.47932442913296147,-0.04965514979260093,0.10952370186840608,0.364329863954213,-0.10140599598229948,9.486769398357689,9.082723904154728,10254.513006476709,0,0
2026-03-12T20:09:50.791,319874,0.040701428222656245,1.4000094207763671,9.929951385498047,-7.2001165339198945,-0.614021975017231,2.2198535708640277,1222.0,9788.0,-2803.0,0.532236331308681,1.440406748734987,-18.686839258165858,0.6942793992377486,1.1456590279239895,0.13171299449797935,0.09304487934495292,0.48341930412101836,-0.047612949549906816,0.11034369651119376,0.36879489293842777,-0.10178024335232075,10.028240997446986,7.55952716536613,10254.513006476709,0,0
2026-03-12T20:09:50.798,319884,0.8894459167480468,1.2880804931640624,9.211690887451171,-6.180204772181914,-0.6770953389670721,-1.4504176416343615,1220.0,9778.0,-2796.0,0.5827795190591836,1.330196028112119,-18.701343434582203,1.4280289550105922,0.7774926021615465,-0.6054678499240698,0.10571529136163296,0.4838263166904943,-0.0528626136284103,0.11128944857538528,0.3732595229492274,-0.10220656061911625,9.3437419913887,6.384128794073254,10242.816995338733,0,0
2026-03-12T20:09:50.798,319894,-0.14006079711914063,0.7020996368408202,9.808445651245117,-5.046764000163459,-0.5936594191667794,-2.6026769132304413,1220.0,9778.0,-2796.0,0.5857419012185388,1.3166358163845793,-18.727370203714507,0.2741916336086284,0.5424787186631226,0.0,0.10683034958225346,0.48191233731896865,-0.05206967442398414,0.1122453943191366,0.3777005676760946,-0.10262453010599273,9.834539492033723,5.709306918880264,10242.816995338733,0,0
2026-03-12T20:09:50.804,319904,-0.9433154541015625,0.987009634399414,10.328585961914062,-3.608876538686968,0.17090650509827,2.556756752023114,1232.0,9773.0,-2798.0,0.6232883021391482,1.3764923512113116,-18.701802636194277,-0.3775747977177202,1.0511624321990325,0.551738622283592,0.10150878258100011,0.48503760221634457,-0.045854003878130996,0.11314722166280165,0.38216839275455977,-0.10297998707462927,10.418431745564796,4.426082239857944,10240.027197229507,0,0
2026-03-12T20:09:50.813,319914,-0.7577648254394531,1.3754688537597655,9.33978067626953,-1.8616298302261574,1.030404716397725,8.630264992349067,1232.0,9773.0,-2798.0,0.7212678028924856,1.4348315126477005,-18.615499986270788,0.0,1.359012238043332,-0.43425402042236527,0.09998615084228511,0.4911483087278262,-0.04944359592111933,0.11403293608805327,0.38669279596599615,-0.10337094861080663,9.470883020033254,8.88869356781571,10240.027197229507,0,0
2026-03-12T20:09:50.823,319924,-0.6655880615234374,1.6244658264160154,10.44470474243164,0.6873005561919341,1.8748016073785896,12.525209646619675,1248.0,9747.0,-2791.0,0.849824542300753,1.4858214009544857,-18.49024788980459,0.0,1.5184581705517692,0.67473834533026,0.09848635857965084,0.4987378970768438,-0.042055769280799474,0.11490278187417594,0.3912884947618278,-0.10368771479731101,10.591211160457995,12.683380456855565,10215.2432178583,0,0
2026-03-12T20:09:50.835,319934,-0.6278793853759765,1.3527239379882812,9.093776455688475,3.0323165116965782,2.651646747080985,16.108558728548637,1248.0,9747.0,-2791.0,0.9938584105909061,1.548255754648604,-18.3291623025191,0.0,1.2540950730319773,-0.677141697006812,0.09700906320095608,0.5036096650900561,-0.04809477845710458,0.11575699963367932,0.3959282668213156,-0.10406449391930017,9.21525174919387,16.60457281020844,10215.2432178583,0,0
2026-03-12T20:09:50.848,319944,-0.1897404815673828,1.216254443359375,10.604517703247069,7.228755581004752,3.1370759829242623,17.283288664411085,1251.0,9733.0,-2765.0,1.1482955502440424,1.5712077576548047,-18.15632941587499,0.40934462971792196,0.9218357303211466,0.8213191333877017,0.09958597185566326,0.5051356020573685,-0.03928336331637915,0.11663610649288371,0.40057864321904735,-0.1043528702249115,10.675723490228535,18.994952488224556,10195.171160897693,0,0
2026-03-12T20:09:50.853,319954,-0.8672995513916015,1.4993687896728514,9.54508346862793,13.279723427207296,3.3153781969732483,15.110381668819176,1251.0,9733.0,-2765.0,1.3957849032920764,1.6572353471954304,-18.005225599186797,-0.16957294100910777,1.386745599774609,-0.206800242761787,0.09642188880888859,0.5112180121842879,-0.04073109525783706,0.11748272505559162,0.40528513251754933,-0.10465542099631239,9.700975914946047,20.387898888052945,10195.171160897693,0,0
2026-03-12T20:09:50.871,319964,-0.22206220397949217,1.4053963745117186,10.117896215820313,19.700272382299,3.011123550971486,10.877160891411204,1258.0,9713.0,-2749.0,1.6875143376810458,1.6807165285329546,-17.896453990272686,0.4123299314299082,1.0299588993145041,0.35038909214726743,0.09903701030133986,0.5136948371597715,-0.03666879627131892,0.11835462206344641,0.4100116588082579,-0.10491708685006655,10.217449506899356,22.704189614113808,10172.607040478857,0,0
2026-03-12T20:09:50.873,319974,-0.5165490081787109,1.754351266479492,10.059238275146484,25.109616445373618,2.838526349820597,5.743573385951969,1258.0,9713.0,-2749.0,2.0579263046899032,1.7269046801071364,-17.839018256413166,0.22512558220624218,1.389850704587055,0.32007105922819434,0.09976894213155126,0.5196794440425574,-0.03296606439385143,0.11923295917327716,0.41479324479543483,-0.10514150074651106,10.224130570382043,25.9140638478842,10172.607040478857,0,0
2026-03-12T20:09:50.887,319984,-0.21487959899902342,0.987009634399414,9.273341580200194,29.754505666329095,2.4114442418349493,1.6889655638563008,1248.0,9694.0,-2718.0,2.41127048506481,1.7445531371314118,-17.8221286007746,0.24766687879297683,0.5464055916758238,-0.497765675331042,0.1007119267556888,0.517266347459926,-0.037374565329954416,0.12011983836239322,0.41954594236176407,-0.1054097311534108,9.328195180394387,29.89980393673145,10144.883636592389,0,0
2026-03-12T20:09:50.897,319994,-0.1388636962890625,0.6739677673339843,10.071209283447265,34.85707204229106,2.1892604098052266,-1.4510297300326898,1248.0,9694.0,-2718.0,2.7758716743210763,1.7517719359199873,-17.836638898074927,0.21835159954919106,0.12454108415719345,0.2849100481728222,0.10135201110991299,0.5107340819269754,-0.034007582875502804,0.12101222511501886,0.4242286298978528,-0.10564405717518367,10.094690292849336,34.9558839078752,10144.883636592389,0,0
2026-03-12T20:09:50.903,320004,-0.527322915649414,1.2485761657714842,8.984840280151367,40.902652620371185,1.9897293331183694,-3.5837278394349523,1232.0,9667.0,-2678.0,3.255796139087235,1.7949985275764104,-17.872476176469277,0.0,0.7755870940129151,-0.7533194607016167,0.0998317309432643,0.5107126035740981,-0.04091766582028118,0.12188853188202704,0.42890642017766023,-0.10594718059955309,9.086493644906826,41.10753117652495,10106.45323543329,0,0
2026-03-12T20:09:50.914,320014,-0.35613749694824215,1.3311761230468748,9.954491952514648,46.4645867522049,1.4207948889079245,-5.7897125391094235,1232.0,9667.0,-2678.0,3.7788867343234096,1.8125320120014339,-17.93037330186037,0.16983037563546055,0.6515813535596288,0.22018266057564695,0.10000708417912461,0.5094699908530489,-0.038135101626306844,0.12276571412109447,0.43356711896610456,-0.10622220308420034,10.049416591025649,46.84546137519667,10106.45323543329,0,0
2026-03-12T20:09:50.923,320024,-0.7074865905761718,1.3108254089355469,10.366294638061524,52.37181005593094,0.8973752002343153,-7.819218462809937,1224.0,9641.0,-2652.0,4.346168407074236,1.8522865731240787,-18.00856548648847,-0.19046593540353365,0.6102556439081689,0.6465875763773923,0.09663088845271295,0.5078389590827486,-0.031194187474594928,0.12360829098261597,0.4382068630483751,-0.10642761081398734,10.47276778371693,52.959908875994614,10073.73619865043,0,0
2026-03-12T20:09:50.933,320034,-0.7392097625732421,1.2312182037353514,9.576806640625,57.89913842218817,0.34265835494727753,-10.227827327248557,1224.0,9641.0,-2652.0,4.96117094556436,1.893545612294485,-18.110843759760957,-0.27537691463290487,0.5092288595758709,-0.14008865205034127,0.09246896251678814,0.5052372789633297,-0.03210614788517186,0.12440844762717607,0.44281597660217037,-0.10664192362054623,9.683881183193646,58.79656534710114,10073.73619865043,0,0
2026-03-12T20:09:50.943,320044,-0.15083470458984374,1.1222820281982422,10.155006341552733,64.45745125085215,-0.10426650857045572,-10.6778938239955,1218.0,9611.0,-2643.0,5.616256172989655,1.8768026482925444,-18.217622698000913,0.21309010340026727,0.0,0.40890099380794354,0.09318086559752894,0.49765871977887977,-0.02759688087788604,0.12521491602686818,0.44734477123615923,-0.10681097453689577,10.217946068359417,65.33598786103498,10041.926807142143,0,0
2026-03-12T20:09:50.953,320054,-0.613514175415039,1.1677718597412108,9.60793126220703,71.94963563858884,-0.7398276269092092,-10.0480525619783,1218.0,9611.0,-2643.0,6.344664454396623,1.8957689028602236,-18.318103223620696,-0.2470948856905051,0.18593765035020215,-0.11351814250514458,0.08934926798951454,0.4920253248381461,-0.028301081368393422,0.12598230029805654,0.45181275946005617,-0.10698689136522913,9.698063409729482,72.65163985576314,10041.926807142143,0,0
2026-03-12T20:09:50.965,320064,-0.4447229583740234,1.1629834564208983,9.808445651245117,80.70585990945295,-1.5196658070003746,-9.688110796044427,1239.0,9561.0,-2576.0,7.145876715690203,1.8910340438666733,-18.41498433158114,-0.1333898252196492,0.0,0.0,0.08669513919125828,0.4846449449655739,-0.02787656514786752,0.12672240243827917,0.4562025497008022,-0.10715839135969109,9.887159102747507,81.29947538997804,9979.159183017375,0,0
2026-03-12T20:09:50.973,320074,-0.6488286499023437,1.7148469390869139,10.319009155273436,91.11280575084307,-2.061507176586686,-9.805744859190142,1239.0,9561.0,-2576.0,8.077680303203557,1.8956022248456939,-18.513041780173044,-0.20819783616179827,0.3310923812524982,0.6666808972905525,0.08334396341719569,0.48063653074642737,-0.020891609832337562,0.1274282862303787,0.4605479060932582,-0.10725994015055645,10.480631115922689,91.66212858031126,9979.159183017375,0,0
2026-03-12T20:09:50.984,320084,-0.3363853332519531,1.4317325927734375,8.672396963500976,101.7506105590683,-2.5990256268499947,-10.587138928991514,1215.0,9508.0,-2538.0,9.099375321892927,1.874442412271708,-18.61891316946296,0.0,0.0,-1.0106662613648059,0.08209380396593775,0.47342698278523093,-0.030533298359295837,0.12812097504576803,0.46481689374518936,-0.10745770786101527,8.796219779097026,102.33293308634309,9915.63074141025,0,0
2026-03-12T20:09:50.993,320094,-0.19572598571777342,1.7549498168945312,10.226233840942383,112.13251293385504,-3.786225527921507,-11.949923912233169,1215.0,9508.0,-2538.0,10.213457201524301,1.8252418028902122,-18.73841240858529,0.1000229340794932,-0.12488460965631099,0.569689206958671,0.08184762280713169,0.4650954646383378,-0.02446386019536349,0.1288105118225655,0.46899838054318116,-0.10759464411650593,10.377572745634623,112.83100922227726,9915.63074141025,0,0
2026-03-12T20:09:51.003,320104,-0.8577227447509765,2.067991683959961,10.04906291809082,121.68386311865883,-4.878449436907298,-13.20368609681549,1216.0,9456.0,-2479.0,11.433269351754745,1.8214940584021568,-18.870449269553447,-0.49132294796832016,0.20488464488179114,0.47501170843167273,0.07578037742753677,0.46013714642084835,-0.01941803696438106,0.12943874728124402,0.47312615225538224,-0.1076810356616636,10.295433135305124,122.49530251781984,9850.889959795511,0,0
2026-03-12T20:09:51.013,320114,-0.8547299926757812,1.9865888275146484,9.285911138916015,130.90525163014172,-5.980856408783982,-14.718122916387324,1216.0,9456.0,-2479.0,12.732320849091376,1.8124094767335617,-19.01763049871732,-0.5592185406712071,0.0,-0.2889562713786926,0.06913536914051233,0.45323508922453565,-0.021972985682995466,0.1299999708716765,0.47718084464447996,-0.10779286475297506,9.534424167710922,131.86576011199836,9850.889959795511,0,0
2026-03-12T20:09:51.024,320124,-0.3489548919677734,2.0943279022216794,10.908581314086913,140.87185588997428,-5.1023878960812645,-13.926038936734875,1224.0,9388.0,-2414.0,14.091942600869377,1.7619553854953856,-19.156890888084668,-0.2123666323223547,-0.5875516966455456,1.2890612697629091,0.06600652727502945,0.440649178674209,-0.00894613739058588,0.13052937610828236,0.4811057490947908,-0.10777444380075404,11.11328597511549,141.65044547969208,9770.36928677724,0,0
2026-03-12T20:09:51.033,320134,-0.679953271484375,1.927332336425781,9.562441430664062,152.38747327243487,-2.830782230248423,-12.153419236430231,1224.0,9388.0,-2414.0,15.552511492358343,1.7674530816096308,-19.27842508044897,-0.5917386934033424,-0.5421660992941733,0.0,0.05918780323588109,0.42869910491604823,-0.008811945329727091,0.13099013288650052,0.4849073474038073,-0.10775470069079726,9.778406439768974,152.8975504628134,9770.36928677724,0,0
2026-03-12T20:09:51.043,320144,-0.35015199279785153,1.782483135986328,9.557653027343749,166.27940223990836,-1.2677342859748912,-10.088462770686546,1239.0,9302.0,-2352.0,17.11553869832209,1.75939317167757,-19.379309708155834,-0.4184850058947306,-1.028691158723571,-0.14149357400076212,0.05417790887927977,0.4121360104288803,-0.010073477853688692,0.13140038006331803,0.488539678800588,-0.10774758003386482,9.72875037912008,166.5899872157886,9674.411041505318,0,0
2026-03-12T20:09:51.053,320154,-0.6877344268798827,2.123656872558594,9.714473236083984,183.19656225583765,-0.5370472504139734,-8.481385749031624,1239.0,9302.0,-2352.0,18.848261198681453,1.787057805913767,-19.46412356564615,-0.7336966281728614,-0.9377157386650552,0.0,0.04613832845858789,0.3967174702465963,-0.009922375685883361,0.13172990158455603,0.4920143466495509,-0.10773895698693293,9.967642018495306,183.39357335067677,9674.411041505318,0,0
2026-03-12T20:09:51.064,320164,-0.2376245147705078,2.2637176696777344,10.62965682067871,201.64327629976088,-0.2501810313564654,-6.7394602549627525,1227.0,9191.0,-2263.0,20.73205727389092,1.7765758573704982,-19.531518168195777,-0.46017576672043115,-1.582986155527474,0.9382502004934477,0.040913522229512826,0.37517429456095175,-0.0005317755757346506,0.13200689777004432,0.49527032350556527,-0.10763653046794759,10.87062496931214,201.75602541678498,9544.6937614572,0,0
2026-03-12T20:09:51.074,320174,-0.2693476867675781,2.1110873138427735,9.586383447265625,220.33620443968246,0.3308090609081491,-4.258840019931587,1227.0,9191.0,-2263.0,22.77767741804512,1.7767622285986555,-19.574106568395095,-0.5628838024849303,-1.673086302229427,-0.14683998782917485,0.03475541394159357,0.3530667800655776,-0.0019701728222160033,0.13222209745755079,0.4983021903149148,-0.10754857596397357,9.819775222531486,220.3776080726799,9544.6937614572,0,0
2026-03-12T20:09:51.087,320184,-0.8110358123779297,2.3684639923095703,8.741230261230468,236.95321052353225,1.5677589701818382,-1.8108157451663294,1247.0,9078.0,-2201.0,24.99740834684738,1.8423141864864483,-19.59221472584676,-1.012246895584012,-1.2820384710294999,-0.8619174253022699,0.02426345081096715,0.3351426994249534,-0.010430506869110122,0.13233226723369482,0.5011519636918552,-0.10754522815163202,9.09266227524578,236.96531581491186,9423.878925368259,0,0
2026-03-12T20:09:51.093,320194,-0.20051438903808594,2.497750881958008,9.051877926635742,252.24085612067404,2.7057528867136322,0.44136658761770775,1247.0,9078.0,-2201.0,27.33841216818773,1.8596804640702373,-19.58780105997058,-0.5577022209252582,-1.8588596299262212,-0.6170325652939006,0.01840613217268885,0.31180579157880584,-0.01635182003421839,0.13238381222686627,0.5037657515860355,-0.10760103760562223,9.392308528112174,252.25575394753477,9423.878925368259,0,0
2026-03-12T20:09:51.106,320204,-0.7601590270996094,2.972999911499023,8.24203921508789,262.4323193383372,2.4990487533375174,1.6841060410960953,1235.0,8974.0,-2105.0,29.810818832263827,1.9307775443894675,-19.57095999955962,-0.9503291929224241,-1.2730537890848739,-1.15656392421573,0.008769297639812641,0.2945891248826378,-0.027498697387230056,0.13233903369806113,0.506204931192027,-0.10776814855491504,8.794758702960578,262.44962124401746,9299.942257885261,0,0
2026-03-12T20:09:51.113,320214,-0.19033903198242186,2.7563246612548826,8.468889822387695,263.13041671809947,-0.6813629518075315,0.022548289515725406,1235.0,8974.0,-2105.0,32.225914752730915,1.9134692422175574,-19.570734516664462,-0.639310773423323,-2.091045094859572,-1.170999384364352,0.0023405470569957195,0.26957349382503143,-0.03862056086241047,0.13223007672946244,0.508391765464147,-0.1080461998093756,8.90817879305752,263.13129986023733,9299.942257885261,0,0
2026-03-12T20:09:51.124,320224,0.29568390502929687,2.375048046875,8.473678225708007,252.83120289284665,-5.665878305906829,-3.491450695596751,1213.0,8962.0,-2110.0,34.46777448804892,1.8000924671798963,-19.60564902362043,-0.42720877119042777,-2.8599817927437035,-1.4898295931083965,-0.0019025675450849299,0.23735907075913046,-0.052716073941592015,0.13207884000295758,0.5102545908155666,-0.10846478718824273,8.805197605363329,252.91878056241873,9286.598569982445,0,0
2026-03-12T20:09:51.134,320234,0.010773907470703125,2.5061305877685545,9.181164816284179,235.26324324678478,-10.232120236556232,-8.026768786290472,1213.0,8962.0,-2110.0,36.497117224190454,1.6713317603921933,-19.685916711483333,-0.9071267197735107,-3.3355212073728024,-0.9395189322168527,-0.010809227221677736,0.2009438008051214,-0.06117959431480413,0.13183877698301005,0.5117517647947941,-0.10896750654825939,9.517068560423732,235.6224075182149,9286.598569982445,0,0
2026-03-12T20:09:51.144,320244,0.24959552307128904,2.342127774047851,9.600748657226562,214.82754964070054,-12.589160373729294,-12.384627283387232,1198.0,8957.0,-2099.0,38.27135694897133,1.500556535210919,-19.809762984317207,-0.9359427941716747,-4.029040414850439,-0.8281713072658494,-0.01986612533594357,0.15824359570676777,-0.06841938777665069,0.13150847561392096,0.5128208665511099,-0.10954204872559987,9.885455741357664,215.55217938237496,9277.330111621553,0,0
2026-03-12T20:09:51.170,320254,-0.4255693450927734,2.6850971618652344,9.314043008422852,195.48037005968843,-12.796661690172416,-15.832881490960155,1198.0,8957.0,-2099.0,39.863990262839096,1.3897088769732393,-19.96809179922681,-1.5325860705636618,-3.602181779936199,-0.9287155803559823,-0.03466410625095649,0.12038845123879469,-0.07654094542650734,0.13103067271685997,0.5135107263124343,-0.1101971507216851,9.702693090008054,196.53755306656345,9277.330111621553,0,0
2026-03-12T20:09:51.170,320264,0.0909796630859375,2.6761189056396484,10.187926614379883,177.4273063085719,-11.763172657397647,-17.917470483878464,1191.0,8994.0,-2133.0,41.2344550512254,1.2455731022801675,-20.147266504065595,-1.342061926593384,-4.516934121546776,-0.38540197635673934,-0.04736345463413698,0.07409082337297702,-0.07918904071222362,0.1304264811323481,0.5137373829116179,-0.11087805208767854,10.53393271272449,178.71725435285816,9319.882295394078,0,0
2026-03-12T20:09:51.173,320274,-0.36930560607910157,2.6324247253417967,9.552266073608397,160.8184876575447,-10.81236274724486,-18.845048454924285,1191.0,8994.0,-2133.0,42.43110839547359,1.1524059656117285,-20.335716988614838,-1.7442929109414447,-4.1547594508484,-0.9744787011229441,-0.06383428798739815,0.03205508043152563,-0.08759982030760126,0.1296583501142216,0.5135438757822172,-0.1116422962404638,9.915232408082137,162.27947809845307,9319.882295394078,0,0
2026-03-12T20:09:51.198,320284,-0.814028564453125,2.540247961425781,8.609549169921875,145.34813059616064,-9.288837142099418,-19.698420188286438,1202.0,8984.0,-2096.0,43.47290131931582,1.121349910387853,-20.5327011904977,-2.0466651836114162,-3.590239497575256,-1.796582516213153,-0.08303642572615963,-0.0037896048260635277,-0.1039821607876868,0.12869915787110306,0.5129924737542225,-0.11256943573049233,9.013314546745603,146.970709058524,9303.240080746062,0,0
2026-03-12T20:09:51.209,320294,-0.7811082916259765,2.6581623931884764,9.889249957275391,132.1544264899312,-6.672559439024149,-19.922546573223524,1202.0,8984.0,-2096.0,44.348205477305264,1.1042344560706758,-20.731926656229938,-2.3436343547551863,-4.471817422758662,-0.8633033591723631,-0.10487567773460582,-0.04778016236784539,-0.11092596646371926,0.12752275069266325,0.5120021574584135,-0.11356501669973439,10.27001568593153,133.81413734098578,9303.240080746062,0,0
2026-03-12T20:09:51.213,320304,-0.5710170959472656,2.3409306732177733,8.745420114135742,121.23085285854161,-4.475340049755877,-19.792157481511982,1198.0,8990.0,-2097.0,45.10188644688563,1.0977241894467042,-20.929848231045057,-2.0158396088371493,-4.092513506916417,-1.965979506951852,-0.12315856271563266,-0.08737471797545442,-0.1286269751102392,0.1261648739004414,0.5106172818683803,-0.11473643516438595,9.071294831136615,122.91736187839082,9308.743900226282,0,0
2026-03-12T20:09:51.213,320314,-0.38247371520996093,2.5635914276123044,9.405022671508789,111.72750658107779,-4.507556748214431,-20.667321468356878,1198.0,8990.0,-2097.0,45.75458053497537,1.0705620448300828,-21.136521445728626,-1.994762335371804,-4.534421980884995,-1.4023249749431308,-0.14095959327831045,-0.1307281537175398,-0.14051047148677545,0.12463052268969065,0.5088006903308737,-0.11602539833937445,9.755651623656316,113.71232110611216,9308.743900226282,0,0
2026-03-12T20:09:51.234,320324,-0.7769184387207031,2.8562825805664063,9.489418280029296,102.6185743472745,-5.532318062015813,-22.05783818991272,1189.0,8987.0,-2092.0,46.330329020510206,1.0672506056409723,-21.357099827627753,-2.3554106126707115,-4.331394948662298,-1.1751918162255794,-0.16204599391394228,-0.17143147165610034,-0.14997845380429578,0.12288705268780067,0.5065792892386983,-0.11740765769454,9.94037281664151,105.10816604726192,9303.566735397775,0,0
2026-03-12T20:09:51.239,320334,-0.3800795135498047,2.6216508178710938,9.09198080444336,92.89201522876084,-5.972659446322841,-23.229796500573357,1189.0,8987.0,-2092.0,46.79163227474652,1.0269138662547919,-21.589397792633488,-1.9957022156953035,-4.406772487248077,-1.6654487798032402,-0.17927297082983187,-0.2122667085806524,-0.16413344747829328,0.12097322865652285,0.5039521655307388,-0.1189299431771536,9.470038457991127,95.93863976302842,9303.566735397775,0,0
2026-03-12T20:09:51.244,320344,-0.5452794281005859,2.7898434844970703,8.84777223510742,82.93870279094779,-4.0997247393975025,-23.464095707356755,1189.0,8999.0,-2095.0,47.16921740857323,1.0215843637882795,-21.824038749707054,-2.07981241578287,-4.113649628542881,-1.737207832428398,-0.19707002856284567,-0.24960215679309003,-0.1787829429155386,0.1188835258425235,0.5009546878188451,-0.12059705483370267,9.293203422234887,86.2913666072568,9315.833135044873,0,0
2026-03-12T20:09:51.254,320354,-0.4159925384521484,2.7994202911376953,9.72345149230957,71.52799681157441,-1.0741857846359473,-22.806480245890167,1189.0,8999.0,-2095.0,47.40714971197779,1.0309935146731457,-22.052103552165956,-2.217607567550334,-4.78077021492219,-1.1590049153405442,-0.21595741267477378,-0.2929487110581772,-0.18751739718790988,0.11660722776405999,0.4975271755075551,-0.12234975657677619,10.126959695870154,75.08357839223362,9315.833135044873,0,0
2026-03-12T20:09:51.264,320364,-0.9331400970458984,2.5576059234619137,8.846575134277343,61.03014731055091,1.7093100537446837,-22.201474021340907,1185.0,9022.0,-2140.0,47.539063615928875,1.1191563103413062,-22.274118292379367,-2.540623251264474,-4.146240099648783,-1.9308696172026698,-0.23774319050960724,-0.32939494537384506,-0.2037237019595375,0.11411556606310495,0.49373899282776285,-0.12426260660277519,9.256024530372446,64.96542211305682,9347.743524509004,0,0
2026-03-12T20:09:51.273,320374,-0.44532150878906246,2.5516204193115235,9.406219772338867,50.1233452818044,3.5432969567621813,-21.332673172804366,1185.0,9022.0,-2140.0,47.54735282581057,1.1765125038083502,-22.48744502410741,-2.2509735340990176,-4.715547677240616,-1.5675495231012793,-0.25634913196283843,-0.37090216581405744,-0.21610820923269206,0.1114405226687331,0.4895399411984526,-0.126297265006407,9.75633375894738,54.589263049252374,9347.743524509004,0,0
2026-03-12T20:09:51.283,320384,-0.757166275024414,2.527678402709961,8.17859287109375,40.854941073894196,4.401296614855353,-19.299230050687335,1197.0,9026.0,-2115.0,47.49417824803083,1.2780383233398929,-22.68043732461428,-2.2126897033542843,-3.758952863433771,-2.4021839237849685,-0.2742988885614355,-0.40236431903166925,-0.2365280977434836,0.10858883624933562,0.4850307817101278,-0.128533883437858,8.593709340364395,45.397774203067016,9347.444035670927,0,0
2026-03-12T20:09:51.296,320394,-0.632667788696289,2.6144682128906247,9.364321243286133,32.1719116416412,5.136997763715705,-16.457730671022592,1197.0,9026.0,-2115.0,47.332650623447456,1.3653144779083286,-22.845014631324506,-2.3866313689780276,-4.543474705338937,-1.5249199135334877,-0.2936927242174475,-0.4410820800937827,-0.24800063742563622,0.10554625709815398,0.48013934094828076,-0.13088287592230222,9.743009027735184,36.5003773068431,9347.444035670927,0,0
2026-03-12T20:09:51.309,320404,-0.35793314819335936,2.3965958618164063,10.071807833862303,22.77376846640747,7.0479891621306425,-12.165502461243225,1214.0,9043.0,-2160.0,47.04775256148037,1.443958783598708,-22.96666965593694,-2.3687685082453456,-5.228970206466006,-1.1834309235798042,-0.31261970316040244,-0.4859712054260661,-0.25593742246151274,0.1023176400064834,0.47480434926512605,-0.13330880789677044,10.359203681060682,26.764120227004685,9376.312974725193,0,0
2026-03-12T20:09:51.313,320414,-0.5578489868164063,2.3732523956298825,9.164405404663086,12.888452354948537,9.810979297452873,-6.577628118002306,1214.0,9043.0,-2160.0,46.68676667889205,1.56952343855278,-23.032445937116965,-2.2831592274950863,-4.5060492091309134,-1.7809068373223056,-0.33041952600382296,-0.5230662220546146,-0.26964029347221474,0.09891443130169872,0.4691041133575353,-0.1358692056206611,9.483134969327024,17.48235426192828,9376.312974725193,0,0
2026-03-12T20:09:51.347,320424,-0.699705435180664,2.569576931762695,9.054870678710937,2.325668849479488,12.909027782924934,-0.26117396612310007,1232.0,9053.0,-2166.0,46.24701498565062,1.7369065548523213,-23.035057676778194,-2.281148308848522,-4.20638674440754,-1.6711924675708918,-0.3479325439559236,-0.5566531381562096,-0.2820569348757048,0.09533967075627733,0.46307404439399724,-0.13855108519444873,9.438378902780256,13.119449140049575,9389.68524499091,0,0
2026-03-12T20:09:51.347,320434,-0.6739677673339843,2.2176292877197263,9.520542901611327,-9.435994414576427,16.081183609071424,5.979232146288696,1232.0,9053.0,-2166.0,45.657047570121875,1.928413051988292,-22.975265355315308,-2.4175338974509106,-4.686934559710089,-1.5482588952962342,-0.36652626468647626,-0.5944696464970108,-0.29307643097123715,0.09158273370130317,0.45667221858109813,-0.14134036765465693,9.798614664868666,19.580441106364205,9389.68524499091,0,0
2026-03-12T20:09:51.350,320444,-0.7463923675537109,1.9488801513671874,8.601768014526368,-24.0030660809225,19.08737184717498,13.505771623366087,1285.0,9069.0,-2201.0,44.92724914201769,2.160056201306272,-22.840207639081648,-2.250382783454784,-4.146428905406315,-2.3174208643141645,-0.3831946411332087,-0.6263949265178079,-0.3115068800201631,0.08766303650268112,0.4499578610466041,-0.1443109810184037,8.851307721826437,33.509413788665135,9420.317775956393,0,0
2026-03-12T20:09:51.354,320454,-0.6931213806152343,2.270900274658203,8.717288244628906,-37.18038177005845,21.853065026230247,20.430187942277286,1285.0,9069.0,-2201.0,44.10613365749413,2.408905801758862,-22.635905759658876,-2.0425253219346864,-3.9550659311668324,-1.9444579751870057,-0.39756559593726726,-0.6559564020420341,-0.3259871878754526,0.08360369316276514,0.4429548987291576,-0.14742328204426108,9.0348502835218,47.72137696006597,9420.317775956393,0,0
2026-03-12T20:09:51.364,320464,0.059256491088867186,2.3870190551757813,9.133280783081053,-54.73278049674646,23.577990555839143,27.5957729068951,1305.0,9129.0,-2267.0,43.125126605359654,2.5996206943900115,-22.359948030589926,-1.3095820788122166,-4.328514397675442,-1.5200857510439594,-0.4045014954745086,-0.6887529228285066,-0.33607022470510384,0.07947911952981203,0.4356313021313717,-0.15063320030702082,9.440243067003419,65.67439060916512,9496.365357335406,0,0
2026-03-12T20:09:51.374,320474,-0.06883329772949218,2.2936451904296873,7.838616235351562,-80.3248897643238,24.145409847957378,33.022257415806905,1305.0,9129.0,-2267.0,41.93169835390518,2.80570176172774,-22.02972545643186,-1.0543019647992344,-3.38333504383657,-2.447917628474145,-0.40881884739566343,-0.7117474791678692,-0.3551411599749976,0.07531554012479955,0.4280853135123533,-0.15403042729486402,8.167585369469649,90.14187826539018,9496.365357335406,0,0
2026-03-12T20:09:51.383,320484,-0.22266075439453123,1.9099743743896482,6.707954501342773,-117.62572785147056,22.408899011340303,37.35608657863991,1338.0,9260.0,-2358.0,40.382510298432855,3.0117717884506283,-21.65616459064546,-0.9636320274912444,-2.7280467793206666,-3.4565785358439705,-0.41217834015551724,-0.7279425277566597,-0.38386134115343573,0.07112256296652113,0.4203850823465519,-0.15771117166569198,6.978125358178759,125.4330411492901,9648.730901004546,0,0
2026-03-12T20:09:51.394,320494,0.23523031311035156,2.117072817993164,7.481880187988281,-169.72298669652363,17.796674895311128,40.4115020913731,1338.0,9260.0,-2358.0,38.341992092299506,3.1159005147319614,-21.252049569731728,-0.497786274560271,-3.0048604340822296,-2.648515860376069,-0.4108988598576031,-0.7466212651160198,-0.40419130226083844,0.06694656079357715,0.4125059508256963,-0.16159133160361208,7.779194159056776,175.37304055013357,9648.730901004546,0,0
2026-03-12T20:09:51.404,320504,-0.1771709228515625,2.2206220397949217,6.995857250976562,-240.64758678519198,9.894892123198435,41.685898997233984,1318.0,9488.0,-2585.0,35.660640339099636,3.1873679814980753,-20.835190579759388,-0.6115890649377125,-2.2006206471020775,-2.8289857748624048,-0.41075952924937553,-0.7570980595132349,-0.4259939426093205,0.06277612653558232,0.4045300352603334,-0.1656854197586756,7.341973199049992,244.4317575334143,9921.768642737039,0,0
2026-03-12T20:09:51.414,320514,-1.3754688537597655,-0.201112939453125,14.054562295532225,-333.53236520823026,6.03988611919622,40.20956366282112,1318.0,9488.0,-2585.0,31.828139716764433,3.282884755258879,-20.433094943131177,-3.29898482641681,-6.8629656866938165,2.087864845062393,-0.4370931368508405,-0.8133418006344705,-0.3990385647463161,0.058346789971906836,0.3960002206367347,-0.1695061296007326,14.123139958984854,336.001678382242,9921.768642737039,0,0
2026-03-12T20:09:51.423,320524,-0.6769605194091797,-1.2228384979248046,8.02536396484375,-359.80587355254744,1.717670839416622,35.51474978930763,1327.0,9712.0,-2732.0,27.676675490983374,3.3220636514284605,-20.077947445238102,-1.9303029902091349,-4.416281930190021,-3.239271483108718,-0.4495502242516379,-0.8446420506373251,-0.42495981038374225,0.053797436441661066,0.3871662463302311,-0.17358197197686548,8.146169425261073,361.5584523816605,10175.838884337743,0,0
2026-03-12T20:09:51.434,320534,-0.36152445068359373,2.345719076538086,9.65282254333496,-383.9775012293193,-2.2587672179806084,31.19552102567522,1327.0,9712.0,-2732.0,23.684226187912504,3.2812479969435717,-19.76599223498135,-0.3975866187908727,-1.6947464012197138,0.0,-0.4467231990829534,-0.8486656719297794,-0.4185854132279861,0.0492808742463807,0.37830091002132243,-0.1775900582830362,9.94032599906021,385.2492492033181,10175.838884337743,0,0
2026-03-12T20:09:51.444,320544,-1.0127473022460938,1.8549077362060546,9.247005361938475,-352.4690572285347,-2.253675596639721,24.631586660694374,1303.0,9724.0,-2762.0,20.027283628688558,3.3017667413125933,-19.519676368374405,-0.9226782610484545,-1.183800497909461,-0.44071549352918815,-0.44911073196803636,-0.8475961217552409,-0.41664767964082877,0.04474497715977364,0.36945512385496626,-0.18157477854436502,9.485433462513072,353.3358606463407,10192.282815934808,0,0
2026-03-12T20:09:51.453,320554,-0.7050923889160156,1.2108674896240235,9.458293658447266,-324.42275216244707,-2.5953327684207386,15.78788899613151,1303.0,9724.0,-2762.0,16.640741617859916,3.290110980949951,-19.36179747841309,-0.6680130233044502,-1.4064915217218374,-0.3727635005884409,-0.4489539992680646,-0.8487361214178725,-0.41406968492701246,0.0402151817299259,0.3606067948781468,-0.1855297599182415,9.561520500619105,324.81704898571684,10192.282815934808,0,0
2026-03-12T20:09:51.464,320564,-0.3327940307617187,0.7302315063476562,10.09993970336914,-298.7664929650611,-3.0364866347519572,7.085833486197091,1286.0,9726.0,-2765.0,13.51031037577557,3.2390845595155566,-19.29093914355112,-0.3257289375315945,-1.6336410856880792,0.18724260467972442,-0.44542811931372983,-0.8520964442906319,-0.40601429999701194,0.03572513963625181,0.3517337446048052,-0.18940031301529342,10.131770424336791,298.86593416767835,10192.84538291443,0,0
2026-03-12T20:09:51.474,320574,-0.795473501586914,1.2952630981445312,9.612719665527344,-275.24566133273424,-3.354543313727898,-0.2468868512352591,1286.0,9726.0,-2765.0,10.711597184534245,3.227781940582547,-19.293408012063473,-0.40468409645540937,-0.4028966849934279,0.0,-0.44273283587410966,-0.8432835299734577,-0.39992408549705677,0.03126651346623321,0.34295760839576556,-0.1932061543163937,9.73215618211905,275.2662129583927,10192.84538291443,0,0
2026-03-12T20:09:51.483,320584,0.014963760375976562,1.408987677001953,10.676942303466797,-253.1967401334326,-3.3495944827760074,-6.412501756794972,1269.0,9750.0,-2772.0,8.169699720524926,3.1451775570980818,-19.357533029631423,0.5309134310866364,-0.31642920768076577,0.9451205809250407,-0.4308623460397946,-0.8337511047195114,-0.3846157864924893,0.026930932115829427,0.3342854772512219,-0.1968552598691373,10.769520283635053,253.30007733156523,10215.51981056275,0,0
2026-03-12T20:09:51.496,320594,-0.009576806640625,1.291671795654297,9.572616787719726,-232.9800253130019,-3.3791878997636826,-11.089745518690398,1269.0,9750.0,-2772.0,5.867572012287769,3.0655669834107986,-19.468430484818327,0.5798606023752955,0.11989499183973673,-0.16544225510660127,-0.4186877839158011,-0.8200638724790973,-0.38047615590790196,0.022721310222394743,0.32575875368790447,-0.2004593614067881,9.659373680909532,233.26828666018497,10215.51981056275,0,0
2026-03-12T20:09:51.504,320604,-0.16160861206054686,1.20667763671875,8.89924757080078,-214.6099159708886,-3.2551943311972225,-13.890370755243945,1256.0,9752.0,-2772.0,3.781478146792164,3.002983824545226,-19.607334192370768,0.49721516816864436,0.47799862226505274,-0.851032211008075,-0.40750989775060287,-0.8030546279626001,-0.38315168084771295,0.018627565033643826,0.3174104792008702,-0.20408658733704996,8.982137584609404,215.0835993814588,10215.82223807756,0,0
2026-03-12T20:09:51.514,320614,-0.42975919799804685,1.0911574066162109,9.638457333374022,-198.04112269321752,-3.189900735920957,-14.340116704580527,1256.0,9752.0,-2772.0,1.8709341560044093,2.964570966404247,-19.750735359416574,0.3289071727967203,0.7063011420449665,-0.12841999705123364,-0.3981575136322961,-0.7840517422940182,-0.37866934260595186,0.014631343907423544,0.30926039181615206,-0.20766540748234638,9.70954052576891,198.58524791986954,10215.82223807756,0,0
2026-03-12T20:09:51.524,320624,-0.11731588134765625,0.8385691314697266,9.397241516113281,-182.79783287776013,-3.1298306282667925,-14.753882977970182,1263.0,9744.0,-2782.0,0.11880129764790792,2.899959827649253,-19.898274189196275,0.6157304953969149,0.6482174087174546,-0.41379103882597335,-0.3861202055481521,-0.765906024683741,-0.37706514419929843,0.010759371710090082,0.3012997302377453,-0.21122462286541502,9.435311829316152,183.41897559275267,10211.769141534684,0,0
2026-03-12T20:09:51.534,320634,-0.42437224426269526,1.111508120727539,10.064026678466796,-168.8130306377832,-2.9770051536152056,-14.471133315342323,1263.0,9744.0,-2782.0,-1.4512528601169168,2.8631369111832052,-20.0429855223497,0.540786109720949,1.2568145558642831,0.23467175785318517,-0.37500165928417845,-0.7420378109382217,-0.3690976502214551,0.007002345762131049,0.2935854727762347,-0.21470068376826196,10.134109486730209,169.4583003934248,10211.769141534684,0,0
2026-03-12T20:09:51.543,320644,0.020350714111328123,0.8325836273193359,9.750386260986328,-155.88847599163861,-2.9339666925455012,-14.132954845236888,1262.0,9751.0,-2770.0,-2.891776009280021,2.789503001744724,-20.184315070802068,0.918607697908678,1.0723228328579195,-0.1231627394130097,-0.36032834857051527,-0.7203448638704979,-0.3647743384513514,0.0033956632141494704,0.28609564211339217,-0.2181300787256227,9.785889938399881,156.55531137654245,10215.064610662039,0,0
2026-03-12T20:09:51.553,320654,-0.4465186096191406,1.026513961791992,9.530718258666992,-144.00764181474656,-2.7772981376296664,-13.992562360056962,1262.0,9751.0,-2770.0,-4.174663764131215,2.7603086284905483,-20.324240694402636,0.6042317398208903,1.6078307003009416,-0.3653850025358718,-0.34897174070472176,-0.6937025585144762,-0.36290176564955945,-9.396013870484961e-05,0.27887945791171914,-0.22153733728573619,9.596233652250161,144.71249457938904,10215.064610662039,0,0
2026-03-12T20:09:51.564,320664,-0.2723404388427734,1.092953057861328,10.427945330810546,-133.02849388420097,-2.608772823204659,-13.736572005398747,1251.0,9740.0,-2791.0,-5.3326245848927005,2.7155256886049903,-20.461606414456625,0.9207066476051085,1.852383074821144,0.4759438233921749,-0.3346682041152406,-0.6650510468497708,-0.3527701925044031,-0.0034372015376773982,0.27195671849577824,-0.22483997417156945,10.488601409324838,133.76127724869215,10208.931481795731,0,0
2026-03-12T20:09:51.575,320674,-0.4608838195800781,1.0043675964355467,9.4618849609375,-123.11792169053807,-2.2439734363726767,-13.593743805942456,1251.0,9740.0,-2791.0,-6.374458925477963,2.6942860270883084,-20.59754385251605,0.69864164461099,1.926010375870102,-0.5033807325654784,-0.3227665608540937,-0.6361040789447037,-0.35243693983260704,-0.006658202279072117,0.26533008202862485,-0.2281359792263256,9.52619730941658,123.88643157683657,10208.931481795731,0,0
2026-03-12T20:09:51.583,320684,-0.13108254089355467,1.0480617767333984,10.639233627319335,-114.10263429675844,-2.083967756584814,-13.433073569759742,1255.0,9745.0,-2792.0,-7.31836289062548,2.643881960109679,-20.73187458821365,1.1747652901941719,2.1159269034685853,0.6073640267426228,-0.3063536243328697,-0.6057206377613675,-0.3411678500717031,-0.009712016783878414,0.2590136027753601,-0.2313161100693156,10.691534422011614,114.9095363344612,10214.465918490305,0,0
2026-03-12T20:09:51.594,320694,-0.469263525390625,0.9205705383300781,9.113528619384764,-105.75003330911534,-2.2587137506921753,-13.148671586617986,1255.0,9745.0,-2792.0,-8.163705813099613,2.625966034863724,-20.86336130407983,0.7280060472627552,2.0826632209065368,-0.9040333412821475,-0.2945874604023386,-0.5761205954690176,-0.3449550607322567,-0.012645233496513898,0.2529991444238493,-0.23453089501596153,9.171917044361475,106.58826810291696,10214.465918490305,0,0
2026-03-12T20:09:51.604,320704,0.011971008300781249,0.9911994873046874,10.618882913208008,-98.06564040048369,-2.4194800652709474,-13.062631518225132,1258.0,9741.0,-2779.0,-8.927206076266181,2.5617799889427206,-20.993987619262082,1.3836842431568948,2.2828315258648946,0.5189198241235342,-0.27653935870120805,-0.5449928960072131,-0.33466937455365603,-0.015395216456442453,0.2473016662483134,-0.23763971117273658,10.665050119577208,98.96138667745188,10207.4720670693,0,0
