recv_time,timestamp,ax,ay,az,gx,gy,gz,mx,my,mz,roll,pitch,yaw
2026-03-11T20:33:53.925,227453,-144.0,937.0,16760.0,-141.0,-66.0,-161.0,1940.0,8940.0,-3342.0,3.1998995554213834,0.49149918701896333,-78.15576626762464
2026-03-11T20:33:53.928,227463,-95.0,940.0,16861.0,-165.0,-62.0,-146.0,1940.0,8940.0,-3342.0,1.8781064495192314,-0.038337063897952425,-79.26870855988392
2026-03-11T20:33:53.928,227473,-408.0,1270.0,18134.0,-166.0,-21.0,-178.0,1931.0,8932.0,-3352.0,0.9757096240479122,0.058478741432152814,-80.41804466484038
2026-03-11T20:33:53.928,227483,-973.0,1145.0,15961.0,-166.0,-21.0,-178.0,1931.0,8932.0,-3352.0,0.27321147042841043,0.5746982689338113,-81.36415710510485
2026-03-11T20:33:53.928,227493,-1241.0,1356.0,16523.0,-140.0,-62.0,-146.0,1927.0,8938.0,-3340.0,0.03688977116058345,0.819945753010546,-81.88544070799207
2026-03-11T20:33:53.928,227503,-1164.0,1048.0,15307.0,-133.0,9.0,-182.0,1927.0,8938.0,-3340.0,-0.2511548343585941,1.5956551659113773,-82.64236885602027
2026-03-11T20:33:53.928,227513,-576.0,890.0,15844.0,-174.0,-41.0,-137.0,1921.0,8943.0,-3347.0,-0.9499080774175288,1.3642772930908538,-82.86907888194523
2026-03-11T20:33:53.928,227523,-1420.0,1451.0,16450.0,-145.0,-47.0,-225.0,1921.0,8943.0,-3347.0,-0.9117615306662292,1.6983575966427669,-83.77950574660876
2026-03-11T20:33:53.928,227533,-736.0,1132.0,16365.0,-148.0,-48.0,-139.0,1932.0,8922.0,-3346.0,-1.1220169412552319,1.4884773810193186,-83.78208419346626
2026-03-11T20:33:53.928,227543,-1561.0,1419.0,15960.0,-171.0,-31.0,-199.0,1932.0,8922.0,-3346.0,-1.249454526881347,2.055652030106601,-84.3038536081835
2026-03-11T20:33:53.928,227553,-578.0,1018.0,16194.0,-146.0,-34.0,-208.0,1930.0,8942.0,-3343.0,-1.4481557641667124,1.7805461990895957,-84.77727405550044
2026-03-11T20:33:53.928,227563,-740.0,1277.0,17105.0,-146.0,-34.0,-191.0,1930.0,8942.0,-3343.0,-1.4726078702799321,1.6465031235025012,-85.0097688360354
2026-03-11T20:33:53.928,227573,-1044.0,1237.0,16230.0,-147.0,-38.0,-191.0,1937.0,8945.0,-3347.0,-1.4823904501441656,1.747179351069491,-85.19520645481163
2026-03-11T20:33:53.928,227583,-360.0,1203.0,17748.0,-130.0,-50.0,-188.0,1937.0,8945.0,-3347.0,-1.45037085925008,1.2296169421566787,-85.2821514090214
2026-03-11T20:33:53.928,227593,-389.0,958.0,16258.0,-116.0,-20.0,-194.0,1936.0,8939.0,-3342.0,-1.4138476652043859,1.0973463451493704,-85.39023746441981
2026-03-11T20:33:53.928,227603,-248.0,1161.0,17623.0,-111.0,-30.0,-231.0,1936.0,8939.0,-3342.0,-1.2652403784009396,0.7987768793706563,-85.75344571645017
2026-03-11T20:33:53.928,227613,-1308.0,1336.0,16054.0,-181.0,-48.0,-123.0,1920.0,8938.0,-3349.0,-1.5087635636598573,1.183403713992286,-85.22370107221907
2026-03-11T20:33:53.928,227623,-1411.0,1204.0,15022.0,-170.0,-23.0,-161.0,1920.0,8938.0,-3349.0,-1.650528757584783,1.8325095795702386,-85.1492866132733
2026-03-11T20:33:53.928,227633,-371.0,881.0,16175.0,-162.0,-60.0,-127.0,1920.0,8950.0,-3366.0,-1.9928959046558359,1.2484072161479398,-84.77251904001226
2026-03-11T20:33:53.928,227643,-273.0,897.0,16626.0,-152.0,-75.0,-187.0,1920.0,8950.0,-3366.0,-2.19267525506224,0.5865957731171629,-84.89911394657229
2026-03-11T20:33:53.928,227653,-771.0,1030.0,16129.0,-152.0,-75.0,-187.0,1923.0,8924.0,-3345.0,-2.2393493830645483,0.4155206288372029,-84.97640833439331
2026-03-11T20:33:53.928,227663,-16.0,874.0,17107.0,-151.0,-74.0,-165.0,1923.0,8924.0,-3345.0,-2.4145375603129065,-0.24887983045756198,-84.81105034092433
2026-03-11T20:33:53.928,227673,-584.0,1174.0,17356.0,-152.0,-42.0,-131.0,1924.0,8935.0,-3345.0,-2.3736851813333324,-0.150546202520848,-84.41634959450191
2026-03-11T20:33:53.928,227683,-867.0,830.0,14551.0,-136.0,-3.0,-186.0,1924.0,8935.0,-3345.0,-2.334016784005639,0.536429618704367,-84.59104907155978
2026-03-11T20:33:53.928,227693,-617.0,1088.0,16453.0,-117.0,-33.0,-142.0,1928.0,8935.0,-3346.0,-2.0465467947977705,0.5937342844737837,-84.38297518099927
2026-03-11T20:33:53.928,227703,-998.0,1360.0,16992.0,-137.0,-47.0,-223.0,1928.0,8935.0,-3346.0,-1.8180243232331468,0.7691136074998056,-84.88117257437537
2026-03-11T20:33:53.928,227713,-589.0,1044.0,16296.0,-152.0,-60.0,-152.0,1936.0,8934.0,-3347.0,-1.9372928088806667,0.5484423113134056,-84.68345114482946
2026-03-11T20:33:53.928,227723,-1042.0,1385.0,17006.0,-154.0,-46.0,-177.0,1936.0,8934.0,-3347.0,-1.8506346423402578,0.7696998070978057,-84.74284890789605
2026-03-11T20:33:53.928,227733,-905.0,966.0,15032.0,-154.0,-46.0,-157.0,1931.0,8933.0,-3354.0,-1.9771202601468152,0.9354103787637341,-84.64632977059398
2026-03-11T20:33:53.928,227743,-376.0,929.0,16165.0,-149.0,-15.0,-157.0,1931.0,8933.0,-3354.0,-2.1158639150213587,0.8943828643752156,-84.56373284561741
2026-03-11T20:33:53.935,227753,-481.0,1116.0,16925.0,-113.0,-31.0,-146.0,1935.0,8945.0,-3349.0,-1.8421899623911684,0.7923770200692453,-84.4050493563167
2026-03-11T20:33:53.935,227763,-1435.0,1456.0,16198.0,-146.0,-68.0,-233.0,1935.0,8945.0,-3349.0,-1.6144762714273893,1.0983934820506023,-85.00024198877344
2026-03-11T20:33:53.935,227773,-853.0,1049.0,15805.0,-179.0,-100.0,-128.0,1923.0,8940.0,-3350.0,-1.964134635097121,0.6952152349198322,-84.61469060584538
2026-03-11T20:33:53.935,227783,-1501.0,1278.0,15252.0,-166.0,-45.0,-183.0,1923.0,8940.0,-3350.0,-1.9413565886866349,1.3163854209954842,-84.79207305389271
2026-03-11T20:33:53.936,227793,-897.0,1040.0,15768.0,-125.0,-31.0,-155.0,1941.0,8934.0,-3336.0,-1.7983741004824987,1.4548789423198625,-84.69826816788004
2026-03-11T20:33:53.936,227803,-289.0,719.0,15566.0,-137.0,-70.0,-196.0,1941.0,8934.0,-3336.0,-2.0057720648368456,0.8164040940882138,-84.90114869206602
2026-03-11T20:33:53.936,227813,-654.0,1296.0,17801.0,-195.0,-27.0,-197.0,1923.0,8935.0,-3343.0,-2.331804351287855,0.8568279015769846,-85.0915188601202
2026-03-11T20:33:53.936,227823,-894.0,1316.0,17171.0,-195.0,-27.0,-197.0,1923.0,8935.0,-3343.0,-2.5489175610869896,1.063799825828811,-85.25518434564668
2026-03-11T20:33:53.936,227833,-1279.0,1396.0,16713.0,-164.0,-29.0,-155.0,1929.0,8934.0,-3344.0,-2.39619277361729,1.4912461052718284,-85.07642354921138
2026-03-11T20:33:53.936,227843,-1393.0,1031.0,14331.0,-184.0,-58.0,-190.0,1929.0,8934.0,-3344.0,-2.565978122188582,1.8365155540182196,-85.23598543526938
2026-03-11T20:33:53.936,227853,-179.0,694.0,15703.0,-128.0,-68.0,-198.0,1935.0,8935.0,-3366.0,-2.570670132920399,1.0557034345098502,-85.36304607434643
2026-03-11T20:33:53.936,227863,-566.0,1008.0,16344.0,-168.0,-28.0,-224.0,1935.0,8935.0,-3366.0,-2.694698046462915,1.0164882246905442,-85.66760115878968
2026-03-11T20:33:53.936,227873,-795.0,941.0,15217.0,-167.0,-44.0,-186.0,1925.0,8935.0,-3347.0,-2.7840399488502756,1.0581829234065991,-85.62104818283669
2026-03-11T20:33:53.936,227883,-989.0,1433.0,17370.0,-143.0,-4.0,-236.0,1925.0,8935.0,-3347.0,-2.428004093459862,1.4640935413319776,-86.01989014529764
2026-03-11T20:33:53.936,227893,-716.0,958.0,15636.0,-91.0,-2.0,-166.0,1925.0,8931.0,-3341.0,-1.9691903241610476,1.678663391851384,-85.8013683819666
2026-03-11T20:33:53.936,227903,-279.0,912.0,16489.0,-124.0,-55.0,-184.0,1925.0,8931.0,-3341.0,-1.934196040619184,1.096509572817787,-85.72842767064577
2026-03-11T20:33:53.936,227913,-91.0,877.0,16811.0,-124.0,-55.0,-184.0,1941.0,8937.0,-3352.0,-1.9420944583669275,0.4991526320146262,-85.60819974593058
2026-03-11T20:33:53.936,227923,-1000.0,1220.0,16333.0,-166.0,-61.0,-168.0,1941.0,8937.0,-3352.0,-2.0273158923676515,0.6101008691129248,-85.3906171200069
2026-03-11T20:33:53.936,227933,-1440.0,990.0,14217.0,-136.0,-50.0,-161.0,1924.0,8930.0,-3351.0,-1.9131810662279618,1.2420260888316188,-85.22799210488628
2026-03-11T20:33:53.936,227943,-1058.0,1149.0,15692.0,-143.0,-55.0,-240.0,1924.0,8930.0,-3351.0,-1.836976994321675,1.323009190465624,-85.73712185110085
2026-03-11T20:33:53.936,227953,-1383.0,1295.0,15732.0,-127.0,-30.0,-196.0,1926.0,8936.0,-3333.0,-1.544428219222775,1.8198288063413333,-85.8323235155882
2026-03-11T20:33:53.936,227963,-670.0,831.0,15199.0,-132.0,-31.0,-248.0,1926.0,8936.0,-3333.0,-1.665640418140939,1.711925125188057,-86.31459229294882
2026-03-11T20:33:53.936,227973,-712.0,1102.0,16580.0,-197.0,-35.0,-186.0,1936.0,8937.0,-3354.0,-2.1479910153735915,1.5802505901143402,-86.17503955245249
2026-03-11T20:33:53.936,227983,-1461.0,1201.0,15108.0,-201.0,-59.0,-222.0,1936.0,8937.0,-3354.0,-2.417366747839899,1.8934558965838408,-86.36997146628401
2026-03-11T20:33:53.936,227993,-641.0,1011.0,16289.0,-201.0,-59.0,-160.0,1940.0,8928.0,-3349.0,-2.8315757255446266,1.4926048209994447,-85.98549808881207
2026-03-11T20:33:53.936,228003,-1546.0,1340.0,15469.0,-170.0,-61.0,-160.0,1940.0,8928.0,-3349.0,-2.6350845542769896,1.8433116134472183,-85.70735143007717
2026-03-11T20:33:53.936,228013,-599.0,1035.0,16283.0,-171.0,-17.0,-105.0,1932.0,8935.0,-3350.0,-2.748665317313257,1.7591574770277,-85.04848965360144
2026-03-11T20:33:53.937,228023,-756.0,782.0,14652.0,-103.0,5.0,-220.0,1932.0,8935.0,-3350.0,-2.4119190246495226,2.0372226985786983,-85.46785567898877
2026-03-11T20:33:53.937,228033,-514.0,1080.0,16691.0,-147.0,-35.0,-170.0,1943.0,8929.0,-3340.0,-2.3650966707534176,1.7018161040634006,-85.36371462974593
2026-03-11T20:33:53.937,228043,-389.0,1274.0,18021.0,-136.0,-55.0,-233.0,1943.0,8929.0,-3340.0,-2.171314434079164,1.1681554551810258,-85.74853869145372
2026-03-11T20:33:53.937,228053,-916.0,1178.0,16262.0,-124.0,-58.0,-177.0,1937.0,8947.0,-3352.0,-1.9004112542443998,1.1136286158262751,-85.6214396932158
2026-03-11T20:33:53.937,228063,-710.0,795.0,14701.0,-112.0,0.0,-223.0,1937.0,8947.0,-3352.0,-1.7972443180030817,1.443099397690672,-85.91365087137024
2026-03-11T20:33:53.937,228073,-778.0,1057.0,15964.0,-83.0,-18.0,-207.0,1921.0,8924.0,-3337.0,-1.3441736668534445,1.5672787747753438,-86.0495193216543
2026-03-11T20:33:53.937,228083,-13.0,789.0,16557.0,-83.0,-18.0,-207.0,1921.0,8924.0,-3337.0,-1.193682142463143,1.11881016360966,-86.12787165696507
2026-03-11T20:33:53.937,228093,-852.0,1240.0,16953.0,-126.0,-47.0,-144.0,1917.0,8929.0,-3345.0,-1.1262740604166317,1.092931625192508,-85.69215759882972
2026-03-11T20:33:53.937,228103,-660.0,791.0,15097.0,-139.0,6.0,-192.0,1917.0,8929.0,-3345.0,-1.4131708242638519,1.4223049165191848,-85.74704359593854
2026-03-11T20:33:53.937,228113,-455.0,1060.0,16940.0,-121.0,-65.0,-145.0,1928.0,8944.0,-3350.0,-1.3824275090803377,0.9249568233594676,-85.36945033154626
2026-03-11T20:33:53.937,228123,-1431.0,1380.0,16133.0,-133.0,12.0,-207.0,1928.0,8944.0,-3350.0,-1.1921180073565023,1.8460719860580654,-85.63391151302392
2026-03-11T20:33:53.937,228133,-595.0,942.0,15840.0,-138.0,-22.0,-152.0,1933.0,8934.0,-3352.0,-1.3770235518091196,1.7303390093974798,-85.3852902541088
2026-03-11T20:33:53.937,228143,-1259.0,1384.0,16382.0,-80.0,-50.0,-219.0,1933.0,8934.0,-3352.0,-0.7758087521657379,1.8601021031398504,-85.74153713115555
2026-03-11T20:33:53.937,228153,-882.0,1165.0,16191.0,-133.0,-33.0,-186.0,1929.0,8952.0,-3356.0,-0.861538544730268,1.8460945527844483,-85.76981011928652
2026-03-11T20:33:53.937,228163,-778.0,1418.0,17833.0,-133.0,-33.0,-173.0,1929.0,8952.0,-3356.0,-0.8439633937869365,1.710917219571431,-85.67876701853028
2026-03-11T20:33:53.937,228173,-538.0,1032.0,16476.0,-147.0,-40.0,-173.0,1942.0,8945.0,-3343.0,-1.1343450539823867,1.4220519753988918,-85.56191989392451
2026-03-11T20:33:53.937,228183,-1284.0,1428.0,16534.0,-134.0,-45.0,-241.0,1942.0,8945.0,-3343.0,-0.9922274434969781,1.6624751925208425,-86.03229332337015
2026-03-11T20:33:53.937,228193,-1211.0,1003.0,14709.0,-197.0,-41.0,-162.0,1939.0,8948.0,-3344.0,-1.5895950867596633,1.9411245956750716,-85.79193602536427
2026-03-11T20:33:53.937,228203,-920.0,816.0,14442.0,-153.0,-17.0,-214.0,1939.0,8948.0,-3344.0,-1.8489000216752962,2.1447404994856587,-86.02641642965357
2026-03-11T20:33:53.937,228213,-584.0,1039.0,16325.0,-160.0,-16.0,-183.0,1938.0,8916.0,-3352.0,-2.030787632900357,1.9967234267163567,-85.9453131645202
2026-03-11T20:33:53.937,228223,-349.0,1138.0,17656.0,-141.0,-4.0,-212.0,1938.0,8916.0,-3352.0,-2.0150617932978268,1.791389537668003,-86.09746478244277
2026-03-11T20:33:53.937,228233,-1021.0,933.0,14800.0,-153.0,-17.0,-179.0,1927.0,8940.0,-3357.0,-2.1146127312439194,2.0848292777646646,-85.99537602741127
2026-03-11T20:33:53.937,228243,54.0,957.0,17464.0,-147.0,-46.0,-217.0,1927.0,8940.0,-3357.0,-2.240373703492916,1.2644840438709921,-86.15487584726807
2026-03-11T20:33:53.937,228253,-1110.0,1159.0,15734.0,-147.0,-46.0,-217.0,1932.0,8939.0,-3348.0,-2.125714882765006,1.4484953534607319,-86.29130545743988
2026-03-11T20:33:53.937,228263,-73.0,1055.0,17716.0,-161.0,3.0,-228.0,1932.0,8939.0,-3348.0,-2.3069762311441995,1.229930756629549,-86.46928556900286
2026-03-11T20:33:53.937,228273,-742.0,1094.0,16370.0,-177.0,-41.0,-161.0,1922.0,8939.0,-3348.0,-2.4969076058028405,1.173842749080142,-86.08074620246941
2026-03-11T20:33:53.937,228283,-1467.0,1350.0,15766.0,-178.0,1.0,-206.0,1922.0,8939.0,-3348.0,-2.4426971226904595,2.006413920876916,-86.19232286901419
2026-03-11T20:33:53.937,228293,-685.0,885.0,15358.0,-140.0,-59.0,-160.0,1932.0,8939.0,-3346.0,-2.4145568293498814,1.6430509437212222,-85.8746142414255
2026-03-11T20:33:53.937,228303,-444.0,1247.0,17877.0,-136.0,-28.0,-193.0,1932.0,8939.0,-3346.0,-2.2216111915994055,1.3742967751701807,-85.86796530072088
2026-03-11T20:33:53.937,228313,-1170.0,1425.0,16968.0,-138.0,-30.0,-180.0,1920.0,8934.0,-3353.0,-1.92118351313917,1.64557690755493,-85.79752598027582
2026-03-11T20:33:53.937,228323,-1081.0,927.0,14692.0,-105.0,13.0,-192.0,1920.0,8934.0,-3353.0,-1.6548821031558942,2.2604162271188715,-85.88710130209012
2026-03-11T20:33:53.937,228333,-175.0,965.0,17093.0,-170.0,-21.0,-208.0,1932.0,8933.0,-3364.0,-2.0376551989314997,1.7574624721452738,-86.02825222963065
2026-03-11T20:33:53.937,228343,-765.0,1383.0,17578.0,-170.0,-21.0,-208.0,1932.0,8933.0,-3364.0,-2.090395368180938,1.7348279709628802,-86.13860087925532
2026-03-11T20:33:53.938,228353,-1177.0,1289.0,16097.0,-140.0,-13.0,-147.0,1928.0,8939.0,-3349.0,-1.876654928488171,2.117599029986421,-85.77687501938132
2026-03-11T20:33:53.938,228363,-1022.0,1165.0,15701.0,-165.0,5.0,-217.0,1928.0,8939.0,-3349.0,-1.972620172923547,2.4768847063461057,-86.07260688139937
2026-03-11T20:33:53.938,228373,-1122.0,1339.0,16515.0,-174.0,-45.0,-160.0,1937.0,8941.0,-3363.0,-2.0430407141436753,2.3962935401989105,-85.83590879168939
2026-03-11T20:33:53.938,228383,-921.0,1118.0,15983.0,-148.0,-53.0,-234.0,1937.0,8941.0,-3363.0,-2.018175890278312,2.1510204510864517,-86.22067249408745
2026-03-11T20:33:53.938,228393,-913.0,1175.0,16318.0,-157.0,-35.0,-142.0,1930.0,8946.0,-3343.0,-2.046830115125657,2.0796433557630505,-85.79597471859209
2026-03-11T20:33:53.938,228403,-704.0,889.0,15564.0,-129.0,-14.0,-193.0,1930.0,8946.0,-3343.0,-2.0156390859089983,2.0688471398854773,-85.86393659117742
2026-03-11T20:33:53.938,228413,-1038.0,842.0,14410.0,-136.0,12.0,-204.0,1939.0,8950.0,-3346.0,-2.0316944216689627,2.5736970974773996,-86.03340486465899
2026-03-11T20:33:53.939,228423,-593.0,1303.0,17788.0,-136.0,12.0,-200.0,1939.0,8950.0,-3346.0,-1.8754502248574392,2.535811392687221,-86.1367326338806
2026-03-11T20:33:53.939,228433,-625.0,986.0,16083.0,-130.0,-25.0,-200.0,1935.0,8930.0,-3354.0,-1.8387122307122605,2.2729051088322305,-86.20071785249382
2026-03-11T20:33:53.939,228443,-1339.0,1390.0,16347.0,-155.0,-43.0,-202.0,1935.0,8930.0,-3354.0,-1.7389257388127715,2.4075122428926083,-86.27956811943886
2026-03-11T20:33:53.940,228453,-255.0,1048.0,17150.0,-161.0,-83.0,-160.0,1929.0,8933.0,-3352.0,-1.9797656257703684,1.4320640271573417,-85.9385815901562
2026-03-11T20:33:53.940,228463,-663.0,1340.0,17775.0,-176.0,-30.0,-233.0,1929.0,8933.0,-3352.0,-2.129574590694509,1.3316671228046837,-86.23986094096803
2026-03-11T20:33:53.940,228473,-1049.0,1085.0,15350.0,-142.0,-23.0,-145.0,1922.0,8955.0,-3348.0,-2.0310251681430724,1.661282602979265,-85.81714673271308
2026-03-11T20:33:53.940,228483,-508.0,831.0,15590.0,-186.0,-62.0,-233.0,1922.0,8955.0,-3348.0,-2.502585674323826,1.2057617276827293,-86.14148357281569
2026-03-11T20:33:53.940,228493,-158.0,966.0,17060.0,-182.0,-8.0,-176.0,1916.0,8937.0,-3334.0,-2.809901085454262,1.0065648073287063,-85.92758511037881
2026-03-11T20:33:53.940,228503,-525.0,1191.0,17183.0,-158.0,-2.0,-172.0,1916.0,8937.0,-3334.0,-2.71892421084072,1.1384225270686632,-85.73571160745487
2026-03-11T20:33:53.940,228513,-160.0,1132.0,17916.0,-158.0,-2.0,-172.0,1935.0,8932.0,-3355.0,-2.716068157809021,0.9968683883474694,-85.54700339443195
2026-03-11T20:33:53.940,228523,-775.0,1293.0,17221.0,-184.0,-36.0,-170.0,1935.0,8932.0,-3355.0,-2.786080950176384,1.0234010308132544,-85.3807404368013
2026-03-11T20:33:53.940,228533,-964.0,1152.0,16023.0,-137.0,-52.0,-159.0,1923.0,8941.0,-3328.0,-2.5024050403844686,1.0895453063123488,-85.18666035619677
2026-03-11T20:33:53.940,228543,-542.0,911.0,15904.0,-169.0,9.0,-198.0,1923.0,8941.0,-3328.0,-2.69824647446067,1.3333688381086277,-85.35781494250874
2026-03-11T20:33:53.940,228553,-156.0,1002.0,17133.0,-177.0,-31.0,-181.0,1928.0,8956.0,-3359.0,-2.9051866753848814,0.9228525356559522,-85.32306121346735
2026-03-11T20:33:53.941,228563,-546.0,1055.0,16676.0,-132.0,-13.0,-203.0,1928.0,8956.0,-3359.0,-2.656155625328726,1.0085920953734597,-85.48197491099289
2026-03-11T20:33:53.941,228573,-343.0,673.0,14989.0,-150.0,-39.0,-141.0,1938.0,8938.0,-3353.0,-2.810758393235907,0.7567891333979091,-85.0745511381129
2026-03-11T20:33:53.941,228583,-676.0,935.0,15683.0,-122.0,-37.0,-173.0,1938.0,8938.0,-3353.0,-2.54223449644863,0.8021873113187272,-85.01272362938609
2026-03-11T20:33:53.941,228593,-1360.0,953.0,14106.0,-122.0,-37.0,-164.0,1928.0,8931.0,-3343.0,-2.236782786858597,1.4446660598598688,-84.95420112155196
2026-03-11T20:33:53.941,228603,-864.0,1167.0,16261.0,-147.0,-23.0,-164.0,1928.0,8931.0,-3343.0,-2.1444467808640573,1.5784656514206161,-84.91880060349934
2026-03-11T20:33:53.941,228613,30.0,1096.0,18145.0,-134.0,-9.0,-140.0,1938.0,8953.0,-3355.0,-2.096237813347825,1.1718610328050205,-84.66296690672173
2026-03-11T20:33:53.941,228623,-994.0,1431.0,17368.0,-131.0,-6.0,-188.0,1938.0,8953.0,-3355.0,-1.7829649195037778,1.542393454010536,-84.87479868440387
2026-03-11T20:33:53.941,228633,-711.0,991.0,15809.0,-155.0,-28.0,-153.0,1927.0,8937.0,-3362.0,-1.948984122878257,1.5239285933368163,-84.7698253509695
2026-03-11T20:33:53.941,228643,-298.0,1208.0,18062.0,-194.0,-55.0,-204.0,1927.0,8937.0,-3362.0,-2.3459300740887503,0.9677658916731926,-85.04605743747697
2026-03-11T20:33:53.941,228653,-966.0,1007.0,15399.0,-198.0,-46.0,-195.0,1944.0,8944.0,-3355.0,-2.7124511019297426,1.1225941462662763,-85.18054896417829
2026-03-11T20:33:53.941,228663,-576.0,917.0,15988.0,-141.0,-22.0,-224.0,1944.0,8944.0,-3355.0,-2.641434359381496,1.134059581559935,-85.52224560674689
2026-03-11T20:33:53.949,228673,-1232.0,871.0,13987.0,-128.0,-36.0,-197.0,1935.0,8943.0,-3349.0,-2.4244819173088974,1.624056064152077,-85.63035022683651
2026-03-11T20:33:53.958,228683,-1016.0,1049.0,15332.0,-128.0,-36.0,-197.0,1935.0,8943.0,-3349.0,-2.180781582295354,1.7677325194952247,-85.73160570106748
2026-03-11T20:33:53.971,228693,-460.0,1070.0,16715.0,-118.0,-46.0,-165.0,1930.0,8944.0,-3367.0,-1.9560742873728496,1.36082092491258,-85.53730358507848
2026-03-11T20:33:53.978,228703,-1077.0,1336.0,16662.0,-119.0,-53.0,-172.0,1930.0,8944.0,-3367.0,-1.5999977682424276,1.4019659926146177,-85.44685723722846
2026-03-11T20:33:53.988,228713,-1377.0,1406.0,16280.0,-173.0,-55.0,-162.0,1924.0,8932.0,-3348.0,-1.676793392577145,1.644944067962478,-85.315006190589
2026-03-11T20:33:53.998,228723,-857.0,1094.0,15838.0,-171.0,-53.0,-209.0,1924.0,8932.0,-3348.0,-1.9191559293413587,1.5099406190312967,-85.57156130125368
2026-03-11T20:33:54.008,228733,40.0,845.0,16812.0,-176.0,-37.0,-175.0,1927.0,8948.0,-3342.0,-2.3678521510251964,0.8847226892828935,-85.45171632683737
2026-03-11T20:33:54.018,228743,-286.0,1094.0,17349.0,-156.0,-32.0,-223.0,1927.0,8948.0,-3342.0,-2.420641292896705,0.6402920131037028,-85.72112339199926
2026-03-11T20:33:54.029,228753,-798.0,1179.0,16672.0,-134.0,-74.0,-198.0,1920.0,8935.0,-3341.0,-2.199498480439861,0.4669409421397432,-85.73313278546524
2026-03-11T20:33:54.038,228763,-594.0,874.0,15551.0,-146.0,-23.0,-140.0,1920.0,8935.0,-3341.0,-2.2842461292389142,0.6263556590691765,-85.28885903425807
2026-03-11T20:33:54.048,228773,-442.0,893.0,16010.0,-146.0,-23.0,-140.0,1932.0,8934.0,-3339.0,-2.3568938525573024,0.6328750398009357,-84.91742602249178
2026-03-11T20:33:54.079,228783,-1163.0,1452.0,17170.0,-179.0,-45.0,-206.0,1932.0,8934.0,-3339.0,-2.3507590987606415,0.918547515507221,-85.16919496744421
2026-03-11T20:33:54.086,228793,-1427.0,1130.0,14810.0,-180.0,-26.0,-215.0,1938.0,8936.0,-3356.0,-2.4479667890913084,1.6244027348370471,-85.48612173958705
2026-03-11T20:33:54.086,228803,-1400.0,1115.0,14897.0,-159.0,8.0,-220.0,1938.0,8936.0,-3356.0,-2.374282985258289,2.434306824468984,-85.84116620360973
2026-03-11T20:33:54.088,228813,-688.0,941.0,15527.0,-189.0,-41.0,-168.0,1941.0,8935.0,-3343.0,-2.7178028186661014,2.125939659670909,-85.67581127186682
2026-03-11T20:33:54.098,228823,-143.0,1078.0,17671.0,-124.0,-56.0,-254.0,1941.0,8935.0,-3343.0,-2.4680542391782594,1.3453092000090288,-86.17819975202106
2026-03-11T20:33:54.109,228833,-773.0,1094.0,16273.0,-136.0,-37.0,-195.0,1939.0,8944.0,-3342.0,-2.2932255915871336,1.3229481128961167,-86.11434918464656
2026-03-11T20:33:54.125,228843,-104.0,1121.0,17936.0,-114.0,-45.0,-180.0,1939.0,8944.0,-3342.0,-2.0313135982702373,0.7646730583363016,-85.90701568776424
2026-03-11T20:33:54.132,228853,-1202.0,1336.0,16298.0,-114.0,-45.0,-233.0,1936.0,8925.0,-3352.0,-1.5998022147213984,1.092529697724318,-86.19518490565764
2026-03-11T20:33:54.138,228863,-606.0,770.0,14848.0,-139.0,-7.0,-233.0,1936.0,8925.0,-3352.0,-1.798115145624041,1.2848269024571932,-86.43649778154256
2026-03-11T20:33:54.150,228873,-265.0,1082.0,17233.0,-132.0,-57.0,-148.0,1923.0,8935.0,-3350.0,-1.7759548636531224,0.7477142769287164,-85.92938449041182
2026-03-11T20:33:54.164,228883,-806.0,1259.0,17017.0,-142.0,-26.0,-211.0,1923.0,8935.0,-3350.0,-1.7105019198153057,0.9310460596206431,-86.04216893699868
2026-03-11T20:33:54.172,228893,-1556.0,1273.0,15038.0,-163.0,-61.0,-149.0,1932.0,8946.0,-3354.0,-1.7046658100826821,1.4341440166937673,-85.66511510727473
2026-03-11T20:33:54.178,228903,-1048.0,1150.0,15675.0,-144.0,-57.0,-216.0,1932.0,8946.0,-3354.0,-1.6765325231083066,1.4542691391631803,-85.90141754729036
2026-03-11T20:33:54.188,228913,-1151.0,1360.0,16712.0,-139.0,-80.0,-186.0,1926.0,8949.0,-3365.0,-1.5227457956322072,1.3088054319322007,-85.85077738341813
2026-03-11T20:33:54.198,228923,-426.0,728.0,15137.0,-142.0,-24.0,-209.0,1926.0,8949.0,-3365.0,-1.8035034733274091,1.1770817904303277,-85.97991429703396
2026-03-11T20:33:54.212,228933,-147.0,1076.0,17709.0,-183.0,-29.0,-188.0,1918.0,8941.0,-3345.0,-2.2113986355453927,0.8046090557568125,-85.88863028710304
2026-03-11T20:33:54.220,228943,-1418.0,1417.0,16181.0,-183.0,-29.0,-188.0,1918.0,8941.0,-3345.0,-2.2321729831640154,1.4095364886712483,-85.85955006157084
2026-03-11T20:33:54.228,228953,-750.0,1015.0,15804.0,-196.0,-69.0,-172.0,1940.0,8946.0,-3354.0,-2.6187921088958888,1.1179155281168742,-85.65417351381313
2026-03-11T20:33:54.238,228963,-1449.0,1295.0,15529.0,-153.0,-29.0,-230.0,1940.0,8946.0,-3354.0,-2.3656335908201758,1.7248242621683354,-86.00301915395538
2026-03-11T20:33:54.248,228973,-671.0,964.0,15728.0,-126.0,-35.0,-172.0,1934.0,8946.0,-3345.0,-2.1990302440135885,1.5875283791807873,-85.8180660305193
2026-03-11T20:33:54.275,228983,-468.0,1285.0,17942.0,-121.0,-25.0,-204.0,1934.0,8946.0,-3345.0,-1.9079222320907836,1.368092988079229,-85.91490741318282
2026-03-11T20:33:54.282,228993,-793.0,1171.0,16621.0,-165.0,-67.0,-185.0,1943.0,8937.0,-3345.0,-2.040337203812201,1.1034360039853088,-85.80520440846344
2026-03-11T20:33:54.283,229003,-1369.0,1106.0,14859.0,-170.0,-27.0,-207.0,1943.0,8937.0,-3345.0,-2.1409003274633003,1.716651738338086,-85.93674985656523
2026-03-11T20:33:54.288,229013,-657.0,1005.0,16136.0,-167.0,3.0,-163.0,1937.0,8928.0,-3362.0,-2.335929311983268,1.8627386574366112,-85.70311051679174
2026-03-11T20:33:54.298,229023,-88.0,793.0,16594.0,-167.0,-253.0,-171.0,1937.0,8928.0,-3362.0,-2.657545510549845,-0.47310961608645596,-85.40317422259466
2026-03-11T20:33:54.308,229033,-146.0,1033.0,17472.0,-162.0,-50.0,-171.0,1935.0,8925.0,-3342.0,-2.745322564990466,-0.6829015219336149,-85.14868461946917
2026-03-11T20:33:54.318,229043,-804.0,1380.0,17499.0,-146.0,-21.0,-230.0,1935.0,8925.0,-3342.0,-2.462436552190783,-0.1898209401647677,-85.45765942770902
2026-03-11T20:33:54.328,229053,-1127.0,1221.0,16085.0,-142.0,-56.0,-154.0,1926.0,8951.0,-3350.0,-2.2377585270035008,0.1994301791735722,-85.1471159641568
2026-03-11T20:33:54.338,229063,-21.0,1019.0,17690.0,-136.0,-48.0,-187.0,1926.0,8951.0,-3350.0,-2.2188517960575456,-0.2108750815482167,-85.13339140311294
2026-03-11T20:33:54.349,229073,-1056.0,1188.0,16045.0,-150.0,-20.0,-148.0,1931.0,8946.0,-3350.0,-2.128170777073942,0.4223469976879086,-84.85021077935144
2026-03-11T20:33:54.369,229083,-234.0,858.0,16210.0,-159.0,-12.0,-191.0,1931.0,8946.0,-3350.0,-2.368565654289244,0.4070539532289629,-84.96236473657774
2026-03-11T20:33:54.380,229093,-337.0,1043.0,17070.0,-149.0,-87.0,-175.0,1918.0,8937.0,-3349.0,-2.3875520433213957,-0.14457779760758632,-84.8975366445041
2026-03-11T20:33:54.380,229103,-1296.0,1045.0,14531.0,-168.0,-42.0,-185.0,1918.0,8937.0,-3349.0,-2.4313702451441905,0.5650551846676919,-84.97640127772777
2026-03-11T20:33:54.388,229113,-697.0,1247.0,17075.0,-168.0,-42.0,-185.0,1931.0,8945.0,-3360.0,-2.4537085546976103,0.5823059671284629,-85.02631414066786
2026-03-11T20:33:54.398,229123,-1513.0,1356.0,15609.0,-154.0,-46.0,-189.0,1931.0,8945.0,-3360.0,-2.2019690896728017,1.2010067585894293,-85.1479917051596
2026-03-11T20:33:54.408,229133,-409.0,870.0,16030.0,-133.0,-38.0,-165.0,1920.0,8939.0,-3359.0,-2.204259347533833,0.9486890713562366,-85.04686246224531
2026-03-11T20:33:54.419,229143,-58.0,1025.0,17707.0,-199.0,-45.0,-227.0,1920.0,8939.0,-3359.0,-2.6928140548854023,0.43642332583989374,-85.4158864657363
2026-03-11T20:33:54.428,229153,-577.0,955.0,16243.0,-176.0,-8.0,-162.0,1935.0,8928.0,-3354.0,-2.88928995885521,0.6913302334408498,-85.18452014473722
2026-03-11T20:33:54.438,229163,-1357.0,1389.0,16581.0,-128.0,-30.0,-205.0,1935.0,8928.0,-3354.0,-2.3777278776656234,1.2455519613323291,-85.39322922058787
2026-03-11T20:33:54.448,229173,-927.0,1058.0,15736.0,-135.0,-85.0,-152.0,1925.0,8951.0,-3347.0,-2.2128909975260664,0.9892001534052337,-85.13867700924925
2026-03-11T20:33:54.459,229183,-464.0,703.0,15046.0,-125.0,-46.0,-187.0,1925.0,8951.0,-3347.0,-2.2352913877509657,0.7762495931777629,-85.19911140563539
2026-03-11T20:33:54.470,229193,-798.0,1041.0,15850.0,-183.0,-19.0,-170.0,1935.0,8943.0,-3359.0,-2.5006953722489698,1.0442098983860872,-85.11198380233868
2026-03-11T20:33:54.480,229203,-988.0,1348.0,17062.0,-183.0,-19.0,-170.0,1935.0,8943.0,-3359.0,-2.5610911507669694,1.3441324362612472,-85.06331626545803
2026-03-11T20:33:54.488,229213,-852.0,995.0,15525.0,-119.0,-21.0,-140.0,1930.0,8938.0,-3345.0,-2.2674566729454386,1.534261644278827,-84.80812160497932
2026-03-11T20:33:54.498,229223,-664.0,1270.0,17342.0,-140.0,-8.0,-195.0,1930.0,8938.0,-3345.0,-2.096276768777474,1.6007794370003765,-85.05176968028594
2026-03-11T20:33:54.510,229233,-692.0,991.0,15768.0,-162.0,-31.0,-158.0,1929.0,8935.0,-3357.0,-2.253773137384102,1.534213219761779,-84.9438578491981
2026-03-11T20:33:54.518,229243,-785.0,987.0,15585.0,-198.0,-8.0,-231.0,1929.0,8935.0,-3357.0,-2.662276607321043,1.7389177167076886,-85.44964112730554
2026-03-11T20:33:54.529,229253,-766.0,1201.0,16688.0,-172.0,-78.0,-153.0,1934.0,8930.0,-3347.0,-2.682549503085496,1.2914007368894858,-85.18903430382231
2026-03-11T20:33:54.542,229263,-278.0,1046.0,17075.0,-136.0,-43.0,-204.0,1934.0,8930.0,-3347.0,-2.532937571705218,0.8753229260189825,-85.36063689009563
2026-03-11T20:33:54.548,229273,-686.0,1021.0,15955.0,-165.0,-47.0,-179.0,1927.0,8936.0,-3351.0,-2.614048776790877,0.8156482222166472,-85.30249188896632
2026-03-11T20:33:54.559,229283,-904.0,1072.0,15731.0,-165.0,-47.0,-155.0,1927.0,8936.0,-3351.0,-2.631552247556459,0.9327899898832523,-85.07225283579368
2026-03-11T20:33:54.572,229293,-903.0,1079.0,15904.0,-166.0,-60.0,-155.0,1933.0,8930.0,-3354.0,-2.6569898641958734,0.9146766197358198,-84.87720379155795
2026-03-11T20:33:54.581,229303,-1128.0,1220.0,16095.0,-151.0,-55.0,-184.0,1933.0,8930.0,-3354.0,-2.466646432331141,1.0912462783521075,-84.96949613641388
2026-03-11T20:33:54.588,229313,-642.0,1016.0,16128.0,-139.0,-56.0,-121.0,1924.0,8944.0,-3337.0,-2.364388458200703,0.8800047497962673,-84.54041619323826
2026-03-11T20:33:54.598,229323,-1361.0,1240.0,15579.0,-114.0,-4.0,-167.0,1924.0,8944.0,-3337.0,-1.89334578601345,1.667421907233086,-84.63071205906682
2026-03-11T20:33:54.608,229333,-864.0,1085.0,15891.0,-133.0,-34.0,-181.0,1930.0,8941.0,-3346.0,-1.7974849148472192,1.682920614361518,-84.80969038057192
2026-03-11T20:33:54.618,229343,-71.0,748.0,16105.0,-130.0,-45.0,-229.0,1930.0,8941.0,-3346.0,-1.9461473072175666,1.036800241934991,-85.2870012260824
2026-03-11T20:33:54.634,229353,-1109.0,1263.0,16274.0,-138.0,-6.0,-183.0,1934.0,8940.0,-3348.0,-1.7733695277467008,1.558794465139277,-85.33681207622311
2026-03-11T20:33:54.638,229363,-502.0,1212.0,17585.0,-161.0,-34.0,-188.0,1934.0,8940.0,-3348.0,-1.91815038818109,1.301298347878868,-85.395328399231
2026-03-11T20:33:54.648,229373,-691.0,1047.0,16182.0,-161.0,-34.0,-188.0,1927.0,8934.0,-3344.0,-2.0821275180086247,1.257048623263037,-85.44319090139098
2026-03-11T20:33:54.662,229383,-1492.0,1196.0,14737.0,-147.0,-4.0,-221.0,1927.0,8934.0,-3344.0,-1.913753322104472,2.1260812241544,-85.81234737276759
2026-03-11T20:33:54.684,229393,-797.0,1046.0,15950.0,-133.0,-6.0,-164.0,1941.0,8939.0,-3344.0,-1.8445864797025842,2.223763410954905,-85.64387520481847
2026-03-11T20:33:54.684,229403,-1175.0,1007.0,14666.0,-159.0,-37.0,-197.0,1941.0,8939.0,-3344.0,-1.962091180191278,2.3969875382733696,-85.7839992549206
2026-03-11T20:33:54.688,229413,-207.0,943.0,16704.0,-151.0,-26.0,-187.0,1937.0,8933.0,-3342.0,-2.1314489049380407,1.8513616776240773,-85.7762413502465
2026-03-11T20:33:54.698,229423,-445.0,1300.0,17977.0,-181.0,-18.0,-207.0,1937.0,8933.0,-3342.0,-2.325934529490445,1.619951342420126,-85.90965610399475
2026-03-11T20:33:54.708,229433,-1160.0,1121.0,15235.0,-194.0,-34.0,-159.0,1938.0,8937.0,-3345.0,-2.5710931356847517,1.8924474604137478,-85.6481684576899
2026-03-11T20:33:54.718,229443,-122.0,1047.0,17594.0,-155.0,-58.0,-189.0,1938.0,8937.0,-3345.0,-2.6157557367549016,1.1292762518626562,-85.62194677487024
2026-03-11T20:33:54.728,229453,-949.0,1109.0,15942.0,-155.0,-58.0,-201.0,1932.0,8942.0,-3346.0,-2.5367343192262553,1.119122143508587,-85.70644444063251
2026-03-11T20:33:54.738,229463,-1186.0,1269.0,16169.0,-153.0,-8.0,-201.0,1932.0,8942.0,-3346.0,-2.355872368124607,1.667763900061805,-85.81752257115298
2026-03-11T20:33:54.748,229473,-724.0,1218.0,17099.0,-134.0,-52.0,-127.0,1930.0,8937.0,-3345.0,-2.1418129897381584,1.4018970216980293,-85.2996299194217
2026-03-11T20:33:54.758,229483,-1492.0,1038.0,14430.0,-93.0,6.0,-188.0,1930.0,8937.0,-3345.0,-1.6345708784229869,2.3471284415910016,-85.45151042317399
2026-03-11T20:33:54.768,229493,-623.0,997.0,16269.0,-121.0,-4.0,-137.0,1926.0,8932.0,-3346.0,-1.5742916139511869,2.283481313862389,-85.16503128581735
2026-03-11T20:33:54.778,229503,-236.0,738.0,15875.0,-151.0,-1.0,-192.0,1926.0,8932.0,-3346.0,-1.9351011488032406,1.988942197626899,-85.3481215117049
2026-03-11T20:33:54.792,229513,-1212.0,1182.0,15718.0,-165.0,-44.0,-183.0,1937.0,8951.0,-3347.0,-2.007966635901584,2.1185400971026573,-85.42216031719981
2026-03-11T20:33:54.798,229523,-484.0,734.0,15118.0,-142.0,-24.0,-222.0,1937.0,8951.0,-3347.0,-2.18645183508906,1.8691384057569727,-85.77196258622217
2026-03-11T20:33:54.809,229533,-701.0,1050.0,16203.0,-117.0,-24.0,-165.0,1927.0,8930.0,-3353.0,-1.943612777312318,1.7977302611189572,-85.60183979999509
2026-03-11T20:33:54.818,229543,32.0,841.0,16766.0,-117.0,-24.0,-165.0,1927.0,8930.0,-3353.0,-1.9165684086222372,1.2243404721406832,-85.4239141877233
2026-03-11T20:33:54.830,229553,-1017.0,1223.0,16222.0,-152.0,-59.0,-149.0,1940.0,8944.0,-3354.0,-1.886963667428275,1.2229130639957666,-85.14149131185181
2026-03-11T20:33:54.838,229563,-20.0,935.0,17134.0,-201.0,-32.0,-196.0,1940.0,8944.0,-3354.0,-2.4928659930673844,0.7356864997508237,-85.24540780237183
2026-03-11T20:33:54.848,229573,-244.0,1240.0,18186.0,-200.0,-40.0,-148.0,1931.0,8921.0,-3352.0,-2.814165537210557,0.42193039959074796,-84.92088860888957
2026-03-11T20:33:54.858,229583,-1280.0,1350.0,16163.0,-162.0,-46.0,-182.0,1931.0,8921.0,-3352.0,-2.5924331969076126,0.8720123319045283,-84.9701996560681
2026-03-11T20:33:54.869,229593,-906.0,1159.0,16191.0,-143.0,-57.0,-151.0,1930.0,8925.0,-3345.0,-2.399062831200932,0.8805305343404971,-84.76794179476852
2026-03-11T20:33:54.879,229603,-645.0,1262.0,17329.0,-140.0,-47.0,-207.0,1930.0,8925.0,-3345.0,-2.2061975892157557,0.7536220629870329,-85.04821727790394
2026-03-11T20:33:54.888,229613,-1075.0,1439.0,17355.0,-141.0,-65.0,-166.0,1924.0,8952.0,-3348.0,-1.9449839118659304,0.7893745504290931,-84.96617086032627
2026-03-11T20:33:54.898,229623,-1533.0,1314.0,15485.0,-76.0,-28.0,-178.0,1924.0,8952.0,-3348.0,-1.193929291372976,1.5342373312495083,-85.0632904758738
2026-03-11T20:33:54.908,229633,-933.0,1068.0,15764.0,-76.0,-28.0,-178.0,1921.0,8945.0,-3354.0,-0.7879781632224813,1.6792695692378918,-85.16014576488237
2026-03-11T20:33:54.919,229643,-395.0,704.0,15159.0,-117.0,-5.0,-182.0,1921.0,8945.0,-3354.0,-1.0345893045827506,1.601619533275884,-85.26004963308161
2026-03-11T20:33:54.939,229653,-624.0,1072.0,16542.0,-167.0,-42.0,-131.0,1922.0,8945.0,-3331.0,-1.4221007844850098,1.3764513545229384,-84.90744186081135
2026-03-11T20:33:54.939,229663,-356.0,1226.0,18002.0,-175.0,-42.0,-187.0,1922.0,8945.0,-3331.0,-1.7584746888880276,0.991219512676676,-85.03981630635404
2026-03-11T20:33:54.950,229673,-924.0,1036.0,15657.0,-177.0,-40.0,-138.0,1927.0,8943.0,-3352.0,-2.0656484310666157,1.1469853300343575,-84.75348366057574
2026-03-11T20:33:54.958,229683,-137.0,1047.0,17657.0,-156.0,-44.0,-203.0,1927.0,8943.0,-3352.0,-2.2218245086348873,0.6543417509725085,-85.00571383379145
2026-03-11T20:33:54.969,229693,-718.0,1088.0,16246.0,-152.0,-24.0,-136.0,1922.0,8927.0,-3357.0,-2.2271803682976388,0.8364574132464526,-84.68672345307522
2026-03-11T20:33:54.983,229703,-619.0,1357.0,17857.0,-143.0,-23.0,-161.0,1922.0,8927.0,-3357.0,-2.056603644066291,0.8810896530391388,-84.63773949796489
2026-03-11T20:33:54.991,229713,-582.0,1030.0,16208.0,-143.0,-23.0,-161.0,1936.0,8930.0,-3351.0,-2.0620444884996068,0.9313452987803932,-84.5854388360624
2026-03-11T20:33:54.998,229723,-1495.0,1383.0,15694.0,-169.0,-60.0,-221.0,1936.0,8930.0,-3351.0,-1.994423955755271,1.3492076694292987,-85.05540629997917
2026-03-11T20:33:55.009,229733,-906.0,1107.0,15814.0,-164.0,-54.0,-155.0,1938.0,8941.0,-3352.0,-2.1066901547109467,1.3015584822471609,-84.89838380891828
2026-03-11T20:33:55.018,229743,-1016.0,865.0,14371.0,-159.0,-35.0,-183.0,1938.0,8941.0,-3352.0,-2.2684490905567842,1.5685834241263632,-85.01365517382605
2026-03-11T20:33:55.028,229753,-251.0,869.0,16407.0,-144.0,-13.0,-156.0,1938.0,8943.0,-3362.0,-2.360389409020219,1.3259139021034767,-84.87111633813511
2026-03-11T20:33:55.039,229763,-1063.0,1478.0,17436.0,-156.0,19.0,-220.0,1938.0,8943.0,-3362.0,-2.167268137825541,1.9079970242294935,-85.31548627198646
2026-03-11T20:33:55.055,229773,-791.0,919.0,15486.0,-138.0,-2.0,-153.0,1936.0,8938.0,-3345.0,-2.158579844924784,2.0941793899333465,-85.14957077856909
2026-03-11T20:33:55.058,229783,-175.0,1042.0,17447.0,-143.0,-12.0,-219.0,1936.0,8938.0,-3345.0,-2.1872922662822534,1.6940748962938947,-85.51477993148518
2026-03-11T20:33:55.074,229793,-835.0,1113.0,16193.0,-157.0,-23.0,-179.0,1921.0,8928.0,-3352.0,-2.219443848023094,1.760246847205031,-85.50762499392009
2026-03-11T20:33:55.086,229803,-1262.0,1319.0,16080.0,-157.0,-23.0,-179.0,1921.0,8928.0,-3352.0,-2.093690444883413,2.1187099021911076,-85.53062168754569
2026-03-11T20:33:55.101,229813,-585.0,1008.0,16190.0,-142.0,-63.0,-183.0,1928.0,8927.0,-3338.0,-2.0984175444205366,1.6040471461740105,-85.5334325384568
2026-03-11T20:33:55.107,229823,-1195.0,1270.0,15917.0,-145.0,-48.0,-219.0,1928.0,8927.0,-3338.0,-1.9263534120423995,1.755235086044355,-85.83769570777868
2026-03-11T20:33:55.108,229833,-929.0,1124.0,15860.0,-167.0,-43.0,-141.0,1943.0,8936.0,-3352.0,-2.06632659767907,1.7289688276018196,-85.43685299751782
2026-03-11T20:33:55.119,229843,-876.0,1025.0,15423.0,-182.0,-60.0,-176.0,1943.0,8936.0,-3352.0,-2.3486133960013804,1.5519089252019338,-85.37827072947026
2026-03-11T20:33:55.129,229853,-1333.0,1102.0,14633.0,-180.0,-55.0,-177.0,1934.0,8940.0,-3350.0,-2.4575364092800522,1.8396076763293827,-85.37103394542612
2026-03-11T20:33:55.138,229863,-281.0,722.0,15479.0,-154.0,-3.0,-240.0,1934.0,8940.0,-3350.0,-2.663917214493325,1.6554626894809554,-85.85203991785441
2026-03-11T20:33:55.148,229873,-744.0,1158.0,16544.0,-161.0,-8.0,-155.0,1939.0,8939.0,-3351.0,-2.618354325056615,1.774097487601914,-85.55992881424288
2026-03-11T20:33:55.158,229883,-268.0,1143.0,17658.0,-161.0,-8.0,-153.0,1939.0,8939.0,-3351.0,-2.641967186448725,1.5288200583514524,-85.29168440216017
2026-03-11T20:33:55.168,229893,-758.0,1117.0,16444.0,-151.0,-20.0,-153.0,1935.0,8946.0,-3340.0,-2.544375705525372,1.5896899491862557,-85.08986918143903
2026-03-11T20:33:55.199,229903,-1381.0,1120.0,14803.0,-139.0,-29.0,-173.0,1935.0,8946.0,-3340.0,-2.2821456672565983,2.102692464441356,-85.13075004911312
2026-03-11T20:33:55.209,229913,-637.0,1121.0,16759.0,-163.0,-46.0,-150.0,1926.0,8929.0,-3352.0,-2.3643601908213907,1.7485306341212792,-84.95907311154257
2026-03-11T20:33:55.209,229923,-791.0,820.0,14794.0,-167.0,-47.0,-232.0,1926.0,8929.0,-3352.0,-2.5929807351811087,1.6339991311150774,-85.46530450944952
2026-03-11T20:33:55.209,229933,-810.0,1099.0,16324.0,-157.0,-54.0,-155.0,1930.0,8936.0,-3348.0,-2.5600686807364834,1.4420577285461955,-85.23741658627587
2026-03-11T20:33:55.218,229943,-497.0,1236.0,17806.0,-154.0,-33.0,-202.0,1930.0,8936.0,-3348.0,-2.485893781487862,1.2086432209137565,-85.41521576519273
2026-03-11T20:33:55.228,229953,-770.0,1045.0,16091.0,-103.0,-66.0,-183.0,1923.0,8949.0,-3344.0,-2.0695651058792666,0.985699616518896,-85.40838062477732
2026-03-11T20:33:55.238,229963,-74.0,813.0,16575.0,-141.0,-68.0,-212.0,1923.0,8949.0,-3344.0,-2.222033187601115,0.29565795528484246,-85.58215011064915
2026-03-11T20:33:55.248,229973,-875.0,1181.0,16577.0,-141.0,-68.0,-212.0,1918.0,8942.0,-3354.0,-2.090615625752995,0.2953004307475346,-85.72771071788823
2026-03-11T20:33:55.258,229983,-1439.0,1249.0,15542.0,-138.0,-44.0,-190.0,1918.0,8942.0,-3354.0,-1.857576426154783,0.9388218258736997,-85.71902942056107
2026-03-11T20:33:55.269,229993,-816.0,1051.0,15889.0,-122.0,-43.0,-150.0,1928.0,8928.0,-3342.0,-1.7051819230437166,0.9937606955178628,-85.38239440836077
2026-03-11T20:33:55.280,230003,-754.0,798.0,14572.0,-124.0,-55.0,-208.0,1928.0,8928.0,-3342.0,-1.7292390290506492,0.9465274140994173,-85.57323848029334
2026-03-11T20:33:55.290,230013,-409.0,1038.0,16773.0,-138.0,-32.0,-159.0,1936.0,8938.0,-3345.0,-1.779142605026423,0.7800583047688145,-85.31369185505369
2026-03-11T20:33:55.298,230023,-1344.0,1115.0,14842.0,-114.0,-70.0,-182.0,1936.0,8938.0,-3345.0,-1.4760630798586898,1.0960025455486737,-85.31813544940137
2026-03-11T20:33:55.308,230033,-824.0,1176.0,16552.0,-108.0,-50.0,-139.0,1928.0,8940.0,-3348.0,-1.2320568131415346,1.0453660745794282,-84.98847981667302
2026-03-11T20:33:55.318,230043,-1254.0,1154.0,15267.0,-109.0,-59.0,-185.0,1928.0,8940.0,-3348.0,-0.9931162744692827,1.3007566663225845,-85.11523912335308
2026-03-11T20:33:55.330,230053,-1623.0,1320.0,15216.0,-161.0,-34.0,-197.0,1926.0,8936.0,-3334.0,-1.090884750568535,1.9817589790243055,-85.3619916669819
2026-03-11T20:33:55.339,230063,-1069.0,861.0,14400.0,-161.0,-34.0,-197.0,1926.0,8936.0,-3334.0,-1.4763605181669595,2.161024543622534,-85.56645179524814
2026-03-11T20:33:55.349,230073,-595.0,1017.0,16366.0,-178.0,-34.0,-140.0,1934.0,8933.0,-3344.0,-1.8939191859600686,1.8724427070560066,-85.23554696756337
2026-03-11T20:33:55.359,230083,22.0,1001.0,17818.0,-163.0,-46.0,-189.0,1934.0,8933.0,-3344.0,-2.1760457537786593,1.1158277534001249,-85.30242845985835
2026-03-11T20:33:55.368,230093,-744.0,1150.0,16577.0,-130.0,-44.0,-121.0,1926.0,8937.0,-3345.0,-1.9871495829067318,1.0533903060649399,-84.82161864048835
2026-03-11T20:33:55.379,230103,-1536.0,1289.0,15307.0,-132.0,-20.0,-211.0,1926.0,8937.0,-3345.0,-1.6830173123269074,1.8247439127118517,-85.21866689377121
2026-03-11T20:33:55.406,230113,-441.0,1122.0,17044.0,-142.0,-9.0,-140.0,1935.0,8931.0,-3338.0,-1.7291488467681586,1.6835856419677555,-84.944201480423
2026-03-11T20:33:55.416,230123,-1143.0,1068.0,14987.0,-153.0,-24.0,-194.0,1935.0,8931.0,-3338.0,-1.7920975567851476,2.0249271793576513,-85.18072346560665
2026-03-11T20:33:55.416,230133,-550.0,1042.0,16453.0,-155.0,-49.0,-188.0,1928.0,8948.0,-3342.0,-1.9489157125290328,1.6100971015100378,-85.30201292820884
2026-03-11T20:33:55.419,230143,-188.0,1206.0,17966.0,-155.0,-49.0,-155.0,1928.0,8948.0,-3342.0,-2.031068411331746,1.0157150996363693,-85.09015733141686
2026-03-11T20:33:55.429,230153,-712.0,1075.0,16123.0,-132.0,-62.0,-155.0,1917.0,8952.0,-3341.0,-1.9179454171068624,0.8211668454540573,-84.92312202373566
2026-03-11T20:33:55.438,230163,16.0,870.0,16876.0,-114.0,-29.0,-213.0,1917.0,8952.0,-3341.0,-1.8561306952613852,0.414083554111087,-85.22502187968938
2026-03-11T20:33:55.449,230173,-858.0,1211.0,16609.0,-110.0,-21.0,-122.0,1919.0,8944.0,-3337.0,-1.530867293064632,0.7531435561799227,-84.76390334234213
2026-03-11T20:33:55.458,230183,-673.0,824.0,14972.0,-170.0,-32.0,-184.0,1919.0,8944.0,-3337.0,-1.954662560711657,0.8604872093131877,-84.89173562926732
2026-03-11T20:33:55.468,230193,-752.0,1108.0,16377.0,-136.0,-62.0,-143.0,1939.0,8944.0,-3346.0,-1.8776306752798302,0.7170049691735656,-84.632114312447
2026-03-11T20:33:55.494,230203,-1343.0,1243.0,15524.0,-116.0,23.0,-202.0,1939.0,8944.0,-3346.0,-1.5145281523021126,1.7433481013396146,-84.97750652316338
2026-03-11T20:33:55.504,230213,-1263.0,1152.0,15338.0,-180.0,-27.0,-183.0,1926.0,8924.0,-3333.0,-1.7925660315941339,2.11752041458239,-85.13544035970986
2026-03-11T20:33:55.507,230223,-442.0,711.0,15166.0,-145.0,-59.0,-207.0,1926.0,8924.0,-3333.0,-2.0572271128976745,1.5555229583745132,-85.40800588149631
2026-03-11T20:33:55.508,230233,-747.0,1037.0,16116.0,-145.0,-59.0,-207.0,1937.0,8934.0,-3331.0,-2.0694460646634254,1.3020931501082353,-85.59614855998346
2026-03-11T20:33:55.518,230243,49.0,804.0,16887.0,-170.0,-22.0,-182.0,1937.0,8934.0,-3331.0,-2.470391373459817,0.8324618858112087,-85.50551651624993
2026-03-11T20:33:55.528,230253,-738.0,1068.0,16436.0,-180.0,-35.0,-146.0,1925.0,8935.0,-3356.0,-2.6727503546582154,0.8990760342687716,-85.16174113141814
2026-03-11T20:33:55.538,230263,-718.0,1324.0,17371.0,-147.0,-21.0,-184.0,1925.0,8935.0,-3356.0,-2.442480474249444,1.023268120224328,-85.2038908756208
2026-03-11T20:33:55.551,230273,-796.0,1121.0,16215.0,-141.0,-39.0,-177.0,1930.0,8935.0,-3353.0,-2.2910311179809755,1.0673609407493985,-85.181205046273
2026-03-11T20:33:55.558,230283,-1441.0,1246.0,15212.0,-143.0,-30.0,-214.0,1930.0,8935.0,-3353.0,-2.040307332381774,1.6925693930125427,-85.50938508518499
2026-03-11T20:33:55.568,230293,-405.0,1107.0,17020.0,-178.0,-27.0,-160.0,1926.0,8943.0,-3334.0,-2.3119777622259376,1.4101061970788842,-85.32115580540247
2026-03-11T20:33:55.578,230303,-451.0,838.0,15450.0,-165.0,-26.0,-169.0,1926.0,8943.0,-3334.0,-2.5486519595406087,1.254002969049938,-85.22707194179962
2026-03-11T20:33:55.619,230313,-653.0,1104.0,16450.0,-165.0,230.0,-171.0,1928.0,8930.0,-3348.0,-2.5910209169987732,3.2968275140172554,-85.3136822744754
2026-03-11T20:33:55.619,230323,-893.0,1438.0,17564.0,-140.0,9.0,-171.0,1928.0,8930.0,-3348.0,-2.2567204300787576,3.2896365462616464,-85.38796924350271
2026-03-11T20:33:55.619,230333,-725.0,1037.0,15935.0,-156.0,-10.0,-108.0,1920.0,8940.0,-3346.0,-2.3087003396649104,3.071612754625712,-84.93852658438368
2026-03-11T20:33:55.619,230343,-1505.0,1262.0,15270.0,-161.0,-11.0,-195.0,1920.0,8940.0,-3346.0,-2.19005761254556,3.4912597247334793,-85.30848285950846
2026-03-11T20:33:55.628,230353,-927.0,1081.0,15621.0,-157.0,-53.0,-160.0,1925.0,8948.0,-3339.0,-2.216315066156531,3.0466173219191743,-85.28590330356674
2026-03-11T20:33:55.638,230363,-683.0,1221.0,17137.0,-186.0,-27.0,-213.0,1925.0,8948.0,-3339.0,-2.4459720980333053,2.676607171216324,-85.66041361294187
2026-03-11T20:33:55.658,230373,-622.0,1024.0,16330.0,-154.0,-44.0,-118.0,1922.0,8954.0,-3342.0,-2.47115172994755,2.2246929106395203,-85.17139158695707
2026-03-11T20:33:55.658,230383,-1132.0,1055.0,15252.0,-144.0,-44.0,-149.0,1922.0,8954.0,-3342.0,-2.337537736401354,2.2746774476274125,-85.0341259002776
2026-03-11T20:33:55.668,230393,-910.0,1129.0,16130.0,-155.0,-2.0,-170.0,1926.0,8942.0,-3341.0,-2.309266297102925,2.4479713418186746,-85.09757687434488
2026-03-11T20:33:55.678,230403,-1159.0,1218.0,15936.0,-155.0,-2.0,-170.0,1926.0,8942.0,-3341.0,-2.2132809510138567,2.7719076300483474,-85.17406674693557
2026-03-11T20:33:55.689,230413,-582.0,894.0,15806.0,-172.0,-15.0,-171.0,1940.0,8928.0,-3352.0,-2.499175574522885,2.5186060207220304,-85.1989773501193
2026-03-11T20:33:55.698,230423,-466.0,1278.0,17969.0,-140.0,-19.0,-233.0,1940.0,8928.0,-3352.0,-2.3057068244679026,2.1592465607599087,-85.69138686243609
2026-03-11T20:33:55.709,230433,-740.0,1056.0,16089.0,-171.0,-49.0,-153.0,1927.0,8931.0,-3342.0,-2.4615220882625772,1.860951065877546,-85.4372269239321
2026-03-11T20:33:55.718,230443,-1453.0,1377.0,15792.0,-209.0,-16.0,-180.0,1927.0,8931.0,-3342.0,-2.644545404036154,2.4081895841751204,-85.4874216941088
2026-03-11T20:33:55.728,230453,-379.0,882.0,16112.0,-135.0,-44.0,-116.0,1918.0,8942.0,-3335.0,-2.5689668918751454,1.8436511090759238,-84.98884200236851
2026-03-11T20:33:55.738,230463,-1391.0,1440.0,16416.0,-134.0,-27.0,-133.0,1918.0,8942.0,-3335.0,-2.124550762492955,2.2239038385820504,-84.76154695786235
2026-03-11T20:33:55.749,230473,-831.0,1100.0,15899.0,-187.0,-48.0,-147.0,1918.0,8945.0,-3345.0,-2.404080361704115,1.9920947757306848,-84.67099841780896
2026-03-11T20:33:55.761,230483,-6.0,929.0,17181.0,-164.0,-56.0,-142.0,1918.0,8945.0,-3345.0,-2.6162549680255314,1.149671783723332,-84.49280284607019
2026-03-11T20:33:55.768,230493,-889.0,1128.0,16258.0,-164.0,-56.0,-142.0,1926.0,8935.0,-3340.0,-2.6112257231863665,1.0962112918634537,-84.33371367502862
2026-03-11T20:33:55.779,230503,-383.0,802.0,15638.0,-160.0,-48.0,-177.0,1926.0,8935.0,-3340.0,-2.7818084095649067,0.7731981258475166,-84.45980657441785
2026-03-11T20:33:55.789,230513,-641.0,1141.0,16850.0,-139.0,-64.0,-167.0,1932.0,8942.0,-3349.0,-2.562671213899909,0.5412778019446394,-84.46206183914803
2026-03-11T20:33:55.814,230523,-1513.0,1283.0,15426.0,-140.0,-19.0,-241.0,1932.0,8942.0,-3349.0,-2.219252967179526,1.3975356110432768,-85.12451763259863
2026-03-11T20:33:55.816,230533,-789.0,1076.0,16052.0,-127.0,-51.0,-146.0,1926.0,8939.0,-3347.0,-2.0244179602936536,1.2715664647635991,-84.89519318034985
2026-03-11T20:33:55.818,230543,54.0,904.0,17296.0,-130.0,-42.0,-205.0,1926.0,8939.0,-3347.0,-2.061149801557203,0.6455253191604436,-85.13736507808717
2026-03-11T20:33:55.828,230553,-733.0,1111.0,16350.0,-142.0,-28.0,-154.0,1920.0,8935.0,-3345.0,-2.0074530742153462,0.8046315321274446,-84.94199926816876
2026-03-11T20:33:55.839,230563,-1473.0,1282.0,15406.0,-135.0,14.0,-137.0,1920.0,8935.0,-3345.0,-1.7345883839809115,1.8442789585323265,-84.73052336283439
2026-03-11T20:33:55.849,230573,-724.0,1094.0,16292.0,-135.0,14.0,-137.0,1922.0,8952.0,-3351.0,-1.6993472942494487,2.0951796819261497,-84.58249847445705
2026-03-11T20:33:55.860,230583,-850.0,805.0,14652.0,-191.0,-33.0,-203.0,1922.0,8952.0,-3351.0,-2.258529185006495,2.0751767284827536,-84.9813635474938
2026-03-11T20:33:55.871,230593,-666.0,1299.0,17597.0,-137.0,-36.0,-171.0,1915.0,8932.0,-3351.0,-2.058446855207508,1.8044580914508064,-85.03136881688809
2026-03-11T20:33:55.878,230603,-854.0,1169.0,16336.0,-140.0,-19.0,-231.0,1915.0,8932.0,-3351.0,-1.9481386298953454,1.8885502025785244,-85.559434307155
2026-03-11T20:33:55.891,230613,-293.0,672.0,15219.0,-159.0,-11.0,-165.0,1931.0,8934.0,-3351.0,-2.324856521850835,1.6432127790569182,-85.40992592620738
2026-03-11T20:33:55.905,230623,-446.0,925.0,16227.0,-132.0,-31.0,-222.0,1931.0,8934.0,-3351.0,-2.263376403034122,1.38093640513275,-85.72802245177674
2026-03-11T20:33:55.912,230633,-580.0,1184.0,17069.0,-119.0,-13.0,-159.0,1929.0,8942.0,-3337.0,-1.969102046773415,1.3890460596855665,-85.48838706204542
2026-03-11T20:33:55.919,230643,-1622.0,1351.0,15295.0,-156.0,-25.0,-191.0,1929.0,8942.0,-3337.0,-1.8137200310043824,2.1172684444144823,-85.60877777950698
2026-03-11T20:33:55.928,230653,-645.0,987.0,15813.0,-186.0,-47.0,-166.0,1938.0,8938.0,-3343.0,-2.2246565789794395,1.784059541632843,-85.46159664043945
2026-03-11T20:33:55.938,230663,-990.0,1431.0,17431.0,-186.0,-47.0,-166.0,1938.0,8938.0,-3343.0,-2.329089411292254,1.69920098556035,-85.33581062909123
2026-03-11T20:33:55.948,230673,-951.0,1071.0,15666.0,-137.0,-18.0,-145.0,1921.0,8944.0,-3350.0,-2.1770878445518154,1.9085189769499231,-85.10819958430089
2026-03-11T20:33:55.961,230683,-766.0,1327.0,17586.0,-150.0,-42.0,-189.0,1921.0,8944.0,-3350.0,-2.078623694678896,1.6882183536745017,-85.263477324706
2026-03-11T20:33:55.968,230693,-680.0,994.0,16110.0,-142.0,-69.0,-112.0,1928.0,8932.0,-3340.0,-2.092754975915187,1.281060048822165,-84.72944692535351
2026-03-11T20:33:55.978,230703,-638.0,1351.0,18069.0,-185.0,-48.0,-173.0,1928.0,8932.0,-3340.0,-2.299006287964234,1.0441675645008708,-84.76935241912459
2026-03-11T20:33:55.988,230713,-797.0,962.0,15521.0,-122.0,-8.0,-157.0,1930.0,8934.0,-3341.0,-2.1058677295341717,1.358118824810106,-84.69762426920636
2026-03-11T20:33:56.004,230723,6.0,923.0,17281.0,-133.0,-12.0,-191.0,1930.0,8934.0,-3341.0,-2.137227232808709,0.9865220796249633,-84.88451125207034
2026-03-11T20:33:56.010,230733,-1306.0,1242.0,15697.0,-127.0,-41.0,-183.0,1928.0,8944.0,-3330.0,-1.8209794506917452,1.4094854795412601,-85.01115476220886
2026-03-11T20:33:56.019,230743,-13.0,1012.0,17509.0,-127.0,-41.0,-178.0,1928.0,8944.0,-3330.0,-1.8111936404981028,0.8080823461843437,-85.02890270819498
2026-03-11T20:33:56.028,230753,-1061.0,1193.0,15895.0,-133.0,-58.0,-178.0,1923.0,8944.0,-3350.0,-1.6544969653880461,0.9441019186657238,-85.06203142743792
2026-03-11T20:33:56.038,230763,-445.0,803.0,15493.0,-142.0,-24.0,-195.0,1923.0,8944.0,-3350.0,-1.8662021144210597,0.8918875455878141,-85.21717932476415
2026-03-11T20:33:56.048,230773,-697.0,1123.0,16580.0,-156.0,-6.0,-185.0,1918.0,8932.0,-3337.0,-1.9659914180206814,1.1458541684596428,-85.28106402688881
2026-03-11T20:33:56.059,230783,-1214.0,1047.0,14649.0,-183.0,-10.0,-202.0,1918.0,8932.0,-3337.0,-2.2191694587102284,1.7817678526382663,-85.51059922201274
2026-03-11T20:33:56.068,230793,-38.0,918.0,16826.0,-166.0,-45.0,-130.0,1931.0,8924.0,-3345.0,-2.4787613251793728,1.091255275140391,-85.04479457014965
2026-03-11T20:33:56.078,230803,-961.0,1464.0,17671.0,-162.0,-68.0,-168.0,1931.0,8924.0,-3345.0,-2.3318086120224977,0.9494514625106782,-84.96831877868793
2026-03-11T20:33:56.089,230813,-433.0,1001.0,16443.0,-215.0,-22.0,-154.0,1929.0,8941.0,-3337.0,-2.8887080688216624,0.8846926926296891,-84.7875706648116
2026-03-11T20:33:56.099,230823,-850.0,1408.0,17553.0,-137.0,-41.0,-154.0,1929.0,8941.0,-3337.0,-2.489743207063246,0.9324555035629164,-84.65349371640382
2026-03-11T20:33:56.108,230833,-1163.0,1151.0,15499.0,-137.0,-41.0,-154.0,1922.0,8942.0,-3347.0,-2.2383641631303273,1.2738697051181294,-84.58467831969462
2026-03-11T20:33:56.119,230843,-268.0,740.0,15750.0,-163.0,-39.0,-219.0,1922.0,8942.0,-3347.0,-2.5566885435231517,0.9018496896730075,-85.0168580662326
2026-03-11T20:33:56.129,230853,-837.0,1139.0,16494.0,-138.0,6.0,-185.0,1939.0,8930.0,-3348.0,-2.3592883297487113,1.3491065420872403,-85.102473476824
2026-03-11T20:33:56.138,230863,-737.0,794.0,14772.0,-175.0,22.0,-220.0,1939.0,8930.0,-3348.0,-2.672089293520976,1.8257061471431673,-85.48072815756132
2026-03-11T20:33:56.149,230873,-593.0,1010.0,16375.0,-132.0,-24.0,-152.0,1924.0,8940.0,-3342.0,-2.4877719525790987,1.6825764643087213,-85.25315617581197
2026-03-11T20:33:56.158,230883,-722.0,789.0,14875.0,-122.0,28.0,-239.0,1924.0,8940.0,-3342.0,-2.3589698835696273,2.1250484435193844,-85.8020174014142
2026-03-11T20:33:56.169,230893,-607.0,1084.0,16543.0,-200.0,21.0,-198.0,1920.0,8928.0,-3339.0,-2.737372827565546,2.2874139403843508,-85.92056738332961
2026-03-11T20:33:56.179,230903,-1067.0,897.0,14530.0,-178.0,-7.0,-186.0,1920.0,8928.0,-3339.0,-2.907371448649181,2.612327814554178,-85.9407452268795
2026-03-11T20:33:56.188,230913,-538.0,1072.0,16630.0,-169.0,-40.0,-176.0,1935.0,8934.0,-3344.0,-2.9402397655306967,2.139683100392342,-85.82391594561464
2026-03-11T20:33:56.225,230923,-1352.0,1301.0,15901.0,-169.0,-40.0,-176.0,1935.0,8934.0,-3344.0,-2.768701732792543,2.3605142634333323,-85.74989292631196
2026-03-11T20:33:56.234,230933,-856.0,1171.0,16272.0,-133.0,-27.0,-136.0,1928.0,8941.0,-3330.0,-2.4557325931123732,2.27312258705544,-85.37954882361754
2026-03-11T20:33:56.236,230943,-1560.0,1430.0,15953.0,-98.0,10.0,-167.0,1928.0,8941.0,-3330.0,-1.7241446266712892,3.0110733458841645,-85.39805761800405
2026-03-11T20:33:56.236,230953,-638.0,765.0,14825.0,-126.0,-43.0,-134.0,1921.0,8947.0,-3344.0,-1.7965240765942152,2.557050024384007,-85.12489233984222
2026-03-11T20:33:56.240,230963,-154.0,924.0,16888.0,-156.0,-44.0,-183.0,1921.0,8947.0,-3344.0,-2.0588743138953394,1.7979759889277973,-85.2378572662582
2026-03-11T20:33:56.249,230973,-136.0,856.0,16580.0,-176.0,-72.0,-122.0,1928.0,8946.0,-3357.0,-2.4640056007539943,0.9562491576712162,-84.76266907457847
2026-03-11T20:33:56.259,230983,-528.0,1308.0,17872.0,-147.0,-30.0,-192.0,1928.0,8946.0,-3357.0,-2.310034592961456,0.8625412716799886,-84.93833014910874
2026-03-11T20:33:56.272,230993,-999.0,1392.0,17155.0,-147.0,6.0,-203.0,1925.0,8943.0,-3349.0,-2.096235506463454,1.4024111941374442,-85.21296567860512
2026-03-11T20:33:56.295,231003,-1264.0,1083.0,15028.0,-147.0,6.0,-203.0,1925.0,8943.0,-3349.0,-2.0286040174441737,2.129015835301354,-85.48745838661239
2026-03-11T20:33:56.324,231013,-696.0,1059.0,16380.0,-177.0,-66.0,-158.0,1931.0,8952.0,-3348.0,-2.2990553501544206,1.6608165319822614,-85.30268736020551
2026-03-11T20:33:56.329,231023,-15.0,741.0,16304.0,-194.0,-37.0,-220.0,1931.0,8952.0,-3348.0,-2.870795602736193,1.0431849993064433,-85.59550356915359
2026-03-11T20:33:56.330,231033,-545.0,1070.0,16557.0,-197.0,-57.0,-136.0,1932.0,8935.0,-3358.0,-3.1331142247267945,0.7548238483347134,-85.1260996541065
2026-03-11T20:33:56.330,231044,-1462.0,1358.0,15721.0,-203.0,-45.0,-206.0,1932.0,8935.0,-3358.0,-3.30548594816282,1.2665457523045724,-85.5099856241544
2026-03-11T20:33:56.330,231054,-793.0,1035.0,15962.0,-160.0,-27.0,-164.0,1914.0,8931.0,-3358.0,-3.182398633610339,1.3648753289395765,-85.34737595027929
2026-03-11T20:33:56.343,231064,17.0,785.0,16524.0,-142.0,-47.0,-189.0,1914.0,8931.0,-3358.0,-3.1379417029697905,0.7041242932586128,-85.36927431964332
2026-03-11T20:33:56.349,231074,-617.0,1137.0,16683.0,-106.0,-44.0,-151.0,1909.0,8939.0,-3344.0,-2.5785809248789753,0.6339294927739133,-85.09599655154071
2026-03-11T20:33:56.363,231084,-1121.0,1478.0,17200.0,-115.0,-28.0,-187.0,1909.0,8939.0,-3344.0,-2.0005897736767038,1.026202031358696,-85.20392919724125
2026-03-11T20:33:56.379,231094,-758.0,1081.0,16161.0,-115.0,-28.0,-187.0,1920.0,8943.0,-3334.0,-1.75511556019925,1.132841519240163,-85.28936820256152
2026-03-11T20:33:56.385,231104,-1074.0,1410.0,16985.0,-143.0,-4.0,-198.0,1920.0,8943.0,-3334.0,-1.5989934288699117,1.5954241587603915,-85.48206262409624
2026-03-11T20:33:56.388,231114,-781.0,922.0,15056.0,-137.0,-22.0,-158.0,1922.0,8954.0,-3341.0,-1.6743336673307314,1.6931194416778392,-85.32268192721658
2026-03-11T20:33:56.398,231124,-273.0,819.0,16066.0,-108.0,-60.0,-168.0,1922.0,8954.0,-3341.0,-1.6198162574772066,1.068943008110903,-85.23044881000592
2026-03-11T20:33:56.421,231134,-660.0,1158.0,16790.0,-178.0,-24.0,-126.0,1944.0,8942.0,-3344.0,-1.9307689141116864,1.1123059579621128,-84.78821985413593
2026-03-11T20:33:56.424,231144,-1091.0,923.0,14465.0,-130.0,-24.0,-182.0,1944.0,8942.0,-3344.0,-1.8544055921372649,1.5587560884566034,-84.91641585301515
2026-03-11T20:33:56.428,231154,-464.0,1068.0,16916.0,-152.0,-34.0,-181.0,1933.0,8935.0,-3358.0,-1.9770040084790605,1.2886226193782868,-85.0012111000399
2026-03-11T20:33:56.438,231164,-891.0,1147.0,16100.0,-141.0,-55.0,-196.0,1933.0,8935.0,-3358.0,-1.8946042865230033,1.2228216914458048,-85.18560345834992
2026-03-11T20:33:56.449,231174,-709.0,1334.0,17717.0,-141.0,-55.0,-158.0,1925.0,8943.0,-3336.0,-1.7824922695527032,0.9952936681693003,-85.02606018134392
2026-03-11T20:33:56.459,231184,-1530.0,1275.0,15431.0,-174.0,-58.0,-158.0,1925.0,8943.0,-3336.0,-1.8733168227919528,1.4608997201521738,-84.93089081692392
2026-03-11T20:33:56.468,231194,-523.0,858.0,15653.0,-134.0,-20.0,-182.0,1928.0,8944.0,-3364.0,-1.9431618201574277,1.3908788984029905,-85.03759270815031
2026-03-11T20:33:56.478,231204,-1189.0,1465.0,17017.0,-152.0,-6.0,-233.0,1928.0,8944.0,-3364.0,-1.786432809394243,1.8611337350307835,-85.56835032789279
2026-03-11T20:33:56.488,231214,-1044.0,1164.0,15935.0,-172.0,-45.0,-193.0,1927.0,8922.0,-3348.0,-1.969576167236685,1.8766089730488134,-85.66613749210254
2026-03-11T20:33:56.498,231224,-289.0,915.0,16418.0,-160.0,-45.0,-249.0,1927.0,8922.0,-3348.0,-2.21768479609724,1.3426652113035273,-86.1487431117681
2026-03-11T20:33:56.509,231234,-932.0,1123.0,15877.0,-140.0,-46.0,-137.0,1933.0,8942.0,-3350.0,-2.08497506695852,1.3763574710453392,-85.64136806391173
2026-03-11T20:33:56.518,231244,-1045.0,1129.0,15667.0,-140.0,-14.0,-138.0,1933.0,8942.0,-3350.0,-1.9636319316911777,1.7503211541076187,-85.27305473307639
2026-03-11T20:33:56.528,231254,-890.0,1234.0,16610.0,-102.0,-34.0,-153.0,1922.0,8942.0,-3338.0,-1.5371362270866267,1.7399941957311167,-85.11799061614263
2026-03-11T20:33:56.538,231264,-1272.0,1048.0,14525.0,-102.0,-34.0,-153.0,1922.0,8942.0,-3338.0,-1.2203443726911152,2.118373977561118,-85.02682726761041
2026-03-11T20:33:56.549,231274,-178.0,871.0,16355.0,-78.0,-44.0,-140.0,1930.0,8948.0,-3341.0,-0.9905839735244445,1.4672337690372865,-84.79751883544645
2026-03-11T20:33:56.558,231284,-79.0,1002.0,17627.0,-130.0,-31.0,-205.0,1930.0,8948.0,-3341.0,-1.1817761504968032,0.977061095344248,-85.09533076893621
2026-03-11T20:33:56.568,231294,47.0,773.0,16727.0,-52.0,46.0,-283.0,1911.0,8942.0,-3342.0,-0.8322387673504908,1.1174850253707698,-85.99530009980501
2026-03-11T20:33:56.578,231304,-862.0,970.0,15285.0,-91.0,18.0,-214.0,1911.0,8942.0,-3342.0,-0.6675564330412137,1.682251858759837,-86.20703989998403
2026-03-11T20:34:01.147,235803,-26.0,801.0,16252.0,-118.0,-43.0,-170.0,1863.0,8830.0,-3306.0,-0.9137230613174268,1.0201116391415141,-86.00254054007239
2026-03-11T20:34:01.148,235813,-135.0,1171.0,17331.0,-118.0,-43.0,-170.0,1863.0,8830.0,-3306.0,-0.9018951095337003,0.56114567345113,-85.80577472407495
2026-03-11T20:34:01.148,235823,-846.0,1187.0,16449.0,-121.0,-55.0,-172.0,1868.0,8833.0,-3296.0,-0.8640263260320344,0.5962369995156239,-85.66193975087262
2026-03-11T20:34:01.148,235833,-1446.0,1165.0,14805.0,-153.0,-32.0,-183.0,1868.0,8833.0,-3296.0,-1.0153585778416439,1.3332467480139205,-85.68599008871415
2026-03-11T20:34:01.148,235843,-694.0,1089.0,16303.0,-164.0,-51.0,-165.0,1886.0,8834.0,-3304.0,-1.3599790524586126,1.1450235029745612,-85.51987678798685
2026-03-11T20:34:01.148,235853,-604.0,767.0,14910.0,-158.0,-25.0,-177.0,1886.0,8834.0,-3304.0,-1.763020666540911,1.1793603880638572,-85.47890742218793
2026-03-11T20:34:01.148,235863,-543.0,1106.0,16843.0,-143.0,-44.0,-174.0,1867.0,8834.0,-3333.0,-1.8030268040394772,0.9599980335115444,-85.42972820205927
2026-03-11T20:34:01.148,235873,-1403.0,1434.0,16460.0,-213.0,-32.0,-166.0,1867.0,8834.0,-3333.0,-2.150610743186099,1.4827273295596528,-85.35925626088915
2026-03-11T20:34:01.159,235883,-621.0,1056.0,16423.0,-140.0,-41.0,-175.0,1881.0,8832.0,-3281.0,-2.1046770574470637,1.2903868613742244,-85.34220435109714
2026-03-11T20:34:01.168,235893,-152.0,872.0,16798.0,-140.0,-11.0,-149.0,1881.0,8832.0,-3281.0,-2.2094195369976144,1.0478576639922264,-85.10115309524132
2026-03-11T20:34:01.178,235903,-1178.0,1198.0,15808.0,-201.0,-11.0,-149.0,1870.0,8841.0,-3320.0,-2.508767056860868,1.6002099941411585,-84.96078622796732
2026-03-11T20:34:01.188,235913,49.0,963.0,17659.0,-161.0,-11.0,-187.0,1870.0,8841.0,-3320.0,-2.6707287142105542,1.1604185104458706,-85.1171799050508
2026-03-11T20:34:01.198,235923,-1089.0,1137.0,15665.0,-157.0,-25.0,-179.0,1870.0,8819.0,-3305.0,-2.5623083129266604,1.5215931369841467,-85.20081270955947
2026-03-11T20:34:01.208,235933,-812.0,1341.0,17478.0,-212.0,-58.0,-220.0,1870.0,8819.0,-3305.0,-2.8683617627945837,1.2837093500528414,-85.5728621712244
2026-03-11T20:34:01.218,235943,-918.0,1063.0,15607.0,-167.0,-48.0,-192.0,1869.0,8840.0,-3273.0,-2.851404549395101,1.3146639370881408,-85.65535963866897
2026-03-11T20:34:01.228,235953,-352.0,1194.0,17551.0,-142.0,-43.0,-175.0,1869.0,8840.0,-3273.0,-2.638753012075144,0.9369935357961089,-85.56152667386932
2026-03-11T20:34:01.238,235963,-981.0,1127.0,15780.0,-169.0,-47.0,-133.0,1873.0,8831.0,-3291.0,-2.645982267452332,1.0832610267192953,-85.15373065282378
2026-03-11T20:34:01.248,235973,-115.0,988.0,17067.0,-134.0,-47.0,-174.0,1873.0,8831.0,-3291.0,-2.526160607918392,0.567692111543861,-85.11998582185565
2026-03-11T20:34:01.258,235983,-846.0,1228.0,16598.0,-134.0,-47.0,-174.0,1874.0,8828.0,-3322.0,-2.246666757327293,0.6601339259782646,-85.10255949356959
2026-03-11T20:34:01.268,235993,-1276.0,1014.0,14430.0,-127.0,-20.0,-187.0,1874.0,8828.0,-3322.0,-2.0094169082943414,1.376302598673988,-85.24935445426111
2026-03-11T20:34:01.278,236003,-761.0,1044.0,15886.0,-83.0,-17.0,-171.0,1882.0,8831.0,-3298.0,-1.519539289236004,1.5123811671605614,-85.24696751880848
2026-03-11T20:34:01.288,236013,-4.0,978.0,17561.0,-153.0,-28.0,-198.0,1882.0,8831.0,-3298.0,-1.8021113834570581,0.9885110327765109,-85.41814922420853
2026-03-11T20:34:01.298,236023,-706.0,1118.0,16494.0,-133.0,-13.0,-146.0,1872.0,8827.0,-3267.0,-1.7301483072894017,1.1758800932412545,-85.1649451764907
2026-03-11T20:34:01.308,236033,-1331.0,1402.0,16522.0,-139.0,-27.0,-200.0,1872.0,8827.0,-3267.0,-1.5260580505991208,1.6425713520258154,-85.43153695290651
2026-03-11T20:34:01.318,236043,-686.0,972.0,15865.0,-150.0,-5.0,-153.0,1871.0,8839.0,-3260.0,-1.719655488095598,1.768315034839127,-85.27898900096224
2026-03-11T20:34:01.331,236053,-363.0,1194.0,17779.0,-117.0,16.0,-189.0,1871.0,8839.0,-3260.0,-1.543305590157862,1.776059462672364,-85.44831175304952
2026-03-11T20:34:01.340,236063,-1083.0,1042.0,15297.0,-198.0,-8.0,-190.0,1860.0,8829.0,-3296.0,-2.039274425328939,2.1649173492203078,-85.62499169051543
2026-03-11T20:34:01.348,236073,-483.0,1288.0,18046.0,-198.0,-8.0,-190.0,1860.0,8829.0,-3296.0,-2.3989279604227143,1.973786560205654,-85.74628815332892
2026-03-11T20:34:01.358,236083,-573.0,1031.0,16425.0,-198.0,-36.0,-159.0,1868.0,8827.0,-3306.0,-2.7847917008751732,1.6898452487401316,-85.5573938674753
2026-03-11T20:34:01.368,236093,-684.0,1366.0,17829.0,-172.0,-26.0,-159.0,1868.0,8827.0,-3306.0,-2.7275819936335304,1.5820022710206318,-85.39927116261339
2026-03-11T20:34:01.378,236103,-1267.0,1247.0,15720.0,-163.0,-35.0,-171.0,1883.0,8842.0,-3298.0,-2.5789595273232306,1.9043207285762185,-85.3798002163989
2026-03-11T20:34:01.388,236113,7.0,1031.0,17745.0,-157.0,-39.0,-213.0,1883.0,8842.0,-3298.0,-2.654128309014533,1.2069438164941355,-85.64760303947176
2026-03-11T20:34:01.398,236123,-785.0,1119.0,16190.0,-150.0,-60.0,-152.0,1882.0,8844.0,-3294.0,-2.5325407516696314,1.0394178459026815,-85.36542656317835
2026-03-11T20:34:01.408,236133,-925.0,1453.0,17554.0,-187.0,-52.0,-175.0,1882.0,8844.0,-3294.0,-2.5756794347219722,1.0167589840287012,-85.32128924659703
2026-03-11T20:34:01.420,236143,-1044.0,1101.0,15306.0,-200.0,5.0,-169.0,1877.0,8837.0,-3274.0,-2.8376742543507465,1.6318057636430567,-85.28261330618206
2026-03-11T20:34:01.437,236153,-909.0,1057.0,15568.0,-200.0,5.0,-160.0,1877.0,8837.0,-3274.0,-3.093304408644245,2.0122428135089536,-85.20323957762602
2026-03-11T20:34:01.444,236163,-967.0,1185.0,16194.0,-132.0,3.0,-160.0,1878.0,8832.0,-3287.0,-2.6936088007618295,2.315430499463469,-85.16687019762165
2026-03-11T20:34:01.448,236173,-273.0,1085.0,17308.0,-152.0,-10.0,-168.0,1878.0,8832.0,-3287.0,-2.653476826629488,1.9527212726342302,-85.175609579471
2026-03-11T20:34:01.458,236183,-817.0,1097.0,16117.0,-172.0,-38.0,-169.0,1890.0,8827.0,-3300.0,-2.7200177182601184,1.8372281673571305,-85.16478191541597
2026-03-11T20:34:01.468,236193,-514.0,693.0,14858.0,-192.0,-37.0,-174.0,1890.0,8827.0,-3300.0,-3.177928562010351,1.5696143820786717,-85.16830303373115
2026-03-11T20:34:01.478,236203,-539.0,1012.0,16523.0,-143.0,-38.0,-169.0,1881.0,8833.0,-3296.0,-2.9853686064457343,1.3246719166544516,-85.1294102315017
2026-03-11T20:34:01.490,236213,-986.0,1440.0,17616.0,-136.0,-46.0,-217.0,1881.0,8833.0,-3296.0,-2.5416572156352917,1.3303334944131686,-85.49040362836908
2026-03-11T20:34:01.499,236223,-981.0,1114.0,15947.0,-169.0,-36.0,-193.0,1882.0,8829.0,-3298.0,-2.586128719442117,1.4785968920451489,-85.59505796940526
2026-03-11T20:34:01.508,236233,-378.0,1033.0,16942.0,-128.0,-21.0,-160.0,1882.0,8829.0,-3298.0,-2.3950708661154176,1.2700313974422834,-85.40271702512626
2026-03-11T20:34:01.518,236243,-807.0,1034.0,15798.0,-128.0,-21.0,-160.0,1877.0,8843.0,-3297.0,-2.191108027815577,1.4316315789890277,-85.27409841525885
2026-03-11T20:34:01.528,236253,-823.0,1242.0,16805.0,-151.0,-43.0,-153.0,1877.0,8843.0,-3297.0,-2.115516404945374,1.3605296657097452,-85.11125287311218
2026-03-11T20:34:01.540,236263,-664.0,1073.0,16361.0,-121.0,-38.0,-165.0,1871.0,8823.0,-3286.0,-1.9099644154427504,1.2482353714857328,-85.07431633216615
2026-03-11T20:34:01.549,236273,-385.0,1132.0,17304.0,-135.0,-10.0,-183.0,1871.0,8823.0,-3286.0,-1.8593985238254533,1.1729596478378257,-85.1841077299486
2026-03-11T20:34:01.558,236283,-909.0,1063.0,15501.0,-171.0,-20.0,-161.0,1886.0,8830.0,-3300.0,-2.0709215820706524,1.448010597961467,-85.09573967625738
2026-03-11T20:34:01.568,236293,128.0,904.0,17354.0,-104.0,-25.0,-175.0,1886.0,8830.0,-3300.0,-1.8923489858633227,0.8740037631638549,-85.09804341993424
2026-03-11T20:34:01.578,236303,-737.0,1165.0,16607.0,-124.0,-16.0,-174.0,1880.0,8833.0,-3284.0,-1.7033211146198843,1.0781697349638688,-85.11799680952248
2026-03-11T20:34:01.587,236313,-1569.0,1374.0,15464.0,-135.0,-23.0,-179.0,1880.0,8833.0,-3284.0,-1.4271601104661762,1.8327172066448663,-85.23342898405271
2026-03-11T20:34:01.598,236323,-763.0,1003.0,15610.0,-135.0,-13.0,-163.0,1876.0,8824.0,-3291.0,-1.4864458794479485,1.9206896382748129,-85.20627335412803
2026-03-11T20:34:01.608,236333,-485.0,1244.0,17513.0,-160.0,-13.0,-163.0,1876.0,8824.0,-3291.0,-1.6565439838807596,1.749020208899277,-85.16920700032694
2026-03-11T20:34:01.618,236343,-770.0,996.0,15801.0,-183.0,26.0,-120.0,1872.0,8832.0,-3303.0,-2.067873305167054,2.1640884948241315,-84.82702696709495
2026-03-11T20:34:01.633,236353,-791.0,1003.0,15732.0,-144.0,-7.0,-196.0,1872.0,8832.0,-3303.0,-2.0767030139040776,2.24978427130257,-85.16749963661309
2026-03-11T20:34:01.640,236363,-894.0,1159.0,16379.0,-131.0,-32.0,-162.0,1884.0,8817.0,-3302.0,-1.8998465035283918,2.1671166137833144,-85.14559403052642
2026-03-11T20:34:01.651,236373,-877.0,1203.0,16548.0,-138.0,-36.0,-163.0,1884.0,8817.0,-3302.0,-1.792286900846093,2.0508364713374068,-85.12920542060417
2026-03-11T20:34:01.662,236383,-766.0,974.0,15662.0,-176.0,-6.0,-152.0,1889.0,8834.0,-3296.0,-2.13011564620912,2.1515914349874543,-85.02782107501852
2026-03-11T20:34:01.668,236393,-556.0,1255.0,17859.0,-176.0,-27.0,-187.0,1889.0,8834.0,-3296.0,-2.3081484088887176,1.8610363526038096,-85.20228426083152
2026-03-11T20:34:01.678,236403,-825.0,1060.0,16032.0,-134.0,-38.0,-186.0,1879.0,8828.0,-3290.0,-2.1619661119485345,1.7727114343450658,-85.34070205810846
2026-03-11T20:34:01.688,236413,-219.0,698.0,15529.0,-134.0,-38.0,-186.0,1879.0,8828.0,-3290.0,-2.2868513498183387,1.2755998935427473,-85.41286770119896
2026-03-11T20:34:01.710,236423,-806.0,1209.0,16584.0,-131.0,-31.0,-166.0,1871.0,8824.0,-3301.0,-2.043565605628025,1.3274985775104615,-85.32775238115114
2026-03-11T20:34:01.710,236433,-233.0,1016.0,17070.0,-169.0,-45.0,-196.0,1871.0,8824.0,-3301.0,-2.3056115144948977,0.8581266656901387,-85.46085787270334
2026-03-11T20:34:01.719,236443,-891.0,1147.0,16169.0,-156.0,-53.0,-175.0,1885.0,8843.0,-3303.0,-2.2809565963685823,0.8917471748760006,-85.38959956885734
2026-03-11T20:34:01.728,236453,-159.0,1069.0,17428.0,-155.0,-41.0,-175.0,1885.0,8843.0,-3303.0,-2.3627622083463917,0.48974348497380726,-85.30192209628049
2026-03-11T20:34:01.740,236463,-1041.0,1097.0,15396.0,-172.0,-25.0,-155.0,1880.0,8838.0,-3302.0,-2.4510964084195637,0.9634772252995993,-85.1097537820288
2026-03-11T20:34:01.748,236473,-131.0,1138.0,17764.0,-149.0,-31.0,-187.0,1880.0,8838.0,-3302.0,-2.4197807540628395,0.6071125334320397,-85.18655730263225
2026-03-11T20:34:01.758,236483,-629.0,1014.0,16082.0,-127.0,-45.0,-190.0,1883.0,8828.0,-3302.0,-2.2302587108298737,0.5727658844215044,-85.26629788967176
2026-03-11T20:34:01.773,236493,-699.0,1402.0,18025.0,-129.0,-4.0,-196.0,1883.0,8828.0,-3302.0,-1.9266948923144853,0.8690340278177152,-85.40482102251433
2026-03-11T20:34:01.779,236503,-733.0,946.0,15609.0,-129.0,-4.0,-196.0,1882.0,8825.0,-3308.0,-1.879710062068159,1.1999717299376753,-85.54118872193223
2026-03-11T20:34:01.788,236513,15.0,948.0,17523.0,-213.0,2.0,-218.0,1882.0,8825.0,-3308.0,-2.588427754652521,0.9661824684817858,-85.79706498839023
2026-03-11T20:34:01.799,236523,-790.0,1014.0,15980.0,-210.0,-4.0,-142.0,1876.0,8829.0,-3308.0,-3.024582852863634,1.3058547909418539,-85.41982081614627
2026-03-11T20:34:01.809,236533,-262.0,782.0,16147.0,-159.0,-3.0,-164.0,1876.0,8829.0,-3308.0,-3.137132078161982,1.2063853011941092,-85.28468849713849
2026-03-11T20:34:01.818,236543,-561.0,1027.0,16589.0,-162.0,-28.0,-227.0,1883.0,8845.0,-3292.0,-3.097190825497711,1.1277420047654552,-85.67068894714565
2026-03-11T20:34:01.830,236553,-745.0,971.0,15701.0,-157.0,-39.0,-175.0,1883.0,8845.0,-3292.0,-3.025983239486873,1.132479492763733,-85.56509273283268
2026-03-11T20:34:01.845,236563,-856.0,1130.0,16334.0,-170.0,-21.0,-189.0,1889.0,8846.0,-3312.0,-2.989293533811358,1.33653552598848,-85.60118805126154
2026-03-11T20:34:01.848,236573,-273.0,1048.0,17177.0,-171.0,-2.0,-196.0,1889.0,8846.0,-3312.0,-3.0611564663691997,1.2349994701591356,-85.67730164888508
2026-03-11T20:34:01.861,236583,-667.0,996.0,15876.0,-171.0,-2.0,-204.0,1889.0,8849.0,-3311.0,-3.098962153045971,1.4522083217962662,-85.81833805981931
2026-03-11T20:34:01.868,236593,-894.0,1074.0,15695.0,-163.0,-13.0,-204.0,1889.0,8849.0,-3311.0,-3.000246658637483,1.708267010588242,-85.95185629078853
2026-03-11T20:34:01.878,236603,-824.0,1159.0,16166.0,-169.0,-17.0,-156.0,1873.0,8837.0,-3304.0,-2.9320515501705446,1.812703724139754,-85.7006122065382
2026-03-11T20:34:01.888,236613,-359.0,1177.0,17286.0,-121.0,-35.0,-206.0,1873.0,8837.0,-3304.0,-2.5345922563040437,1.4075658751417401,-85.87649011767459
2026-03-11T20:34:01.900,236623,-975.0,1151.0,15972.0,-136.0,3.0,-181.0,1887.0,8832.0,-3290.0,-2.291310694815195,1.8468996012567422,-85.83428840512128
2026-03-11T20:34:01.910,236633,-938.0,1324.0,16919.0,-121.0,-21.0,-193.0,1887.0,8832.0,-3290.0,-1.9061336450047233,1.9422423319426754,-85.90991696829283
2026-03-11T20:34:01.918,236643,-621.0,1076.0,16263.0,-128.0,-30.0,-179.0,1890.0,8834.0,-3305.0,-1.7918444195773242,1.750194183363294,-85.84336443444427
2026-03-11T20:34:01.928,236653,-566.0,909.0,15691.0,-166.0,4.0,-193.0,1890.0,8834.0,-3305.0,-2.0983728939121113,1.8446357079446565,-85.90402807434137
2026-03-11T20:34:01.950,236663,-605.0,1099.0,16671.0,-147.0,-25.0,-191.0,1874.0,8830.0,-3299.0,-2.1003694474269676,1.6904858747381843,-85.94415809128485
2026-03-11T20:34:01.962,236673,-948.0,983.0,15397.0,-147.0,-25.0,-191.0,1874.0,8830.0,-3299.0,-2.1256932943419664,1.8556162705958918,-85.98802533134729
2026-03-11T20:34:01.963,236683,-954.0,1174.0,16432.0,-180.0,-15.0,-148.0,1882.0,8847.0,-3322.0,-2.3232330430495134,2.027350540850387,-85.68356661176122
2026-03-11T20:34:01.968,236693,-70.0,801.0,16336.0,-171.0,-34.0,-219.0,1882.0,8847.0,-3322.0,-2.66516145017708,1.398923864146817,-85.95554230716326
2026-03-11T20:34:01.978,236703,-831.0,1068.0,16002.0,-170.0,-36.0,-167.0,1876.0,8826.0,-3291.0,-2.7284586706087315,1.4243730986978356,-85.75941563097078
2026-03-11T20:34:01.988,236713,39.0,972.0,17571.0,-172.0,-11.0,-185.0,1876.0,8826.0,-3291.0,-2.9255099327716185,1.0261029910149495,-85.71386693107875
2026-03-11T20:34:01.998,236723,-999.0,1273.0,16520.0,-179.0,-21.0,-171.0,1873.0,8837.0,-3285.0,-2.8911286124565754,1.3429585791766665,-85.59588067916988
2026-03-11T20:34:02.015,236733,-286.0,661.0,15204.0,-162.0,-30.0,-240.0,1873.0,8837.0,-3285.0,-3.1110250130230583,1.0496944312537606,-86.02818433093188
2026-03-11T20:34:02.018,236743,-572.0,1033.0,16376.0,-130.0,-30.0,-203.0,1886.0,8837.0,-3291.0,-2.806931587709853,0.9990586282450864,-86.06323696719558
2026-03-11T20:34:02.029,236753,-149.0,1051.0,17396.0,-130.0,16.0,-169.0,1886.0,8837.0,-3291.0,-2.5940672646424745,1.0252156931552565,-85.82489120936116
2026-03-11T20:34:02.038,236763,-879.0,1192.0,16442.0,-114.0,16.0,-169.0,1891.0,8837.0,-3312.0,-2.1579472450270853,1.55860481811163,-85.67484567296147
2026-03-11T20:34:02.054,236773,-1335.0,1060.0,14475.0,-158.0,-15.0,-205.0,1891.0,8837.0,-3312.0,-2.1527023727324357,2.1779586615480135,-85.88876600488518
2026-03-11T20:34:02.058,236783,-639.0,1088.0,16387.0,-186.0,2.0,-141.0,1877.0,8833.0,-3309.0,-2.450456632399308,2.2040025517333373,-85.5614652382492
2026-03-11T20:34:02.068,236793,23.0,846.0,16741.0,-171.0,-25.0,-153.0,1877.0,8833.0,-3309.0,-2.749773457958265,1.547478695697144,-85.34179831557326
2026-03-11T20:34:02.079,236803,-1140.0,1280.0,16225.0,-139.0,15.0,-187.0,1879.0,8826.0,-3305.0,-2.4096675559413727,2.159322836249978,-85.48477193554811
2026-03-11T20:34:02.088,236813,-725.0,1284.0,17372.0,-141.0,-19.0,-192.0,1879.0,8826.0,-3305.0,-2.2103017212463016,2.052116600694065,-85.63450965380596
2026-03-11T20:34:02.098,236823,-715.0,1132.0,16450.0,-142.0,-38.0,-170.0,1868.0,8840.0,-3286.0,-2.1169254646343747,1.8342797985569668,-85.58061845309194
2026-03-11T20:34:02.108,236833,-1373.0,1404.0,16349.0,-152.0,-3.0,-192.0,1868.0,8840.0,-3286.0,-1.9278730753081288,2.4000141328589235,-85.75825541673008
2026-03-11T20:34:02.118,236843,-1131.0,1148.0,15686.0,-152.0,-3.0,-192.0,1883.0,8831.0,-3292.0,-1.921138005287907,2.7186253463442056,-85.90316709128182
2026-03-11T20:34:02.128,236853,-78.0,972.0,17391.0,-156.0,-10.0,-190.0,1883.0,8831.0,-3292.0,-2.1451126190876755,2.1462150610679647,-85.95701403943568
2026-03-11T20:34:02.138,236863,-788.0,1058.0,16013.0,-118.0,-58.0,-162.0,1885.0,8838.0,-3304.0,-1.9040674132838258,1.8151989063296103,-85.75529650649435
2026-03-11T20:34:02.149,236873,-1218.0,1444.0,16864.0,-130.0,-34.0,-223.0,1885.0,8838.0,-3304.0,-1.5844376332210568,2.0033585512120156,-86.10099367332722
2026-03-11T20:34:02.159,236883,-903.0,1108.0,15966.0,-136.0,-20.0,-231.0,1870.0,8832.0,-3289.0,-1.561586628498544,2.088550375478957,-86.46499889188871
2026-03-11T20:34:02.168,236893,-558.0,1193.0,17154.0,-176.0,-47.0,-220.0,1870.0,8832.0,-3289.0,-1.8616067045133033,1.6665648997807176,-86.63237659341503
2026-03-11T20:34:02.178,236903,-858.0,1084.0,16064.0,-140.0,-38.0,-191.0,1884.0,8851.0,-3293.0,-1.8371911166795574,1.6393351221559418,-86.52003662855414
2026-03-11T20:34:02.189,236913,-718.0,1267.0,17068.0,-146.0,-43.0,-217.0,1884.0,8851.0,-3293.0,-1.7886686410572457,1.4479162844271136,-86.62495780968005
2026-03-11T20:34:02.198,236923,-856.0,1115.0,16019.0,-138.0,-65.0,-200.0,1878.0,8842.0,-3294.0,-1.738606520132561,1.2486151067673248,-86.56439756040643
2026-03-11T20:34:02.208,236933,-212.0,738.0,15656.0,-138.0,-65.0,-200.0,1878.0,8842.0,-3294.0,-1.955117613893853,0.6338804940722236,-86.46767417033618
2026-03-11T20:34:02.218,236943,-947.0,1178.0,16218.0,-197.0,-5.0,-152.0,1889.0,8836.0,-3289.0,-2.3092135287544022,1.1337152714738414,-86.02116001582873
2026-03-11T20:34:02.228,236953,-11.0,1011.0,17693.0,-180.0,-12.0,-205.0,1889.0,8836.0,-3289.0,-2.633291682886569,0.8180849406223364,-86.059379706756
2026-03-11T20:34:02.239,236963,-611.0,1136.0,16881.0,-140.0,-48.0,-182.0,1878.0,8834.0,-3302.0,-2.456655028211424,0.6841111025529818,-85.91268611787842
2026-03-11T20:34:02.254,236973,-1431.0,1480.0,16463.0,-112.0,-61.0,-206.0,1878.0,8834.0,-3302.0,-1.8339241936433062,1.0488757368451425,-86.02448128071346
2026-03-11T20:34:02.260,236983,-614.0,1073.0,16576.0,-115.0,-19.0,-184.0,1889.0,8826.0,-3301.0,-1.646397116237786,1.110485698044527,-85.92955484319752
2026-03-11T20:34:02.268,236993,-1252.0,973.0,14512.0,-115.0,-13.0,-175.0,1889.0,8826.0,-3301.0,-1.4699528663349724,1.7683689769677424,-85.83271387067077
2026-03-11T20:34:02.278,237003,-772.0,1027.0,15953.0,-148.0,-32.0,-173.0,1876.0,8841.0,-3289.0,-1.6232772957954278,1.7116532747446422,-85.75244648012459
2026-03-11T20:34:02.288,237013,-6.0,753.0,16216.0,-148.0,-32.0,-202.0,1876.0,8841.0,-3289.0,-1.9508908025934764,1.1175579999734195,-85.8715158446939
2026-03-11T20:34:02.298,237023,-763.0,1076.0,16064.0,-155.0,-56.0,-202.0,1884.0,8834.0,-3294.0,-2.034299467429538,0.9887048631655359,-85.94415043359922
2026-03-11T20:34:02.310,237033,-73.0,1057.0,17607.0,-164.0,-10.0,-245.0,1884.0,8834.0,-3294.0,-2.252337375112379,0.75838879476398,-86.32580588342591
2026-03-11T20:34:02.318,237043,-1189.0,1213.0,15742.0,-116.0,-43.0,-178.0,1881.0,8839.0,-3300.0,-1.8486258721756443,1.1240420892801972,-86.13372567669478
2026-03-11T20:34:02.328,237053,-1077.0,1074.0,15276.0,-147.0,-43.0,-189.0,1881.0,8839.0,-3300.0,-1.8505726421282027,1.359821514264595,-86.08527132844397
2026-03-11T20:34:02.338,237063,-933.0,1062.0,15722.0,-170.0,-15.0,-177.0,1881.0,8839.0,-3280.0,-2.0675815837050693,1.6455474053428198,-85.9673582888274
2026-03-11T20:34:02.348,237073,-1104.0,934.0,14386.0,-81.0,-21.0,-183.0,1881.0,8839.0,-3280.0,-1.5591310622570842,2.0242711882955877,-85.95697986975024
2026-03-11T20:34:02.360,237083,-283.0,967.0,16819.0,-120.0,-23.0,-131.0,1885.0,8831.0,-3309.0,-1.5491909272227153,1.6278950958968932,-85.49760159835063
2026-03-11T20:34:02.368,237093,-1297.0,1431.0,16634.0,-180.0,-19.0,-183.0,1885.0,8831.0,-3309.0,-1.6959586563961864,2.0387463353480237,-85.57405731789173
2026-03-11T20:34:02.381,237103,-796.0,1130.0,16280.0,-180.0,-19.0,-183.0,1885.0,8825.0,-3308.0,-2.002656905199324,2.037497570282201,-85.6285471575925
2026-03-11T20:34:02.399,237113,-1240.0,1465.0,16966.0,-192.0,-15.0,-233.0,1885.0,8825.0,-3308.0,-2.151085259589685,2.3429423361953026,-86.09239850644225
2026-03-11T20:34:02.400,237123,-583.0,994.0,16081.0,-149.0,-53.0,-219.0,1869.0,8840.0,-3311.0,-2.2054540187122678,1.8648214918420383,-86.33924102629722
2026-03-11T20:34:02.412,237133,-1562.0,1321.0,15440.0,-145.0,-15.0,-246.0,1869.0,8840.0,-3311.0,-1.946334023345021,2.52302394329761,-86.80587343278192
2026-03-11T20:34:02.420,237143,-119.0,836.0,16497.0,-144.0,12.0,-176.0,1875.0,8839.0,-3288.0,-2.1288607297118762,2.1969716437978035,-86.58319686698798
2026-03-11T20:34:02.428,237153,-1125.0,999.0,14786.0,-123.0,3.0,-170.0,1875.0,8839.0,-3288.0,-1.9140380513397028,2.649804326397929,-86.39403220656065
2026-03-11T20:34:02.439,237163,-745.0,1054.0,16024.0,-131.0,-42.0,-197.0,1885.0,8829.0,-3301.0,-1.8265733719364654,2.315081562336352,-86.4207373289576
2026-03-11T20:34:02.448,237173,39.0,834.0,16916.0,-177.0,-23.0,-238.0,1885.0,8829.0,-3301.0,-2.3127514941701404,1.6416781533808154,-86.71226234495191
2026-03-11T20:34:02.458,237183,-832.0,1110.0,16296.0,-177.0,-7.0,-198.0,1885.0,8835.0,-3304.0,-2.486866015164362,1.840538601938735,-86.63887097452314
2026-03-11T20:34:02.468,237193,-202.0,764.0,15835.0,-162.0,-7.0,-198.0,1885.0,8835.0,-3304.0,-2.7330449834211374,1.562432454607394,-86.55538436083614
2026-03-11T20:34:02.479,237203,-850.0,1157.0,16538.0,-186.0,21.0,-165.0,1878.0,8836.0,-3299.0,-2.8740564829829376,2.0049596546195803,-86.2639366633353
2026-03-11T20:34:02.488,237213,-1135.0,1216.0,15804.0,-175.0,-5.0,-139.0,1878.0,8836.0,-3299.0,-2.819282326703922,2.383109537763915,-85.85183540604653
2026-03-11T20:34:02.498,237223,-689.0,1077.0,16360.0,-108.0,-51.0,-191.0,1871.0,8842.0,-3289.0,-2.366141708408027,1.9797634682990888,-85.92589640236054
2026-03-11T20:34:02.508,237233,-1401.0,1187.0,15042.0,-118.0,-22.0,-207.0,1871.0,8842.0,-3289.0,-1.934514145661971,2.468757918844127,-86.15630248867066
2026-03-11T20:34:02.518,237243,-656.0,1158.0,16882.0,-106.0,-32.0,-156.0,1883.0,8854.0,-3304.0,-1.6108139400416854,2.163019498830672,-85.90373570113904
2026-03-11T20:34:02.528,237253,-761.0,782.0,14550.0,-92.0,-24.0,-153.0,1883.0,8854.0,-3304.0,-1.4093627306467225,2.136350000020086,-85.67891055038272
2026-03-11T20:34:02.538,237263,-587.0,1070.0,16452.0,-128.0,-23.0,-161.0,1876.0,8842.0,-3289.0,-1.4072613650602368,1.9329033064213124,-85.55330858602895
2026-03-11T20:34:02.549,237273,-529.0,1258.0,17702.0,-128.0,-23.0,-161.0,1876.0,8842.0,-3289.0,-1.3368261694230332,1.7038012402032554,-85.43716099904908
2026-03-11T20:34:02.559,237283,-1107.0,1405.0,16921.0,-188.0,-18.0,-169.0,1880.0,8848.0,-3293.0,-1.6241514506939794,1.9650911507537834,-85.41946456908731
2026-03-11T20:34:02.569,237293,-800.0,779.0,14467.0,-165.0,-31.0,-224.0,1880.0,8848.0,-3293.0,-2.0028789202701196,1.9561857712728794,-85.83853456511305
2026-03-11T20:34:02.578,237303,-567.0,1053.0,16393.0,-125.0,-48.0,-218.0,1870.0,8845.0,-3296.0,-1.8672371765797569,1.5763250097980346,-86.11202166766743
2026-03-11T20:34:02.588,237313,-1138.0,1439.0,16944.0,-138.0,-37.0,-174.0,1870.0,8845.0,-3296.0,-1.6269297539075733,1.7307823288829791,-85.99402106027762
2026-03-11T20:34:02.599,237323,-919.0,1134.0,16154.0,-161.0,2.0,-167.0,1877.0,8825.0,-3301.0,-1.786436214443167,2.050239330323009,-85.85084599739469
2026-03-11T20:34:02.609,237333,-275.0,712.0,15518.0,-143.0,-35.0,-201.0,1877.0,8825.0,-3301.0,-2.04774615532465,1.5630286425726565,-85.96806421296098
2026-03-11T20:34:02.618,237343,-590.0,1068.0,16641.0,-120.0,-8.0,-166.0,1870.0,8849.0,-3312.0,-1.8637688893399829,1.5916995005027637,-85.80228118207374
2026-03-11T20:34:02.629,237353,-1538.0,1297.0,15292.0,-90.0,-44.0,-222.0,1870.0,8849.0,-3312.0,-1.2414205867003083,2.065924879658277,-86.16257283730532
2026-03-11T20:34:02.638,237363,-659.0,1017.0,16078.0,-90.0,-44.0,-222.0,1889.0,8840.0,-3286.0,-0.989261862662779,1.7692261745805564,-86.40588366645186
2026-03-11T20:34:02.648,237373,-924.0,1340.0,17117.0,-153.0,-64.0,-174.0,1889.0,8840.0,-3286.0,-1.120158249346428,1.5194813154518436,-86.1962814580151
2026-03-11T20:34:02.661,237383,-798.0,1040.0,15922.0,-134.0,-61.0,-192.0,1878.0,8833.0,-3296.0,-1.2206943231774998,1.3002119021121703,-86.16727696729221
2026-03-11T20:34:02.671,237393,-993.0,849.0,14358.0,-155.0,-70.0,-146.0,1878.0,8833.0,-3296.0,-1.5397544901819396,1.2700500614162686,-85.76875463896701
2026-03-11T20:34:02.679,237403,-720.0,1044.0,15995.0,-142.0,-35.0,-212.0,1877.0,8835.0,-3287.0,-1.6209193663963761,1.2504222311087867,-85.97678283691931
2026-03-11T20:34:02.689,237413,-26.0,1042.0,17727.0,-161.0,-26.0,-204.0,1877.0,8835.0,-3287.0,-1.9119359812447039,0.8091158332245617,-86.04236123806136
2026-03-11T20:34:02.698,237423,-803.0,1117.0,16053.0,-119.0,-18.0,-201.0,1874.0,8838.0,-3293.0,-1.68548079694178,1.0746437540390308,-86.09848205697811
2026-03-11T20:34:02.708,237433,-284.0,1226.0,18016.0,-180.0,9.0,-153.0,1874.0,8838.0,-3293.0,-2.0097823470671785,1.1119227796450795,-85.75675456894683
2026-03-11T20:34:02.719,237443,-784.0,1005.0,15792.0,-180.0,9.0,-183.0,1885.0,8834.0,-3305.0,-2.3195494058754904,1.5288200876663298,-85.73404354283282
2026-03-11T20:34:02.728,237453,-1090.0,1462.0,17239.0,-211.0,-3.0,-183.0,1885.0,8834.0,-3305.0,-2.574134725876181,1.9200593086900102,-85.74047572394558
2026-03-11T20:34:02.738,237463,-529.0,993.0,16256.0,-142.0,-44.0,-173.0,1883.0,8844.0,-3293.0,-2.4961923581932965,1.5561247627733552,-85.64489789126256
2026-03-11T20:34:02.752,237473,-629.0,1331.0,17790.0,-160.0,-37.0,-184.0,1883.0,8844.0,-3293.0,-2.4212049771117483,1.352763990856321,-85.64279478324721
2026-03-11T20:34:02.773,237483,-831.0,1170.0,16513.0,-144.0,-19.0,-167.0,1885.0,8850.0,-3293.0,-2.2783999304070766,1.5049571037788763,-85.51771076800185
2026-03-11T20:34:02.784,237493,-1606.0,1339.0,15520.0,-161.0,-1.0,-195.0,1885.0,8850.0,-3293.0,-2.124514513490628,2.3732041803470585,-85.70811954053627
2026-03-11T20:34:02.784,237503,-497.0,1040.0,16604.0,-98.0,-36.0,-167.0,1886.0,8833.0,-3300.0,-1.766797966303303,1.9527924157509975,-85.60589453796685
2026-03-11T20:34:02.788,237513,-1018.0,936.0,14998.0,-158.0,-41.0,-177.0,1886.0,8833.0,-3300.0,-1.9632179789200226,2.0093378144663725,-85.60508271055019
2026-03-11T20:34:02.798,237523,-551.0,1060.0,16577.0,-162.0,-2.0,-193.0,1877.0,8836.0,-3285.0,-2.134826150512551,1.9714434881252743,-85.73843988489571
2026-03-11T20:34:02.808,237533,-1239.0,1378.0,16468.0,-162.0,-2.0,-193.0,1877.0,8836.0,-3285.0,-2.047216772888405,2.4186982693706307,-85.87954880354766
2026-03-11T20:34:02.822,237543,-510.0,1028.0,16566.0,-168.0,-3.0,-159.0,1879.0,8841.0,-3294.0,-2.2715883231547123,2.2629515453555946,-85.70436069178771
2026-03-11T20:34:02.829,237553,-806.0,874.0,14851.0,-167.0,-57.0,-158.0,1879.0,8841.0,-3294.0,-2.479661900848969,1.9745969861463668,-85.531421851082
2026-03-11T20:34:02.839,237563,-820.0,1076.0,15870.0,-139.0,-37.0,-134.0,1882.0,8836.0,-3291.0,-2.3199758906105834,1.8738913703998734,-85.19113324289212
2026-03-11T20:34:02.848,237573,-366.0,1275.0,18082.0,-141.0,-37.0,-177.0,1882.0,8836.0,-3291.0,-2.1773065825168914,1.434453383303758,-85.23300470322738
2026-03-11T20:34:02.873,237583,-939.0,1194.0,16184.0,-145.0,-56.0,-183.0,1887.0,8838.0,-3301.0,-2.057956928439444,1.3618854030473455,-85.30560477076406
2026-03-11T20:34:02.882,237593,-455.0,807.0,15417.0,-136.0,-8.0,-224.0,1887.0,8838.0,-3301.0,-2.1350850959086207,1.3631408556440257,-85.69048477960949
2026-03-11T20:34:02.882,237603,-765.0,1139.0,16495.0,-195.0,2.0,-187.0,1877.0,8827.0,-3292.0,-2.4780533171180688,1.6363215505281175,-85.72625441555095
2026-03-11T20:34:02.888,237613,-1493.0,1246.0,15286.0,-195.0,-33.0,-181.0,1877.0,8827.0,-3292.0,-2.610438786783251,2.157081537407201,-85.74311718990843
2026-03-11T20:34:02.899,237623,-845.0,983.0,15674.0,-119.0,-33.0,-181.0,1889.0,8840.0,-3296.0,-2.3226263485619763,2.0776337450833497,-85.74382429310323
2026-03-11T20:34:02.908,237633,-592.0,1300.0,17920.0,-144.0,7.0,-177.0,1889.0,8840.0,-3296.0,-2.1802544207124006,2.095539632295237,-85.71608061321844
2026-03-11T20:34:02.918,237643,-973.0,1080.0,15798.0,-133.0,-21.0,-157.0,1880.0,8837.0,-3309.0,-2.026037272531101,2.2116743330734296,-85.55613222901131
2026-03-11T20:34:02.929,237653,-269.0,921.0,16612.0,-150.0,-48.0,-148.0,1880.0,8837.0,-3309.0,-2.1861627711672957,1.570598205322667,-85.30606617213722
2026-03-11T20:34:02.939,237663,-899.0,1051.0,15685.0,-133.0,-58.0,-156.0,1876.0,8841.0,-3288.0,-2.0462361490153986,1.4470879632917804,-85.1688586925567
2026-03-11T20:34:02.948,237673,-282.0,1185.0,17912.0,-142.0,-40.0,-161.0,1876.0,8841.0,-3288.0,-2.0159913211267577,1.0176708310046265,-85.06828377835696
2026-03-11T20:34:02.958,237683,-984.0,1166.0,16146.0,-154.0,8.0,-179.0,1889.0,8845.0,-3302.0,-2.018692414108415,1.5738322210179523,-85.15736329250777
2026-03-11T20:34:02.969,237693,-641.0,1159.0,16717.0,-176.0,-1.0,-205.0,1889.0,8845.0,-3302.0,-2.2297528080354843,1.6891921074481782,-85.44159116487411
2026-03-11T20:34:02.978,237703,-546.0,1101.0,16742.0,-176.0,-1.0,-205.0,1884.0,8833.0,-3310.0,-2.4393001581919433,1.7161294053153278,-85.6708481671642
2026-03-11T20:34:02.988,237713,-508.0,1073.0,16646.0,-179.0,5.0,-163.0,1884.0,8833.0,-3310.0,-2.6458042520689107,1.7617801243722342,-85.51811197266088
2026-03-11T20:34:02.999,237723,-724.0,1025.0,16042.0,-149.0,-42.0,-163.0,1876.0,8830.0,-3295.0,-2.577457151676501,1.5891923042217972,-85.39331893097322
2026-03-11T20:34:03.009,237733,-400.0,1161.0,17560.0,-116.0,-55.0,-165.0,1876.0,8830.0,-3295.0,-2.2334312623414543,1.091768952227766,-85.27881388489874
2026-03-11T20:34:03.018,237743,92.0,275.0,16057.0,-94.0,-96.0,-422.0,1867.0,8847.0,-3291.0,-2.3425091114433085,0.039769260761199285,-87.18091853971426
2026-03-11T20:34:03.029,237753,158.0,928.0,17943.0,-126.0,-217.0,-2452.0,1867.0,8847.0,-3291.0,-2.28987497079099,-1.8049527665346696,-104.81240556851213
2026-03-11T20:34:03.039,237763,-1351.0,1192.0,15572.0,-120.0,-275.0,-3722.0,1821.0,8893.0,-3302.0,-1.9164358017784213,-2.6551470641140846,-129.09433627200406
2026-03-11T20:34:03.049,237773,1.0,853.0,16547.0,-88.0,-252.0,-3604.0,1821.0,8893.0,-3302.0,-1.6469500967543407,-4.14080925462095,-147.47855886295673
2026-03-11T20:34:03.072,237783,-645.0,892.0,15921.0,-85.0,-256.0,-4059.0,1771.0,8924.0,-3289.0,-1.3562126712581195,-4.897387449276684,-165.85151407660925
2026-03-11T20:34:03.076,237793,348.0,841.0,17244.0,-85.0,-256.0,-4059.0,1771.0,8924.0,-3289.0,-1.206542850933029,-6.196860595691556,-180.46635534245047
2026-03-11T20:34:03.079,237803,409.0,1421.0,15956.0,-95.0,-345.0,-4992.0,1675.0,8981.0,-3279.0,-0.707396790286106,-8.0099994187199,-199.64724932091232
2026-03-11T20:34:03.089,237813,-28.0,1489.0,16861.0,-50.0,-405.0,-6288.0,1675.0,8981.0,-3279.0,0.043425661534024496,-9.629043825845518,-297.2697638657984
2026-03-11T20:34:03.098,237823,-223.0,1178.0,16309.0,-49.0,-443.0,-6532.0,1591.0,9042.0,-3279.0,0.469001090176131,-11.090965898421599,-377.3531553246995
2026-03-11T20:34:03.108,237833,-1069.0,1251.0,15286.0,-79.0,-422.0,-5939.0,1591.0,9042.0,-3279.0,0.6789281521833237,-11.45135638643417,-436.6570147900042
2026-03-11T20:34:03.119,237843,-516.0,1458.0,16096.0,-59.0,-429.0,-5798.0,1511.0,9089.0,-3278.0,1.1063051722284658,-12.227353545510983,-483.0381412031657
2026-03-11T20:34:03.129,237853,-125.0,1429.0,17815.0,-75.0,-459.0,-5955.0,1511.0,9089.0,-3278.0,1.2022570815247033,-13.373737723421913,-521.3322431593147
2026-03-11T20:34:03.138,237863,-351.0,1355.0,16031.0,-101.0,-473.0,-6399.0,1430.0,9113.0,-3260.0,1.1200795880251504,-14.233022189846004,-555.5731320504324
2026-03-11T20:34:03.148,237873,-119.0,983.0,17060.0,-101.0,-473.0,-6510.0,1430.0,9113.0,-3260.0,0.7476128400004945,-15.09061942426316,-655.7993712077424
2026-03-11T20:34:03.163,237883,-205.0,1147.0,15562.0,-112.0,-506.0,-6510.0,1319.0,9183.0,-3260.0,0.5451649628847911,-15.969959791399942,-736.0734954484665
2026-03-11T20:34:03.173,237893,-167.0,1366.0,17830.0,-117.0,-456.0,-6435.0,1319.0,9183.0,-3260.0,0.37633438393263957,-16.316955380422307,-799.6708145021515
2026-03-11T20:34:03.179,237903,-687.0,1145.0,15577.0,-112.0,-434.0,-6039.0,1236.0,9242.0,-3251.0,0.24586990336700865,-16.021860074849492,-847.5088504305887
2026-03-11T20:34:03.189,237913,594.0,882.0,17738.0,-95.0,-421.0,-5948.0,1236.0,9242.0,-3251.0,0.00601930585682775,-16.568609394926547,-885.0169963633355
2026-03-11T20:34:03.198,237923,-586.0,711.0,16434.0,-111.0,-492.0,-6526.0,1125.0,9306.0,-3250.0,-0.3877250107120014,-16.782833861966232,-919.772642319301
2026-03-11T20:34:12.173,246895,-6229.0,-21845.0,-6229.0,-161.0,-79.0,-201.0,1380.0,-32768.0,-2230.0,-22.781230716926515,-10.99137885936273,-936.0842173609446
2026-03-11T20:34:12.183,246905,-6229.0,-21845.0,-6229.0,-161.0,-79.0,-938.0,1871.0,-32768.0,-3805.0,-40.696035281898126,-6.358214857279926,-955.330934298248
2026-03-11T20:34:12.191,246915,-6229.0,-21845.0,-6229.0,-147.0,-83.0,-938.0,1871.0,-32768.0,-3805.0,-54.91587893387542,-2.6836836556136836,-970.8381055443052
2026-03-11T20:34:12.201,246925,-6229.0,-21845.0,-6229.0,-112.0,-129.0,-1908.0,1913.0,-32768.0,-3796.0,-66.01175385545724,-0.1120586942806896,-991.2397665907649
2026-03-11T20:34:12.210,246935,-6229.0,-21845.0,-6229.0,-204.0,-226.0,-3143.0,1913.0,-32768.0,-3796.0,-75.62445379272272,1.1692412747857057,-1017.8964825842669
2026-03-11T20:34:12.220,246945,-6229.0,-21845.0,-6229.0,-182.0,-344.0,-4162.0,2001.0,-32768.0,-3803.0,-83.13861374253509,1.250281250038822,-1048.398541317789
2026-03-11T20:34:12.232,246955,-6229.0,-21845.0,-6229.0,-286.0,-277.0,-4133.0,2001.0,-32768.0,-3803.0,-89.98194170238499,1.8511132302413151,-1074.9509488626097
2026-03-11T20:34:12.244,246965,-6229.0,-21845.0,-6229.0,-238.0,-246.0,-3740.0,2050.0,-32768.0,-3794.0,-95.0726040702649,2.57977881440331,-1100.4156136433173
2026-03-11T20:34:12.250,246975,-6229.0,-21845.0,-6229.0,-166.0,-270.0,-3814.0,2050.0,-32768.0,-3794.0,-98.56913396456883,2.970711281732905,-1132.668349987106
2026-03-11T20:34:12.260,246985,-6229.0,-21845.0,-6229.0,-209.0,-263.0,-3304.0,2124.0,-32768.0,-3788.0,-101.710357880012,3.3394572555965816,-1159.785964552908
2026-03-11T20:34:12.271,246995,-6229.0,-21845.0,-6229.0,-209.0,-263.0,-3304.0,2124.0,-32768.0,-3788.0,-104.22333701236653,3.634454034687523,-1183.4953324492926
2026-03-11T20:34:12.282,247005,-6229.0,-21845.0,-6229.0,-171.0,-223.0,-2623.0,2172.0,-32768.0,-3782.0,-105.92972031825013,4.190451457960276,-1197.7954595295407
2026-03-11T20:34:12.290,247015,-6229.0,-21845.0,-6229.0,-197.0,-176.0,-2605.0,2172.0,-32768.0,-3782.0,-107.50282696295703,5.011249396578479,-1209.7209116922745
2026-03-11T20:34:12.300,247025,-6229.0,-21845.0,-6229.0,-139.0,-206.0,-2924.0,2238.0,-32768.0,-3785.0,-108.29731227872254,5.42788774747304,-1221.9629966161792
2026-03-11T20:34:12.310,247035,-6229.0,-21845.0,-6229.0,-80.0,-221.0,-3235.0,2238.0,-32768.0,-3785.0,-108.46090053133496,5.64119842818869,-1234.3081293383134
2026-03-11T20:34:12.321,247045,-6229.0,-21845.0,-6229.0,-66.0,-245.0,-3237.0,2291.0,-32768.0,-3796.0,-108.47977113342489,5.619846972761209,-1244.112972770766
2026-03-11T20:34:12.330,247055,-6229.0,-21845.0,-6229.0,-24.0,-268.0,-3452.0,2291.0,-32768.0,-3796.0,-108.15886761509682,5.418765808419225,-1253.5705667966402
2026-03-11T20:34:12.340,247065,-6229.0,-21845.0,-6229.0,-37.0,-275.0,-3743.0,2377.0,-32768.0,-3797.0,-108.00614480043438,5.201900876945638,-1263.254864333085
2026-03-11T20:34:12.351,247075,-6229.0,-21845.0,-6229.0,-37.0,-313.0,-3956.0,2377.0,-32768.0,-3797.0,-107.88396654870444,4.724408931766768,-1272.623394966523
2026-03-11T20:34:12.360,247085,-6229.0,-21845.0,-6229.0,-46.0,-313.0,-3956.0,2442.0,-32768.0,-3795.0,-107.85822394732047,4.3424153756236725,-1279.9657052235113
2026-03-11T20:34:12.370,247095,-6229.0,-21845.0,-6229.0,-107.0,-340.0,-4245.0,2442.0,-32768.0,-3795.0,-108.32562986621329,3.8208205307091956,-1288.2470209054577
2026-03-11T20:34:12.380,247105,-6229.0,-21845.0,-6229.0,-150.0,-357.0,-4484.0,2524.0,-32768.0,-3787.0,-109.04355460132756,3.267544654777614,-1368.8169925650486
2026-03-11T20:34:12.391,247115,-6229.0,-21845.0,-6229.0,-148.0,-311.0,-4556.0,2524.0,-32768.0,-3787.0,-109.60189438941897,3.1929239540323486,-1433.9903292325857
2026-03-11T20:34:12.400,247125,-6229.0,-21845.0,-6229.0,-146.0,-333.0,-4376.0,2566.0,-32768.0,-3767.0,-110.03256621989209,2.9572273934361366,-1484.724153180708
2026-03-11T20:34:12.410,247135,-6229.0,-21845.0,-6229.0,-109.0,-258.0,-3856.0,2566.0,-32768.0,-3767.0,-110.0811036842706,3.3686701449591667,-1521.1947496976622
2026-03-11T20:34:12.420,247145,-6229.0,-21845.0,-6229.0,-57.0,-261.0,-3574.0,2640.0,-32768.0,-3770.0,-109.7039336557734,3.6738243461775912,-1547.9395130501043
2026-03-11T20:34:12.431,247155,-6229.0,-21845.0,-6229.0,-16.0,-269.0,-3564.0,2640.0,-32768.0,-3770.0,-109.07419763297564,3.8539477071523307,-1569.0999093643889
2026-03-11T20:34:12.440,247165,-6229.0,-21845.0,-6229.0,-16.0,-269.0,-3564.0,2699.0,-32768.0,-3774.0,-108.57040881473743,3.998046395932122,-1585.7996366096913
2026-03-11T20:34:12.450,247175,-6229.0,-21845.0,-6229.0,-47.0,-293.0,-3776.0,2699.0,-32768.0,-3774.0,-108.41537776014687,3.921325346955955,-1600.8004184671158
2026-03-11T20:34:12.460,247185,-6229.0,-21845.0,-6229.0,-43.0,-291.0,-3896.0,2762.0,-32768.0,-3769.0,-108.25935291647443,3.8759485077750213,-1613.6103328250363
2026-03-11T20:34:12.471,247195,-6229.0,-21845.0,-6229.0,-29.0,-255.0,-3528.0,2762.0,-32768.0,-3769.0,-108.02253304153646,4.127647036430274,-1620.8548978641522
2026-03-11T20:34:12.483,247205,-6229.0,-21845.0,-6229.0,-108.0,-196.0,-2840.0,2808.0,-32768.0,-3775.0,-108.4650771415861,4.801005859354477,-1621.2745888837344
2026-03-11T20:34:12.491,247215,-6229.0,-21845.0,-6229.0,-100.0,-132.0,-2085.0,2808.0,-32768.0,-3775.0,-108.7551124216258,5.851692917693839,-1615.7499315854734
2026-03-11T20:34:12.502,247225,-6229.0,-21845.0,-6229.0,-60.0,-114.0,-1342.0,2809.0,-32768.0,-3767.0,-108.66714064565755,6.836242564365328,-1605.4457744176675
2026-03-11T20:34:12.510,247235,-6229.0,-21845.0,-6229.0,-78.0,-70.0,-627.0,2809.0,-32768.0,-3767.0,-108.74076322488297,7.97588228170252,-1591.6072880206643
2026-03-11T20:34:12.521,247245,-6229.0,-21845.0,-6229.0,-81.0,-32.0,-477.0,2848.0,-32768.0,-3765.0,-108.8236612882633,9.191594055572274,-1579.4118664656319
2026-03-11T20:34:12.532,247255,-6229.0,-21845.0,-6229.0,-81.0,-32.0,-477.0,2848.0,-32768.0,-3765.0,-108.88997973896755,10.164163474668076,-1569.767877291904
2026-03-11T20:34:12.540,247265,-6229.0,-21845.0,-6229.0,-112.0,-51.0,-374.0,2836.0,-32768.0,-3785.0,-109.19103449953097,10.790219009944717,-1561.3893288700888
2026-03-11T20:34:12.569,247275,-6229.0,-21845.0,-6229.0,-137.0,-10.0,-253.0,2836.0,-32768.0,-3785.0,-109.63187830798171,11.619063438166034,-1553.9138142210963
2026-03-11T20:34:12.571,247285,-6229.0,-21845.0,-6229.0,-145.0,-21.0,-49.0,2821.0,-32768.0,-3774.0,-110.0485533547423,12.194138980743084,-1546.4804938535847
2026-03-11T20:34:12.571,247295,-6229.0,-21845.0,-6229.0,-122.0,10.0,-64.0,2821.0,-32768.0,-3774.0,-110.19789339215076,12.902199414804723,-1540.7566080177733
2026-03-11T20:34:12.582,247305,-6229.0,-21845.0,-6229.0,-136.0,-24.0,6.0,2832.0,-32768.0,-3752.0,-110.42936542207752,13.196647762054038,-1535.6795824961098
2026-03-11T20:34:12.593,247315,-6229.0,-21845.0,-6229.0,-166.0,-31.0,160.0,2832.0,-32768.0,-3752.0,-110.85454304601893,13.376206439853487,-1530.4893562097488
2026-03-11T20:34:12.601,247325,-6229.0,-21845.0,-6229.0,-186.0,-46.0,212.0,2826.0,-32768.0,-3767.0,-111.35468514517207,13.399853382093045,-1526.0267142767188
2026-03-11T20:34:12.610,247335,-6229.0,-21845.0,-6229.0,-186.0,-46.0,429.0,2826.0,-32768.0,-3767.0,-111.75479882449457,13.418770935884694,-1520.7932774932422
2026-03-11T20:34:12.620,247345,-6229.0,-21845.0,-6229.0,-149.0,-3.0,429.0,2833.0,-32768.0,-3766.0,-111.77888976795258,13.777904978918013,-1516.6340131046338
2026-03-11T20:34:12.630,247355,-6229.0,-21845.0,-6229.0,-162.0,40.0,572.0,2833.0,-32768.0,-3766.0,-111.90216252271898,14.40921221334467,-1512.24163204592
2026-03-11T20:34:12.640,247365,-6229.0,-21845.0,-6229.0,-146.0,12.0,516.0,2790.0,-32768.0,-3782.0,-111.8727807265321,14.690258000885994,-1509.2571155755513
2026-03-11T20:34:12.654,247375,-6229.0,-21845.0,-6229.0,-146.0,29.0,271.0,2790.0,-32768.0,-3782.0,-111.8492752895826,15.051094630919053,-1508.8599427694169
2026-03-11T20:34:12.660,247385,-6229.0,-21845.0,-6229.0,-105.0,-22.0,29.0,2792.0,-32768.0,-3776.0,-111.50247094002299,14.9317639349455,-1510.4068874401762
2026-03-11T20:34:12.670,247395,-6229.0,-21845.0,-6229.0,-172.0,-53.0,-157.0,2792.0,-32768.0,-3776.0,-111.76102746037532,14.58829937816666,-1513.14238364361
2026-03-11T20:34:12.680,247405,-6229.0,-21845.0,-6229.0,-136.0,-9.0,-187.0,2802.0,-32768.0,-3779.0,-111.67987267665717,14.665527732743588,-1515.5511781100815
2026-03-11T20:34:12.692,247415,-6229.0,-21845.0,-6229.0,-130.0,-49.0,-152.0,2802.0,-32768.0,-3779.0,-111.56694884968266,14.407310416405128,-1517.1547006301819
2026-03-11T20:34:12.702,247425,-6229.0,-21845.0,-6229.0,-130.0,-49.0,-152.0,2781.0,-32768.0,-3753.0,-111.47660978810305,14.20073656333436,-1518.4301970814931
2026-03-11T20:34:12.710,247435,-6229.0,-21845.0,-6229.0,-176.0,-30.0,-157.0,2781.0,-32768.0,-3753.0,-111.77233853883936,14.187477480877746,-1519.538789407562
2026-03-11T20:34:12.721,247445,-6229.0,-21845.0,-6229.0,-143.0,-46.0,-189.0,2812.0,-32768.0,-3769.0,-111.74492153942842,14.048870214912455,-1520.6226837655254
2026-03-11T20:34:12.732,247455,-6229.0,-21845.0,-6229.0,-155.0,-41.0,-194.0,2812.0,-32768.0,-3769.0,-111.81898793989966,13.977984402140223,-1521.5356342221887
2026-03-11T20:34:12.741,247465,-6229.0,-21845.0,-6229.0,-180.0,-25.0,-137.0,2795.0,-32768.0,-3769.0,-112.07824106027664,14.049275751922437,-1521.8818824138534
2026-03-11T20:34:12.750,247475,-6229.0,-21845.0,-6229.0,-163.0,-17.0,-148.0,2795.0,-32768.0,-3769.0,-112.14964355657823,14.170308831748208,-1522.2692540612543
2026-03-11T20:34:12.761,247485,-6229.0,-21845.0,-6229.0,-146.0,-14.0,-146.0,2801.0,-32768.0,-3769.0,-112.0707655536195,14.291135295608825,-1522.5537072302748
2026-03-11T20:34:12.770,247495,-6229.0,-21845.0,-6229.0,-121.0,-76.0,-205.0,2801.0,-32768.0,-3769.0,-111.80766315125251,13.891796466697318,-1523.1736212349851
2026-03-11T20:34:12.781,247505,-6229.0,-21845.0,-6229.0,-121.0,-43.0,-211.0,2788.0,-32768.0,-3778.0,-111.59718122935892,13.836325403568114,-1523.6952387469203
2026-03-11T20:34:12.790,247515,-6229.0,-21845.0,-6229.0,-210.0,-43.0,-211.0,2788.0,-32768.0,-3778.0,-112.14079569184406,13.79194855306475,-1524.1979704895466
2026-03-11T20:34:12.800,247525,-6229.0,-21845.0,-6229.0,-180.0,-16.0,-190.0,2778.0,-32768.0,-3768.0,-112.33568726183216,13.972447072662057,-1524.491565581152
2026-03-11T20:34:12.810,247535,-6229.0,-21845.0,-6229.0,-130.0,-30.0,-208.0,2778.0,-32768.0,-3768.0,-112.09160051782266,14.004845888339904,-1524.8354479803809
2026-03-11T20:34:12.820,247545,-6229.0,-21845.0,-6229.0,-156.0,-13.0,-196.0,2781.0,-32768.0,-3766.0,-112.10433112261505,14.166764940882182,-1525.0272109099405
2026-03-11T20:34:12.830,247555,-6229.0,-21845.0,-6229.0,-168.0,-41.0,-192.0,2781.0,-32768.0,-3766.0,-112.21051560644896,14.072300182916003,-1525.156584959011
2026-03-11T20:34:12.840,247565,-6229.0,-21845.0,-6229.0,-157.0,-42.0,-190.0,2797.0,-32768.0,-3775.0,-112.20746319351609,13.988728376543062,-1525.2152844924087
2026-03-11T20:34:12.850,247575,-6229.0,-21845.0,-6229.0,-127.0,-46.0,-173.0,2797.0,-32768.0,-3775.0,-111.96502126316979,13.889870931444708,-1525.0784009167019
2026-03-11T20:34:12.861,247585,-6229.0,-21845.0,-6229.0,-130.0,-37.0,-146.0,2792.0,-32768.0,-3757.0,-111.79506771889275,13.882784975366025,-1524.7301066419857
2026-03-11T20:34:12.871,247595,-6229.0,-21845.0,-6229.0,-130.0,-37.0,-146.0,2792.0,-32768.0,-3757.0,-111.65910488347112,13.877116210503079,-1524.4281708783942
2026-03-11T20:34:12.880,247605,-6229.0,-21845.0,-6229.0,-126.0,-10.0,-177.0,2786.0,-32768.0,-3769.0,-111.51833461513382,14.088581198612722,-1524.4394687642243
2026-03-11T20:34:12.892,247615,-6229.0,-21845.0,-6229.0,-98.0,-40.0,-183.0,2786.0,-32768.0,-3769.0,-111.18171840046398,14.017753189100436,-1524.4307928812905
2026-03-11T20:34:12.902,247625,-6229.0,-21845.0,-6229.0,-116.0,-18.0,-235.0,2806.0,-32768.0,-3767.0,-111.0564254287281,14.137090781490606,-1524.7998530807956
2026-03-11T20:34:12.910,247635,-6229.0,-21845.0,-6229.0,-112.0,-59.0,-409.0,2806.0,-32768.0,-3767.0,-110.9241910513394,13.904560855402742,-1526.4398958694242
2026-03-11T20:34:12.921,247645,-6229.0,-21845.0,-6229.0,-150.0,-121.0,-395.0,2820.0,-32768.0,-3766.0,-111.12240354942844,13.222536914532451,-1527.591912287917
2026-03-11T20:34:12.930,247655,-6229.0,-21845.0,-6229.0,-161.0,-57.0,-364.0,2820.0,-32768.0,-3766.0,-111.36897354789967,13.188917761836219,-1528.3080995867974
2026-03-11T20:34:12.941,247665,-6229.0,-21845.0,-6229.0,-142.0,-40.0,-294.0,2819.0,-32768.0,-3771.0,-111.41422954667667,13.298022439679233,-1528.3409131951657
2026-03-11T20:34:12.951,247675,-6229.0,-21845.0,-6229.0,-149.0,-76.0,-432.0,2819.0,-32768.0,-3771.0,-111.50643434569825,13.097306181953645,-1529.4691625427554
2026-03-11T20:34:12.963,247685,-6229.0,-21845.0,-6229.0,-149.0,-76.0,-432.0,2821.0,-32768.0,-3775.0,-111.58019818491552,12.936733175773174,-1530.3674978094666
2026-03-11T20:34:12.970,247695,-6229.0,-21845.0,-6229.0,-138.0,-84.0,-637.0,2821.0,-32768.0,-3775.0,-111.55120925628933,12.744274770828799,-1532.7033556114802
2026-03-11T20:34:12.980,247705,-6229.0,-21845.0,-6229.0,-156.0,-71.0,-452.0,2836.0,-32768.0,-3774.0,-111.67201811338839,12.694308046873296,-1533.0885507248195
2026-03-11T20:34:12.991,247715,-6229.0,-21845.0,-6229.0,-178.0,-70.0,-597.0,2836.0,-32768.0,-3774.0,-111.94466519906763,12.662334667708894,-1534.6017701133826
2026-03-11T20:34:13.018,247725,-6229.0,-21845.0,-6229.0,-154.0,-77.0,-542.0,2814.0,-32768.0,-3773.0,-111.97078286761104,12.580755964377374,-1535.3991486764141
2026-03-11T20:34:13.018,247735,-6229.0,-21845.0,-6229.0,-165.0,-66.0,-620.0,2814.0,-32768.0,-3773.0,-112.07967700244575,12.603493001712156,-1536.6815050333453
2026-03-11T20:34:13.020,247745,-6229.0,-21845.0,-6229.0,-114.0,-89.0,-594.0,2822.0,-32768.0,-3763.0,-111.75879231031352,12.437682631579982,-1537.4185317912454
2026-03-11T20:34:13.034,247755,-6229.0,-21845.0,-6229.0,-127.0,-40.0,-371.0,2822.0,-32768.0,-3763.0,-111.60608455660774,12.697034335474243,-1536.2203090217251
2026-03-11T20:34:13.040,247765,-6229.0,-21845.0,-6229.0,-127.0,-40.0,-241.0,2831.0,-32768.0,-3760.0,-111.4839183536431,12.904515698589652,-1534.2061172515578
2026-03-11T20:34:13.050,247775,-6229.0,-21845.0,-6229.0,-150.0,-48.0,-241.0,2831.0,-32768.0,-3760.0,-111.57018539127141,13.00650078908198,-1532.6196479134485
2026-03-11T20:34:13.068,247785,-6229.0,-21845.0,-6229.0,-181.0,-63.0,-154.0,2835.0,-32768.0,-3761.0,-111.88719902137404,12.968088861475842,-1530.7012405337439
2026-03-11T20:34:13.072,247795,-6229.0,-21845.0,-6229.0,-165.0,-18.0,-223.0,2835.0,-32768.0,-3761.0,-112.01280992545617,13.297359319390932,-1529.769399831755
2026-03-11T20:34:13.080,247805,-6229.0,-21845.0,-6229.0,-167.0,-48.0,-157.0,2830.0,-32768.0,-3773.0,-112.12929864872186,13.320775685723003,-1528.524502671517
2026-03-11T20:34:13.094,247815,-6229.0,-21845.0,-6229.0,-144.0,-29.0,-187.0,2830.0,-32768.0,-3773.0,-112.0384896273344,13.49150877878866,-1527.768928397385
2026-03-11T20:34:13.104,247825,-6229.0,-21845.0,-6229.0,-183.0,-34.0,-170.0,2826.0,-32768.0,-3763.0,-112.27784241022444,13.588095253241185,-1527.0810718965581
2026-03-11T20:34:13.114,247835,-6229.0,-21845.0,-6229.0,-156.0,-15.0,-176.0,2826.0,-32768.0,-3763.0,-112.25332463653648,13.817364432803206,-1526.5953878088483
2026-03-11T20:34:13.120,247845,-6229.0,-21845.0,-6229.0,-135.0,-18.0,-196.0,2836.0,-32768.0,-3765.0,-112.0657104175861,13.976779776452823,-1526.3377149716407
2026-03-11T20:34:13.131,247855,-6229.0,-21845.0,-6229.0,-135.0,-18.0,-196.0,2836.0,-32768.0,-3765.0,-111.9156190424258,14.104312051372517,-1526.1185033690301
2026-03-11T20:34:13.140,247865,-6229.0,-21845.0,-6229.0,-174.0,-57.0,-611.0,2845.0,-32768.0,-3774.0,-112.10754594229756,13.89433787130827,-1529.2639556197016
2026-03-11T20:34:13.151,247875,-6229.0,-21845.0,-6229.0,-148.0,-98.0,-1240.0,2845.0,-32768.0,-3774.0,-112.05308746219498,13.398358527256875,-1536.7584017433728
2026-03-11T20:34:13.160,247885,-6229.0,-21845.0,-6229.0,-130.0,-86.0,-760.0,2851.0,-32768.0,-3765.0,-111.8655206781129,13.09757505201576,-1538.846541853896
2026-03-11T20:34:13.170,247895,-6229.0,-21845.0,-6229.0,-163.0,-52.0,-409.0,2851.0,-32768.0,-3765.0,-111.97946725084724,13.128948271822868,-1537.731493881187
2026-03-11T20:34:13.180,247905,-6229.0,-21845.0,-6229.0,-179.0,-63.0,-230.0,2853.0,-32768.0,-3774.0,-112.19862450903472,13.066046847668552,-1535.4363608255464
2026-03-11T20:34:13.191,247915,-6229.0,-21845.0,-6229.0,-151.0,-49.0,-334.0,2853.0,-32768.0,-3774.0,-112.1499503155847,13.1277257083451,-1534.429606868516
2026-03-11T20:34:13.200,247925,-6229.0,-21845.0,-6229.0,-121.0,-62.0,-875.0,2862.0,-32768.0,-3774.0,-111.87101096082468,13.07306879688634,-1537.8875059052389
2026-03-11T20:34:13.210,247935,-6229.0,-21845.0,-6229.0,-121.0,-70.0,-1078.0,2862.0,-32768.0,-3774.0,-111.64785947701665,12.96534326771933,-1542.2284276024716
2026-03-11T20:34:13.220,247945,-6229.0,-21845.0,-6229.0,-144.0,-70.0,-1078.0,2871.0,-32768.0,-3768.0,-111.65333828997024,12.879162844385721,-1545.6819332153268
2026-03-11T20:34:13.230,247955,-6229.0,-21845.0,-6229.0,-161.0,-80.0,-1083.0,2871.0,-32768.0,-3768.0,-111.79372134033311,12.730218505718835,-1548.4966285893813
2026-03-11T20:34:13.255,247965,-6229.0,-21845.0,-6229.0,-129.0,-74.0,-1084.0,2895.0,-32768.0,-3774.0,-111.65002778062342,12.659063034785326,-1550.6910806930177
2026-03-11T20:34:13.255,247975,-6229.0,-21845.0,-6229.0,-142.0,-74.0,-1268.0,2895.0,-32768.0,-3774.0,-111.63907293285565,12.60213865803852,-1553.9114917180825
2026-03-11T20:34:13.261,247985,-6229.0,-21845.0,-6229.0,-146.0,-170.0,-1877.0,2930.0,-32768.0,-3758.0,-111.66230905464144,11.788599156641073,-1561.244779863126
2026-03-11T20:34:13.270,247995,-6229.0,-21845.0,-6229.0,-114.0,-116.0,-2111.0,2930.0,-32768.0,-3758.0,-111.42489795207007,11.569767555523118,-1568.9180432019573
2026-03-11T20:34:13.280,248005,-6229.0,-21845.0,-6229.0,-112.0,-37.0,-848.0,2940.0,-32768.0,-3763.0,-111.21896907001297,12.026702274628754,-1564.9376666107744
2026-03-11T20:34:13.291,248015,-6229.0,-21845.0,-6229.0,-145.0,-25.0,-280.0,2940.0,-32768.0,-3763.0,-111.3182259643673,12.488250049913262,-1557.2708371896856
2026-03-11T20:34:13.300,248025,-6229.0,-21845.0,-6229.0,-145.0,-25.0,-280.0,2923.0,-32768.0,-3764.0,-111.39763147985076,12.857488270140866,-1551.2101132965465
2026-03-11T20:34:13.311,248035,-6229.0,-21845.0,-6229.0,-173.0,-16.0,-164.0,2923.0,-32768.0,-3764.0,-111.68515589223753,13.224878846322952,-1545.5210100864108
2026-03-11T20:34:13.320,248045,-6229.0,-21845.0,-6229.0,-151.0,-46.0,-107.0,2949.0,-32768.0,-3760.0,-111.73917542214696,13.27879130726862,-1540.4929079899655
2026-03-11T20:34:13.330,248055,-6229.0,-21845.0,-6229.0,-165.0,-26.0,-193.0,2949.0,-32768.0,-3760.0,-111.89439104607449,13.481921276025155,-1537.204936247685
2026-03-11T20:34:13.341,248065,-6229.0,-21845.0,-6229.0,-162.0,-25.0,-183.0,2951.0,-32768.0,-3754.0,-111.99456354521652,13.652425251030383,-1534.5248475809615
2026-03-11T20:34:13.351,248075,-6229.0,-21845.0,-6229.0,-132.0,-71.0,-170.0,2951.0,-32768.0,-3754.0,-111.83470154453013,13.420828431034565,-1532.2274208534639
2026-03-11T20:34:13.360,248085,-6229.0,-21845.0,-6229.0,-164.0,-94.0,-180.0,2946.0,-32768.0,-3754.0,-111.96281194398102,13.051550975037909,-1530.4664691991968
2026-03-11T20:34:13.371,248095,-6229.0,-21845.0,-6229.0,-168.0,-66.0,-188.0,2946.0,-32768.0,-3754.0,-112.09730026354174,12.980129010240585,-1529.1393785873074
2026-03-11T20:34:13.381,248105,-6229.0,-21845.0,-6229.0,-150.0,-61.0,-217.0,2928.0,-32768.0,-3754.0,-112.06089091919031,12.962991438402728,-1528.3257869440883
2026-03-11T20:34:13.391,248115,-6229.0,-21845.0,-6229.0,-150.0,-61.0,-217.0,2928.0,-32768.0,-3754.0,-112.03176344370917,12.94928138093244,-1527.668568144609
2026-03-11T20:34:13.402,248125,-6229.0,-21845.0,-6229.0,-173.0,-35.0,-165.0,2943.0,-32768.0,-3763.0,-112.19246146332426,13.146313334956211,-1526.7523880180793
2026-03-11T20:34:13.414,248135,-6229.0,-21845.0,-6229.0,-200.0,-67.0,-171.0,2943.0,-32768.0,-3763.0,-112.53701987901633,13.047938898175229,-1526.1174943863998
2026-03-11T20:34:13.423,248145,-6229.0,-21845.0,-6229.0,-200.0,-6.0,-156.0,2925.0,-32768.0,-3772.0,-112.81266661156998,13.457239348750441,-1525.59299497202
2026-03-11T20:34:13.430,248155,-6229.0,-21845.0,-6229.0,-180.0,0.0,-175.0,2925.0,-32768.0,-3772.0,-112.8731839976129,13.832679709210613,-1525.3673110988102
2026-03-11T20:34:13.441,248165,-6229.0,-21845.0,-6229.0,-140.0,-11.0,-181.0,2959.0,-32768.0,-3762.0,-112.60159790644724,14.04503199757875,-1525.1659453676466
2026-03-11T20:34:13.450,248175,-6229.0,-21845.0,-6229.0,-97.0,-24.0,-201.0,2959.0,-32768.0,-3762.0,-112.04032903351471,14.110913828273258,-1525.076442326013
2026-03-11T20:34:13.461,248185,-6229.0,-21845.0,-6229.0,-133.0,-23.0,-165.0,2938.0,-32768.0,-3755.0,-111.87931393516868,14.171619292828865,-1524.7223355190506
2026-03-11T20:34:13.474,248195,-6229.0,-21845.0,-6229.0,-133.0,-23.0,-159.0,2938.0,-32768.0,-3755.0,-111.75050185649187,14.22018366447335,-1524.372704011766
2026-03-11T20:34:13.480,248205,-6229.0,-21845.0,-6229.0,-197.0,2.0,-159.0,2940.0,-32768.0,-3761.0,-112.15945219355041,14.459035161788936,-1524.183248791005
2026-03-11T20:34:13.490,248215,-6229.0,-21845.0,-6229.0,-169.0,0.0,-183.0,2940.0,-32768.0,-3761.0,-112.26261246319724,14.634116359641407,-1524.2567483839573
2026-03-11T20:34:13.505,248225,-6229.0,-21845.0,-6229.0,-161.0,-18.0,-163.0,2936.0,-32768.0,-3761.0,-112.28114067891471,14.630181317923384,-1524.163560667439
2026-03-11T20:34:13.528,248235,-6229.0,-21845.0,-6229.0,-156.0,-23.0,-186.0,2936.0,-32768.0,-3761.0,-112.2559632514887,14.587033284548966,-1524.2649559607125
2026-03-11T20:34:13.533,248245,-6229.0,-21845.0,-6229.0,-111.0,-43.0,-178.0,2933.0,-32768.0,-3767.0,-111.87582130954787,14.39251485784943,-1524.2041901623923
2026-03-11T20:34:13.533,248255,-6229.0,-21845.0,-6229.0,-94.0,-41.0,-186.0,2933.0,-32768.0,-3767.0,-111.43570775599522,14.252900116489801,-1524.1273248691607
2026-03-11T20:34:13.540,248265,-6229.0,-21845.0,-6229.0,-91.0,-35.0,-152.0,2935.0,-32768.0,-3773.0,-111.05961691315309,14.189208323402099,-1523.7132271435214
2026-03-11T20:34:13.551,248275,-6229.0,-21845.0,-6229.0,-131.0,-26.0,-145.0,2935.0,-32768.0,-3773.0,-111.0787442388794,14.210254888931939,-1523.3317272716304
2026-03-11T20:34:13.560,248285,-6229.0,-21845.0,-6229.0,-131.0,-26.0,-145.0,2931.0,-32768.0,-3752.0,-111.09404609946044,14.227092141355808,-1523.0362650446784
2026-03-11T20:34:13.586,248295,-6229.0,-21845.0,-6229.0,-136.0,-3.0,-179.0,2931.0,-32768.0,-3752.0,-111.14628758792527,14.424561943294904,-1523.100848967473
2026-03-11T20:34:13.595,248305,-6229.0,-21845.0,-6229.0,-113.0,-4.0,-166.0,2946.0,-32768.0,-3757.0,-111.00408077869713,14.574537784846182,-1523.0139097272795
2026-03-11T20:34:13.595,248315,-6229.0,-21845.0,-6229.0,-132.0,-16.0,-159.0,2946.0,-32768.0,-3757.0,-111.04231533131463,14.598518458087202,-1522.898178657789
2026-03-11T20:34:13.601,248325,-6229.0,-21845.0,-6229.0,-123.0,-25.0,-164.0,2940.0,-32768.0,-3756.0,-111.00090297340863,14.54570299668002,-1522.8409973888724
2026-03-11T20:34:13.635,248335,-6229.0,-21845.0,-6229.0,-182.0,-15.0,-232.0,2940.0,-32768.0,-3756.0,-111.43977308708382,14.583450627554274,-1523.4264100133148
2026-03-11T20:34:13.656,248345,-6229.0,-21845.0,-6229.0,-189.0,-59.0,-226.0,2932.0,-32768.0,-3763.0,-111.84686917802398,14.26164873225368,-1523.9013984928608
2026-03-11T20:34:13.656,248355,-6229.0,-21845.0,-6229.0,-185.0,-23.0,-195.0,2932.0,-32768.0,-3763.0,-112.1405460507761,14.2922072160132,-1524.0867069767191
2026-03-11T20:34:13.692,248365,-6229.0,-21845.0,-6229.0,-185.0,-38.0,-188.0,2926.0,-32768.0,-3778.0,-112.37548754897779,14.196654003020818,-1524.2181464014393
2026-03-11T20:34:13.698,248375,-6229.0,-21845.0,-6229.0,-169.0,-38.0,-188.0,2926.0,-32768.0,-3778.0,-112.43544074753915,14.120211432626913,-1524.3262315059526
2026-03-11T20:34:13.698,248385,-6229.0,-21845.0,-6229.0,-144.0,-56.0,-157.0,2946.0,-32768.0,-3752.0,-112.28340330638824,13.91505737631179,-1524.0936665638762
2026-03-11T20:34:13.698,248395,-6229.0,-21845.0,-6229.0,-114.0,-67.0,-186.0,2946.0,-32768.0,-3752.0,-111.92177335346751,13.66293413125969,-1524.054580965823
2026-03-11T20:34:13.698,248405,-6229.0,-21845.0,-6229.0,-93.0,-24.0,-203.0,2946.0,-32768.0,-3763.0,-111.46446939113093,13.80523553521801,-1524.0888653163188
2026-03-11T20:34:13.698,248415,-6229.0,-21845.0,-6229.0,-139.0,-33.0,-213.0,2946.0,-32768.0,-3763.0,-111.46662622126166,13.847076658384665,-1524.2005818240905
2026-03-11T20:34:13.700,248425,-6229.0,-21845.0,-6229.0,-170.0,-45.0,-194.0,2945.0,-32768.0,-3758.0,-111.71635168536625,13.784549556917991,-1524.179697491349
2026-03-11T20:34:13.711,248435,-6229.0,-21845.0,-6229.0,-192.0,-37.0,-223.0,2945.0,-32768.0,-3758.0,-112.09213205664992,13.79852787574465,-1524.4629642028585
2026-03-11T20:34:13.721,248445,-6229.0,-21845.0,-6229.0,-153.0,-8.0,-175.0,2945.0,-32768.0,-3758.0,-112.08075635367686,14.041710530805979,-1524.3254629945457
2026-03-11T20:34:13.730,248455,-6229.0,-21845.0,-6229.0,-153.0,-8.0,-175.0,2945.0,-32768.0,-3758.0,-112.07165579129841,14.23625665485504,-1524.2314796747125
2026-03-11T20:34:13.741,248465,-6229.0,-21845.0,-6229.0,-152.0,-45.0,-142.0,2932.0,-32768.0,-3761.0,-112.05637534139565,14.095893554094292,-1523.8945756682226
2026-03-11T20:34:13.751,248475,-6229.0,-21845.0,-6229.0,-155.0,-57.0,-182.0,2932.0,-32768.0,-3761.0,-112.06815098147344,13.887603073485693,-1523.9282650815337
2026-03-11T20:34:13.760,248485,-6229.0,-21845.0,-6229.0,-115.0,-27.0,-133.0,2946.0,-32768.0,-3756.0,-111.75757149353568,13.960970688998813,-1523.4960026919327
2026-03-11T20:34:13.771,248495,-6229.0,-21845.0,-6229.0,-119.0,-32.0,-218.0,2946.0,-32768.0,-3756.0,-111.54110790318546,13.979664781409308,-1523.7923253931951
2026-03-11T20:34:13.780,248505,-6229.0,-21845.0,-6229.0,-127.0,-39.0,-204.0,2926.0,-32768.0,-3772.0,-111.43193703090529,13.938620055337704,-1523.9215854439976
2026-03-11T20:34:13.791,248515,-6229.0,-21845.0,-6229.0,-158.0,7.0,-194.0,2926.0,-32768.0,-3772.0,-111.59260033308115,14.273784274480423,-1524.0059765820906
2026-03-11T20:34:13.801,248525,-6229.0,-21845.0,-6229.0,-161.0,-27.0,-240.0,2942.0,-32768.0,-3742.0,-111.74513097482185,14.269915649794598,-1524.4451908869983
2026-03-11T20:34:13.811,248535,-6229.0,-21845.0,-6229.0,-100.0,-58.0,-142.0,2942.0,-32768.0,-3742.0,-111.3791554882144,14.018820750045936,-1523.9221928363409
2026-03-11T20:34:13.822,248545,-6229.0,-21845.0,-6229.0,-100.0,-58.0,-142.0,2945.0,-32768.0,-3760.0,-111.08637509892844,13.817944830247008,-1523.4243758719058
2026-03-11T20:34:13.833,248555,-6229.0,-21845.0,-6229.0,-134.0,-64.0,-192.0,2945.0,-32768.0,-3760.0,-111.12415078749967,13.609244094407863,-1523.4139510927332
2026-03-11T20:34:13.840,248565,-6229.0,-21845.0,-6229.0,-126.0,-39.0,-122.0,2920.0,-32768.0,-3777.0,-111.09037133835666,13.642283505736547,-1522.8779236469336
2026-03-11T20:34:13.851,248575,-6229.0,-21845.0,-6229.0,-127.0,-65.0,-166.0,2920.0,-32768.0,-3777.0,-111.07134777904224,13.460715034799495,-1522.7801209450363
2026-03-11T20:34:13.861,248585,-6229.0,-21845.0,-6229.0,-136.0,-21.0,-176.0,2951.0,-32768.0,-3777.0,-111.12812893159071,13.667460258049854,-1522.768363507118
2026-03-11T20:34:13.870,248595,-6229.0,-21845.0,-6229.0,-168.0,-59.0,-171.0,2951.0,-32768.0,-3777.0,-111.4295538536295,13.528856436650141,-1522.764844163593
2026-03-11T20:34:13.893,248605,-6229.0,-21845.0,-6229.0,-134.0,-51.0,-210.0,2949.0,-32768.0,-3749.0,-111.39869379126053,13.48197337953037,-1523.0663549956957
2026-03-11T20:34:13.919,248615,-6229.0,-21845.0,-6229.0,-100.0,-43.0,-176.0,2949.0,-32768.0,-3749.0,-111.10200574136535,13.508466933834555,-1522.9799527578464
2026-03-11T20:34:13.921,248625,-6229.0,-21845.0,-6229.0,-100.0,-43.0,-177.0,2929.0,-32768.0,-3753.0,-110.8646553014492,13.529661777277902,-1522.901615210614
2026-03-11T20:34:13.921,248635,-6229.0,-21845.0,-6229.0,-68.0,-33.0,-177.0,2929.0,-32768.0,-3753.0,-110.41877494951629,13.626617652032579,-1522.7542227530055
2026-03-11T20:34:13.921,248645,-6229.0,-21845.0,-6229.0,-111.0,-8.0,-184.0,2949.0,-32768.0,-3761.0,-110.40607066796996,13.904182351836322,-1522.6866840563848
2026-03-11T20:34:13.930,248655,-6229.0,-21845.0,-6229.0,-152.0,-23.0,-205.0,2949.0,-32768.0,-3761.0,-110.72390724273288,14.006234111679316,-1522.8784978007805
