pc_time,serial_num,sensor_ts,host_ts,ax,ay,az,gx,gy,gz,mx,my,mz,phase,rpe,weight_kg,ppg_a,ppg_b,ppg_c,ppg_d,ppg_e
2026-04-08 22:04:08.275197,402709,1609505020431470,2620397798,-1.104832,-0.085888,-0.210816,-19.78375,6.15125,2.45875,32.952,-14.248001,-15.608001,none,4,3.0,25125.0,166553.0,252525.0,296727.0,272215.0
2026-04-08 22:04:08.276899,402710,1609505020445920,2620412661,-1.071648,-0.080032,-0.148352,-18.6025,5.6,2.38875,33.0,-14.536,-15.432001,none,4,3.0,25125.0,166553.0,252525.0,296727.0,272215.0
2026-04-08 22:04:08.280673,402711,1609505020454826,2620421335,-1.071648,-0.080032,-0.148352,-14.16625,5.3025,1.49625,33.0,-14.536,-15.432001,none,4,3.0,25125.0,166553.0,252525.0,296727.0,272215.0
2026-04-08 22:04:08.282762,402712,1609505020469298,2620436199,-1.100928,-0.066368,-0.08784,-10.45625,5.38125,0.46375,33.024002,-14.712001,-15.160001,none,4,3.0,25125.0,166553.0,252525.0,296727.0,272215.0
2026-04-08 22:04:08.318583,402723,1609505020478256,2620444889,-1.100928,-0.066368,-0.08784,-10.29,6.4575,0.0875,33.024002,-14.712001,-15.160001,none,4,3.0,25106.0,166478.0,252471.0,296695.0,272191.0
2026-04-08 22:04:08.320159,402724,1609505020487627,2620453589,-1.06384,-0.101504,-0.17568,-11.1475,6.125,0.315,33.296,-14.800001,-15.488001,none,4,3.0,25106.0,166478.0,252471.0,296695.0,272191.0
2026-04-08 22:04:08.324407,402725,1609505020502244,2620468492,-1.108736,-0.050752,-0.15616,-10.70125,6.1425,0.5075,33.296,-12.752001,-14.928,none,4,3.0,25106.0,166478.0,252471.0,296695.0,272191.0
2026-04-08 22:04:08.326118,402726,1609505020511155,2620477208,-1.108736,-0.050752,-0.15616,-8.42625,6.615,0.6125,32.984,-14.296001,-14.928,none,4,3.0,25106.0,166478.0,252471.0,296695.0,272191.0
2026-04-08 22:04:08.328567,402727,1609505020525640,2620492119,-1.098976,-0.064416,-0.163968,-5.18875,7.34125,-0.175,33.224003,-14.52,-15.104001,none,4,3.0,25106.0,166478.0,252471.0,296695.0,272191.0
2026-04-08 22:04:08.330192,402728,1609505020534572,2620500809,-1.098976,-0.064416,-0.163968,-1.60125,7.8925,-1.4175,33.224003,-14.52,-15.104001,none,4,3.0,25106.0,166478.0,252471.0,296695.0,272191.0
2026-04-08 22:04:08.361293,402729,1609505020549069,2620515652,-1.071648,-0.091744,-0.158112,0.4725,8.015,-2.00375,33.0,-14.576001,-14.232,none,4,3.0,25106.0,166478.0,252471.0,296695.0,272191.0
2026-04-08 22:04:08.365669,402730,1609505020558059,2620524313,-1.071648,-0.091744,-0.158112,-1.365,7.8575,-1.72375,33.0,-14.576001,-14.232,none,4,3.0,25106.0,166478.0,252471.0,296695.0,272191.0
2026-04-08 22:04:08.368089,402731,1609505020566995,2620532968,-1.065792,-0.06832,-0.072224,-3.64875,7.62125,1.16375,33.0,-14.544001,-15.544001,none,4,3.0,25106.0,166478.0,252471.0,296695.0,272191.0
2026-04-08 22:04:08.397831,402742,1609505020581593,2620547986,-1.065792,-0.06832,-0.072224,-3.1325,7.9975,3.115,33.0,-14.544001,-15.544001,none,4,3.0,25025.0,166184.0,252195.0,296540.0,272138.0
2026-04-08 22:04:08.401906,402743,1609505020590761,2620556656,-1.120448,-0.064416,-0.261568,-3.255,8.68875,1.42625,32.944,-14.576001,-15.512001,none,4,3.0,25025.0,166184.0,252195.0,296540.0,272138.0
2026-04-08 22:04:08.404340,402744,1609505020605254,2620571538,-1.056032,-0.046848,-0.037088,-1.2075,8.26875,1.6625,32.632,-14.688001,-14.776001,none,4,3.0,25025.0,166184.0,252195.0,296540.0,272138.0
2026-04-08 22:04:08.408064,402745,1609505020614153,2620580226,-1.056032,-0.046848,-0.037088,1.47,8.84625,2.03,32.632,-14.688001,-14.776001,none,4,3.0,25025.0,166184.0,252195.0,296540.0,272138.0
2026-04-08 22:04:08.436594,402746,1609505020628677,2620595126,-1.075552,-0.099552,-0.122976,3.15875,9.10875,0.3325,32.824,-14.376,-15.416,none,4,3.0,25025.0,166184.0,252195.0,296540.0,272138.0
2026-04-08 22:04:08.441127,402747,1609505020637610,2620603787,-1.075552,-0.099552,-0.122976,0.98,8.155,-0.9975,32.824,-14.376,-15.416,none,4,3.0,25025.0,166184.0,252195.0,296540.0,272138.0
2026-04-08 22:04:08.442667,402748,1609505020646523,2620612448,-1.059936,-0.06832,-0.12688,-2.37125,7.455,-1.2775,33.032,-14.568001,-16.048,none,4,3.0,25025.0,166184.0,252195.0,296540.0,272138.0
2026-04-08 22:04:08.473712,402749,1609505020660999,2620627302,-1.059936,-0.06832,-0.12688,-2.89625,7.83125,-0.8575,33.032,-14.568001,-16.048,none,4,3.0,25025.0,166184.0,252195.0,296540.0,272138.0
2026-04-08 22:04:08.478298,402750,1609505020669901,2620635930,-1.079456,-0.060512,-0.150304,-2.79125,8.67125,-0.46375,32.248,-14.656001,-15.336,none,4,3.0,25025.0,166184.0,252195.0,296540.0,272138.0
2026-04-08 22:04:08.505443,402761,1609505020684544,2620651294,-1.087264,-0.052704,-0.13664,-1.715,9.05625,-1.715,32.944,-14.744,-14.896001,none,4,3.0,24962.0,165849.0,251781.0,296251.0,271976.0
2026-04-08 22:04:08.506428,402762,1609505020693491,2620659968,-1.087264,-0.052704,-0.13664,1.68875,8.86375,-1.5925,32.944,-14.744,-14.896001,none,4,3.0,24962.0,165849.0,251781.0,296251.0,271976.0
2026-04-08 22:04:08.510676,402763,1609505020708051,2620674879,-1.079456,-0.072224,-0.154208,5.76625,8.82,-1.4175,32.904003,-14.392001,-15.584001,none,4,3.0,24962.0,165849.0,251781.0,296251.0,271976.0
2026-04-08 22:04:08.513142,402764,1609505020717000,2620683595,-1.079456,-0.072224,-0.154208,7.41125,9.14375,-1.05875,32.904003,-14.392001,-15.584001,none,4,3.0,24962.0,165849.0,251781.0,296251.0,271976.0
2026-04-08 22:04:08.518834,402765,1609505020725967,2620692313,-1.077504,-0.060512,-0.179584,6.76375,8.32125,-0.2975,32.656002,-14.112,-15.320001,none,4,3.0,24962.0,165849.0,251781.0,296251.0,271976.0
2026-04-08 22:04:08.597653,402766,1609505020740457,2620707252,-1.077504,-0.060512,-0.179584,6.405,7.84,-0.07875,32.656002,-14.112,-15.320001,none,4,3.0,24962.0,165849.0,251781.0,296251.0,271976.0
2026-04-08 22:04:08.599833,402767,1609505020749385,2620715917,-1.067744,-0.02928,-0.128832,8.6625,7.77,-1.05,32.800003,-14.64,-15.888001,none,4,3.0,24962.0,165849.0,251781.0,296251.0,271976.0
2026-04-08 22:04:08.604493,402768,1609505020763855,2620730768,-1.067744,-0.072224,-0.171776,10.50875,7.44625,-0.72625,32.800003,-14.64,-15.888001,none,4,3.0,24962.0,165849.0,251781.0,296251.0,271976.0
2026-04-08 22:04:08.606251,402769,1609505020772775,2620739441,-1.0736,-0.072224,-0.171776,9.87875,7.58625,-0.77,32.936,-14.336,-15.808001,none,4,3.0,24962.0,165849.0,251781.0,296251.0,271976.0
2026-04-08 22:04:08.633653,402780,1609505020787299,2620754343,-1.098976,-0.080032,-0.21472,5.635,7.49875,-1.37375,33.064003,-14.288001,-15.992001,none,4,3.0,24947.0,165798.0,251703.0,296198.0,271954.0
2026-04-08 22:04:08.636136,402781,1609505020796212,2620762999,-1.098976,-0.080032,-0.21472,2.35375,6.615,-1.77625,33.064003,-14.288001,-15.992001,none,4,3.0,24947.0,165798.0,251703.0,296198.0,271954.0
2026-04-08 22:04:08.637723,402782,1609505020805120,2620771638,-1.087264,-0.056608,-0.206912,2.91375,5.94125,-1.89875,32.624,-14.496,-16.16,none,4,3.0,24947.0,165798.0,251703.0,296198.0,271954.0
2026-04-08 22:04:08.641964,402783,1609505020819687,2620786518,-1.087264,-0.056608,-0.206912,4.97,5.9675,-1.5575,32.624,-14.496,-16.16,none,4,3.0,24947.0,165798.0,251703.0,296198.0,271954.0
2026-04-08 22:04:08.643672,402784,1609505020828826,2620795228,-1.071648,-0.037088,-0.197152,6.265,6.72,-0.95375,32.664,-14.192,-16.112001,none,4,3.0,24947.0,165798.0,251703.0,296198.0,271954.0
2026-04-08 22:04:08.645242,402785,1609505020843479,2620810216,-1.071648,-0.037088,-0.197152,6.2475,6.57125,-1.4525,32.664,-14.192,-16.112001,none,4,3.0,24947.0,165798.0,251703.0,296198.0,271954.0
2026-04-08 22:04:08.649277,402786,1609505020852374,2620818899,-1.059936,-0.081984,-0.206912,5.53875,5.6,-2.65125,32.800003,-14.344001,-16.064001,none,4,3.0,24947.0,165798.0,251703.0,296198.0,271954.0
2026-04-08 22:04:08.655552,402787,1609505020861303,2620827584,-1.059936,-0.081984,-0.206912,1.72375,4.655,-2.80875,32.800003,-14.344001,-16.064001,none,4,3.0,24947.0,165798.0,251703.0,296198.0,271954.0
2026-04-08 22:04:08.684178,402788,1609505020875807,2620842452,-1.075552,-0.101504,-0.199104,-2.1,3.9375,-2.24,32.56,-14.200001,-16.256,none,4,3.0,24947.0,165798.0,251703.0,296198.0,271954.0
2026-04-08 22:04:08.713585,402799,1609505020884874,2620851154,-1.075552,-0.040992,-0.1464,-1.74125,3.4825,-1.95125,32.56,-14.200001,-16.2,none,4,3.0,24961.0,165820.0,251747.0,296235.0,271965.0
2026-04-08 22:04:08.715201,402800,1609505020899381,2620866039,-1.069696,-0.040992,-0.1464,1.855,3.4475,-1.14625,32.672,-14.024001,-16.2,none,4,3.0,24961.0,165820.0,251747.0,296235.0,271965.0
2026-04-08 22:04:08.719475,402801,1609505020908348,2620874712,-1.085312,-0.066368,-0.271328,4.92625,2.9225,-1.68,32.72,-14.080001,-15.976001,none,4,3.0,24961.0,165820.0,251747.0,296235.0,271965.0
2026-04-08 22:04:08.721963,402802,1609505020922876,2620889664,-1.085312,-0.066368,-0.271328,4.50625,1.91625,-2.6425,32.72,-14.080001,-15.976001,none,4,3.0,24961.0,165820.0,251747.0,296235.0,271965.0
2026-04-08 22:04:08.726464,402803,1609505020931796,2620898384,-1.077504,-0.07808,-0.142496,-1.295,1.12875,-3.17625,32.528,-13.976001,-15.464001,none,4,3.0,24961.0,165820.0,251747.0,296235.0,271965.0
2026-04-08 22:04:08.734311,402804,1609505020940806,2620907063,-1.077504,-0.07808,-0.142496,-5.67,0.07875,-3.01,32.528,-13.976001,-15.464001,none,4,3.0,24961.0,165820.0,251747.0,296235.0,271965.0
2026-04-08 22:04:08.762849,402805,1609505020955273,2620921932,-1.077504,-0.070272,-0.212768,-6.37,-0.30625,-1.5225,32.800003,-14.456,-16.488,none,4,3.0,24961.0,165820.0,251747.0,296235.0,271965.0
2026-04-08 22:04:08.767271,402806,1609505020964167,2620930585,-1.077504,-0.070272,-0.212768,-3.6225,-0.1575,-0.70875,32.800003,-14.456,-16.488,none,4,3.0,24961.0,165820.0,251747.0,296235.0,271965.0
2026-04-08 22:04:08.773042,402807,1609505020978631,2620945453,-1.040416,-0.044896,-0.158112,1.07625,-0.42,-0.4725,32.376003,-14.368001,-15.448001,none,4,3.0,24961.0,165820.0,251747.0,296235.0,271965.0
2026-04-08 22:04:08.808979,402819,1609505020987618,2620954179,-1.079456,-0.037088,-0.162016,3.3075,-0.37625,-0.79625,32.640003,-14.040001,-15.856001,none,4,3.0,24913.0,165733.0,251682.0,296228.0,271982.0
2026-04-08 22:04:08.813214,402820,1609505021002163,2620969050,-1.079456,-0.037088,-0.162016,-0.315,-0.3675,-1.09375,32.640003,-14.040001,-15.856001,none,4,3.0,24913.0,165733.0,251682.0,296228.0,271982.0
2026-04-08 22:04:08.814845,402821,1609505021011112,2620977864,-1.091168,-0.093696,-0.201056,-3.5875,-1.3825,-2.3625,32.416,-14.400001,-15.104001,none,4,3.0,24913.0,165733.0,251682.0,296228.0,271982.0
2026-04-08 22:04:08.816427,402822,1609505021020115,2620986562,-1.091168,-0.093696,-0.201056,-7.00875,-2.59875,-1.95125,32.416,-14.400001,-15.104001,none,4,3.0,24913.0,165733.0,251682.0,296228.0,271982.0
2026-04-08 22:04:08.873018,402823,1609505021034599,2621001426,-1.091168,-0.05856,-0.179584,-10.10625,-3.675,-1.6275,32.72,-14.168,-16.544,none,4,3.0,24913.0,165733.0,251682.0,296228.0,271982.0
2026-04-08 22:04:08.876359,402824,1609505021043506,2621010140,-1.091168,-0.05856,-0.179584,-8.05,-3.255,-1.49625,32.72,-14.168,-16.544,none,4,3.0,24913.0,165733.0,251682.0,296228.0,271982.0
2026-04-08 22:04:08.878911,402825,1609505021057993,2621025018,-1.020896,-0.03904,-0.12688,-4.54125,-2.59,-0.245,32.576,-14.656001,-17.240002,none,4,3.0,24913.0,165733.0,251682.0,296228.0,271982.0
2026-04-08 22:04:08.881465,402826,1609505021066918,2621033676,-1.08336,0.0,-0.189344,-2.1,-1.575,0.8575,32.576,-14.456,-18.84,none,4,3.0,24913.0,165733.0,251682.0,296228.0,271982.0
2026-04-08 22:04:08.908877,402837,1609505021081395,2621048541,-1.08336,0.0,-0.189344,-2.03,-1.39125,0.735,32.576,-14.456,-18.84,none,4,3.0,24918.0,165745.0,251727.0,296239.0,271978.0
2026-04-08 22:04:08.911357,402838,1609505021090769,2621057224,-1.075552,-0.081984,-0.22448,-2.485,-1.89875,-0.63,32.72,-14.352,-16.28,none,4,3.0,24918.0,165745.0,251727.0,296239.0,271978.0
2026-04-08 22:04:08.913854,402839,1609505021099812,2621065955,-1.075552,-0.081984,-0.22448,-2.835,-2.2925,-2.345,32.72,-14.352,-16.28,none,4,3.0,24918.0,165745.0,251727.0,296239.0,271978.0
2026-04-08 22:04:08.916381,402840,1609505021114373,2621080902,-1.097024,-0.113216,-0.148352,-7.42875,-2.4675,-2.96625,32.592003,-14.160001,-15.280001,none,4,3.0,24918.0,165745.0,251727.0,296239.0,271978.0
2026-04-08 22:04:08.918881,402841,1609505021123289,2621089598,-1.097024,-0.113216,-0.148352,-9.948751,-3.255,-3.64,32.592003,-14.160001,-15.280001,none,4,3.0,24918.0,165745.0,251727.0,296239.0,271978.0
2026-04-08 22:04:08.950228,402842,1609505021137793,2621104465,-1.100928,-0.066368,-0.171776,-7.88375,-3.80625,-4.13,32.216003,-14.656001,-15.440001,none,4,3.0,24918.0,165745.0,251727.0,296239.0,271978.0
2026-04-08 22:04:08.952663,402843,1609505021146744,2621113156,-1.04432,-0.011712,-0.150304,-4.4625,-3.73625,-3.24625,32.216003,-14.584001,-12.888001,none,4,3.0,24918.0,165745.0,251727.0,296239.0,271978.0
2026-04-08 22:04:08.955167,402844,1609505021155634,2621121812,-1.04432,-0.011712,-0.150304,-3.63125,-3.96375,-2.4675,32.552002,-14.584001,-12.888001,none,4,3.0,24918.0,165745.0,251727.0,296239.0,271978.0
2026-04-08 22:04:08.985355,402845,1609505021170122,2621136737,-1.067744,-0.02928,-0.074176,-7.91,-3.15875,2.17875,32.896,-14.512001,-15.896001,none,4,3.0,24918.0,165745.0,251727.0,296239.0,271978.0
2026-04-08 22:04:08.989025,402846,1609505021179070,2621145422,-1.067744,-0.02928,-0.074176,-10.99875,-2.84375,-1.47,32.896,-14.512001,-15.896001,none,4,3.0,24918.0,165745.0,251727.0,296239.0,271978.0
2026-04-08 22:04:09.020143,402857,1609505021193593,2621160315,-1.05408,-0.054656,-0.11712,-7.21,-2.9225,-4.3225,32.752003,-14.312,-16.016,none,4,3.0,24915.0,165686.0,251634.0,296197.0,271962.0
2026-04-08 22:04:09.022750,402858,1609505021202493,2621169013,-1.05408,-0.054656,-0.11712,-0.04375,-3.54375,-2.1525,32.752003,-14.312,-16.016,none,4,3.0,24915.0,165686.0,251634.0,296197.0,271962.0
2026-04-08 22:04:09.025127,402859,1609505021216973,2621183892,-1.059936,-0.06832,-0.15616,3.815,-2.4325,-0.0175,32.576,-14.216001,-15.096001,none,4,3.0,24915.0,165686.0,251634.0,296197.0,271962.0
2026-04-08 22:04:09.027692,402860,1609505021225999,2621192569,-1.059936,-0.06832,-0.15616,3.9725,-1.04125,-0.4025,32.576,-14.216001,-15.096001,none,4,3.0,24915.0,165686.0,251634.0,296197.0,271962.0
2026-04-08 22:04:09.030270,402861,1609505021234983,2621201305,-1.069696,-0.062464,-0.191296,1.8725,-0.35,-0.02625,32.648003,-14.448001,-16.528,none,4,3.0,24915.0,165686.0,251634.0,296197.0,271962.0
2026-04-08 22:04:09.060414,402862,1609505021249552,2621216209,-1.100928,-0.02928,-0.210816,1.2775,-0.105,0.525,32.52,-14.152,-15.952001,none,4,3.0,24915.0,165686.0,251634.0,296197.0,271962.0
2026-04-08 22:04:09.065311,402863,1609505021258508,2621224878,-1.100928,-0.02928,-0.210816,2.03,-0.72625,0.1925,32.52,-14.152,-15.952001,none,4,3.0,24915.0,165686.0,251634.0,296197.0,271962.0
2026-04-08 22:04:09.066667,402864,1609505021272974,2621239733,-1.075552,-0.05856,-0.142496,2.75625,-0.3675,-1.35625,32.232002,-14.624001,-16.232,none,4,3.0,24915.0,165686.0,251634.0,296197.0,271962.0
2026-04-08 22:04:09.101408,402875,1609505021281974,2621248452,-1.075552,-0.05856,-0.142496,-0.06125,-0.09625,-2.09125,32.232002,-14.624001,-16.232,none,4,3.0,24884.0,165474.0,251336.0,295959.0,271839.0
2026-04-08 22:04:09.103921,402876,1609505021296479,2621263423,-1.067744,-0.08784,-0.134688,-3.9025,-1.0325,-2.91375,32.304,-14.376,-16.176,none,4,3.0,24884.0,165474.0,251336.0,295959.0,271839.0
2026-04-08 22:04:09.106440,402877,1609505021305463,2621272147,-1.067744,-0.08784,-0.134688,-7.70875,-1.05875,-3.92,32.304,-14.376,-16.176,none,4,3.0,24884.0,165474.0,251336.0,295959.0,271839.0
2026-04-08 22:04:09.108953,402878,1609505021314459,2621280885,-1.06384,-0.054656,-0.1464,-8.23375,-0.385,-3.82375,32.392002,-14.672001,-15.952001,none,4,3.0,24884.0,165474.0,251336.0,295959.0,271839.0
2026-04-08 22:04:09.139129,402879,1609505021328927,2621295803,-1.05408,-0.046848,-0.187392,-6.09875,-0.76125,-3.5,32.632,-14.176001,-15.216001,none,4,3.0,24884.0,165474.0,251336.0,295959.0,271839.0
2026-04-08 22:04:09.175488,402880,1609505021337845,2621304477,-1.05408,-0.046848,-0.187392,-5.43375,-0.46375,-3.56125,32.632,-14.176001,-15.216001,none,4,3.0,24884.0,165474.0,251336.0,295959.0,271839.0
2026-04-08 22:04:09.178963,402881,1609505021352340,2621319334,-1.052128,-0.040992,-0.134688,-7.70875,-0.07875,-2.835,32.576,-14.528001,-16.256,none,4,3.0,24884.0,165474.0,251336.0,295959.0,271839.0
2026-04-08 22:04:09.181432,402882,1609505021361261,2621328013,-1.052128,-0.040992,-0.134688,-8.925,-0.23625,-3.255,32.576,-14.528001,-16.256,none,4,3.0,24884.0,165474.0,251336.0,295959.0,271839.0
2026-04-08 22:04:09.183957,402883,1609505021375746,2621340892,-1.071648,-0.076128,-0.191296,-7.77,-1.085,-4.24375,32.736,-14.408001,-16.408,none,4,3.0,24884.0,165474.0,251336.0,295959.0,271839.0
2026-04-08 22:04:09.211443,402894,1609505021385461,2621351669,-1.071648,-0.076128,-0.191296,-5.36375,-1.98625,-4.0075,32.736,-14.408001,-16.408,none,4,3.0,24869.0,165424.0,251309.0,295971.0,271832.0
2026-04-08 22:04:09.213963,402895,1609505021394510,2621360317,-1.077504,-0.072224,-0.181536,-2.82625,-1.79375,-4.235,32.392002,-14.416,-16.208,none,4,3.0,24869.0,165424.0,251309.0,295971.0,271832.0
2026-04-08 22:04:09.216409,402896,1609505021409022,2621375244,-1.095072,-0.035136,-0.162016,0.14,-1.33875,-4.0775,32.872,-14.328001,-15.880001,none,4,3.0,24869.0,165424.0,251309.0,295971.0,271832.0
2026-04-08 22:04:09.219165,402897,1609505021417967,2621383991,-1.095072,-0.035136,-0.162016,2.065,-1.365,-3.08,32.872,-14.328001,-15.880001,none,4,3.0,24869.0,165424.0,251309.0,295971.0,271832.0
2026-04-08 22:04:09.226209,402898,1609505021432455,2621398870,-1.079456,-0.027328,-0.183488,2.345,-2.2925,-2.4325,32.608,-14.624001,-15.392001,none,4,3.0,24869.0,165424.0,251309.0,295971.0,271832.0
2026-04-08 22:04:09.255427,402899,1609505021441439,2621407528,-1.079456,-0.027328,-0.183488,3.2025,-2.45,-2.28375,32.608,-14.624001,-15.392001,none,4,3.0,24869.0,165424.0,251309.0,295971.0,271832.0
2026-04-08 22:04:09.258942,402900,1609505021450351,2621416175,-1.08336,-0.052704,-0.130784,3.3075,-2.30125,-3.12375,32.936,-14.224001,-14.056001,none,4,3.0,24869.0,165424.0,251309.0,295971.0,271832.0
2026-04-08 22:04:09.261442,402901,1609505021464810,2621431118,-1.08336,-0.052704,-0.130784,1.3475,-2.40625,-3.9025,32.936,-14.224001,-14.056001,none,4,3.0,24869.0,165424.0,251309.0,295971.0,271832.0
2026-04-08 22:04:09.265208,402902,1609505021473751,2621439778,-1.128256,-0.099552,-0.304512,-0.7525,-2.17875,-4.68125,32.952,-14.544001,-16.064001,none,4,3.0,24869.0,165424.0,251309.0,295971.0,271832.0
2026-04-08 22:04:09.324007,402913,1609505021488355,2621454685,-1.128256,-0.099552,-0.304512,-4.3575,-2.2925,-5.145,32.952,-14.544001,-16.064001,none,4,3.0,24869.0,165461.0,251330.0,295981.0,271877.0
2026-04-08 22:04:09.326394,402914,1609505021497265,2621463351,-1.087264,-0.066368,-0.187392,-5.355,-2.415,-5.52125,32.776,-14.488001,-16.68,none,4,3.0,24869.0,165461.0,251330.0,295981.0,271877.0
2026-04-08 22:04:09.328950,402915,1609505021511706,2621478268,-1.087264,-0.03904,-0.177632,-4.8825,-2.1875,-5.81875,32.656002,-14.456,-16.08,none,4,3.0,24869.0,165461.0,251330.0,295981.0,271877.0
2026-04-08 22:04:09.331437,402916,1609505021520752,2621486966,-1.087264,-0.03904,-0.177632,-4.9875,-1.995,-5.4775,32.656002,-14.456,-16.08,none,4,3.0,24869.0,165461.0,251330.0,295981.0,271877.0
2026-04-08 22:04:09.333920,402917,1609505021529800,2621495718,-1.108736,-0.0488,-0.197152,-6.95625,-1.67125,-5.88,32.784,-14.184001,-12.656,none,4,3.0,24869.0,165461.0,251330.0,295981.0,271877.0
2026-04-08 22:04:09.336402,402918,1609505021544294,2621510600,-1.108736,-0.0488,-0.197152,-9.0125,-2.35375,-6.34375,32.784,-14.184001,-12.656,none,4,3.0,24869.0,165461.0,251330.0,295981.0,271877.0
2026-04-08 22:04:09.367610,402919,1609505021553225,2621519275,-1.057984,-0.093696,-0.212768,-11.1475,-2.2225,-5.7575,32.144,-14.528001,-14.736001,none,4,3.0,24869.0,165461.0,251330.0,295981.0,271877.0
2026-04-08 22:04:09.369843,402920,1609505021567748,2621534176,-1.057984,-0.093696,-0.212768,-11.5675,-2.695,-4.83,32.144,-14.528001,-14.736001,none,4,3.0,24869.0,165461.0,251330.0,295981.0,271877.0
2026-04-08 22:04:09.378932,402921,1609505021576651,2621542840,-1.11264,-0.003904,-0.162016,-9.905,-3.29,-4.865,32.568,-14.488001,-13.016001,none,4,3.0,24869.0,165461.0,251330.0,295981.0,271877.0
2026-04-08 22:04:09.405769,402932,1609505021591290,2621558138,-1.097024,-0.093696,-0.257664,-8.6975,-3.29,-2.16125,32.688,-14.168,-16.960001,none,4,3.0,24854.0,165415.0,251324.0,295985.0,271860.0
2026-04-08 22:04:09.407420,402933,1609505021600242,2621566851,-1.097024,-0.093696,-0.257664,-10.2725,-3.66625,-2.38,32.688,-14.168,-16.960001,none,4,3.0,24854.0,165415.0,251324.0,295985.0,271860.0
2026-04-08 22:04:09.409269,402934,1609505021609167,2621575541,-1.097024,-0.093696,-0.257664,-10.47375,-4.57625,-4.13875,32.688,-14.168,-16.960001,none,4,3.0,24854.0,165415.0,251324.0,295985.0,271860.0
2026-04-08 22:04:09.416917,402935,1609505021623724,2621590473,-1.059936,-0.064416,-0.122976,-7.0,-5.52125,-4.26125,32.464,-14.64,-15.544001,none,4,3.0,24854.0,165415.0,251324.0,295985.0,271860.0
2026-04-08 22:04:09.473891,402936,1609505021632734,2621599143,-1.038464,-0.046848,-0.132736,-2.96625,-5.285,-1.75875,32.744003,-14.776001,-15.032001,none,4,3.0,24854.0,165415.0,251324.0,295985.0,271860.0
2026-04-08 22:04:09.476090,402937,1609505021647253,2621614018,-1.038464,-0.046848,-0.132736,-2.2225,-4.33125,0.07,32.744003,-14.776001,-15.032001,none,4,3.0,24854.0,165415.0,251324.0,295985.0,271860.0
2026-04-08 22:04:09.480793,402938,1609505021656153,2621622667,-1.065792,-0.050752,-0.16592,-2.03,-3.57,1.54875,32.688,-14.776001,-15.744,none,4,3.0,24854.0,165415.0,251324.0,295985.0,271860.0
2026-04-08 22:04:09.482467,402939,1609505021665080,2621631335,-1.065792,-0.050752,-0.16592,-1.46125,-3.43875,0.83125,32.688,-14.776001,-15.744,none,4,3.0,24854.0,165415.0,251324.0,295985.0,271860.0
2026-04-08 22:04:09.483922,402940,1609505021679554,2621646202,-1.065792,-0.095648,-0.142496,-2.94,-4.2525,-0.175,32.752003,-14.704,-15.800001,none,4,3.0,24854.0,165415.0,251324.0,295985.0,271860.0
2026-04-08 22:04:09.514915,402951,1609505021688757,2621654880,-1.065792,-0.095648,-0.142496,-5.94125,-5.41625,-1.2425,32.752003,-14.704,-15.800001,none,4,3.0,24870.0,165479.0,251398.0,296037.0,271901.0
2026-04-08 22:04:09.516458,402952,1609505021703314,2621669873,-1.10288,-0.080032,-0.162016,-6.83375,-5.04,-1.61875,32.984,-14.848001,-18.032001,none,4,3.0,24870.0,165479.0,251398.0,296037.0,271901.0
2026-04-08 22:04:09.520687,402953,1609505021712271,2621678617,-1.095072,-0.052704,-0.162016,-4.92625,-4.36625,-1.37375,32.792,-14.248001,-16.08,none,4,3.0,24870.0,165479.0,251398.0,296037.0,271901.0
2026-04-08 22:04:09.523164,402954,1609505021726802,2621693538,-1.095072,-0.052704,-0.162016,-3.29,-3.89375,-0.9275,32.792,-14.248001,-16.08,none,4,3.0,24870.0,165479.0,251398.0,296037.0,271901.0
2026-04-08 22:04:09.555117,402955,1609505021735731,2621702209,-1.089216,-0.035136,-0.124928,-4.78625,-4.08625,-0.98875,33.152,-14.728001,-15.592001,none,4,3.0,24870.0,165479.0,251398.0,296037.0,271901.0
2026-04-08 22:04:09.557356,402956,1609505021744675,2621710864,-1.089216,-0.035136,-0.124928,-6.06375,-4.515,-2.135,33.152,-14.728001,-15.592001,none,4,3.0,24870.0,165479.0,251398.0,296037.0,271901.0
2026-04-08 22:04:09.562010,402957,1609505021759148,2621725739,-1.048224,-0.08784,-0.132736,-5.74875,-4.94375,-2.89625,32.816,-14.744,-15.328001,none,4,3.0,24870.0,165479.0,251398.0,296037.0,271901.0
2026-04-08 22:04:09.564462,402958,1609505021768111,2621734416,-1.048224,-0.08784,-0.132736,-5.52125,-4.82125,-3.3075,32.816,-14.744,-15.328001,none,4,3.0,24870.0,165479.0,251398.0,296037.0,271901.0
2026-04-08 22:04:09.592923,402959,1609505021782601,2621749313,-1.048224,-0.105408,-0.160064,-2.8,-4.22625,-3.9025,32.688,-14.856001,-14.504001,none,4,3.0,24870.0,165479.0,251398.0,296037.0,271901.0
2026-04-08 22:04:09.626815,402970,1609505021791590,2621758054,-1.067744,-0.066368,-0.130784,-0.21875,-3.63125,-3.92875,32.944,-14.616001,-14.784,none,4,3.0,24819.0,165264.0,251149.0,295867.0,271820.0
2026-04-08 22:04:09.628769,402971,1609505021806087,2621772944,-1.067744,-0.066368,-0.130784,1.11125,-3.35125,-3.47375,32.944,-14.616001,-14.784,none,4,3.0,24819.0,165264.0,251149.0,295867.0,271820.0
2026-04-08 22:04:09.631915,402972,1609505021815037,2621781606,-1.079456,-0.042944,-0.148352,2.065,-3.4825,-3.99,32.976,-14.672001,-14.6,none,4,3.0,24819.0,165264.0,251149.0,295867.0,271820.0
2026-04-08 22:04:09.633671,402973,1609505021824010,2621790374,-1.079456,-0.042944,-0.148352,2.94,-2.8,-4.75125,32.976,-14.672001,-14.6,none,4,3.0,24819.0,165264.0,251149.0,295867.0,271820.0
2026-04-08 22:04:09.636018,402974,1609505021838521,2621805259,-1.081408,-0.06832,-0.081984,3.3075,-2.00375,-5.635,32.616,-14.584001,-14.72,none,4,3.0,24819.0,165264.0,251149.0,295867.0,271820.0
2026-04-08 22:04:09.641875,402975,1609505021847465,2621813940,-1.081408,-0.06832,-0.081984,1.9775,-1.3825,-6.06375,32.616,-14.584001,-14.72,none,4,3.0,24819.0,165264.0,251149.0,295867.0,271820.0
2026-04-08 22:04:09.672834,402976,1609505021861954,2621828888,-1.128256,-0.083936,-0.18544,-0.21,-1.3125,-6.50125,32.976,-14.816001,-15.368001,none,4,3.0,24819.0,165264.0,251149.0,295867.0,271820.0
2026-04-08 22:04:09.674327,402977,1609505021870863,2621837528,-1.128256,-0.083936,-0.18544,-1.295,-1.1725,-6.79875,32.976,-14.816001,-15.368001,none,4,3.0,24819.0,165264.0,251149.0,295867.0,271820.0
2026-04-08 22:04:09.710373,402988,1609505021885342,2621852447,-1.057984,-0.07808,-0.187392,-0.25375,-0.91,-6.125,33.072002,-14.64,-15.712001,none,4,3.0,24780.0,165025.0,250837.0,295660.0,271698.0
2026-04-08 22:04:09.712752,402989,1609505021894702,2621861150,-1.11264,-0.035136,-0.232288,0.83125,-0.67375,-4.725,32.888,-14.496,-14.552001,none,4,3.0,24780.0,165025.0,250837.0,295660.0,271698.0
2026-04-08 22:04:09.714904,402990,1609505021903783,2621869875,-1.11264,-0.035136,-0.232288,1.23375,-0.035,-4.9875,32.888,-14.496,-14.552001,none,4,3.0,24780.0,165025.0,250837.0,295660.0,271698.0
2026-04-08 22:04:09.717358,402991,1609505021918270,2621884839,-1.079456,-0.07808,-0.13664,0.455,0.13125,-6.405,32.496002,-14.336,-14.136001,none,4,3.0,24780.0,165025.0,250837.0,295660.0,271698.0
2026-04-08 22:04:09.720681,402992,1609505021927198,2621893559,-1.079456,-0.07808,-0.13664,-1.4525,-0.55125,-6.60625,32.496002,-14.336,-14.136001,none,4,3.0,24780.0,165025.0,250837.0,295660.0,271698.0
2026-04-08 22:04:09.785091,402993,1609505021941678,2621908450,-1.089216,-0.105408,-0.199104,-0.98,-0.9275,-7.21875,32.416,-14.528001,-14.664001,none,4,3.0,24780.0,165025.0,250837.0,295660.0,271698.0
2026-04-08 22:04:09.788660,402994,1609505021950590,2621917178,-1.089216,-0.105408,-0.199104,0.46375,-1.435,-6.25625,32.416,-14.528001,-14.664001,none,4,3.0,24780.0,165025.0,250837.0,295660.0,271698.0
2026-04-08 22:04:09.789754,402995,1609505021959486,2621925844,-1.069696,-0.0488,-0.134688,1.00625,-0.6825,-2.93125,33.336002,-14.408001,-16.16,none,4,3.0,24780.0,165025.0,250837.0,295660.0,271698.0
2026-04-08 22:04:09.791982,402996,1609505021973943,2621940704,-1.108736,-0.085888,-0.22448,0.95375,0.1925,-3.9725,32.56,-14.544001,-15.272,none,4,3.0,24780.0,165025.0,250837.0,295660.0,271698.0
2026-04-08 22:04:09.793746,402997,1609505021982928,2621949346,-1.108736,-0.085888,-0.22448,0.69125,0.09625,-5.67875,32.56,-14.544001,-15.272,none,4,3.0,24780.0,165025.0,250837.0,295660.0,271698.0
2026-04-08 22:04:09.821213,403008,1609505021997429,2621964426,-1.071648,-0.101504,-0.189344,2.75625,-1.4875,-5.13625,32.928,-14.576001,-15.704,none,4,3.0,24815.0,165196.0,251009.0,295791.0,271770.0
2026-04-08 22:04:09.822762,403009,1609505022006353,2621973139,-1.071648,-0.101504,-0.189344,1.9775,-1.75875,-4.6375,32.928,-14.576001,-15.704,none,4,3.0,24815.0,165196.0,251009.0,295791.0,271770.0
2026-04-08 22:04:09.827274,403010,1609505022020977,2621988097,-1.097024,-0.083936,-0.162016,0.46375,-1.3125,-4.34875,32.84,-14.512001,-14.800001,none,4,3.0,24815.0,165196.0,251009.0,295791.0,271770.0
2026-04-08 22:04:09.833228,403011,1609505022029956,2621996764,-1.097024,-0.083936,-0.162016,-0.11375,-0.9625,-3.78875,32.84,-14.512001,-14.800001,none,4,3.0,24815.0,165196.0,251009.0,295791.0,271770.0
2026-04-08 22:04:09.835696,403012,1609505022038931,2622005466,-1.087264,-0.072224,-0.173728,-0.0175,-0.84,-3.26375,32.800003,-14.256001,-14.936001,none,4,3.0,24815.0,165196.0,251009.0,295791.0,271770.0
2026-04-08 22:04:09.876622,403013,1609505022053419,2622020328,-1.079456,-0.080032,-0.212768,-0.34125,-1.28625,-2.96625,33.016003,-14.296001,-15.472001,none,4,3.0,24815.0,165196.0,251009.0,295791.0,271770.0
2026-04-08 22:04:09.880125,403014,1609505022062352,2622028995,-1.079456,-0.080032,-0.212768,0.14875,-1.5575,-3.91125,33.016003,-14.296001,-15.472001,none,4,3.0,24815.0,165196.0,251009.0,295791.0,271770.0
2026-04-08 22:04:09.885077,403015,1609505022076846,2622043832,-1.079456,-0.101504,-0.177632,0.27125,-1.54,-4.83,32.616,-14.456,-15.720001,none,4,3.0,24815.0,165196.0,251009.0,295791.0,271770.0
2026-04-08 22:04:09.918856,403026,1609505022085759,2622052486,-1.079456,-0.101504,-0.177632,0.13125,-1.365,-5.005,32.616,-14.456,-15.720001,none,4,3.0,24878.0,165476.0,251320.0,295974.0,271861.0
2026-04-08 22:04:09.921354,403027,1609505022100325,2622067427,-1.071648,-0.091744,-0.167872,-1.2425,-2.03875,-4.165,32.488003,-13.944,-13.312,none,4,3.0,24878.0,165476.0,251320.0,295974.0,271861.0
2026-04-08 22:04:09.923874,403028,1609505022109306,2622076119,-1.071648,-0.091744,-0.167872,-3.40375,-2.2225,-3.03625,32.488003,-13.944,-13.312,none,4,3.0,24878.0,165476.0,251320.0,295974.0,271861.0
2026-04-08 22:04:09.926361,403029,1609505022118204,2622084795,-1.069696,-0.080032,-0.13664,-4.13875,-2.72125,-2.66,32.784,-14.408001,-14.960001,none,4,3.0,24878.0,165476.0,251320.0,295974.0,271861.0
2026-04-08 22:04:09.928839,403030,1609505022132770,2622099619,-1.069696,-0.080032,-0.167872,-3.885,-2.68625,-2.26625,32.784,-14.408001,-14.960001,none,4,3.0,24878.0,165476.0,251320.0,295974.0,271861.0
2026-04-08 22:04:09.933938,403031,1609505022141751,2622108318,-1.075552,-0.081984,-0.169824,-4.0075,-2.72125,-2.70375,33.104,-14.304001,-13.840001,none,4,3.0,24878.0,165476.0,251320.0,295974.0,271861.0
2026-04-08 22:04:09.964106,403032,1609505022156242,2622123224,-1.08336,-0.091744,-0.179584,-3.115,-3.36,-3.185,33.016003,-14.664001,-15.048,none,4,3.0,24878.0,165476.0,251320.0,295974.0,271861.0
2026-04-08 22:04:09.967724,403033,1609505022165214,2622131887,-1.08336,-0.091744,-0.179584,-1.435,-3.71875,-3.47375,33.016003,-14.664001,-15.048,none,4,3.0,24878.0,165476.0,251320.0,295974.0,271861.0
2026-04-08 22:04:09.973999,403034,1609505022179708,2622146730,-1.069696,-0.095648,-0.134688,-0.09625,-4.12125,-3.4475,32.856003,-14.648001,-16.032001,none,4,3.0,24878.0,165476.0,251320.0,295974.0,271861.0
2026-04-08 22:04:10.006485,403045,1609505022188843,2622155459,-1.069696,-0.095648,-0.134688,0.32375,-4.2875,-3.40375,32.856003,-14.648001,-16.032001,none,4,3.0,24954.0,165747.0,251612.0,296159.0,271937.0
2026-04-08 22:04:10.008974,403046,1609505022197907,2622164234,-1.087264,-0.099552,-0.181536,-1.8025,-4.66375,-3.08875,33.104,-14.544001,-14.648001,none,4,3.0,24954.0,165747.0,251612.0,296159.0,271937.0
2026-04-08 22:04:10.011487,403047,1609505022212498,2622179185,-1.087264,-0.099552,-0.181536,-4.3575,-5.32875,-2.61625,33.104,-14.544001,-14.648001,none,4,3.0,24954.0,165747.0,251612.0,296159.0,271937.0
2026-04-08 22:04:10.013934,403048,1609505022221454,2622187894,-1.06384,-0.085888,-0.124928,-4.24375,-5.53,-2.3975,32.824,-14.304001,-14.872001,none,4,3.0,24954.0,165747.0,251612.0,296159.0,271937.0
2026-04-08 22:04:10.044170,403049,1609505022235932,2622202759,-1.104832,-0.089792,-0.206912,-3.8325,-5.4425,-2.485,33.04,-14.224001,-15.496,none,4,3.0,24954.0,165747.0,251612.0,296159.0,271937.0
2026-04-08 22:04:10.084157,403050,1609505022244853,2622211417,-1.104832,-0.089792,-0.206912,-1.785,-5.78375,-2.73875,33.04,-14.224001,-15.496,none,4,3.0,24954.0,165747.0,251612.0,296159.0,271937.0
2026-04-08 22:04:10.087730,403051,1609505022253795,2622220135,-1.104832,-0.089792,-0.163968,-0.55125,-5.97625,-3.185,33.04,-14.224001,-15.496,none,4,3.0,24954.0,165747.0,251612.0,296159.0,271937.0
2026-04-08 22:04:10.090801,403052,1609505022268257,2622235027,-1.0736,-0.099552,-0.163968,-0.69125,-6.72875,-2.98375,33.024002,-14.624001,-17.416,none,4,3.0,24954.0,165747.0,251612.0,296159.0,271937.0
2026-04-08 22:04:10.092756,403053,1609505022277170,2622243689,-1.091168,-0.091744,-0.173728,-0.77875,-6.86,-3.03625,33.256,-13.928,-15.544001,none,4,3.0,24954.0,165747.0,251612.0,296159.0,271937.0
2026-04-08 22:04:10.127703,403064,1609505022291844,2622258609,-1.091168,-0.091744,-0.173728,-1.085,-6.72875,-2.975,33.256,-13.928,-15.544001,none,4,3.0,24958.0,165799.0,251674.0,296219.0,272003.0
2026-04-08 22:04:10.130175,403065,1609505022300765,2622267288,-1.052128,-0.091744,-0.113216,-0.9625,-6.58875,-2.9575,32.992,-14.712001,-15.448001,none,4,3.0,24958.0,165799.0,251674.0,296219.0,272003.0
2026-04-08 22:04:10.132662,403066,1609505022315350,2622282208,-1.087264,-0.095648,-0.138592,-0.28875,-6.99125,-2.6775,33.064003,-14.376,-14.768001,none,4,3.0,24958.0,165799.0,251674.0,296219.0,272003.0
2026-04-08 22:04:10.135139,403067,1609505022324455,2622290897,-1.087264,-0.095648,-0.138592,0.21875,-7.56875,-3.21125,33.064003,-14.376,-14.768001,none,4,3.0,24958.0,165799.0,251674.0,296219.0,272003.0
2026-04-08 22:04:10.137614,403068,1609505022333567,2622299646,-1.087264,-0.095648,-0.138592,-0.09625,-7.4375,-3.24625,33.064003,-14.376,-14.768001,none,4,3.0,24958.0,165799.0,251674.0,296219.0,272003.0
2026-04-08 22:04:10.140140,403069,1609505022348031,2622314620,-1.128256,-0.083936,-0.201056,-1.1725,-7.98875,-1.74125,33.08,-13.968,-15.376,none,4,3.0,24958.0,165799.0,251674.0,296219.0,272003.0
2026-04-08 22:04:10.170390,403070,1609505022356952,2622323321,-1.067744,-0.083936,-0.070272,-0.5075,-8.65375,-1.5225,33.272003,-14.168,-14.512001,none,4,3.0,24958.0,165799.0,251674.0,296219.0,272003.0
2026-04-08 22:04:10.173971,403071,1609505022371430,2622338170,-1.067744,-0.083936,-0.070272,-0.42875,-8.785,-1.81125,33.272003,-14.168,-14.512001,none,4,3.0,24958.0,165799.0,251674.0,296219.0,272003.0
2026-04-08 22:04:10.180723,403072,1609505022380362,2622346888,-1.040416,-0.099552,-0.052704,-1.5925,-8.855001,-2.12625,33.216003,-14.248001,-15.304001,none,4,3.0,24958.0,165799.0,251674.0,296219.0,272003.0
2026-04-08 22:04:10.210209,403083,1609505022394883,2622360347,-1.040416,-0.072224,-0.08784,-0.97125,-9.23125,-2.345,33.216003,-14.248001,-15.304001,none,4,3.0,24932.0,165585.0,251423.0,296036.0,271894.0
2026-04-08 22:04:10.212629,403084,1609505022404145,2622371115,-1.095072,-0.072224,-0.08784,-0.245,-9.3275,-2.3275,32.816,-14.288001,-14.824,none,4,3.0,24932.0,165585.0,251423.0,296036.0,271894.0
2026-04-08 22:04:10.215176,403085,1609505022413092,2622379850,-1.095072,-0.072224,-0.08784,0.8925,-9.37125,-2.68625,32.816,-14.288001,-14.824,none,4,3.0,24932.0,165585.0,251423.0,296036.0,271894.0
2026-04-08 22:04:10.221379,403086,1609505022427603,2622394771,-1.120448,-0.076128,-0.134688,1.19875,-9.14375,-2.975,33.112003,-14.344001,-16.224,none,4,3.0,24932.0,165585.0,251423.0,296036.0,271894.0
2026-04-08 22:04:10.254074,403087,1609505022436536,2622403526,-1.087264,-0.085888,-0.134688,1.88125,-9.16125,-3.185,32.960003,-14.296001,-15.712001,none,4,3.0,24932.0,165585.0,251423.0,296036.0,271894.0
2026-04-08 22:04:10.258116,403088,1609505022450978,2622416318,-1.087264,-0.085888,-0.134688,0.8575,-9.21375,-2.6775,32.960003,-14.296001,-15.712001,none,4,3.0,24932.0,165585.0,251423.0,296036.0,271894.0
2026-04-08 22:04:10.261093,403089,1609505022460386,2622427094,-1.087264,-0.07808,-0.091744,-0.07,-8.4875,-2.8875,33.256,-14.344001,-15.176001,none,4,3.0,24932.0,165585.0,251423.0,296036.0,271894.0
2026-04-08 22:04:10.262907,403090,1609505022469273,2622435739,-1.087264,-0.07808,-0.091744,-0.09625,-8.25125,-2.24,33.256,-14.344001,-15.176001,none,4,3.0,24932.0,165585.0,251423.0,296036.0,271894.0
2026-04-08 22:04:10.294021,403091,1609505022483757,2622450646,-1.08336,-0.089792,-0.158112,-0.48125,-8.61,-1.95125,32.456,-14.320001,-14.448001,none,4,3.0,24932.0,165585.0,251423.0,296036.0,271894.0
2026-04-08 22:04:10.330314,403102,1609505022492851,2622459330,-1.08336,-0.089792,-0.158112,0.42875,-9.00375,-1.82,32.456,-14.320001,-14.448001,none,4,3.0,24886.0,165325.0,251126.0,295852.0,271793.0
2026-04-08 22:04:10.332694,403103,1609505022507358,2622474209,-1.028704,-0.11712,-0.10736,0.9975,-8.47,-2.205,33.120003,-14.336,-14.64,none,4,3.0,24886.0,165325.0,251126.0,295852.0,271793.0
2026-04-08 22:04:10.341697,403104,1609505022516299,2622482906,-1.085312,-0.101504,-0.113216,1.44375,-8.09375,-2.79125,33.128002,-14.232,-16.808,none,4,3.0,24886.0,165325.0,251126.0,295852.0,271793.0
2026-04-08 22:04:10.343897,403105,1609505022530928,2622497854,-1.085312,-0.101504,-0.113216,1.295,-8.4875,-2.7125,33.128002,-14.232,-16.808,none,4,3.0,24886.0,165325.0,251126.0,295852.0,271793.0
2026-04-08 22:04:10.345559,403106,1609505022539850,2622506586,-1.11264,-0.072224,-0.115168,1.51375,-8.32125,-2.17,33.264,-14.392001,-14.056001,none,4,3.0,24886.0,165325.0,251126.0,295852.0,271793.0
2026-04-08 22:04:10.348315,403107,1609505022548782,2622515285,-1.11264,-0.072224,-0.115168,1.95125,-8.1725,-1.8025,33.264,-14.392001,-14.056001,none,4,3.0,24886.0,165325.0,251126.0,295852.0,271793.0
2026-04-08 22:04:10.385716,403108,1609505022563275,2622530179,-1.05408,-0.06832,0.0,2.24875,-8.2075,-2.19625,33.528,-14.328001,-13.648001,none,4,3.0,24886.0,165325.0,251126.0,295852.0,271793.0
2026-04-08 22:04:10.387421,403109,1609505022572209,2622538872,-1.05408,-0.06832,0.0,3.85,-8.6975,-2.56375,33.528,-14.328001,-13.648001,none,4,3.0,24886.0,165325.0,251126.0,295852.0,271793.0
2026-04-08 22:04:10.388991,403110,1609505022586709,2622553728,-1.114592,-0.072224,-0.167872,4.9525,-8.6975,-1.74125,33.768,-14.568001,-14.416,none,4,3.0,24886.0,165325.0,251126.0,295852.0,271793.0
2026-04-08 22:04:10.420188,403121,1609505022595669,2622562425,-1.114592,-0.072224,-0.167872,6.895,-9.1525,0.53375,33.768,-14.568001,-14.416,none,4,3.0,24833.0,165188.0,251005.0,295767.0,271762.0
2026-04-08 22:04:10.424776,403122,1609505022604699,2622571155,-1.077504,-0.0976,-0.083936,6.79875,-8.98625,-1.72375,33.68,-14.304001,-14.512001,none,4,3.0,24833.0,165188.0,251005.0,295767.0,271762.0
2026-04-08 22:04:10.426907,403123,1609505022619325,2622586091,-1.087264,-0.121024,-0.072224,3.745,-8.67125,-2.84375,33.024002,-14.200001,-13.072001,none,4,3.0,24833.0,165188.0,251005.0,295767.0,271762.0
2026-04-08 22:04:10.429418,403124,1609505022628286,2622594807,-1.087264,-0.121024,-0.072224,2.7475,-9.61625,-2.3975,33.024002,-14.200001,-13.072001,none,4,3.0,24833.0,165188.0,251005.0,295767.0,271762.0
2026-04-08 22:04:10.457873,403125,1609505022642765,2622609768,-1.056032,-0.085888,-0.003904,1.96,-10.15875,-2.3275,33.568,-14.752001,-14.576001,none,4,3.0,24833.0,165188.0,251005.0,295767.0,271762.0
2026-04-08 22:04:10.462394,403126,1609505022651666,2622618452,-1.056032,-0.085888,-0.003904,1.8375,-9.695,-2.3625,33.568,-14.752001,-14.576001,none,4,3.0,24833.0,165188.0,251005.0,295767.0,271762.0
2026-04-08 22:04:10.463927,403127,1609505022666181,2622633293,-1.067744,-0.060512,-0.046848,2.09125,-9.05625,-1.47,33.672,-14.264001,-14.192,none,4,3.0,24833.0,165188.0,251005.0,295767.0,271762.0
2026-04-08 22:04:10.469714,403128,1609505022675114,2622641959,-1.067744,-0.060512,-0.046848,2.2925,-8.5575,-0.51625,33.672,-14.264001,-14.192,none,4,3.0,24833.0,165188.0,251005.0,295767.0,271762.0
2026-04-08 22:04:10.476798,403129,1609505022684050,2622650689,-1.081408,-0.05856,-0.085888,1.96,-8.19,-0.28875,33.368,-14.360001,-13.416,none,4,3.0,24833.0,165188.0,251005.0,295767.0,271762.0
2026-04-08 22:04:10.506639,403140,1609505022698898,2622665930,-1.087264,-0.103456,-0.158112,1.37375,-8.26875,-0.245,33.408,-14.408001,-14.808001,none,4,3.0,24823.0,165140.0,250968.0,295772.0,271771.0
2026-04-08 22:04:10.508514,403141,1609505022707840,2622674643,-1.087264,-0.103456,-0.158112,1.02375,-7.79625,-0.5075,33.408,-14.408001,-14.808001,none,4,3.0,24823.0,165140.0,250968.0,295772.0,271771.0
2026-04-08 22:04:10.538831,403142,1609505022722323,2622687541,-1.038464,-0.103456,-0.01952,-1.18125,-7.58625,-0.13125,33.712,-14.544001,-13.768001,none,4,3.0,24823.0,165140.0,250968.0,295772.0,271771.0
2026-04-08 22:04:10.543185,403143,1609505022731581,2622698257,-1.038464,-0.103456,-0.01952,-2.68625,-7.7,0.7175,33.712,-14.544001,-13.768001,none,4,3.0,24823.0,165140.0,250968.0,295772.0,271771.0
2026-04-08 22:04:10.546956,403144,1609505022740491,2622706938,-1.081408,-0.062464,-0.050752,-2.2925,-7.175,1.07625,33.784,-14.544001,-14.096001,none,4,3.0,24823.0,165140.0,250968.0,295772.0,271771.0
2026-04-08 22:04:10.549399,403145,1609505022754926,2622721799,-1.081408,-0.062464,-0.050752,0.5075,-6.685,1.33,33.784,-14.544001,-14.096001,none,4,3.0,24823.0,165140.0,250968.0,295772.0,271771.0
2026-04-08 22:04:10.577903,403146,1609505022763862,2622730465,-1.071648,-0.081984,-0.076128,1.32125,-6.50125,0.97125,33.616,-13.960001,-14.072001,none,4,3.0,24823.0,165140.0,250968.0,295772.0,271771.0
2026-04-08 22:04:10.582357,403147,1609505022778344,2622745306,-1.077504,-0.109312,-0.050752,-1.16375,-6.335,0.2975,33.696003,-14.584001,-13.096001,none,4,3.0,24823.0,165140.0,250968.0,295772.0,271771.0
2026-04-08 22:04:10.584279,403148,1609505022787270,2622753980,-1.077504,-0.109312,-0.050752,-2.24875,-7.315,-0.79625,33.696003,-14.584001,-13.096001,none,4,3.0,24823.0,165140.0,250968.0,295772.0,271771.0
2026-04-08 22:04:10.612389,403159,1609505022801921,2622768945,-1.098976,-0.093696,-0.089792,-2.17875,-8.11125,-1.39125,33.608,-14.504001,-13.808001,none,4,3.0,24809.0,165189.0,251033.0,295810.0,271812.0
2026-04-08 22:04:10.614067,403160,1609505022810851,2622777622,-1.098976,-0.093696,-0.089792,-1.925,-8.07625,-1.19,33.608,-14.504001,-13.808001,none,4,3.0,24809.0,165189.0,251033.0,295810.0,271812.0
2026-04-08 22:04:10.620922,403161,1609505022819811,2622786287,-1.089216,-0.056608,-0.060512,-0.44625,-7.39375,-0.72625,33.36,-14.448001,-12.544001,none,4,3.0,24809.0,165189.0,251033.0,295810.0,271812.0
2026-04-08 22:04:10.628079,403162,1609505022834350,2622801227,-1.089216,-0.056608,-0.060512,1.56625,-7.13125,-0.0875,33.36,-14.448001,-12.544001,none,4,3.0,24809.0,165189.0,251033.0,295810.0,271812.0
2026-04-08 22:04:10.682652,403163,1609505022843291,2622809903,-1.081408,-0.05856,-0.02928,1.2425,-6.81625,0.0875,33.88,-14.552001,-13.840001,none,4,3.0,24809.0,165189.0,251033.0,295810.0,271812.0
2026-04-08 22:04:10.686971,403164,1609505022857800,2622824820,-1.081408,-0.05856,-0.02928,-1.46125,-6.7725,0.0525,33.88,-14.552001,-13.840001,none,4,3.0,24809.0,165189.0,251033.0,295810.0,271812.0
2026-04-08 22:04:10.688627,403165,1609505022866710,2622833476,-1.075552,-0.070272,-0.023424,-3.49125,-7.06125,-0.0175,33.776,-14.632001,-15.68,none,4,3.0,24809.0,165189.0,251033.0,295810.0,271812.0
2026-04-08 22:04:10.690322,403166,1609505022881216,2622848331,-1.038464,-0.085888,-0.003904,-3.64,-6.85125,-0.37625,33.992,-14.592001,-13.704,none,4,3.0,24809.0,165189.0,251033.0,295810.0,271812.0
2026-04-08 22:04:10.719471,403177,1609505022890110,2622856940,-1.038464,-0.085888,-0.003904,-2.6425,-5.845,0.20125,33.992,-14.592001,-13.704,none,4,3.0,24808.0,165178.0,251070.0,295844.0,271839.0
2026-04-08 22:04:10.721211,403178,1609505022899072,2622865644,-1.081408,-0.070272,-0.072224,-1.47,-5.2325,0.6125,33.536003,-14.392001,-14.064001,none,4,3.0,24808.0,165178.0,251070.0,295844.0,271839.0
2026-04-08 22:04:10.722851,403179,1609505022913653,2622880680,-1.081408,-0.070272,-0.072224,-0.8575,-5.10125,0.42875,33.536003,-14.392001,-14.064001,none,4,3.0,24808.0,165178.0,251070.0,295844.0,271839.0
2026-04-08 22:04:10.727181,403180,1609505022922582,2622889425,-1.056032,-0.085888,0.007808,-1.18125,-5.25875,-0.42875,33.632,-14.72,-13.464001,none,4,3.0,24808.0,165178.0,251070.0,295844.0,271839.0
2026-04-08 22:04:10.733036,403181,1609505022937072,2622902272,-1.056032,-0.085888,0.007808,-2.96625,-5.6,-0.525,33.632,-14.72,-13.464001,none,4,3.0,24808.0,165178.0,251070.0,295844.0,271839.0
2026-04-08 22:04:10.761651,403182,1609505022946418,2622913041,-1.069696,-0.083936,-0.005856,-4.41,-5.62625,-0.63875,33.904003,-14.448001,-15.920001,none,4,3.0,24808.0,165178.0,251070.0,295844.0,271839.0
2026-04-08 22:04:10.766143,403183,1609505022960896,2622927921,-1.08336,-0.076128,-0.007808,-3.12375,-4.99625,-1.18125,33.856003,-14.928,-13.752001,none,4,3.0,24808.0,165178.0,251070.0,295844.0,271839.0
2026-04-08 22:04:10.767701,403184,1609505022969791,2622936573,-1.08336,-0.076128,-0.007808,0.4725,-4.9,-1.8025,33.856003,-14.928,-13.752001,none,4,3.0,24808.0,165178.0,251070.0,295844.0,271839.0
2026-04-08 22:04:10.772316,403185,1609505022978676,2622945232,-1.08336,-0.076128,-0.00976,1.6625,-5.3725,-2.52,33.856003,-14.928,-13.752001,none,4,3.0,24808.0,165178.0,251070.0,295844.0,271839.0
2026-04-08 22:04:10.831888,403196,1609505022993681,2622960375,-1.085312,-0.066368,-0.00976,1.72375,-5.64375,-3.12375,33.88,-14.68,-11.368001,none,4,3.0,24776.0,165013.0,250856.0,295732.0,271767.0
2026-04-08 22:04:10.833660,403197,1609505023002658,2622969024,-1.059936,-0.05856,0.00976,1.56625,-5.85375,-3.115,33.768,-14.544001,-13.824,none,4,3.0,24776.0,165013.0,250856.0,295732.0,271767.0
2026-04-08 22:04:10.835198,403198,1609505023017112,2622983860,-1.059936,-0.05856,0.00976,1.44375,-5.76625,-2.52,33.768,-14.544001,-13.824,none,4,3.0,24776.0,165013.0,250856.0,295732.0,271767.0
2026-04-08 22:04:10.839418,403199,1609505023026135,2622992613,-1.106784,-0.03904,-0.040992,2.40625,-5.145,-1.575,33.808002,-14.688001,-13.344001,none,4,3.0,24776.0,165013.0,250856.0,295732.0,271767.0
2026-04-08 22:04:10.841238,403200,1609505023035085,2623001318,-1.106784,-0.03904,-0.040992,3.14125,-4.40125,-1.5575,33.808002,-14.688001,-13.344001,none,4,3.0,24776.0,165013.0,250856.0,295732.0,271767.0
2026-04-08 22:04:10.843573,403201,1609505023049610,2623016255,-1.057984,-0.091744,-0.027328,3.885,-4.64625,-1.96875,33.736,-14.712001,-13.656001,none,4,3.0,24776.0,165013.0,250856.0,295732.0,271767.0
2026-04-08 22:04:10.873811,403202,1609505023058600,2623024940,-1.057984,-0.091744,-0.027328,2.37125,-4.865,-2.3625,33.736,-14.712001,-13.656001,none,4,3.0,24776.0,165013.0,250856.0,295732.0,271767.0
2026-04-08 22:04:10.876638,403203,1609505023073043,2623039776,-1.069696,-0.0976,-0.017568,0.3325,-5.6175,-2.555,33.488003,-14.288001,-13.200001,none,4,3.0,24776.0,165013.0,250856.0,295732.0,271767.0
2026-04-08 22:04:10.879244,403204,1609505023082000,2623048495,-1.118496,-0.054656,-0.089792,0.805,-5.97625,-2.02125,33.744003,-14.792001,-13.784,none,4,3.0,24776.0,165013.0,250856.0,295732.0,271767.0
2026-04-08 22:04:10.910397,403215,1609505023096638,2623061824,-1.118496,-0.054656,-0.089792,3.64875,-5.03125,-1.6975,33.744003,-14.792001,-13.784,none,4,3.0,24753.0,164860.0,250638.0,295564.0,271689.0
2026-04-08 22:04:10.911519,403216,1609505023105892,2623072595,-1.097024,-0.040992,0.0,6.965,-4.7075,-1.74125,33.592003,-14.696001,-13.296001,none,4,3.0,24753.0,164860.0,250638.0,295564.0,271689.0
2026-04-08 22:04:10.915516,403217,1609505023114920,2623081302,-1.097024,-0.040992,0.0,8.085,-5.10125,-2.1525,33.592003,-14.696001,-13.296001,none,4,3.0,24753.0,164860.0,250638.0,295564.0,271689.0
2026-04-08 22:04:10.944201,403218,1609505023129477,2623096207,-1.061888,-0.103456,-0.076128,6.755,-5.6175,-2.8,33.872,-14.56,-13.64,none,4,3.0,24753.0,164860.0,250638.0,295564.0,271689.0
2026-04-08 22:04:10.984725,403219,1609505023138385,2623104881,-1.061888,-0.103456,-0.076128,3.255,-5.94125,-2.87875,33.872,-14.56,-13.64,none,4,3.0,24753.0,164860.0,250638.0,295564.0,271689.0
2026-04-08 22:04:10.988340,403220,1609505023152830,2623119745,-1.08336,-0.076128,-0.050752,1.26,-5.62625,-2.33625,33.776,-14.784,-13.536,none,4,3.0,24753.0,164860.0,250638.0,295564.0,271689.0
2026-04-08 22:04:10.991085,403221,1609505023161732,2623128428,-1.118496,-0.040992,-0.05856,1.60125,-5.1975,-1.75,33.568,-14.488001,-10.952001,none,4,3.0,24753.0,164860.0,250638.0,295564.0,271689.0
2026-04-08 22:04:10.994127,403222,1609505023170620,2623137079,-1.118496,-0.040992,-0.05856,3.955,-5.53,-1.30375,33.568,-14.488001,-10.952001,none,4,3.0,24753.0,164860.0,250638.0,295564.0,271689.0
2026-04-08 22:04:10.998003,403223,1609505023185072,2623151935,-1.089216,-0.076128,-0.076128,4.515,-5.66125,-1.95125,33.760002,-14.304001,-13.496,none,4,3.0,24753.0,164860.0,250638.0,295564.0,271689.0
2026-04-08 22:04:11.026601,403234,1609505023194069,2623160652,-1.089216,-0.076128,-0.076128,3.29875,-5.985,-2.905,33.760002,-14.304001,-13.496,none,4,3.0,24754.0,164886.0,250690.0,295639.0,271714.0
2026-04-08 22:04:11.031199,403235,1609505023208616,2623175552,-1.081408,-0.095648,-0.044896,1.89875,-6.32625,-2.94,33.904003,-14.552001,-13.336,none,4,3.0,24754.0,164886.0,250690.0,295639.0,271714.0
2026-04-08 22:04:11.032722,403236,1609505023217558,2623184273,-1.081408,-0.095648,-0.044896,1.63625,-7.25375,-2.87,33.904003,-14.552001,-13.336,none,4,3.0,24754.0,164886.0,250690.0,295639.0,271714.0
2026-04-08 22:04:11.036966,403237,1609505023232082,2623199206,-1.09312,-0.062464,-0.027328,1.95125,-7.39375,-2.37125,33.944,-14.584001,-13.488001,none,4,3.0,24754.0,164886.0,250690.0,295639.0,271714.0
2026-04-08 22:04:11.039447,403238,1609505023241051,2623207876,-1.098976,-0.044896,-0.011712,3.70125,-6.8075,-1.68,33.944,-12.536,-11.264001,none,4,3.0,24754.0,164886.0,250690.0,295639.0,271714.0
2026-04-08 22:04:11.043081,403239,1609505023250030,2623216552,-1.098976,-0.044896,-0.011712,7.46375,-6.88625,-1.89,33.792,-14.192,-11.264001,none,4,3.0,24754.0,164886.0,250690.0,295639.0,271714.0
2026-04-08 22:04:11.071614,403240,1609505023264485,2623231426,-1.100928,-0.095648,-0.027328,8.9775,-7.93625,-3.68375,34.04,-14.160001,-12.312,none,4,3.0,24754.0,164886.0,250690.0,295639.0,271714.0
2026-04-08 22:04:11.076077,403241,1609505023273387,2623240144,-1.100928,-0.095648,-0.027328,6.22125,-9.45875,-5.6525,34.04,-14.160001,-12.312,none,4,3.0,24754.0,164886.0,250690.0,295639.0,271714.0
2026-04-08 22:04:11.081689,403242,1609505023287921,2623255018,-1.089216,-0.115168,-0.011712,1.3125,-10.71,-7.00875,34.064003,-14.408001,-12.952001,none,4,3.0,24754.0,164886.0,250690.0,295639.0,271714.0
2026-04-08 22:04:11.110138,403253,1609505023296973,2623263819,-1.089216,-0.115168,-0.011712,-1.61,-11.4275,-7.25375,34.064003,-14.408001,-12.952001,none,4,3.0,24782.0,164977.0,250824.0,295696.0,271759.0
2026-04-08 22:04:11.111489,403254,1609505023311540,2623276735,-1.077504,-0.076128,-0.007808,-0.27125,-11.1825,-6.23875,34.008003,-14.568001,-12.168,none,4,3.0,24782.0,164977.0,250824.0,295696.0,271759.0
2026-04-08 22:04:11.115556,403255,1609505023320732,2623287480,-1.077504,-0.076128,-0.007808,2.38,-10.1325,-4.62,34.008003,-14.568001,-12.168,none,4,3.0,24782.0,164977.0,250824.0,295696.0,271759.0
2026-04-08 22:04:11.157633,403256,1609505023329677,2623296176,-1.089216,-0.02928,-0.025376,2.625,-9.40625,-3.43875,33.976,-14.040001,-12.072001,none,4,3.0,24782.0,164977.0,250824.0,295696.0,271759.0
2026-04-08 22:04:11.159829,403257,1609505023344148,2623310972,-1.067744,-0.0488,-0.017568,2.38,-9.17875,-2.7475,34.064003,-14.544001,-12.896001,none,4,3.0,24782.0,164977.0,250824.0,295696.0,271759.0
2026-04-08 22:04:11.164463,403258,1609505023353063,2623319645,-1.067744,-0.0488,-0.017568,0.76125,-9.49375,-2.24,34.064003,-14.544001,-12.896001,none,4,3.0,24782.0,164977.0,250824.0,295696.0,271759.0
2026-04-08 22:04:11.166917,403259,1609505023367565,2623334496,-1.059936,-0.07808,-0.031232,-2.0475,-9.38,-1.47875,34.104,-14.52,-12.888001,none,4,3.0,24782.0,164977.0,250824.0,295696.0,271759.0
2026-04-08 22:04:11.171003,403260,1609505023376536,2623343163,-1.059936,-0.07808,-0.031232,-3.77125,-9.05625,-1.02375,34.104,-14.52,-12.888001,none,4,3.0,24782.0,164977.0,250824.0,295696.0,271759.0
2026-04-08 22:04:11.202575,403261,1609505023391011,2623358065,-1.052128,-0.074176,-0.007808,-5.85375,-8.1725,-0.20125,33.872,-14.448001,-12.968,none,4,3.0,24782.0,164977.0,250824.0,295696.0,271759.0
2026-04-08 22:04:11.231098,403272,1609505023400007,2623366731,-1.052128,-0.074176,-0.007808,-7.09625,-7.62125,0.56,33.872,-14.448001,-12.968,none,4,3.0,24719.0,164933.0,250781.0,295709.0,271773.0
2026-04-08 22:04:11.233590,403273,1609505023408921,2623375389,-1.057984,-0.0488,0.037088,-6.23875,-7.2625,1.1725,33.920002,-14.192,-13.024,none,4,3.0,24719.0,164933.0,250781.0,295709.0,271773.0
2026-04-08 22:04:11.235160,403274,1609505023423423,2623390320,-1.097024,-0.062464,-0.015616,-4.69,-7.11375,0.525,33.864002,-14.272,-13.200001,none,4,3.0,24719.0,164933.0,250781.0,295709.0,271773.0
2026-04-08 22:04:11.239449,403275,1609505023432332,2623399009,-1.097024,-0.062464,-0.015616,-4.73375,-7.37625,0.0875,33.864002,-14.272,-13.200001,none,4,3.0,24719.0,164933.0,250781.0,295709.0,271773.0
2026-04-08 22:04:11.241888,403276,1609505023446877,2623413915,-1.040416,-0.099552,0.050752,-5.915,-7.41125,-0.20125,34.504,-14.480001,-12.120001,none,4,3.0,24719.0,164933.0,250781.0,295709.0,271773.0
2026-04-08 22:04:11.284161,403277,1609505023455891,2623422581,-1.040416,-0.099552,0.050752,-6.41375,-7.0,-0.2275,34.504,-14.480001,-12.120001,none,4,3.0,24719.0,164933.0,250781.0,295709.0,271773.0
2026-04-08 22:04:11.288641,403278,1609505023470403,2623437491,-1.126304,-0.050752,-0.003904,-6.99125,-6.335,-0.245,34.176003,-14.320001,-12.888001,none,4,3.0,24719.0,164933.0,250781.0,295709.0,271773.0
2026-04-08 22:04:11.291086,403279,1609505023479296,2623446142,-1.126304,-0.050752,-0.003904,-6.6325,-5.80125,-0.035,34.176003,-14.320001,-12.888001,none,4,3.0,24719.0,164933.0,250781.0,295709.0,271773.0
2026-04-08 22:04:11.292701,403280,1609505023488191,2623454794,-1.089216,-0.062464,0.064416,-4.76875,-5.41625,-0.385,34.096,-14.672001,-12.424001,none,4,3.0,24719.0,164933.0,250781.0,295709.0,271773.0
2026-04-08 22:04:11.321909,403291,1609505023503190,2623470259,-1.091168,-0.080032,0.076128,-3.115,-5.53,-1.39125,33.952003,-14.728001,-11.432,none,4,3.0,24748.0,164934.0,250841.0,295747.0,271802.0
2026-04-08 22:04:11.323697,403292,1609505023512108,2623478991,-1.091168,-0.080032,0.076128,-4.06875,-6.3875,-3.0275,33.952003,-14.728001,-11.432,none,4,3.0,24748.0,164934.0,250841.0,295747.0,271802.0
2026-04-08 22:04:11.325394,403293,1609505023526724,2623493867,-1.10288,-0.091744,-0.050752,-6.265,-6.9125,-4.0425,34.048,-14.472001,-11.040001,none,4,3.0,24748.0,164934.0,250841.0,295747.0,271802.0
2026-04-08 22:04:11.329320,403294,1609505023535687,2623502567,-1.10288,-0.091744,-0.050752,-5.97625,-6.39625,-4.3575,34.048,-14.472001,-11.040001,none,4,3.0,24748.0,164934.0,250841.0,295747.0,271802.0
2026-04-08 22:04:11.357906,403295,1609505023544704,2623511241,-1.100928,-0.040992,0.056608,-4.48875,-5.5475,-3.57,34.032,-14.536,-10.544001,none,4,3.0,24748.0,164934.0,250841.0,295747.0,271802.0
2026-04-08 22:04:11.361536,403296,1609505023559216,2623526085,-1.100928,-0.040992,0.056608,-3.675,-4.31375,-3.29,34.032,-14.536,-10.544001,none,4,3.0,24748.0,164934.0,250841.0,295747.0,271802.0
2026-04-08 22:04:11.363999,403297,1609505023568151,2623534740,-1.091168,-0.021472,0.060512,-3.6925,-4.06875,-2.6425,34.024002,-14.648001,-12.392,none,4,3.0,24748.0,164934.0,250841.0,295747.0,271802.0
2026-04-08 22:04:11.397618,403298,1609505023582615,2623549539,-1.091168,-0.021472,0.060512,-3.28125,-3.64875,-3.5,34.024002,-14.648001,-12.392,none,4,3.0,24748.0,164934.0,250841.0,295747.0,271802.0
2026-04-08 22:04:11.402084,403299,1609505023591494,2623558205,-1.065792,-0.05856,0.085888,-2.8875,-3.77125,-4.43625,34.224003,-14.6,-11.488001,none,4,3.0,24748.0,164934.0,250841.0,295747.0,271802.0
2026-04-08 22:04:11.428974,403310,1609505023606050,2623573118,-1.071648,-0.083936,0.01952,-4.34875,-3.05375,-4.795,34.304,-14.72,-12.056001,none,4,3.0,24699.0,164786.0,250645.0,295639.0,271762.0
2026-04-08 22:04:11.430587,403311,1609505023615033,2623581785,-1.071648,-0.083936,0.01952,-4.82125,-2.58125,-5.13625,34.304,-14.72,-12.056001,none,4,3.0,24699.0,164786.0,250645.0,295639.0,271762.0
2026-04-08 22:04:11.438195,403312,1609505023624018,2623590510,-1.075552,-0.076128,0.011712,-4.0075,-1.82875,-4.73375,34.36,-14.648001,-9.072001,none,4,3.0,24699.0,164786.0,250645.0,295639.0,271762.0
2026-04-08 22:04:11.439961,403313,1609505023638631,2623605394,-1.075552,-0.076128,0.011712,-2.87,-0.74375,-3.99875,34.36,-14.648001,-9.072001,none,4,3.0,24699.0,164786.0,250645.0,295639.0,271762.0
2026-04-08 22:04:11.441781,403314,1609505023647700,2623614085,-1.069696,-0.044896,0.072224,-0.90125,0.035,-3.815,34.672,-14.672001,-12.200001,none,4,3.0,24699.0,164786.0,250645.0,295639.0,271762.0
2026-04-08 22:04:11.475059,403315,1609505023662200,2623629049,-1.069696,-0.044896,0.072224,1.49625,0.65625,-3.75375,34.672,-14.672001,-12.200001,none,4,3.0,24699.0,164786.0,250645.0,295639.0,271762.0
2026-04-08 22:04:11.477294,403316,1609505023671094,2623637692,-1.098976,-0.042944,0.031232,2.94875,1.16375,-3.7275,34.744003,-14.800001,-12.480001,none,4,3.0,24699.0,164786.0,250645.0,295639.0,271762.0
2026-04-08 22:04:11.481915,403317,1609505023685551,2623652620,-1.081408,-0.064416,0.0488,2.75625,1.7675,-3.22,34.816,-15.104001,-11.984,none,4,3.0,24699.0,164786.0,250645.0,295639.0,271762.0
2026-04-08 22:04:11.512449,403328,1609505023694493,2623661318,-1.081408,-0.064416,0.0488,2.79125,2.0475,-2.91375,34.816,-15.104001,-11.984,none,4,3.0,24671.0,164614.0,250413.0,295468.0,271638.0
2026-04-08 22:04:11.514068,403329,1609505023703456,2623670092,-1.081408,-0.064416,0.0488,2.1875,2.00375,-2.9925,34.816,-15.104001,-11.984,none,4,3.0,24671.0,164614.0,250413.0,295468.0,271638.0
2026-04-08 22:04:11.518051,403330,1609505023718093,2623685025,-1.077504,-0.085888,0.031232,1.02375,2.065,-3.42125,34.312,-14.688001,-11.176001,none,4,3.0,24671.0,164614.0,250413.0,295468.0,271638.0
2026-04-08 22:04:11.521764,403331,1609505023727145,2623693748,-1.100928,-0.081984,0.023424,-0.04375,2.5375,-3.92875,34.144,-14.904,-11.080001,none,4,3.0,24671.0,164614.0,250413.0,295468.0,271638.0
2026-04-08 22:04:11.585296,403332,1609505023741630,2623708620,-1.100928,-0.081984,0.023424,0.23625,3.22875,-4.29625,34.144,-14.904,-11.080001,none,4,3.0,24671.0,164614.0,250413.0,295468.0,271638.0
2026-04-08 22:04:11.587779,403333,1609505023750540,2623717277,-1.077504,-0.085888,0.035136,3.0275,2.82625,-4.87375,34.688004,-14.696001,-12.832001,none,4,3.0,24671.0,164614.0,250413.0,295468.0,271638.0
2026-04-08 22:04:11.590216,403334,1609505023759423,2623725928,-1.077504,-0.085888,0.035136,4.12125,2.14375,-4.73375,34.688004,-14.696001,-12.832001,none,4,3.0,24671.0,164614.0,250413.0,295468.0,271638.0
2026-04-08 22:04:11.592683,403335,1609505023773943,2623740807,-1.085312,-0.05856,0.046848,3.77125,2.44125,-5.7225,34.84,-14.664001,-12.488001,none,4,3.0,24671.0,164614.0,250413.0,295468.0,271638.0
2026-04-08 22:04:11.595172,403336,1609505023782852,2623749467,-1.085312,-0.05856,0.046848,5.355,2.555,-7.21,34.84,-14.664001,-12.488001,none,4,3.0,24671.0,164614.0,250413.0,295468.0,271638.0
2026-04-08 22:04:11.624308,403347,1609505023797382,2623764370,-1.052128,-0.101504,0.081984,4.54125,0.8925,-7.77,34.600002,-14.832001,-12.688001,none,4,3.0,24684.0,164708.0,250532.0,295576.0,271677.0
2026-04-08 22:04:11.626371,403348,1609505023806425,2623773131,-1.061888,-0.111264,0.011712,1.1025,-0.0875,-8.40875,34.528,-14.440001,-11.968,none,4,3.0,24684.0,164708.0,250532.0,295576.0,271677.0
2026-04-08 22:04:11.628010,403349,1609505023820932,2623786091,-1.061888,-0.111264,0.011712,-0.21,-0.91,-9.21375,34.528,-14.440001,-11.968,none,4,3.0,24684.0,164708.0,250532.0,295576.0,271677.0
2026-04-08 22:04:11.630181,403350,1609505023830104,2623796858,-1.124352,-0.076128,0.015616,3.0625,-0.98875,-9.3275,34.872,-14.592001,-12.080001,none,4,3.0,24684.0,164708.0,250532.0,295576.0,271677.0
2026-04-08 22:04:11.632634,403351,1609505023839068,2623805539,-1.124352,-0.076128,0.015616,8.98625,-1.37375,-8.75,34.872,-14.592001,-12.080001,none,4,3.0,24684.0,164708.0,250532.0,295576.0,271677.0
2026-04-08 22:04:11.662935,403352,1609505023853555,2623820475,-1.075552,-0.074176,0.007808,12.1625,-1.1375,-8.7325,34.68,-14.192,-11.968,none,4,3.0,24684.0,164708.0,250532.0,295576.0,271677.0
2026-04-08 22:04:11.666493,403353,1609505023862455,2623829126,-1.075552,-0.074176,0.007808,11.69,-1.0325,-9.00375,34.68,-14.192,-11.968,none,4,3.0,24684.0,164708.0,250532.0,295576.0,271677.0
2026-04-08 22:04:11.670184,403354,1609505023876921,2623843971,-1.059936,-0.064416,0.11712,9.0125,-1.4525,-9.19625,34.992,-14.120001,-12.84,none,4,3.0,24684.0,164708.0,250532.0,295576.0,271677.0
2026-04-08 22:04:11.678942,403355,1609505023885827,2623852637,-1.050176,-0.103456,0.050752,6.25625,-1.1375,-9.7475,34.68,-14.280001,-12.184001,none,4,3.0,24684.0,164708.0,250532.0,295576.0,271677.0
2026-04-08 22:04:11.735183,403366,1609505023900497,2623867608,-1.050176,-0.103456,0.050752,4.97875,-1.2425,-8.505,34.68,-14.280001,-12.184001,none,4,3.0,24621.0,164467.0,250323.0,295448.0,271638.0
2026-04-08 22:04:11.740206,403367,1609505023909424,2623876262,-1.08336,-0.050752,0.035136,4.76875,-0.98,-5.76625,34.864002,-13.744,-12.8,none,4,3.0,24621.0,164467.0,250323.0,295448.0,271638.0
2026-04-08 22:04:11.742682,403368,1609505023918353,2623884950,-1.08336,-0.050752,0.035136,6.46625,-0.7,-5.85375,34.864002,-13.744,-12.8,none,4,3.0,24621.0,164467.0,250323.0,295448.0,271638.0
2026-04-08 22:04:11.745149,403369,1609505023932849,2623899847,-1.061888,-0.056608,0.00976,5.53875,-1.07625,-4.585,34.440002,-13.768001,-11.928,none,4,3.0,24621.0,164467.0,250323.0,295448.0,271638.0
2026-04-08 22:04:11.747664,403370,1609505023941852,2623908533,-1.061888,-0.056608,0.00976,-0.67375,-1.8725,-8.715,34.440002,-13.768001,-11.928,none,4,3.0,24621.0,164467.0,250323.0,295448.0,271638.0
2026-04-08 22:04:11.750198,403371,1609505023956459,2623923420,-1.079456,-0.119072,-0.023424,-7.18375,-2.6075,-10.17625,34.464,-14.096001,-12.496,none,4,3.0,24621.0,164467.0,250323.0,295448.0,271638.0
2026-04-08 22:04:11.757700,403372,1609505023965392,2623932121,-1.079456,-0.119072,-0.027328,-9.835,-3.36875,-8.9775,34.464,-14.096001,-12.496,none,4,3.0,24621.0,164467.0,250323.0,295448.0,271638.0
2026-04-08 22:04:11.787908,403373,1609505023979857,2623946954,-1.081408,-0.103456,-0.027328,-9.835,-3.68375,-5.52125,34.512,-14.416,-12.416,none,4,3.0,24621.0,164467.0,250323.0,295448.0,271638.0
2026-04-08 22:04:11.791367,403374,1609505023988778,2623955604,-1.100928,-0.085888,0.011712,-8.7325,-3.1675,-3.99875,34.768,-14.136001,-13.008,none,4,3.0,24621.0,164467.0,250323.0,295448.0,271638.0
2026-04-08 22:04:11.818875,403385,1609505023998221,2623964656,-1.100928,-0.085888,0.011712,-5.46875,-1.8025,-2.73875,34.768,-14.136001,-13.008,none,4,3.0,24632.0,164535.0,250411.0,295521.0,271659.0
2026-04-08 22:04:11.821393,403386,1609505024012735,2623979572,-1.110688,-0.06832,0.017568,-2.905,-1.4875,-0.49875,34.72,-14.024001,-13.152,none,4,3.0,24632.0,164535.0,250411.0,295521.0,271659.0
2026-04-08 22:04:11.823941,403387,1609505024021683,2623988257,-1.110688,-0.06832,0.017568,-0.9275,-1.30375,1.68875,34.72,-14.024001,-13.152,none,4,3.0,24632.0,164535.0,250411.0,295521.0,271659.0
2026-04-08 22:04:11.828904,403388,1609505024036188,2624003170,-1.067744,-0.093696,0.021472,-10.92,-3.29,-5.22375,34.536003,-13.736001,-12.184001,none,4,3.0,24632.0,164535.0,250411.0,295521.0,271659.0
2026-04-08 22:04:11.878150,403389,1609505024045108,2624011838,-1.067744,-0.093696,0.021472,-16.96625,-2.905,-4.36625,34.536003,-13.736001,-12.184001,none,4,3.0,24632.0,164535.0,250411.0,295521.0,271659.0
2026-04-08 22:04:11.881483,403390,1609505024054023,2624020497,-1.108736,-0.128832,0.031232,-7.27125,-0.525,2.9575,34.568,-13.960001,-12.816001,none,4,3.0,24632.0,164535.0,250411.0,295521.0,271659.0
2026-04-08 22:04:11.883877,403391,1609505024068504,2624035352,-1.091168,-0.01952,0.07808,3.15875,0.83125,5.94125,34.896,-14.256001,-13.448001,none,4,3.0,24632.0,164535.0,250411.0,295521.0,271659.0
2026-04-08 22:04:11.886394,403392,1609505024077445,2624044039,-1.091168,-0.01952,0.07808,1.3825,2.5025,3.57875,34.896,-14.256001,-13.448001,none,4,3.0,24632.0,164535.0,250411.0,295521.0,271659.0
2026-04-08 22:04:11.888916,403393,1609505024091920,2624058910,-1.050176,-0.085888,0.070272,-0.91875,1.0325,0.60375,34.68,-14.272,-12.856001,none,4,3.0,24632.0,164535.0,250411.0,295521.0,271659.0
2026-04-08 22:04:11.916374,403404,1609505024101433,2624067637,-1.050176,-0.085888,0.070272,0.0,-0.2275,0.105,34.68,-14.272,-12.856001,none,4,3.0,24576.0,164326.0,250212.0,295411.0,271645.0
2026-04-08 22:04:11.918918,403405,1609505024110420,2624076378,-1.110688,-0.080032,0.072224,-4.5325,0.385,-0.62125,34.216003,-14.416,-11.672001,none,4,3.0,24576.0,164326.0,250212.0,295411.0,271645.0
2026-04-08 22:04:11.921395,403406,1609505024124903,2624091256,-1.110688,-0.080032,0.072224,-12.25,1.84625,0.09625,34.216003,-14.416,-11.672001,none,4,3.0,24576.0,164326.0,250212.0,295411.0,271645.0
2026-04-08 22:04:11.925523,403407,1609505024133865,2624099975,-1.077504,-0.105408,0.035136,-13.37,1.925,1.68875,34.432003,-13.960001,-10.928,none,4,3.0,24576.0,164326.0,250212.0,295411.0,271645.0
2026-04-08 22:04:11.958846,403408,1609505024148332,2624114905,-1.057984,-0.050752,0.10736,-9.26625,1.4875,2.47625,34.52,-14.352,-11.920001,none,4,3.0,24576.0,164326.0,250212.0,295411.0,271645.0
2026-04-08 22:04:11.964178,403409,1609505024157261,2624123566,-1.057984,-0.050752,0.10736,-4.445,1.365,2.02125,34.52,-14.352,-11.920001,none,4,3.0,24576.0,164326.0,250212.0,295411.0,271645.0
2026-04-08 22:04:11.965629,403410,1609505024171737,2624138429,-1.042368,-0.11712,0.072224,-0.3325,0.70875,0.13125,34.728,-14.192,-12.824,none,4,3.0,24576.0,164326.0,250212.0,295411.0,271645.0
2026-04-08 22:04:11.994188,403411,1609505024180658,2624147089,-1.042368,-0.11712,0.072224,0.49875,-0.175,-1.575,34.728,-14.192,-12.824,none,4,3.0,24576.0,164326.0,250212.0,295411.0,271645.0
2026-04-08 22:04:11.998689,403412,1609505024189594,2624155785,-1.089216,-0.089792,0.074176,-3.605,-0.21,-1.6275,34.752003,-14.376,-12.960001,none,4,3.0,24576.0,164326.0,250212.0,295411.0,271645.0
2026-04-08 22:04:12.032431,403423,1609505024204122,2624170680,-1.089216,-0.089792,0.074176,-4.9175,0.30625,-1.37375,34.752003,-14.376,-12.960001,none,4,3.0,24575.0,164282.0,250123.0,295369.0,271619.0
2026-04-08 22:04:12.033919,403424,1609505024213042,2624179332,-1.0736,-0.095648,-0.001952,-1.225,1.39125,-1.53125,34.928,-14.392001,-13.280001,none,4,3.0,24575.0,164282.0,250123.0,295369.0,271619.0
2026-04-08 22:04:12.038145,403425,1609505024227555,2624194293,-1.0736,-0.10736,0.122976,4.2875,1.89,-1.96875,34.928,-14.392001,-13.280001,none,4,3.0,24575.0,164282.0,250123.0,295369.0,271619.0
2026-04-08 22:04:12.040665,403426,1609505024236488,2624202978,-1.046272,-0.10736,0.122976,8.14625,1.96875,-2.54625,34.648003,-14.192,-13.296001,none,4,3.0,24575.0,164282.0,250123.0,295369.0,271619.0
2026-04-08 22:04:12.044701,403427,1609505024250985,2624217867,-1.11264,-0.10736,0.103456,6.48375,1.53125,-5.3025,34.776,-14.352,-12.920001,none,4,3.0,24575.0,164282.0,250123.0,295369.0,271619.0
2026-04-08 22:04:12.074985,403428,1609505024259931,2624226553,-1.11264,-0.10736,0.103456,2.1175,0.27125,-7.98875,34.776,-14.352,-12.920001,none,4,3.0,24575.0,164282.0,250123.0,295369.0,271619.0
2026-04-08 22:04:12.077257,403429,1609505024268909,2624235203,-1.059936,-0.119072,0.05856,-1.04125,-0.07875,-9.2575,34.800003,-14.192,-12.144001,none,4,3.0,24575.0,164282.0,250123.0,295369.0,271619.0
2026-04-08 22:04:12.081866,403430,1609505024283393,2624250151,-1.059936,-0.119072,0.05856,-1.11125,0.28875,-9.1525,34.800003,-14.192,-12.144001,none,4,3.0,24575.0,164282.0,250123.0,295369.0,271619.0
2026-04-08 22:04:12.085528,403431,1609505024292297,2624258823,-1.050176,-0.080032,0.0488,2.05625,1.68,-7.98,34.736,-14.280001,-13.144001,none,4,3.0,24575.0,164282.0,250123.0,295369.0,271619.0
2026-04-08 22:04:12.121962,403442,1609505024306899,2624273849,-1.050176,-0.080032,0.0488,5.25,2.51125,-7.16625,34.736,-14.280001,-13.144001,none,4,3.0,24574.0,164189.0,249972.0,295246.0,271537.0
2026-04-08 22:04:12.123634,403443,1609505024315886,2624282566,-1.075552,-0.062464,0.023424,6.62375,2.9225,-6.88625,34.568,-14.008,-13.352,none,4,3.0,24574.0,164189.0,249972.0,295246.0,271537.0
2026-04-08 22:04:12.125172,403444,1609505024330434,2624297468,-1.06384,-0.095648,-0.001952,5.9675,3.2375,-6.85125,34.304,-13.848001,-12.920001,none,4,3.0,24574.0,164189.0,249972.0,295246.0,271537.0
2026-04-08 22:04:12.133007,403445,1609505024339368,2624306214,-1.06384,-0.095648,-0.001952,2.73,2.9925,-7.06125,34.304,-13.848001,-12.920001,none,4,3.0,24574.0,164189.0,249972.0,295246.0,271537.0
2026-04-08 22:04:12.179102,403446,1609505024348356,2624314896,-1.06384,-0.122976,0.037088,-0.70875,3.325,-6.895,34.304,-13.848001,-12.920001,none,4,3.0,24574.0,164189.0,249972.0,295246.0,271537.0
2026-04-08 22:04:12.181042,403447,1609505024362842,2624329744,-1.018944,-0.122976,0.037088,-1.68875,4.095,-5.4425,34.72,-14.128,-13.448001,none,4,3.0,24574.0,164189.0,249972.0,295246.0,271537.0
2026-04-08 22:04:12.185958,403448,1609505024371748,2624338401,-1.081408,-0.08784,0.00976,-1.32125,4.865,-3.85875,34.664,-14.192,-13.488001,none,4,3.0,24574.0,164189.0,249972.0,295246.0,271537.0
2026-04-08 22:04:12.187379,403449,1609505024386217,2624353259,-1.081408,-0.08784,0.00976,-0.48125,4.5675,-2.16125,34.664,-14.192,-13.488001,none,4,3.0,24574.0,164189.0,249972.0,295246.0,271537.0
2026-04-08 22:04:12.188980,403450,1609505024395110,2624361957,-1.1224,-0.0976,0.023424,1.42625,4.06,-2.07375,34.920002,-13.648001,-13.264001,none,4,3.0,24574.0,164189.0,249972.0,295246.0,271537.0
2026-04-08 22:04:12.216405,403461,1609505024409707,2624375032,-1.110688,-0.160064,-0.070272,2.40625,4.06875,-4.26125,34.576,-13.68,-12.712001,none,4,3.0,24590.0,164266.0,250065.0,295305.0,271545.0
2026-04-08 22:04:12.220683,403462,1609505024419047,2624385805,-1.110688,-0.160064,-0.070272,-1.82,2.555,-5.60875,34.576,-13.68,-12.712001,none,4,3.0,24590.0,164266.0,250065.0,295305.0,271545.0
2026-04-08 22:04:12.223118,403463,1609505024428085,2624394512,-1.110688,-0.160064,-0.070272,-6.11625,1.44375,-5.635,34.576,-13.68,-12.712001,none,4,3.0,24590.0,164266.0,250065.0,295305.0,271545.0
2026-04-08 22:04:12.251690,403464,1609505024442614,2624409405,-1.081408,-0.121024,0.091744,-4.8825,1.085,-5.39,34.256,-13.992001,-11.648001,none,4,3.0,24590.0,164266.0,250065.0,295305.0,271545.0
2026-04-08 22:04:12.256100,403465,1609505024451513,2624418055,-1.081408,-0.11712,0.021472,-1.14625,0.455,-5.3025,34.736,-13.840001,-13.608001,none,4,3.0,24590.0,164266.0,250065.0,295305.0,271545.0
2026-04-08 22:04:12.259691,403466,1609505024466012,2624432897,-1.081408,-0.11712,0.021472,1.785,0.21,-4.375,34.736,-13.840001,-13.608001,none,4,3.0,24590.0,164266.0,250065.0,295305.0,271545.0
2026-04-08 22:04:12.290101,403467,1609505024474914,2624441549,-1.104832,-0.080032,0.052704,2.17,0.5425,-3.955,34.632,-14.040001,-13.456,none,4,3.0,24590.0,164266.0,250065.0,295305.0,271545.0
2026-04-08 22:04:12.292332,403468,1609505024483839,2624450219,-1.104832,-0.080032,0.052704,1.3475,0.28,-4.9175,34.632,-14.040001,-13.456,none,4,3.0,24590.0,164266.0,250065.0,295305.0,271545.0
2026-04-08 22:04:12.335731,403479,1609505024498341,2624465077,-1.065792,-0.132736,0.044896,-0.5425,-0.88375,-5.495,34.608,-13.880001,-13.120001,none,4,3.0,24622.0,164435.0,250266.0,295421.0,271642.0
2026-04-08 22:04:12.337435,403480,1609505024507469,2624473762,-1.065792,-0.132736,0.044896,-2.6425,-1.51375,-5.11875,34.608,-13.880001,-13.120001,none,4,3.0,24622.0,164435.0,250266.0,295421.0,271642.0
2026-04-08 22:04:12.339048,403481,1609505024521954,2624488664,-1.077504,-0.183488,-0.042944,-5.1975,-2.73875,-4.7425,35.032,-13.696001,-12.040001,none,4,3.0,24622.0,164435.0,250266.0,295421.0,271642.0
2026-04-08 22:04:12.343827,403482,1609505024530931,2624497374,-1.09312,-0.142496,-0.007808,-6.01125,-4.40125,-3.99,35.04,-13.848001,-13.056001,none,4,3.0,24622.0,164435.0,250266.0,295421.0,271642.0
2026-04-08 22:04:12.346706,403483,1609505024545442,2624512304,-1.09312,-0.142496,-0.007808,-2.77375,-5.41625,-3.045,35.04,-13.848001,-13.056001,none,4,3.0,24622.0,164435.0,250266.0,295421.0,271642.0
2026-04-08 22:04:12.349256,403484,1609505024554371,2624521010,-1.059936,-0.150304,0.03904,2.1175,-5.46,-1.75875,34.56,-13.888001,-12.76,none,4,3.0,24622.0,164435.0,250266.0,295421.0,271642.0
2026-04-08 22:04:12.377940,403485,1609505024563342,2624529707,-1.059936,-0.150304,0.03904,5.36375,-4.6025,-1.89875,34.56,-13.888001,-12.76,none,4,3.0,24622.0,164435.0,250266.0,295421.0,271642.0
2026-04-08 22:04:12.382349,403486,1609505024577808,2624544561,-1.138016,-0.140544,-0.017568,4.41875,-4.585,-2.8875,34.904003,-13.768001,-13.488001,none,4,3.0,24622.0,164435.0,250266.0,295421.0,271642.0
2026-04-08 22:04:12.389269,403487,1609505024586718,2624553228,-1.138016,-0.140544,-0.017568,-0.44625,-6.195,-3.87625,34.904003,-13.768001,-13.488001,none,4,3.0,24622.0,164435.0,250266.0,295421.0,271642.0
2026-04-08 22:04:12.417029,403498,1609505024601629,2624568073,-1.106784,-0.154208,-0.103456,-4.01625,-6.97375,-3.43,34.784,-13.696001,-13.488001,none,4,3.0,24525.0,164123.0,250000.0,295321.0,271570.0
2026-04-08 22:04:12.455534,403499,1609505024610846,2624576885,-1.028704,-0.150304,-0.007808,-3.33375,-7.97125,-2.0825,34.648003,-13.808001,-13.432001,none,4,3.0,24525.0,164123.0,250000.0,295321.0,271570.0
2026-04-08 22:04:12.488321,403500,1609505024619791,2624585609,-1.028704,-0.150304,-0.007808,0.55125,-7.5075,-0.595,34.648003,-13.808001,-13.432001,none,4,3.0,24525.0,164123.0,250000.0,295321.0,271570.0
2026-04-08 22:04:12.489979,403501,1609505024634353,2624600498,-1.095072,-0.080032,-0.013664,3.2725,-6.39625,2.1875,34.672,-13.536,-11.872001,none,4,3.0,24525.0,164123.0,250000.0,295321.0,271570.0
2026-04-08 22:04:12.491450,403502,1609505024643243,2624609164,-1.095072,-0.080032,-0.013664,2.2225,-5.215,4.06,34.672,-13.536,-11.872001,none,4,3.0,24525.0,164123.0,250000.0,295321.0,271570.0
2026-04-08 22:04:12.495708,403503,1609505024657735,2624624003,-1.118496,-0.10736,-0.050752,0.9975,-5.18,3.85875,34.512,-13.824,-13.384001,none,4,3.0,24525.0,164123.0,250000.0,295321.0,271570.0
2026-04-08 22:04:12.497431,403504,1609505024666672,2624632713,-1.118496,-0.10736,-0.050752,-1.0325,-6.755,2.94,34.512,-13.824,-13.384001,none,4,3.0,24525.0,164123.0,250000.0,295321.0,271570.0
2026-04-08 22:04:12.498979,403505,1609505024681163,2624647593,-1.098976,-0.122976,-0.099552,-3.87625,-9.3975,2.9225,34.232002,-13.728001,-12.136001,none,4,3.0,24525.0,164123.0,250000.0,295321.0,271570.0
2026-04-08 22:04:12.507297,403506,1609505024690084,2624656256,-1.098976,-0.122976,-0.099552,-3.71875,-10.36,3.5875,34.232002,-13.728001,-12.136001,none,4,3.0,24525.0,164123.0,250000.0,295321.0,271570.0
2026-04-08 22:04:12.508924,403507,1609505024699045,2624665005,-1.085312,-0.083936,-0.037088,-1.02375,-9.73875,4.97,34.816,-13.816001,-12.816001,none,4,3.0,24525.0,164123.0,250000.0,295321.0,271570.0
2026-04-08 22:04:12.535728,403518,1609505024713600,2624679940,-1.077504,-0.07808,-0.052704,3.99875,-9.345,6.4925,34.824,-13.776001,-12.280001,none,4,3.0,24582.0,164342.0,250213.0,295460.0,271662.0
2026-04-08 22:04:12.537423,403519,1609505024722509,2624688662,-1.077504,-0.07808,-0.052704,5.29375,-10.29,7.77875,34.824,-13.776001,-12.280001,none,4,3.0,24582.0,164342.0,250213.0,295460.0,271662.0
2026-04-08 22:04:12.539940,403520,1609505024737123,2624703609,-1.065792,-0.080032,-0.011712,2.35375,-11.47125,7.91,34.592003,-14.024001,-12.456,none,4,3.0,24582.0,164342.0,250213.0,295460.0,271662.0
2026-04-08 22:04:12.541427,403521,1609505024746135,2624712292,-1.065792,-0.080032,-0.011712,2.1875,-12.48625,7.09625,34.592003,-14.024001,-12.456,none,4,3.0,24582.0,164342.0,250213.0,295460.0,271662.0
2026-04-08 22:04:12.572634,403522,1609505024760627,2624727202,-1.042368,-0.134688,0.015616,1.07625,-13.30875,6.69375,34.176003,-14.264001,-11.696,none,4,3.0,24582.0,164342.0,250213.0,295460.0,271662.0
2026-04-08 22:04:12.574870,403523,1609505024769546,2624735876,-1.042368,-0.134688,0.015616,-2.0125,-13.86,8.12875,34.176003,-14.264001,-11.696,none,4,3.0,24582.0,164342.0,250213.0,295460.0,271662.0
2026-04-08 22:04:12.579885,403524,1609505024778482,2624744526,-1.08336,-0.083936,0.003904,-2.31875,-13.7375,9.66,34.696003,-14.608001,-13.184001,none,4,3.0,24582.0,164342.0,250213.0,295460.0,271662.0
2026-04-08 22:04:12.588430,403525,1609505024792975,2624759546,-1.139968,-0.080032,0.023424,3.01875,-14.6125,10.31625,34.504,-14.576001,-11.392,none,4,3.0,24582.0,164342.0,250213.0,295460.0,271662.0
2026-04-08 22:04:12.616460,403536,1609505024802453,2624768263,-1.139968,-0.080032,0.023424,10.57875,-16.485,8.82875,34.504,-14.576001,-11.392,none,4,3.0,24620.0,164591.0,250452.0,295616.0,271738.0
2026-04-08 22:04:12.619874,403537,1609505024817118,2624783173,-1.13216,-0.111264,-0.031232,8.18125,-19.31125,7.02625,34.528,-14.504001,-10.872001,none,4,3.0,24620.0,164591.0,250452.0,295616.0,271738.0
2026-04-08 22:04:12.622246,403538,1609505024826078,2624791885,-1.13216,-0.111264,-0.031232,-2.54625,-21.44625,5.34625,34.528,-14.504001,-10.872001,none,4,3.0,24620.0,164591.0,250452.0,295616.0,271738.0
2026-04-08 22:04:12.628027,403539,1609505024834981,2624800554,-1.050176,-0.091744,0.105408,-9.31,-22.21625,5.2325,34.224003,-14.424001,-11.496,none,4,3.0,24620.0,164591.0,250452.0,295616.0,271738.0
2026-04-08 22:04:12.656675,403540,1609505024849895,2624815443,-1.050176,-0.091744,0.105408,-8.33875,-21.98875,5.87125,34.224003,-14.424001,-11.496,none,4,3.0,24620.0,164591.0,250452.0,295616.0,271738.0
2026-04-08 22:04:12.661089,403541,1609505024859243,2624826168,-1.087264,-0.099552,-0.013664,-3.91125,-20.48375,6.8425,34.672,-14.992001,-10.480001,none,4,3.0,24620.0,164591.0,250452.0,295616.0,271738.0
2026-04-08 22:04:12.668139,403542,1609505024873709,2624838953,-1.036512,-0.08784,0.007808,-3.43875,-20.41375,7.2625,34.568,-14.944,-11.624001,none,4,3.0,24620.0,164591.0,250452.0,295616.0,271738.0
2026-04-08 22:04:12.696694,403543,1609505024882943,2624849701,-1.036512,-0.08784,0.007808,-5.95,-22.05875,6.3,34.568,-14.944,-11.624001,none,4,3.0,24620.0,164591.0,250452.0,295616.0,271738.0
2026-04-08 22:04:12.701240,403544,1609505024891877,2624858364,-1.036512,-0.08784,-0.052704,-7.21,-23.82625,5.075,34.568,-14.944,-11.624001,none,4,3.0,24620.0,164591.0,250452.0,295616.0,271738.0
2026-04-08 22:04:12.727657,403555,1609505024906495,2624873519,-1.081408,-0.052704,-0.052704,-6.97375,-24.78,4.27,34.816,-15.064001,-9.424001,none,4,3.0,24602.0,164353.0,250049.0,295325.0,271579.0
2026-04-08 22:04:12.730219,403556,1609505024915430,2624882223,-1.095072,-0.037088,-0.056608,-7.30625,-23.975,4.47125,34.384003,-14.912001,-10.952001,none,4,3.0,24602.0,164353.0,250049.0,295325.0,271579.0
2026-04-08 22:04:12.732803,403557,1609505024930003,2624897091,-1.095072,-0.037088,-0.056608,-5.46,-22.70625,5.78375,34.384003,-14.912001,-10.952001,none,4,3.0,24602.0,164353.0,250049.0,295325.0,271579.0
2026-04-08 22:04:12.735146,403558,1609505024938948,2624905826,-1.05408,-0.050752,0.011712,-3.15875,-22.46125,7.00875,34.424,-15.256001,-10.712001,none,4,3.0,24602.0,164353.0,250049.0,295325.0,271579.0
2026-04-08 22:04:12.779272,403559,1609505024953449,2624918675,-1.042368,-0.023424,0.124928,-2.80875,-23.30125,7.84875,34.424,-15.504001,-9.672001,none,4,3.0,24602.0,164353.0,250049.0,295325.0,271579.0
2026-04-08 22:04:12.781562,403560,1609505024962655,2624929386,-1.042368,-0.023424,0.124928,-3.6925,-23.6425,7.4375,34.424,-15.504001,-9.672001,none,4,3.0,24602.0,164353.0,250049.0,295325.0,271579.0
2026-04-08 22:04:12.785171,403561,1609505024971612,2624938049,-1.042368,-0.023424,0.124928,-5.74,-22.98625,8.4,34.424,-15.504001,-9.672001,none,4,3.0,24602.0,164353.0,250049.0,295325.0,271579.0
2026-04-08 22:04:12.790179,403562,1609505024986106,2624952917,-1.020896,0.005856,0.208864,-7.48125,-21.7875,10.31625,34.792,-15.472001,-11.296001,none,4,3.0,24602.0,164353.0,250049.0,295325.0,271579.0
2026-04-08 22:04:12.792680,403563,1609505024994998,2624961564,-1.118496,-0.011712,0.06832,-8.3125,-20.116251,11.47125,34.52,-15.848001,-10.808001,none,4,3.0,24602.0,164353.0,250049.0,295325.0,271579.0
2026-04-08 22:04:12.823691,403575,1609505025009573,2624976514,-1.118496,-0.011712,0.06832,-7.9275,-20.02,11.36625,34.52,-15.848001,-10.808001,none,4,3.0,24526.0,163994.0,249563.0,295016.0,271421.0
2026-04-08 22:04:12.827120,403576,1609505025018617,2624985249,-1.061888,-0.08784,0.1464,-10.94625,-22.00625,9.89625,34.288002,-15.968,-8.592,none,4,3.0,24526.0,163994.0,249563.0,295016.0,271421.0
2026-04-08 22:04:12.828344,403577,1609505025027584,2624993984,-1.061888,-0.08784,0.1464,-14.096251,-24.0275,8.33875,34.288002,-15.968,-8.592,none,4,3.0,24526.0,163994.0,249563.0,295016.0,271421.0
2026-04-08 22:04:12.833913,403578,1609505025042130,2625008937,-1.013088,-0.060512,0.169824,-14.175,-24.68375,8.37375,34.0,-16.08,-9.232,none,4,3.0,24526.0,163994.0,249563.0,295016.0,271421.0
2026-04-08 22:04:12.864688,403579,1609505025051071,2625017623,-1.013088,-0.060512,0.169824,-10.94625,-23.397501,8.645,34.0,-16.08,-9.232,none,4,3.0,24526.0,163994.0,249563.0,295016.0,271421.0
2026-04-08 22:04:12.867701,403580,1609505025065581,2625032482,-1.069696,-0.021472,0.11712,-8.07625,-20.36125,10.6575,34.328003,-16.152,-9.904,none,4,3.0,24526.0,163994.0,249563.0,295016.0,271421.0
2026-04-08 22:04:12.870200,403581,1609505025074478,2625041138,-1.118496,-0.003904,0.070272,-7.35875,-19.022501,13.685,34.344,-16.488,-8.92,none,4,3.0,24526.0,163994.0,249563.0,295016.0,271421.0
2026-04-08 22:04:12.900410,403582,1609505025088949,2625056015,-1.118496,-0.003904,0.070272,-8.05,-19.18875,15.3475,34.344,-16.488,-8.92,none,4,3.0,24526.0,163994.0,249563.0,295016.0,271421.0
2026-04-08 22:04:12.903977,403583,1609505025097885,2625064694,-1.05408,-0.011712,0.167872,-8.72375,-19.3025,14.28,34.440002,-16.44,-9.376,none,4,3.0,24526.0,163994.0,249563.0,295016.0,271421.0
2026-04-08 22:04:12.931452,403594,1609505025106916,2625073383,-1.05408,-0.011712,0.167872,-6.5975,-20.67625,10.955,34.440002,-16.44,-9.376,none,4,3.0,24599.0,164092.0,249474.0,294971.0,271428.0
2026-04-08 22:04:12.933944,403595,1609505025121623,2625088286,-1.018944,-0.011712,0.288896,-6.86,-20.72,8.575,34.184002,-17.088001,-9.456,none,4,3.0,24599.0,164092.0,249474.0,294971.0,271428.0
2026-04-08 22:04:12.940143,403596,1609505025130595,2625097003,-1.018944,-0.011712,0.288896,-10.29875,-19.27625,9.8175,34.184002,-17.088001,-9.456,none,4,3.0,24599.0,164092.0,249474.0,294971.0,271428.0
2026-04-08 22:04:12.942653,403597,1609505025145182,2625111880,-0.999424,-0.02928,0.148352,-13.93875,-17.5175,13.20375,33.832,-16.848001,-8.704,none,4,3.0,24599.0,164092.0,249474.0,294971.0,271428.0
2026-04-08 22:04:12.946409,403598,1609505025154111,2625120556,-0.968192,0.025376,0.290848,-16.79125,-16.19625,16.47625,33.832,-17.096,-9.576,none,4,3.0,24599.0,164092.0,249474.0,294971.0,271428.0
2026-04-08 22:04:12.976607,403599,1609505025168568,2625135413,-0.968192,0.025376,0.290848,-16.77375,-15.7675,17.8675,33.808002,-17.096,-9.576,none,4,3.0,24599.0,164092.0,249474.0,294971.0,271428.0
2026-04-08 22:04:12.980201,403600,1609505025177531,2625144074,-0.999424,-0.011712,0.267424,-13.79,-16.0475,16.21375,33.904003,-17.336,-9.120001,none,4,3.0,24599.0,164092.0,249474.0,294971.0,271428.0
2026-04-08 22:04:12.984273,403601,1609505025186457,2625152739,-0.999424,-0.011712,0.267424,-13.11625,-16.37125,14.42875,33.904003,-17.336,-9.120001,none,4,3.0,24599.0,164092.0,249474.0,294971.0,271428.0
2026-04-08 22:04:13.012840,403602,1609505025200976,2625167606,-1.018944,-0.003904,0.298656,-14.77,-16.9575,14.00875,33.776,-18.008001,-8.72,none,4,3.0,24599.0,164092.0,249474.0,294971.0,271428.0
2026-04-08 22:04:13.041397,403613,1609505025209964,2625176327,-1.018944,-0.003904,0.298656,-15.74125,-17.89375,14.79625,33.776,-18.008001,-8.72,none,4,3.0,24661.0,164299.0,249551.0,295016.0,271469.0
2026-04-08 22:04:13.043913,403614,1609505025224497,2625191211,-1.018944,0.01952,0.281088,-14.5775,-17.99,15.8375,33.712,-17.648,-8.688001,none,4,3.0,24661.0,164299.0,249551.0,295016.0,271469.0
2026-04-08 22:04:13.046375,403615,1609505025233433,2625199869,-1.018944,0.01952,0.281088,-9.94,-17.64875,16.12625,33.712,-17.648,-8.688001,none,4,3.0,24661.0,164299.0,249551.0,295016.0,271469.0
2026-04-08 22:04:13.082901,403616,1609505025242480,2625208659,-0.976,-0.005856,0.384544,-4.76,-16.835001,16.47625,33.24,-17.880001,-6.112001,none,4,3.0,24661.0,164299.0,249551.0,295016.0,271469.0
2026-04-08 22:04:13.086448,403617,1609505025257067,2625223580,-1.050176,0.01952,0.343552,-2.2575,-15.70625,17.255,33.104,-18.272001,-8.064,none,4,3.0,24661.0,164299.0,249551.0,295016.0,271469.0
2026-04-08 22:04:13.088930,403618,1609505025265986,2625232240,-1.050176,0.01952,0.343552,-2.30125,-14.9975,17.31625,33.104,-18.272001,-8.064,none,4,3.0,24661.0,164299.0,249551.0,295016.0,271469.0
2026-04-08 22:04:13.091358,403619,1609505025280405,2625247118,-1.036512,0.050752,0.3416,-2.345,-14.18375,17.815,33.424,-18.336,-8.312,none,4,3.0,24661.0,164299.0,249551.0,295016.0,271469.0
2026-04-08 22:04:13.093870,403620,1609505025289306,2625255828,-1.036512,0.050752,0.3416,-1.715,-14.315001,19.1625,33.424,-18.336,-8.312,none,4,3.0,24661.0,164299.0,249551.0,295016.0,271469.0
2026-04-08 22:04:13.125245,403631,1609505025304240,2625270818,-1.100928,0.046848,0.249856,1.11125,-13.78125,18.52375,33.168003,-18.696001,-8.496,none,4,3.0,24663.0,164354.0,249599.0,295069.0,271508.0
2026-04-08 22:04:13.127686,403632,1609505025313311,2625279574,-1.100928,0.046848,0.249856,2.00375,-14.69125,16.03,33.168003,-18.696001,-8.496,none,4,3.0,24663.0,164354.0,249599.0,295069.0,271508.0
2026-04-08 22:04:13.130201,403633,1609505025322367,2625288260,-1.08336,0.00976,0.288896,-3.5,-16.52,14.735,33.272003,-19.192001,-10.160001,none,4,3.0,24663.0,164354.0,249599.0,295069.0,271508.0
2026-04-08 22:04:13.136458,403634,1609505025336911,2625303153,-1.071648,0.03904,0.236192,-12.95875,-16.80875,13.3525,32.808002,-19.136002,-8.648001,none,4,3.0,24663.0,164354.0,249599.0,295069.0,271508.0
2026-04-08 22:04:13.139646,403635,1609505025345839,2625311822,-1.071648,0.03904,0.236192,-16.23125,-16.82625,12.0575,32.808002,-19.136002,-8.648001,none,4,3.0,24663.0,164354.0,249599.0,295069.0,271508.0
2026-04-08 22:04:13.169189,403636,1609505025360340,2625326682,-1.071648,0.050752,0.255712,-10.8325,-16.42375,11.5325,32.992,-19.288,-7.736001,none,4,3.0,24663.0,164354.0,249599.0,295069.0,271508.0
2026-04-08 22:04:13.172678,403637,1609505025369230,2625335336,-1.071648,0.050752,0.255712,-4.47125,-15.98625,10.92875,32.992,-19.288,-7.736001,none,4,3.0,24663.0,164354.0,249599.0,295069.0,271508.0
2026-04-08 22:04:13.175167,403638,1609505025383699,2625350283,-1.087264,0.040992,0.191296,-2.35375,-16.66,9.30125,32.816,-18.880001,-7.536,none,4,3.0,24663.0,164354.0,249599.0,295069.0,271508.0
2026-04-08 22:04:13.209158,403639,1609505025392667,2625358977,-1.087264,0.040992,0.191296,-6.8425,-16.52,8.435,32.816,-18.880001,-7.536,none,4,3.0,24663.0,164354.0,249599.0,295069.0,271508.0
2026-04-08 22:04:13.212766,403640,1609505025401662,2625367633,-0.968192,0.042944,0.306464,-10.05375,-16.3275,7.28875,32.856003,-19.544,-7.624001,none,4,3.0,24663.0,164354.0,249599.0,295069.0,271508.0
2026-04-08 22:04:13.240168,403651,1609505025416192,2625382501,-1.001376,0.091744,0.316224,-8.2075,-15.18125,7.77,32.792,-19.776001,-11.632001,none,4,3.0,24843.0,164943.0,249990.0,295354.0,271689.0
2026-04-08 22:04:13.242693,403652,1609505025425116,2625391193,-1.001376,0.091744,0.316224,-4.78625,-12.90625,10.5175,32.792,-19.776001,-11.632001,none,4,3.0,24843.0,164943.0,249990.0,295354.0,271689.0
2026-04-08 22:04:13.245164,403653,1609505025439577,2625406066,-1.065792,0.10736,0.314272,-1.25125,-10.77125,12.775,32.328003,-19.76,-6.776001,none,4,3.0,24843.0,164943.0,249990.0,295354.0,271689.0
2026-04-08 22:04:13.247673,403654,1609505025448602,2625414784,-1.065792,0.10736,0.314272,0.13125,-9.80875,12.2325,32.328003,-19.76,-6.776001,none,4,3.0,24843.0,164943.0,249990.0,295354.0,271689.0
2026-04-08 22:04:13.252638,403655,1609505025457519,2625423437,-1.09312,0.070272,0.208864,-1.88125,-10.4475,10.73625,32.272003,-19.616001,-6.272,none,4,3.0,24843.0,164943.0,249990.0,295354.0,271689.0
2026-04-08 22:04:13.283843,403656,1609505025472056,2625438377,-1.09312,0.070272,0.208864,-5.6,-11.5675,10.255,32.272003,-19.616001,-6.272,none,4,3.0,24843.0,164943.0,249990.0,295354.0,271689.0
2026-04-08 22:04:13.286079,403657,1609505025480982,2625447052,-0.991616,0.052704,0.22448,-8.9425,-11.13875,11.27875,32.368,-19.52,-7.368001,none,4,3.0,24843.0,164943.0,249990.0,295354.0,271689.0
2026-04-08 22:04:13.290704,403658,1609505025495470,2625461907,-0.991616,0.052704,0.22448,-8.4,-10.08,13.43125,32.368,-19.52,-7.368001,none,4,3.0,24843.0,164943.0,249990.0,295354.0,271689.0
2026-04-08 22:04:13.321667,403669,1609505025504441,2625470560,-0.99552,0.054656,0.208864,-4.27,-9.5725,15.435,32.272003,-20.376001,-7.696001,none,4,3.0,25146.0,165508.0,250081.0,295347.0,271718.0
2026-04-08 22:04:13.322744,403670,1609505025519498,2625485583,-1.018944,0.076128,0.27328,0.34125,-9.1175,16.5375,32.440002,-20.328001,-7.488,none,4,3.0,25146.0,165508.0,250081.0,295347.0,271718.0
2026-04-08 22:04:13.326909,403671,1609505025528496,2625494336,-1.018944,0.076128,0.27328,3.4475,-8.855001,16.45875,32.440002,-20.328001,-7.488,none,4,3.0,25146.0,165508.0,250081.0,295347.0,271718.0
2026-04-08 22:04:13.330561,403672,1609505025537452,2625503009,-1.04432,0.11712,0.247904,4.0775,-9.555,16.3625,31.848001,-20.248001,-7.168,none,4,3.0,25146.0,165508.0,250081.0,295347.0,271718.0
2026-04-08 22:04:13.384534,403673,1609505025552295,2625517890,-1.04432,0.11712,0.247904,6.195,-10.00125,15.408751,31.848001,-20.248001,-7.168,none,4,3.0,25146.0,165508.0,250081.0,295347.0,271718.0
2026-04-08 22:04:13.386132,403674,1609505025561667,2625528630,-1.052128,0.062464,0.28304,8.47,-11.261251,13.79,32.16,-20.504002,-7.392,none,4,3.0,25146.0,165508.0,250081.0,295347.0,271718.0
2026-04-08 22:04:13.388560,403675,1609505025576160,2625541457,-1.052128,0.062464,0.28304,5.775,-12.8625,12.1275,32.16,-20.504002,-7.392,none,4,3.0,25146.0,165508.0,250081.0,295347.0,271718.0
2026-04-08 22:04:13.390112,403676,1609505025585455,2625552194,-1.011136,0.052704,0.30256,1.3825,-14.385,10.54375,31.808,-20.832,-7.432,none,4,3.0,25146.0,165508.0,250081.0,295347.0,271718.0
2026-04-08 22:04:13.394261,403677,1609505025594348,2625560848,-1.011136,0.052704,0.30256,1.23375,-15.65375,9.37125,31.808,-20.832,-7.432,none,4,3.0,25146.0,165508.0,250081.0,295347.0,271718.0
2026-04-08 22:04:13.425177,403688,1609505025609480,2625575776,-0.987712,0.093696,0.327936,3.9025,-16.66,9.5725,31.880001,-21.056002,-7.464,none,4,3.0,25483.0,166293.0,250265.0,295325.0,271687.0
2026-04-08 22:04:13.429419,403689,1609505025618403,2625584539,-1.003328,0.134688,0.40992,7.875,-16.49375,9.82625,31.400002,-21.304,-6.848001,none,4,3.0,25483.0,166293.0,250265.0,295325.0,271687.0
2026-04-08 22:04:13.431120,403690,1609505025627316,2625593234,-1.003328,0.134688,0.40992,11.9525,-16.905,9.205,31.400002,-21.304,-6.848001,none,4,3.0,25483.0,166293.0,250265.0,295325.0,271687.0
2026-04-08 22:04:13.432708,403691,1609505025641815,2625608183,-1.00528,0.144448,0.382592,12.11875,-17.5875,7.51625,31.440002,-20.584002,-6.08,none,4,3.0,25483.0,166293.0,250265.0,295325.0,271687.0
2026-04-08 22:04:13.466153,403692,1609505025650765,2625616857,-1.00528,0.144448,0.382592,9.1175,-17.92,4.80375,31.440002,-20.584002,-6.08,none,4,3.0,25483.0,166293.0,250265.0,295325.0,271687.0
2026-04-08 22:04:13.470675,403693,1609505025665194,2625631750,-1.020896,0.138592,0.18544,4.57625,-17.928751,2.96625,31.808,-21.240002,-7.184001,none,4,3.0,25483.0,166293.0,250265.0,295325.0,271687.0
2026-04-08 22:04:13.472237,403694,1609505025674069,2625640390,-1.020896,0.138592,0.18544,0.41125,-17.675,3.33375,31.808,-21.240002,-7.184001,none,4,3.0,25483.0,166293.0,250265.0,295325.0,271687.0
2026-04-08 22:04:13.481802,403695,1609505025688572,2625655365,-1.022848,0.113216,0.189344,-0.2625,-17.85,4.99625,31.632002,-21.536001,-7.008,none,4,3.0,25483.0,166293.0,250265.0,295325.0,271687.0
2026-04-08 22:04:13.510388,403696,1609505025697510,2625664032,-1.022848,0.10736,0.32208,-1.49625,-18.8475,3.4825,31.632002,-21.536001,-7.008,none,4,3.0,25483.0,166293.0,250265.0,295325.0,271687.0
2026-04-08 22:04:13.539106,403707,1609505025712108,2625678931,-1.020896,0.10736,0.32208,-6.23875,-20.6325,-0.02625,31.520002,-21.408,-9.616,none,4,3.0,25650.0,166809.0,250442.0,295387.0,271708.0
2026-04-08 22:04:13.543729,403708,1609505025721048,2625687586,-0.952576,0.134688,0.310368,-10.4825,-22.0675,-1.12,31.616001,-21.336,-6.456,none,4,3.0,25650.0,166809.0,250442.0,295387.0,271708.0
2026-04-08 22:04:13.544984,403709,1609505025729992,2625696286,-0.952576,0.134688,0.310368,-10.465,-22.89,-0.63875,31.616001,-21.336,-6.456,none,4,3.0,25650.0,166809.0,250442.0,295387.0,271708.0
2026-04-08 22:04:13.546853,403710,1609505025744580,2625711204,-1.007232,0.163968,0.232288,-6.9125,-22.77625,1.44375,31.736002,-21.064001,-6.568,none,4,3.0,25650.0,166809.0,250442.0,295387.0,271708.0
2026-04-08 22:04:13.550551,403711,1609505025753606,2625719943,-1.007232,0.163968,0.232288,-3.01,-22.4525,2.73875,31.736002,-21.064001,-6.568,none,4,3.0,25650.0,166809.0,250442.0,295387.0,271708.0
2026-04-08 22:04:13.579238,403712,1609505025768120,2625734872,-1.030656,0.130784,0.286944,-0.46375,-22.89875,2.8175,31.400002,-21.52,-6.192,none,4,3.0,25650.0,166809.0,250442.0,295387.0,271708.0
2026-04-08 22:04:13.583649,403713,1609505025777023,2625743517,-1.030656,0.130784,0.286944,-2.135,-24.15,1.5925,31.400002,-21.52,-6.192,none,4,3.0,25650.0,166809.0,250442.0,295387.0,271708.0
2026-04-08 22:04:13.585159,403714,1609505025785936,2625752185,-0.989664,0.091744,0.20496,-6.81625,-25.82125,-0.42875,31.792002,-21.552002,-5.744,none,4,3.0,25650.0,166809.0,250442.0,295387.0,271708.0
2026-04-08 22:04:13.616364,403715,1609505025800427,2625767056,-1.001376,0.140544,0.357216,-9.948751,-26.41625,-0.3675,31.496002,-21.480001,-5.136,none,4,3.0,25650.0,166809.0,250442.0,295387.0,271708.0
2026-04-08 22:04:13.648489,403726,1609505025809922,2625776285,-1.001376,0.140544,0.357216,-8.198751,-27.41375,1.79375,31.496002,-21.480001,-5.136,none,4,3.0,25729.0,166983.0,250469.0,295365.0,271693.0
2026-04-08 22:04:13.683790,403727,1609505025824424,2625791152,-1.00528,0.11712,0.325984,-3.29875,-28.525,2.2575,31.560001,-21.288,-5.648,none,4,3.0,25729.0,166983.0,250469.0,295365.0,271693.0
2026-04-08 22:04:13.688226,403728,1609505025833339,2625799818,-1.00528,0.11712,0.325984,-2.38,-29.21625,1.3125,31.560001,-21.288,-5.648,none,4,3.0,25729.0,166983.0,250469.0,295365.0,271693.0
2026-04-08 22:04:13.689897,403729,1609505025848031,2625814725,-1.059936,0.152256,0.288896,-5.36375,-28.30625,0.2625,31.160002,-21.288,-4.448,none,4,3.0,25729.0,166983.0,250469.0,295365.0,271693.0
2026-04-08 22:04:13.692364,403730,1609505025857094,2625823430,-1.059936,0.152256,0.288896,-8.575,-28.210001,-0.07,31.160002,-21.288,-4.448,none,4,3.0,25729.0,166983.0,250469.0,295365.0,271693.0
2026-04-08 22:04:13.693952,403731,1609505025866014,2625832104,-1.03456,0.10736,0.296704,-10.89375,-29.35625,1.04125,31.496002,-21.68,-6.28,none,4,3.0,25729.0,166983.0,250469.0,295365.0,271693.0
2026-04-08 22:04:13.730006,403732,1609505025880427,2625847002,-1.030656,0.132736,0.357216,-11.7075,-31.325,0.07,31.272001,-21.576,-4.76,none,4,3.0,25729.0,166983.0,250469.0,295365.0,271693.0
2026-04-08 22:04:13.734464,403733,1609505025889331,2625855684,-1.030656,0.132736,0.357216,-11.725,-32.576252,-2.17875,31.272001,-21.576,-4.76,none,4,3.0,25729.0,166983.0,250469.0,295365.0,271693.0
2026-04-08 22:04:13.736236,403734,1609505025903835,2625870552,-0.977952,0.140544,0.308416,-12.8275,-32.83,-3.4825,31.28,-21.512001,-3.408,none,4,3.0,25729.0,166983.0,250469.0,295365.0,271693.0
2026-04-08 22:04:13.768230,403745,1609505025912921,2625879265,-0.977952,0.140544,0.308416,-16.37125,-32.3225,-2.8175,31.28,-21.512001,-3.408,none,4,3.0,25764.0,167137.0,250506.0,295398.0,271720.0
2026-04-08 22:04:13.769926,403746,1609505025921866,2625887932,-0.938912,0.162016,0.257664,-20.13375,-33.2675,-0.34125,31.272001,-21.576,-4.008,none,4,3.0,25764.0,167137.0,250506.0,295398.0,271720.0
2026-04-08 22:04:13.772382,403747,1609505025936360,2625902771,-0.938912,0.162016,0.257664,-23.1525,-34.8075,0.875,31.272001,-21.576,-4.008,none,4,3.0,25764.0,167137.0,250506.0,295398.0,271720.0
2026-04-08 22:04:13.774033,403748,1609505025945293,2625911441,-0.880352,0.132736,0.411872,-24.29,-36.39125,0.65625,31.816002,-21.752,-3.584,none,4,3.0,25764.0,167137.0,250506.0,295398.0,271720.0
2026-04-08 22:04:13.779384,403749,1609505025959875,2625926369,-0.901824,0.083936,0.31232,-25.68125,-36.49625,0.18375,31.784002,-21.872002,-4.216,none,4,3.0,25764.0,167137.0,250506.0,295398.0,271720.0
2026-04-08 22:04:13.779966,403750,1609505025968845,2625935114,-0.901824,0.083936,0.31232,-29.23375,-36.4525,1.3475,31.784002,-21.872002,-4.216,none,4,3.0,25764.0,167137.0,250506.0,295398.0,271720.0
2026-04-08 22:04:13.781603,403751,1609505025983358,2625949984,-0.872544,0.0488,0.441152,-28.428751,-37.765,2.44125,31.096,-21.808,-2.32,none,4,3.0,25764.0,167137.0,250506.0,295398.0,271720.0
2026-04-08 22:04:13.786165,403752,1609505025992324,2625958715,-0.872544,0.0488,0.441152,-27.41375,-40.36375,1.91625,31.096,-21.808,-2.32,none,4,3.0,25764.0,167137.0,250506.0,295398.0,271720.0
2026-04-08 22:04:13.816345,403753,1609505026001257,2625967423,-0.9272,0.111264,0.413824,-30.17,-42.1925,-1.12875,31.336002,-21.944,-1.936,none,4,3.0,25764.0,167137.0,250506.0,295398.0,271720.0
2026-04-08 22:04:13.844890,403764,1609505026015761,2625982365,-0.9272,0.111264,0.413824,-33.34625,-42.60375,-1.4525,31.336002,-21.944,-1.936,none,4,3.0,25723.0,166992.0,250503.0,295488.0,271819.0
2026-04-08 22:04:13.846586,403765,1609505026024726,2625991042,-0.952576,0.13664,0.489952,-32.445,-43.155,0.18375,30.976002,-21.952002,-2.024,none,4,3.0,25723.0,166992.0,250503.0,295488.0,271819.0
2026-04-08 22:04:13.850714,403766,1609505026039334,2626005980,-0.952576,0.13664,0.489952,-30.73875,-43.5575,1.12875,30.976002,-21.952002,-2.024,none,4,3.0,25723.0,166992.0,250503.0,295488.0,271819.0
2026-04-08 22:04:13.853150,403767,1609505026048296,2626014659,-0.933056,0.103456,0.503616,-30.00375,-44.607502,-0.37625,30.872002,-22.048,-1.936,none,4,3.0,25723.0,166992.0,250503.0,295488.0,271819.0
2026-04-08 22:04:13.856815,403768,1609505026062905,2626029570,-0.876448,0.076128,0.55632,-30.3275,-45.47375,-2.9925,31.184002,-22.064001,-1.32,none,4,3.0,25723.0,166992.0,250503.0,295488.0,271819.0
2026-04-08 22:04:13.885363,403769,1609505026071818,2626038281,-0.876448,0.076128,0.55632,-31.84125,-45.4125,-4.96125,31.184002,-22.064001,-1.32,none,4,3.0,25723.0,166992.0,250503.0,295488.0,271819.0
2026-04-08 22:04:13.889895,403770,1609505026080749,2626046959,-0.903776,0.0976,0.552416,-33.7925,-45.21125,-3.36875,31.232002,-21.920002,-3.16,none,4,3.0,25723.0,166992.0,250503.0,295488.0,271819.0
2026-04-08 22:04:13.892263,403771,1609505026095245,2626061807,-0.903776,0.0976,0.552416,-34.09,-45.01,-1.28625,31.232002,-21.920002,-3.16,none,4,3.0,25723.0,166992.0,250503.0,295488.0,271819.0
2026-04-08 22:04:13.895993,403772,1609505026104316,2626070442,-0.913536,0.085888,0.554368,-33.67875,-44.4675,-1.86375,31.12,-22.024,-0.088,none,4,3.0,25723.0,166992.0,250503.0,295488.0,271819.0
2026-04-08 22:04:13.923620,403783,1609505026118858,2626085383,-0.913536,0.085888,0.554368,-31.115,-44.09125,-3.38625,31.12,-22.024,-0.088,none,4,3.0,25508.0,166247.0,250108.0,295379.0,271845.0
2026-04-08 22:04:13.925173,403784,1609505026127819,2626094078,-0.81984,0.033184,0.667584,-29.723751,-44.765,-3.66625,30.696001,-21.904001,1.344,none,4,3.0,25508.0,166247.0,250108.0,295379.0,271845.0
2026-04-08 22:04:13.981435,403785,1609505026142305,2626108959,-0.808128,0.007808,0.655872,-27.8075,-43.54,-5.15375,30.784002,-21.648,0.832,none,4,3.0,25508.0,166247.0,250108.0,295379.0,271845.0
2026-04-08 22:04:13.983554,403786,1609505026151208,2626117636,-0.808128,0.007808,0.655872,-26.69625,-40.6525,-5.59125,30.784002,-21.648,0.832,none,4,3.0,25508.0,166247.0,250108.0,295379.0,271845.0
2026-04-08 22:04:13.988202,403787,1609505026160188,2626126289,-0.808128,0.007808,0.655872,-24.47375,-37.3275,-3.115,30.784002,-21.648,0.832,none,4,3.0,25508.0,166247.0,250108.0,295379.0,271845.0
2026-04-08 22:04:13.989940,403788,1609505026174659,2626141178,-0.802272,0.031232,0.636352,-19.88875,-33.59125,0.84,31.024002,-21.744001,-0.424,none,4,3.0,25508.0,166247.0,250108.0,295379.0,271845.0
2026-04-08 22:04:13.992348,403789,1609505026183624,2626149852,-0.872544,0.040992,0.630496,-14.67375,-31.6225,2.065,30.872002,-22.016,1.224,none,4,3.0,25508.0,166247.0,250108.0,295379.0,271845.0
2026-04-08 22:04:13.995081,403790,1609505026198101,2626164704,-0.872544,0.040992,0.630496,-11.41,-31.22,0.88375,30.872002,-22.016,1.224,none,4,3.0,25508.0,166247.0,250108.0,295379.0,271845.0
2026-04-08 22:04:14.000781,403791,1609505026207065,2626173442,-0.782752,0.021472,0.648064,-8.61,-31.9375,0.7175,30.968002,-21.792002,2.408,none,4,3.0,25508.0,166247.0,250108.0,295379.0,271845.0
2026-04-08 22:04:14.033149,403802,1609505026216052,2626182180,-0.782752,0.021472,0.648064,-7.3675,-30.397501,0.595,30.968002,-21.792002,2.408,none,4,3.0,25355.0,165609.0,249606.0,295121.0,271731.0
2026-04-08 22:04:14.036277,403803,1609505026230612,2626197122,-0.778848,0.081984,0.50752,-8.33875,-27.116251,-0.09625,30.968002,-21.960001,2.688,none,4,3.0,25355.0,165609.0,249606.0,295121.0,271731.0
2026-04-08 22:04:14.041814,403804,1609505026239569,2626205807,-0.778848,0.081984,0.50752,-11.305,-23.5375,2.87,30.968002,-21.960001,2.688,none,4,3.0,25355.0,165609.0,249606.0,295121.0,271731.0
2026-04-08 22:04:14.070465,403805,1609505026254103,2626220700,-0.843264,0.093696,0.568032,-17.68375,-21.14,7.49,30.832,-21.944,3.576,none,4,3.0,25355.0,165609.0,249606.0,295121.0,271731.0
2026-04-08 22:04:14.074942,403806,1609505026263039,2626229384,-0.827648,0.076128,0.67344,-20.90375,-22.32125,11.12125,31.096,-22.056002,3.152,none,4,3.0,25355.0,165609.0,249606.0,295121.0,271731.0
2026-04-08 22:04:14.077423,403807,1609505026277509,2626244238,-0.827648,0.076128,0.67344,-15.8375,-25.69,8.65375,31.096,-22.056002,3.152,none,4,3.0,25355.0,165609.0,249606.0,295121.0,271731.0
2026-04-08 22:04:14.078915,403808,1609505026286447,2626252907,-0.728096,0.013664,0.528992,-8.5225,-27.92125,3.5,30.968002,-22.032001,2.824,none,4,3.0,25355.0,165609.0,249606.0,295121.0,271731.0
2026-04-08 22:04:14.110232,403809,1609505026295403,2626261610,-0.728096,0.013664,0.528992,-10.12375,-27.8425,0.5075,30.968002,-22.032001,2.824,none,4,3.0,25355.0,165609.0,249606.0,295121.0,271731.0
2026-04-08 22:04:14.142464,403820,1609505026309863,2626276849,-0.70272,0.085888,0.6344,-15.32125,-27.16875,2.37125,30.648,-22.448002,3.064,none,4,3.0,25393.0,165869.0,249782.0,295224.0,271765.0
2026-04-08 22:04:14.144087,403821,1609505026318829,2626285515,-0.70272,0.085888,0.6344,-19.022501,-26.32,7.90125,30.648,-22.448002,3.064,none,4,3.0,25393.0,165869.0,249782.0,295224.0,271765.0
2026-04-08 22:04:14.148214,403822,1609505026333406,2626300407,-0.753472,0.076128,0.579744,-20.6675,-27.0375,9.84375,30.344002,-22.144001,3.168,none,4,3.0,25393.0,165869.0,249782.0,295224.0,271765.0
2026-04-08 22:04:14.149914,403823,1609505026342347,2626309181,-0.7808,0.05856,0.482144,-20.6675,-28.39375,8.02375,30.384,-21.688002,3.992,none,4,3.0,25393.0,165869.0,249782.0,295224.0,271765.0
2026-04-08 22:04:14.151808,403824,1609505026356847,2626322025,-0.7808,0.05856,0.482144,-19.59125,-29.435,5.1275,30.384,-21.688002,3.992,none,4,3.0,25393.0,165869.0,249782.0,295224.0,271765.0
2026-04-08 22:04:14.184309,403825,1609505026366091,2626332812,-0.716384,0.06832,0.5368,-21.4025,-28.91,6.5275,30.304,-21.776001,4.712,none,4,3.0,25393.0,165869.0,249782.0,295224.0,271765.0
2026-04-08 22:04:14.186349,403826,1609505026375041,2626341503,-0.716384,0.06832,0.5368,-27.48375,-27.01125,11.865,30.304,-21.776001,4.712,none,4,3.0,25393.0,165869.0,249782.0,295224.0,271765.0
2026-04-08 22:04:14.189767,403827,1609505026389511,2626356354,-0.665632,0.052704,0.616832,-33.38125,-25.366251,17.1325,30.272001,-22.544,4.808,none,4,3.0,25393.0,165869.0,249782.0,295224.0,271765.0
2026-04-08 22:04:14.191859,403828,1609505026398433,2626365008,-0.665632,0.052704,0.616832,-37.625,-22.645,20.2125,30.272001,-22.544,4.808,none,4,3.0,25393.0,165869.0,249782.0,295224.0,271765.0
2026-04-08 22:04:14.285236,403839,1609505026413498,2626379927,-0.61488,-0.033184,0.665632,-46.97,-20.1075,19.87125,29.864002,-22.160002,5.2,none,4,3.0,25373.0,165866.0,250106.0,295511.0,271982.0
2026-04-08 22:04:14.289443,403840,1609505026422519,2626388695,-0.61488,-0.02928,0.698816,-65.1175,-15.30375,20.7375,29.864002,-22.160002,7.248,none,4,3.0,25373.0,165866.0,250106.0,295511.0,271982.0
2026-04-08 22:04:14.291187,403841,1609505026431436,2626397391,-0.562176,-0.02928,0.698816,-86.5375,-11.22625,26.71375,30.080002,-22.056002,7.784,none,4,3.0,25373.0,165866.0,250106.0,295511.0,271982.0
2026-04-08 22:04:14.292715,403842,1609505026445961,2626412257,-0.61488,0.144448,0.59536,-101.35125,-5.915,41.18625,29.544,-22.624,5.752,none,4,3.0,25373.0,165866.0,250106.0,295511.0,271982.0
2026-04-08 22:04:14.296957,403843,1609505026454901,2626420936,-0.61488,0.144448,0.59536,-100.275,-0.315,54.7575,29.544,-22.624,5.752,none,4,3.0,25373.0,165866.0,250106.0,295511.0,271982.0
2026-04-08 22:04:14.308332,403844,1609505026469476,2626435869,-0.776896,-0.033184,0.628544,-87.0625,1.46125,55.7725,29.032001,-22.096,8.576,none,4,3.0,25373.0,165866.0,250106.0,295511.0,271982.0
2026-04-08 22:04:14.309932,403845,1609505026478406,2626444545,-0.776896,-0.033184,0.628544,-80.98125,-1.40875,42.7875,29.032001,-22.096,8.576,none,4,3.0,25373.0,165866.0,250106.0,295511.0,271982.0
2026-04-08 22:04:14.311542,403846,1609505026492840,2626459414,-0.788608,-0.259616,0.743712,-83.95625,-3.745,32.76875,29.224,-22.608002,7.056,none,4,3.0,25373.0,165866.0,250106.0,295511.0,271982.0
2026-04-08 22:04:14.319300,403847,1609505026501762,2626468113,-0.788608,-0.259616,0.743712,-85.39125,-3.31625,31.56125,29.224,-22.608002,7.056,none,4,3.0,25373.0,165866.0,250106.0,295511.0,271982.0
2026-04-08 22:04:14.350742,403858,1609505026510835,2626476899,-0.72224,-0.269376,0.802272,-76.65875,-0.98875,32.97,28.928001,-22.688002,11.112,none,4,3.0,25072.0,164963.0,249525.0,295234.0,271849.0
2026-04-08 22:04:14.352429,403859,1609505026525394,2626491847,-0.737856,-0.05856,0.708576,-57.7675,0.5075,36.0675,29.232002,-22.864,7.288001,none,4,3.0,25072.0,164963.0,249525.0,295234.0,271849.0
2026-04-08 22:04:14.354064,403860,1609505026534312,2626500601,-0.737856,-0.05856,0.708576,-37.37125,4.725,39.73375,29.232002,-22.864,7.288001,none,4,3.0,25072.0,164963.0,249525.0,295234.0,271849.0
2026-04-08 22:04:14.357397,403861,1609505026548910,2626515517,-1.067744,0.0,0.70272,-18.9175,6.895,37.9575,28.968002,-23.04,7.960001,none,4,3.0,25072.0,164963.0,249525.0,295234.0,271849.0
2026-04-08 22:04:14.363055,403862,1609505026557839,2626524244,-1.067744,0.0,0.70272,-10.10625,1.95125,31.80625,28.968002,-23.04,7.960001,none,4,3.0,25072.0,164963.0,249525.0,295234.0,271849.0
2026-04-08 22:04:14.368080,403863,1609505026572306,2626539113,-1.100928,-0.046848,0.833504,-14.21875,-3.68375,23.345,29.128002,-22.744001,8.592,none,4,3.0,25072.0,164963.0,249525.0,295234.0,271849.0
2026-04-08 22:04:14.374284,403864,1609505026581225,2626547803,-1.100928,-0.046848,0.833504,-25.025,-10.92875,11.06,29.128002,-22.744001,8.592,none,4,3.0,25072.0,164963.0,249525.0,295234.0,271849.0
2026-04-08 22:04:14.402905,403865,1609505026590148,2626556487,-1.020896,0.07808,0.833504,-28.23625,-18.24375,7.6125,29.080002,-23.696001,8.008,none,4,3.0,25072.0,164963.0,249525.0,295234.0,271849.0
2026-04-08 22:04:14.407458,403866,1609505026604655,2626571679,-0.987712,0.160064,0.67344,-16.66875,-21.88375,13.4925,28.896002,-23.672,7.536,none,4,3.0,25072.0,164963.0,249525.0,295234.0,271849.0
2026-04-08 22:04:14.434909,403877,1609505026614213,2626580479,-0.987712,0.160064,0.67344,1.33,-25.095,18.445,28.896002,-23.672,7.536,none,4,3.0,25164.0,166144.0,250985.0,296146.0,272435.0
2026-04-08 22:04:14.436471,403878,1609505026628783,2626595431,-1.009184,-0.035136,0.8296,2.59,-30.03,13.58,28.648,-23.840002,10.472,none,4,3.0,25164.0,166144.0,250985.0,296146.0,272435.0
2026-04-08 22:04:14.440727,403879,1609505026637771,2626604142,-1.009184,-0.035136,0.8296,-18.12125,-35.97125,1.65375,28.648,-23.840002,10.472,none,4,3.0,25164.0,166144.0,250985.0,296146.0,272435.0
2026-04-08 22:04:14.443158,403880,1609505026646705,2626612817,-1.026752,-0.132736,0.511424,-48.2825,-37.275,-7.035,28.512001,-23.088001,11.296001,none,4,3.0,25164.0,166144.0,250985.0,296146.0,272435.0
2026-04-08 22:04:14.471640,403881,1609505026661161,2626627728,-1.026752,-0.132736,0.511424,-78.79375,-38.7625,-10.167501,28.512001,-23.088001,11.296001,none,4,3.0,25164.0,166144.0,250985.0,296146.0,272435.0
2026-04-08 22:04:14.476196,403882,1609505026670048,2626636372,-0.99552,0.062464,0.655872,-86.42375,-45.71875,-3.955,28.816002,-23.096,10.616,none,4,3.0,25164.0,166144.0,250985.0,296146.0,272435.0
2026-04-08 22:04:14.477668,403883,1609505026684519,2626651275,-0.860832,0.023424,0.538752,-64.3125,-52.78,4.3925,28.816002,-22.536001,12.240001,none,4,3.0,25164.0,166144.0,250985.0,296146.0,272435.0
2026-04-08 22:04:14.509595,403884,1609505026693467,2626659988,-0.860832,0.023424,0.538752,-32.61125,-56.91,-4.61125,28.872002,-22.536001,12.240001,none,4,3.0,25164.0,166144.0,250985.0,296146.0,272435.0
2026-04-08 22:04:14.513644,403885,1609505026708021,2626674878,-0.942816,-0.1464,0.733952,-15.198751,-57.84625,-22.741251,28.888,-21.904001,11.536,none,4,3.0,25164.0,166144.0,250985.0,296146.0,272435.0
2026-04-08 22:04:14.543706,403896,1609505026717095,2626683605,-0.942816,-0.1464,0.733952,-23.24,-58.3625,-33.8625,28.888,-21.904001,11.536,none,4,3.0,24970.0,165526.0,250448.0,295755.0,272182.0
2026-04-08 22:04:14.545237,403897,1609505026726192,2626692284,-0.999424,-0.154208,0.788608,-37.625,-59.482502,-33.32875,27.992,-21.616001,13.704,none,4,3.0,24970.0,165526.0,250448.0,295755.0,272182.0
2026-04-08 22:04:14.581331,403898,1609505026740801,2626707209,-0.999424,-0.154208,0.788608,-52.8325,-58.30125,-29.79375,27.992,-21.616001,13.704,none,4,3.0,24970.0,165526.0,250448.0,295755.0,272182.0
2026-04-08 22:04:14.584049,403899,1609505026749723,2626715892,-0.921344,-0.001952,0.8296,-62.615,-57.732502,-27.72,27.808,-20.768002,13.408001,none,4,3.0,24970.0,165526.0,250448.0,295755.0,272182.0
2026-04-08 22:04:14.588373,403900,1609505026764207,2626730780,-0.921344,-0.001952,0.8296,-60.68125,-58.94875,-31.745,27.808,-20.768002,13.408001,none,4,3.0,24970.0,165526.0,250448.0,295755.0,272182.0
2026-04-08 22:04:14.591113,403901,1609505026773115,2626739447,-0.79056,-0.113216,0.964288,-50.56625,-58.275,-40.29375,28.048002,-19.76,11.288,none,4,3.0,24970.0,165526.0,250448.0,295755.0,272182.0
2026-04-08 22:04:14.596952,403902,1609505026782100,2626748086,-0.79056,-0.113216,0.964288,-47.285,-54.46,-46.8125,28.048002,-19.76,11.288,none,4,3.0,24970.0,165526.0,250448.0,295755.0,272182.0
2026-04-08 22:04:14.599481,403903,1609505026796579,2626762948,-0.71248,-0.249856,1.126304,-53.8825,-50.6275,-43.0325,27.704,-19.544,13.832001,none,4,3.0,24970.0,165526.0,250448.0,295755.0,272182.0
2026-04-08 22:04:14.603266,403904,1609505026805559,2626771612,-0.640256,-0.296704,1.0248,-62.4925,-47.55625,-32.78625,27.568,-18.216002,14.336,none,4,3.0,24970.0,165526.0,250448.0,295755.0,272182.0
2026-04-08 22:04:14.632005,403915,1609505026820122,2626786597,-0.640256,-0.296704,1.0248,-68.94125,-43.8725,-22.91625,27.568,-18.216002,14.336,none,4,3.0,24963.0,165425.0,250435.0,295591.0,271962.0
2026-04-08 22:04:14.634390,403916,1609505026829077,2626795314,-0.665632,-0.304512,0.817888,-68.9675,-37.9225,-17.33375,26.840002,-17.800001,16.056002,none,4,3.0,24963.0,165425.0,250435.0,295591.0,271962.0
2026-04-08 22:04:14.638037,403917,1609505026843647,2626810241,-0.665632,-0.304512,0.817888,-63.76125,-30.52,-17.2375,26.840002,-17.800001,16.056002,none,4,3.0,24963.0,165425.0,250435.0,295591.0,271962.0
2026-04-08 22:04:14.666807,403918,1609505026852568,2626818896,-0.671488,-0.372832,1.038464,-63.735,-27.5625,-18.73375,26.728,-17.304,16.584002,none,4,3.0,24963.0,165425.0,250435.0,295591.0,271962.0
2026-04-08 22:04:14.671118,403919,1609505026861470,2626827562,-0.671488,-0.372832,1.038464,-59.1325,-25.29625,-16.79125,26.728,-17.304,16.584002,none,4,3.0,24963.0,165425.0,250435.0,295591.0,271962.0
2026-04-08 22:04:14.673038,403920,1609505026875954,2626842428,-0.489952,-0.421632,0.968192,-50.65375,-21.9975,-12.48625,27.032001,-16.728,15.472001,none,4,3.0,24963.0,165425.0,250435.0,295591.0,271962.0
2026-04-08 22:04:14.679329,403921,1609505026884881,2626851108,-0.489952,-0.421632,0.968192,-45.33375,-18.64625,-10.75375,27.032001,-16.728,15.472001,none,4,3.0,24963.0,165425.0,250435.0,295591.0,271962.0
2026-04-08 22:04:14.707930,403922,1609505026899418,2626865962,-0.32208,-0.427488,0.757376,-37.28375,-13.27375,-14.3325,26.6,-16.624,16.664001,none,4,3.0,24963.0,165425.0,250435.0,295591.0,271962.0
2026-04-08 22:04:14.712499,403923,1609505026908330,2626874621,-0.324032,-0.40992,0.91744,-26.38125,-8.42625,-16.9225,26.952002,-16.456001,15.616001,none,4,3.0,24963.0,165425.0,250435.0,295591.0,271962.0
2026-04-08 22:04:14.740730,403934,1609505026922814,2626889558,-0.324032,-0.40992,0.91744,-19.52125,-0.84875,-15.44375,26.952002,-16.456001,15.616001,none,4,3.0,25808.0,168027.0,252301.0,296483.0,272196.0
2026-04-08 22:04:14.743952,403935,1609505026931841,2626898274,-0.558272,-0.337696,0.640256,-17.87625,4.3575,-4.10375,26.632002,-16.576,16.44,none,4,3.0,25808.0,168027.0,252301.0,296483.0,272196.0
2026-04-08 22:04:14.747139,403936,1609505026940765,2626907018,-0.558272,-0.337696,0.640256,-16.1,4.97,9.66875,26.632002,-16.576,16.44,none,4,3.0,25808.0,168027.0,252301.0,296483.0,272196.0
2026-04-08 22:04:14.750533,403937,1609505026955376,2626921924,-0.55632,-0.288896,0.69296,-2.66,4.06875,14.35,26.696001,-16.576,16.688002,none,4,3.0,25808.0,168027.0,252301.0,296483.0,272196.0
2026-04-08 22:04:14.756891,403938,1609505026964292,2626930619,-0.55632,-0.288896,0.69296,13.32625,4.24375,8.636251,26.696001,-16.576,16.688002,none,4,3.0,25808.0,168027.0,252301.0,296483.0,272196.0
2026-04-08 22:04:14.787537,403939,1609505026978745,2626945483,-0.548512,-0.314272,0.724192,17.01875,4.97875,0.56,26.992,-16.608002,15.464001,none,4,3.0,25808.0,168027.0,252301.0,296483.0,272196.0
2026-04-08 22:04:14.792055,403940,1609505026987671,2626954139,-0.55632,-0.329888,0.9272,12.59125,5.53,-0.0175,27.056002,-16.864,13.888001,none,4,3.0,25808.0,168027.0,252301.0,296483.0,272196.0
2026-04-08 22:04:14.796033,403941,1609505027002142,2626968995,-0.55632,-0.329888,0.9272,7.83125,5.4425,8.8025,27.056002,-16.864,13.888001,none,4,3.0,25808.0,168027.0,252301.0,296483.0,272196.0
2026-04-08 22:04:14.827243,403942,1609505027011057,2626977679,-0.667584,-0.26352,0.716384,6.5275,3.57875,17.115,26.880001,-17.688002,15.360001,none,4,3.0,25808.0,168027.0,252301.0,296483.0,272196.0
2026-04-08 22:04:14.887691,403953,1609505027020057,2626986390,-0.667584,-0.26352,0.716384,8.785,1.4875,18.45375,26.880001,-17.688002,15.360001,none,4,3.0,25575.0,167378.0,251927.0,296363.0,272228.0
2026-04-08 22:04:14.890987,403954,1609505027034512,2627001253,-0.60512,-0.226432,0.794464,14.30625,2.09125,13.09,26.776001,-17.560001,15.296001,none,4,3.0,25575.0,167378.0,251927.0,296363.0,272228.0
2026-04-08 22:04:14.893030,403955,1609505027043384,2627009910,-0.60512,-0.226432,0.794464,18.78625,4.41,7.7525,26.776001,-17.560001,15.296001,none,4,3.0,25575.0,167378.0,251927.0,296363.0,272228.0
2026-04-08 22:04:14.895120,403956,1609505027058014,2627024840,-0.609024,-0.240096,0.763232,13.53625,6.5975,5.60875,26.472002,-17.896,15.712001,none,4,3.0,25575.0,167378.0,251927.0,296363.0,272228.0
2026-04-08 22:04:14.897620,403957,1609505027067156,2627033574,-0.681248,-0.189344,0.919392,6.34375,6.60625,7.77875,26.472002,-17.912,12.672001,none,4,3.0,25575.0,167378.0,251927.0,296363.0,272228.0
2026-04-08 22:04:14.900099,403958,1609505027081619,2627048443,-0.681248,-0.189344,0.919392,5.6525,5.5475,13.25625,26.688002,-17.912,12.672001,none,4,3.0,25575.0,167378.0,251927.0,296363.0,272228.0
2026-04-08 22:04:14.902637,403959,1609505027090515,2627057077,-0.72224,-0.15616,0.7808,11.92625,4.6725,17.710001,26.808,-18.248001,15.088,none,4,3.0,25575.0,167378.0,251927.0,296363.0,272228.0
2026-04-08 22:04:14.905128,403960,1609505027099418,2627065764,-0.72224,-0.15616,0.7808,19.13625,5.39,18.06,26.808,-18.248001,15.088,none,4,3.0,25575.0,167378.0,251927.0,296363.0,272228.0
2026-04-08 22:04:14.932670,403971,1609505027113958,2627081119,-0.65392,-0.1464,0.550464,21.21875,8.89,12.67875,26.784,-18.296001,15.928,none,4,3.0,25493.0,167237.0,251941.0,296375.0,272278.0
2026-04-08 22:04:14.935143,403972,1609505027122968,2627089921,-0.65392,-0.1464,0.550464,15.8025,12.10125,4.27875,26.784,-18.296001,15.928,none,4,3.0,25493.0,167237.0,251941.0,296375.0,272278.0
2026-04-08 22:04:14.937635,403973,1609505027137563,2627102882,-0.735904,-0.16592,0.823744,4.9875,12.0225,-0.3675,26.416,-18.272001,15.336,none,4,3.0,25493.0,167237.0,251941.0,296375.0,272278.0
2026-04-08 22:04:14.940140,403974,1609505027146943,2627113720,-0.735904,-0.16592,0.823744,-3.70125,9.49375,2.975,26.416,-18.272001,15.336,none,4,3.0,25493.0,167237.0,251941.0,296375.0,272278.0
2026-04-08 22:04:14.970281,403975,1609505027155937,2627122414,-0.720288,-0.160064,0.747616,-7.2625,5.8975,8.95125,26.680002,-18.320002,15.096001,none,4,3.0,25493.0,167237.0,251941.0,296375.0,272278.0
2026-04-08 22:04:14.973968,403976,1609505027170417,2627137269,-0.66368,-0.119072,0.577792,-4.8825,3.24625,8.47,27.272001,-18.616001,14.408001,none,4,3.0,25493.0,167237.0,251941.0,296375.0,272278.0
2026-04-08 22:04:15.009061,403977,1609505027179309,2627145920,-0.66368,-0.119072,0.577792,3.045,3.38625,0.93625,27.272001,-18.616001,14.408001,none,4,3.0,25493.0,167237.0,251941.0,296375.0,272278.0
2026-04-08 22:04:15.012631,403978,1609505027193776,2627160778,-0.651968,-0.173728,0.737856,7.04375,3.9375,-4.71625,27.088001,-18.864,14.848001,none,4,3.0,25493.0,167237.0,251941.0,296375.0,272278.0
2026-04-08 22:04:15.015156,403979,1609505027202702,2627169466,-0.651968,-0.173728,0.737856,3.14125,3.91125,-3.29875,27.088001,-18.864,14.848001,none,4,3.0,25493.0,167237.0,251941.0,296375.0,272278.0
2026-04-08 22:04:15.042656,403990,1609505027217631,2627184387,-0.665632,-0.163968,0.76128,-3.1675,3.465,-0.44625,27.024002,-18.336,14.52,none,4,3.0,25294.0,166636.0,251448.0,296098.0,272153.0
2026-04-08 22:04:15.045219,403991,1609505027226611,2627193100,-0.665632,-0.163968,0.76128,-4.025,2.52,-1.46125,27.024002,-18.336,14.52,none,4,3.0,25294.0,166636.0,251448.0,296098.0,272153.0
2026-04-08 22:04:15.047670,403992,1609505027235574,2627201880,-0.681248,-0.154208,0.550464,-0.98875,0.7875,-8.40875,26.616001,-18.112001,16.592001,none,4,3.0,25294.0,166636.0,251448.0,296098.0,272153.0
2026-04-08 22:04:15.050236,403993,1609505027250096,2627216767,-0.616832,-0.16592,0.835456,2.45875,-1.4,-14.49875,26.608002,-18.224,15.248001,none,4,3.0,25294.0,166636.0,251448.0,296098.0,272153.0
2026-04-08 22:04:15.052713,403994,1609505027259016,2627225444,-0.616832,-0.16592,0.835456,3.8325,-2.12625,-13.265,26.608002,-18.224,15.248001,none,4,3.0,25294.0,166636.0,251448.0,296098.0,272153.0
2026-04-08 22:04:15.085304,403995,1609505027273555,2627240377,-0.677344,-0.162016,0.774944,0.7525,-1.8375,-8.61875,26.792002,-18.152,15.152,none,4,3.0,25294.0,166636.0,251448.0,296098.0,272153.0
