pc_time,serial_num,sensor_ts,host_ts,ax,ay,az,gx,gy,gz,mx,my,mz,phase,rpe,weight_kg,ppg_a,ppg_b,ppg_c,ppg_d,ppg_e
2026-04-09 22:06:36.475885,197613,1326487869,1326489861,0.812032,-0.162016,0.160064,8.58375,2.21375,-11.92625,-25.720001,13.040001,27.000002,inter_set_rest,4,3.0,30844.0,403431.0,130793.0,6535.0,-136.0
2026-04-09 22:06:36.479947,197614,1326496799,1326498585,0.812032,-0.162016,0.160064,2.58125,3.5,-10.955,-25.720001,13.040001,27.000002,inter_set_rest,4,3.0,30844.0,403431.0,130793.0,6535.0,-136.0
2026-04-09 22:06:36.481573,197615,1326505722,1326507262,0.808128,-0.187392,0.099552,5.87125,2.5025,-11.042501,-25.352001,12.752001,26.576002,inter_set_rest,4,3.0,30844.0,403431.0,130793.0,6535.0,-136.0
2026-04-09 22:06:36.506448,197625,1326520542,1326522264,0.808128,-0.187392,0.099552,12.55625,-0.34125,-9.905,-25.352001,12.752001,26.576002,inter_set_rest,4,3.0,30951.0,403431.0,129946.0,6151.0,-138.0
2026-04-09 22:06:36.508998,197626,1326529497,1326531052,0.821792,-0.152256,0.144448,16.96625,-3.33375,-7.65625,-25.368002,13.080001,26.784,inter_set_rest,4,3.0,30951.0,403431.0,129946.0,6151.0,-138.0
2026-04-09 22:06:36.511553,197627,1326538547,1326539799,0.821792,-0.152256,0.144448,17.255,-4.9,-4.5325,-25.368002,13.080001,26.784,inter_set_rest,4,3.0,30951.0,403431.0,129946.0,6151.0,-138.0
2026-04-09 22:06:36.513989,197628,1326547599,1326548525,0.833504,-0.099552,0.167872,12.53875,-4.24375,-3.5525,-26.248001,12.768001,27.920002,inter_set_rest,4,3.0,30951.0,403431.0,129946.0,6151.0,-138.0
2026-04-09 22:06:36.519063,197629,1326562335,1326563520,0.833504,-0.099552,0.167872,6.615,-2.5375,-4.5675,-26.248001,12.768001,27.920002,inter_set_rest,4,3.0,30951.0,403431.0,129946.0,6151.0,-138.0
2026-04-09 22:06:36.549227,197630,1326571283,1326572261,0.847168,-0.11712,0.154208,4.1125,-0.74375,-7.18375,-26.768002,12.808001,27.864002,inter_set_rest,4,3.0,30951.0,403431.0,129946.0,6151.0,-138.0
2026-04-09 22:06:36.553184,197631,1326580216,1326581003,0.847168,-0.11712,0.154208,5.3375,0.51625,-10.9375,-26.768002,12.808001,27.864002,inter_set_rest,4,3.0,30951.0,403431.0,129946.0,6151.0,-138.0
2026-04-09 22:06:36.555935,197632,1326594681,1326595903,0.853024,-0.169824,0.152256,8.19,0.6825,-13.08125,-25.072,13.464001,26.792002,inter_set_rest,4,3.0,30951.0,403431.0,129946.0,6151.0,-138.0
2026-04-09 22:06:36.560506,197633,1326603581,1326604609,0.853024,-0.169824,0.152256,10.167501,0.9275,-12.53,-25.072,13.464001,26.792002,inter_set_rest,4,3.0,30951.0,403431.0,129946.0,6151.0,-138.0
2026-04-09 22:06:36.590717,197634,1326612540,1326613344,0.854976,-0.124928,0.167872,8.6975,1.98625,-12.52125,-25.704,12.72,27.256,inter_set_rest,4,3.0,30951.0,403431.0,129946.0,6151.0,-138.0
2026-04-09 22:06:36.619018,197644,1326627128,1326628339,0.841312,-0.119072,0.138592,4.87375,3.6225,-12.67,-25.968,12.784,27.536001,inter_set_rest,4,3.0,30942.0,403431.0,130434.0,6278.0,-134.0
2026-04-09 22:06:36.621460,197645,1326636000,1326637080,0.841312,-0.119072,0.138592,1.61875,4.29625,-13.1775,-25.968,12.784,27.536001,inter_set_rest,4,3.0,30942.0,403431.0,130434.0,6278.0,-134.0
2026-04-09 22:06:36.624014,197646,1326644925,1326645768,0.841312,-0.119072,0.138592,2.17875,3.325,-13.7725,-25.968,12.784,27.536001,inter_set_rest,4,3.0,30942.0,403431.0,130434.0,6278.0,-134.0
2026-04-09 22:06:36.626536,197647,1326659425,1326660712,0.860832,-0.115168,0.138592,5.5475,2.31875,-14.27125,-26.704,13.080001,27.928001,inter_set_rest,4,3.0,30942.0,403431.0,130434.0,6278.0,-134.0
2026-04-09 22:06:36.628996,197648,1326668344,1326669428,0.860832,-0.11712,0.177632,7.62125,2.37125,-13.825,-26.392002,12.384001,27.720001,inter_set_rest,4,3.0,30942.0,403431.0,130434.0,6278.0,-134.0
2026-04-09 22:06:36.633422,197649,1326677319,1326678175,0.860832,-0.11712,0.177632,6.08125,2.86125,-13.3525,-26.392002,12.384001,27.720001,inter_set_rest,4,3.0,30942.0,403431.0,130434.0,6278.0,-134.0
2026-04-09 22:06:36.662949,197650,1326686284,1326686903,0.851072,-0.08784,0.171776,3.50875,3.5175,-12.565,-26.344002,12.688001,26.768002,inter_set_rest,4,3.0,30942.0,403431.0,130434.0,6278.0,-134.0
2026-04-09 22:06:36.666659,197651,1326701069,1326701789,0.851072,-0.08784,0.171776,2.23125,4.62875,-12.76625,-26.344002,12.688001,26.768002,inter_set_rest,4,3.0,30942.0,403431.0,130434.0,6278.0,-134.0
2026-04-09 22:06:36.668975,197652,1326710373,1326712559,0.845216,-0.111264,0.1464,2.1525,4.375,-13.125,-25.920002,12.872001,27.28,inter_set_rest,4,3.0,30942.0,403431.0,130434.0,6278.0,-134.0
2026-04-09 22:06:36.699099,197663,1326719987,1326721358,0.845216,-0.111264,0.1464,4.83,3.68375,-12.87125,-25.920002,12.872001,27.28,inter_set_rest,4,3.0,30948.0,403431.0,131028.0,6435.0,-148.0
2026-04-09 22:06:36.701560,197664,1326729047,1326730177,0.84912,-0.06832,0.187392,7.805,2.8875,-12.4775,-25.352001,12.648001,26.656002,inter_set_rest,4,3.0,30948.0,403431.0,131028.0,6435.0,-148.0
2026-04-09 22:06:36.704089,197665,1326743608,1326745030,0.84912,-0.06832,0.187392,6.71125,3.5,-12.3725,-25.352001,12.648001,26.656002,inter_set_rest,4,3.0,30948.0,403431.0,131028.0,6435.0,-148.0
2026-04-09 22:06:36.709067,197666,1326752572,1326753737,0.85888,-0.076128,0.154208,3.19375,5.2325,-12.78375,-25.832,12.6,27.176,inter_set_rest,4,3.0,30948.0,403431.0,131028.0,6435.0,-148.0
2026-04-09 22:06:36.739205,197667,1326761548,1326762468,0.85888,-0.076128,0.154208,0.105,5.425,-13.58875,-25.832,12.6,27.176,inter_set_rest,4,3.0,30948.0,403431.0,131028.0,6435.0,-148.0
2026-04-09 22:06:36.742856,197668,1326776047,1326777355,0.85888,-0.0976,0.144448,0.76125,5.22375,-14.06125,-25.768002,12.584001,27.368002,inter_set_rest,4,3.0,30948.0,403431.0,131028.0,6435.0,-148.0
2026-04-09 22:06:36.776710,197669,1326785045,1326786051,0.85888,-0.0976,0.144448,4.0775,3.92875,-13.5275,-25.768002,12.584001,27.368002,inter_set_rest,4,3.0,30948.0,403431.0,131028.0,6435.0,-148.0
2026-04-09 22:06:36.779974,197670,1326793957,1326794749,0.851072,-0.10736,0.187392,4.1825,3.89375,-12.03125,-25.808,12.432,26.960001,inter_set_rest,4,3.0,30948.0,403431.0,131028.0,6435.0,-148.0
2026-04-09 22:06:36.782924,197671,1326808436,1326809633,0.843264,-0.091744,0.169824,1.60125,5.0575,-10.80625,-25.856,12.432,27.432001,inter_set_rest,4,3.0,30948.0,403431.0,131028.0,6435.0,-148.0
2026-04-09 22:06:36.785320,197672,1326817360,1326818331,0.843264,-0.091744,0.169824,-0.0875,6.1075,-10.08875,-25.856,12.432,27.432001,inter_set_rest,4,3.0,30948.0,403431.0,131028.0,6435.0,-148.0
2026-04-09 22:06:36.856516,197682,1326826267,1326827090,0.841312,-0.083936,0.13664,-0.42875,6.7725,-10.64,-25.856,12.504001,27.272001,inter_set_rest,4,3.0,31009.0,403431.0,133864.0,7594.0,-142.0
2026-04-09 22:06:36.859082,197683,1326835224,1326835882,0.841312,-0.083936,0.13664,1.33,6.02875,-11.0775,-25.832,12.504001,27.272001,inter_set_rest,4,3.0,31009.0,403431.0,133864.0,7594.0,-142.0
2026-04-09 22:06:36.861634,197684,1326850198,1326850837,0.847168,-0.11712,0.154208,2.37125,4.66375,-11.41875,-28.464,12.336,28.472002,inter_set_rest,4,3.0,31009.0,403431.0,133864.0,7594.0,-142.0
2026-04-09 22:06:36.867856,197685,1326859427,1326861656,0.847168,-0.11712,0.154208,4.2175,4.17375,-11.305,-28.464,12.336,28.472002,inter_set_rest,4,3.0,31009.0,403431.0,133864.0,7594.0,-142.0
2026-04-09 22:06:36.870304,197686,1326868381,1326870379,0.841312,-0.095648,0.171776,5.25,4.66375,-10.465,-26.048,12.584001,26.864002,inter_set_rest,4,3.0,31009.0,403431.0,133864.0,7594.0,-142.0
2026-04-09 22:06:36.872778,197687,1326882912,1326883229,0.841312,-0.095648,0.171776,3.96375,5.215,-10.29875,-26.048,12.584001,26.864002,inter_set_rest,4,3.0,31009.0,403431.0,133864.0,7594.0,-142.0
2026-04-09 22:06:36.875286,197688,1326892171,1326894013,0.856928,-0.101504,0.154208,1.3475,6.055,-10.59625,-27.744001,12.392,28.152,inter_set_rest,4,3.0,31009.0,403431.0,133864.0,7594.0,-142.0
2026-04-09 22:06:36.878942,197689,1326901147,1326902736,0.856928,-0.101504,0.154208,0.56875,6.6675,-10.01875,-27.744001,12.392,28.152,inter_set_rest,4,3.0,31009.0,403431.0,133864.0,7594.0,-142.0
2026-04-09 22:06:36.880502,197690,1326910128,1326911437,0.86864,-0.10736,0.128832,1.75,6.6325,-9.72125,-26.640001,12.304001,27.072,inter_set_rest,4,3.0,31009.0,403431.0,133864.0,7594.0,-142.0
2026-04-09 22:06:36.905236,197700,1326924858,1326926458,0.86864,-0.10736,0.128832,4.48875,5.85375,-9.70375,-26.640001,12.304001,27.072,inter_set_rest,4,3.0,31117.0,403431.0,134691.0,7957.0,-146.0
2026-04-09 22:06:36.907833,197701,1326933878,1326935178,0.856928,-0.099552,0.167872,6.93,5.705,-10.00125,-27.048,12.352,26.312002,inter_set_rest,4,3.0,31117.0,403431.0,134691.0,7957.0,-146.0
2026-04-09 22:06:36.910286,197702,1326942856,1326943952,0.856928,-0.099552,0.167872,6.7025,6.58,-10.2725,-27.048,12.352,26.312002,inter_set_rest,4,3.0,31117.0,403431.0,134691.0,7957.0,-146.0
2026-04-09 22:06:36.914056,197703,1326957368,1326958892,0.85888,-0.083936,0.171776,5.0225,7.67375,-9.9575,-27.248001,12.232,28.424002,inter_set_rest,4,3.0,31117.0,403431.0,134691.0,7957.0,-146.0
2026-04-09 22:06:36.944312,197704,1326966304,1326967600,0.85888,-0.07808,0.134688,3.6925,9.30125,-10.386251,-27.248001,12.232,28.424002,inter_set_rest,4,3.0,31117.0,403431.0,134691.0,7957.0,-146.0
2026-04-09 22:06:36.947868,197705,1326975245,1326976305,0.854976,-0.07808,0.134688,3.045,9.58125,-10.9025,-26.560001,12.368001,28.712002,inter_set_rest,4,3.0,31117.0,403431.0,134691.0,7957.0,-146.0
2026-04-09 22:06:36.950329,197706,1326989724,1326991276,0.862784,-0.099552,0.150304,3.815,9.31875,-11.62875,-26.672,12.320001,27.744001,inter_set_rest,4,3.0,31117.0,403431.0,134691.0,7957.0,-146.0
2026-04-09 22:06:36.957052,197707,1326998664,1326999993,0.862784,-0.099552,0.150304,5.705,9.33625,-11.8475,-26.672,12.320001,27.744001,inter_set_rest,4,3.0,31117.0,403431.0,134691.0,7957.0,-146.0
2026-04-09 22:06:36.985580,197708,1327007630,1327008726,0.825696,-0.105408,0.177632,5.88875,9.84375,-11.2875,-26.928001,12.448001,25.568,inter_set_rest,4,3.0,31117.0,403431.0,134691.0,7957.0,-146.0
2026-04-09 22:06:36.990119,197709,1327016545,1327017427,0.825696,-0.105408,0.177632,4.87375,10.64,-9.948751,-26.928001,12.448001,25.568,inter_set_rest,4,3.0,31117.0,403431.0,134691.0,7957.0,-146.0
2026-04-09 22:06:37.027104,197719,1327031055,1327032442,0.8296,-0.074176,0.144448,3.54375,11.57625,-8.35625,-26.04,12.768001,27.408,inter_set_rest,4,3.0,31126.0,403431.0,133864.0,7556.0,-142.0
2026-04-09 22:06:37.028790,197720,1327040129,1327041176,0.8296,-0.074176,0.144448,4.4975,10.675,-7.735,-26.04,12.768001,27.408,inter_set_rest,4,3.0,31126.0,403431.0,133864.0,7556.0,-142.0
2026-04-09 22:06:37.030436,197721,1327049110,1327049882,0.833504,-0.089792,0.144448,6.92125,9.82625,-7.14875,-27.264002,12.400001,28.888,inter_set_rest,4,3.0,31126.0,403431.0,133864.0,7556.0,-142.0
2026-04-09 22:06:37.034629,197722,1327064121,1327064865,0.833504,-0.089792,0.144448,8.8025,8.70625,-7.07875,-27.264002,12.400001,28.888,inter_set_rest,4,3.0,31126.0,403431.0,133864.0,7556.0,-142.0
2026-04-09 22:06:37.036198,197723,1327073650,1327075663,0.833504,-0.101504,0.199104,8.96,8.435,-5.87125,-27.640001,12.136001,28.840002,inter_set_rest,4,3.0,31126.0,403431.0,133864.0,7556.0,-142.0
2026-04-09 22:06:37.040311,197724,1327082625,1327084384,0.833504,-0.101504,0.199104,6.965,9.835,-4.76,-27.640001,12.136001,28.840002,inter_set_rest,4,3.0,31126.0,403431.0,133864.0,7556.0,-142.0
2026-04-09 22:06:37.076522,197725,1327091564,1327093094,0.83936,-0.074176,0.191296,5.22375,10.045,-3.42125,-26.496002,12.064,27.680002,inter_set_rest,4,3.0,31126.0,403431.0,133864.0,7556.0,-142.0
2026-04-09 22:06:37.078792,197726,1327106058,1327108006,0.83936,-0.074176,0.191296,4.66375,10.395,-3.57,-26.496002,12.064,27.680002,inter_set_rest,4,3.0,31126.0,403431.0,133864.0,7556.0,-142.0
2026-04-09 22:06:37.083442,197727,1327114984,1327116721,0.851072,-0.056608,0.179584,5.60875,10.675,-4.34875,-26.552002,11.904,26.52,inter_set_rest,4,3.0,31126.0,403431.0,133864.0,7556.0,-142.0
2026-04-09 22:06:37.118263,197738,1327124418,1327125447,0.851072,-0.056608,0.179584,5.915,10.5525,-5.08375,-26.552002,11.904,26.52,inter_set_rest,4,3.0,31132.0,403431.0,132800.0,7040.0,-143.0
2026-04-09 22:06:37.122067,197739,1327133381,1327134220,0.851072,-0.101504,0.191296,6.44,10.19375,-5.5125,-28.136002,12.448001,30.240002,inter_set_rest,4,3.0,31132.0,403431.0,132800.0,7040.0,-143.0
2026-04-09 22:06:37.123779,197740,1327147909,1327149129,0.83936,-0.070272,0.21472,6.25625,9.61625,-4.38375,-26.608002,12.048,28.056002,inter_set_rest,4,3.0,31132.0,403431.0,132800.0,7040.0,-143.0
2026-04-09 22:06:37.125415,197741,1327156862,1327157934,0.83936,-0.070272,0.21472,6.37,9.065,-3.15875,-26.608002,12.048,28.056002,inter_set_rest,4,3.0,31132.0,403431.0,132800.0,7040.0,-143.0
2026-04-09 22:06:37.129411,197742,1327165783,1327166630,0.83936,-0.070272,0.21472,6.3525,8.56625,-2.52,-26.608002,12.048,28.056002,inter_set_rest,4,3.0,31132.0,403431.0,132800.0,7040.0,-143.0
2026-04-09 22:06:37.158019,197743,1327180286,1327181549,0.831552,-0.064416,0.226432,7.42,8.02375,-2.45,-26.096,12.336,27.208002,inter_set_rest,4,3.0,31132.0,403431.0,132800.0,7040.0,-143.0
2026-04-09 22:06:37.161589,197744,1327189196,1327190294,0.833504,-0.06832,0.232288,8.05,7.44625,-2.38,-26.328001,12.256001,27.856,inter_set_rest,4,3.0,31132.0,403431.0,132800.0,7040.0,-143.0
2026-04-09 22:06:37.164056,197745,1327198105,1327199021,0.833504,-0.06832,0.232288,7.665,7.5075,-2.1525,-26.328001,12.256001,27.856,inter_set_rest,4,3.0,31132.0,403431.0,132800.0,7040.0,-143.0
2026-04-09 22:06:37.169107,197746,1327212595,1327213940,0.817888,-0.056608,0.222528,5.88,7.5775,-1.35625,-26.664001,12.528001,28.368002,inter_set_rest,4,3.0,31132.0,403431.0,132800.0,7040.0,-143.0
2026-04-09 22:06:37.222817,197756,1327221644,1327222694,0.817888,-0.056608,0.222528,3.77125,6.825,-0.93625,-26.664001,12.528001,28.368002,inter_set_rest,4,3.0,31072.0,403431.0,131065.0,6310.0,-140.0
2026-04-09 22:06:37.225352,197757,1327230632,1327231513,0.815936,-0.0488,0.230336,3.96375,5.92375,-0.42,-26.368002,12.56,28.424002,inter_set_rest,4,3.0,31072.0,403431.0,131065.0,6310.0,-140.0
2026-04-09 22:06:37.227718,197758,1327245096,1327246413,0.815936,-0.0488,0.230336,5.55625,3.89375,0.1575,-26.368002,12.56,28.424002,inter_set_rest,4,3.0,31072.0,403431.0,131065.0,6310.0,-140.0
2026-04-09 22:06:37.230318,197759,1327254030,1327255227,0.833504,-0.070272,0.249856,7.6475,2.24875,-0.1575,-26.168001,12.176001,28.04,inter_set_rest,4,3.0,31072.0,403431.0,131065.0,6310.0,-140.0
2026-04-09 22:06:37.232809,197760,1327262984,1327264013,0.833504,-0.070272,0.249856,9.9225,0.805,0.945,-26.168001,12.176001,28.04,inter_set_rest,4,3.0,31072.0,403431.0,131065.0,6310.0,-140.0
2026-04-09 22:06:37.235365,197761,1327271978,1327272793,0.8296,-0.074176,0.284992,10.3775,0.32375,2.61625,-26.192001,12.184001,29.088001,inter_set_rest,4,3.0,31072.0,403431.0,131065.0,6310.0,-140.0
2026-04-09 22:06:37.242756,197762,1327286490,1327287742,0.8296,-0.074176,0.284992,7.9275,0.39375,4.69875,-26.192001,12.184001,29.088001,inter_set_rest,4,3.0,31072.0,403431.0,131065.0,6310.0,-140.0
2026-04-09 22:06:37.273762,197763,1327295405,1327296547,0.835456,-0.066368,0.257664,4.48,0.55125,5.76625,-26.192001,13.504001,29.864002,inter_set_rest,4,3.0,31072.0,403431.0,131065.0,6310.0,-140.0
2026-04-09 22:06:37.277213,197764,1327304288,1327305255,0.835456,-0.066368,0.257664,3.64875,-0.93625,6.93,-26.192001,13.504001,29.864002,inter_set_rest,4,3.0,31072.0,403431.0,131065.0,6310.0,-140.0
2026-04-09 22:06:37.279696,197765,1327318762,1327320187,0.835456,-0.062464,0.236192,4.6725,-2.8,7.245,-26.152,12.960001,27.928001,inter_set_rest,4,3.0,31072.0,403431.0,131065.0,6310.0,-140.0
2026-04-09 22:06:37.304080,197775,1327327750,1327328971,0.835456,-0.074176,0.251808,5.2325,-4.68125,7.455,-26.152,12.960001,27.928001,inter_set_rest,4,3.0,31059.0,403431.0,130132.0,5936.0,-136.0
2026-04-09 22:06:37.306560,197776,1327336695,1327337770,0.843264,-0.074176,0.251808,5.60875,-6.09,7.7,-26.048,12.896001,26.536001,inter_set_rest,4,3.0,31059.0,403431.0,130132.0,5936.0,-136.0
2026-04-09 22:06:37.309033,197777,1327351183,1327352722,0.835456,-0.093696,0.257664,5.425,-6.6675,7.30625,-25.712002,12.448001,28.000002,inter_set_rest,4,3.0,31059.0,403431.0,130132.0,5936.0,-136.0
2026-04-09 22:06:37.339366,197778,1327360119,1327361441,0.835456,-0.093696,0.257664,4.68125,-7.7875,7.70875,-25.712002,12.448001,28.000002,inter_set_rest,4,3.0,31059.0,403431.0,130132.0,5936.0,-136.0
2026-04-09 22:06:37.342938,197779,1327369018,1327370148,0.843264,-0.083936,0.249856,5.285,-8.2775,8.47,-25.992,12.544001,29.112001,inter_set_rest,4,3.0,31059.0,403431.0,130132.0,5936.0,-136.0
2026-04-09 22:06:37.380577,197780,1327383524,1327385110,0.843264,-0.083936,0.249856,5.6875,-8.2075,8.505,-25.992,12.544001,29.112001,inter_set_rest,4,3.0,31059.0,403431.0,130132.0,5936.0,-136.0
2026-04-09 22:06:37.384126,197781,1327392444,1327393834,0.85888,-0.099552,0.236192,6.46625,-9.16125,8.33875,-25.304,12.888001,27.728,inter_set_rest,4,3.0,31059.0,403431.0,130132.0,5936.0,-136.0
2026-04-09 22:06:37.386683,197782,1327401365,1327402530,0.85888,-0.099552,0.236192,6.71125,-10.07125,8.2075,-25.304,12.888001,27.728,inter_set_rest,4,3.0,31059.0,403431.0,130132.0,5936.0,-136.0
2026-04-09 22:06:37.389146,197783,1327415828,1327417407,0.856928,-0.101504,0.228384,6.4575,-10.7625,8.575,-25.664001,12.592001,28.784002,inter_set_rest,4,3.0,31059.0,403431.0,130132.0,5936.0,-136.0
2026-04-09 22:06:37.420365,197794,1327425284,1327426472,0.856928,-0.101504,0.228384,5.215,-11.1125,8.39125,-25.664001,12.592001,28.784002,inter_set_rest,4,3.0,31022.0,403431.0,131473.0,6504.0,-139.0
2026-04-09 22:06:37.422726,197795,1327434306,1327435248,0.851072,-0.10736,0.222528,2.73875,-11.0775,8.4875,-25.288002,12.672001,27.848001,inter_set_rest,4,3.0,31022.0,403431.0,131473.0,6504.0,-139.0
2026-04-09 22:06:37.425353,197796,1327443296,1327444038,0.851072,-0.10736,0.222528,2.65125,-11.05125,8.295,-25.288002,12.672001,27.848001,inter_set_rest,4,3.0,31022.0,403431.0,131473.0,6504.0,-139.0
2026-04-09 22:06:37.427873,197797,1327458314,1327458990,0.847168,-0.121024,0.206912,3.00125,-11.3575,7.53375,-25.712002,13.384001,27.912,inter_set_rest,4,3.0,31022.0,403431.0,131473.0,6504.0,-139.0
2026-04-09 22:06:37.430366,197798,1327467859,1327469831,0.847168,-0.121024,0.206912,3.17625,-11.4275,7.21,-25.712002,13.384001,27.912,inter_set_rest,4,3.0,31022.0,403431.0,131473.0,6504.0,-139.0
2026-04-09 22:06:37.435446,197799,1327476801,1327478529,0.83936,-0.144448,0.1952,2.02125,-11.33125,7.60375,-26.728,13.424001,28.840002,inter_set_rest,4,3.0,31022.0,403431.0,131473.0,6504.0,-139.0
2026-04-09 22:06:37.441857,197800,1327485761,1327487244,0.83936,-0.144448,0.1952,0.95375,-11.9525,8.4,-26.728,13.424001,28.840002,inter_set_rest,4,3.0,31022.0,403431.0,131473.0,6504.0,-139.0
2026-04-09 22:06:37.471865,197801,1327500250,1327502192,0.841312,-0.1464,0.173728,0.8225,-13.2475,9.21375,-24.968,12.848001,27.744001,inter_set_rest,4,3.0,31022.0,403431.0,131473.0,6504.0,-139.0
2026-04-09 22:06:37.475417,197802,1327509148,1327510890,0.833504,-0.134688,0.183488,1.5925,-13.86,9.4675,-24.560001,13.408001,27.896002,inter_set_rest,4,3.0,31022.0,403431.0,131473.0,6504.0,-139.0
2026-04-09 22:06:37.477778,197803,1327518079,1327519576,0.833504,-0.134688,0.183488,3.4475,-14.41125,8.6975,-24.560001,13.408001,27.896002,inter_set_rest,4,3.0,31022.0,403431.0,131473.0,6504.0,-139.0
2026-04-09 22:06:37.502900,197813,1327532675,1327534599,0.827648,-0.16592,0.173728,3.8325,-15.33875,7.1925,-25.968,13.376,28.536001,inter_set_rest,4,3.0,31016.0,403431.0,130997.0,6335.0,-135.0
2026-04-09 22:06:37.505336,197814,1327541654,1327543357,0.827648,-0.16592,0.173728,4.13,-15.93375,6.65875,-25.968,13.376,28.536001,inter_set_rest,4,3.0,31016.0,403431.0,130997.0,6335.0,-135.0
2026-04-09 22:06:37.507855,197815,1327550585,1327552067,0.837408,-0.173728,0.150304,4.41875,-15.98625,7.0875,-25.344002,13.440001,28.752,inter_set_rest,4,3.0,31016.0,403431.0,130997.0,6335.0,-135.0
2026-04-09 22:06:37.538996,197816,1327559506,1327560781,0.837408,-0.173728,0.150304,2.8,-15.74125,7.93625,-25.344002,13.440001,28.752,inter_set_rest,4,3.0,31016.0,403431.0,130997.0,6335.0,-135.0
2026-04-09 22:06:37.543453,197817,1327574000,1327575707,0.851072,-0.121024,0.1464,2.03875,-15.49625,7.8225,-24.576,13.656001,27.408,inter_set_rest,4,3.0,31016.0,403431.0,130997.0,6335.0,-135.0
2026-04-09 22:06:37.544906,197818,1327582922,1327584444,0.851072,-0.121024,0.1464,2.00375,-15.28625,6.93,-24.576,13.656001,27.408,inter_set_rest,4,3.0,31016.0,403431.0,130997.0,6335.0,-135.0
2026-04-09 22:06:37.548640,197819,1327591860,1327593160,0.853024,-0.169824,0.134688,3.57,-15.0325,3.9025,-24.528002,13.784,28.032001,inter_set_rest,4,3.0,31016.0,403431.0,130997.0,6335.0,-135.0
2026-04-09 22:06:37.580971,197820,1327606350,1327608077,0.853024,-0.169824,0.134688,4.36625,-15.085,1.95125,-24.528002,13.784,28.032001,inter_set_rest,4,3.0,31016.0,403431.0,130997.0,6335.0,-135.0
2026-04-09 22:06:37.582626,197821,1327615288,1327616805,0.84912,-0.1952,0.160064,5.76625,-15.365,1.085,-24.464,13.592001,26.608002,inter_set_rest,4,3.0,31016.0,403431.0,130997.0,6335.0,-135.0
2026-04-09 22:06:37.606575,197831,1327624725,1327626041,0.84912,-0.1952,0.160064,7.245,-14.70875,2.03875,-24.464,13.592001,26.608002,inter_set_rest,4,3.0,31036.0,403431.0,130343.0,6076.0,-129.0
2026-04-09 22:06:37.609050,197832,1327639348,1327641076,0.843264,-0.18544,0.13664,7.14875,-14.46375,3.43,-25.008001,13.840001,27.992,inter_set_rest,4,3.0,31036.0,403431.0,130343.0,6076.0,-129.0
2026-04-09 22:06:37.611617,197833,1327648294,1327649803,0.843264,-0.18544,0.13664,5.57375,-14.27125,4.61125,-25.008001,13.840001,27.992,inter_set_rest,4,3.0,31036.0,403431.0,130343.0,6076.0,-129.0
2026-04-09 22:06:37.614067,197834,1327657290,1327658581,0.841312,-0.171776,0.105408,5.20625,-14.77875,4.87375,-25.008001,14.288001,27.368002,inter_set_rest,4,3.0,31036.0,403431.0,130343.0,6076.0,-129.0
2026-04-09 22:06:37.674284,197835,1327666266,1327667309,0.841312,-0.171776,0.105408,7.595,-15.33,4.43625,-25.008001,14.288001,27.368002,inter_set_rest,4,3.0,31036.0,403431.0,130343.0,6076.0,-129.0
2026-04-09 22:06:37.677885,197836,1327680855,1327682200,0.845216,-0.15616,0.11712,10.24625,-16.6425,3.33375,-24.144001,13.616,26.752,inter_set_rest,4,3.0,31036.0,403431.0,130343.0,6076.0,-129.0
2026-04-09 22:06:37.681748,197837,1327689767,1327690906,0.841312,-0.208864,0.122976,10.8675,-17.45625,2.24875,-23.872002,13.8,27.472002,inter_set_rest,4,3.0,31036.0,403431.0,130343.0,6076.0,-129.0
2026-04-09 22:06:37.682829,197838,1327698706,1327699587,0.841312,-0.208864,0.122976,10.6925,-17.56125,2.03875,-23.872002,13.8,27.472002,inter_set_rest,4,3.0,31036.0,403431.0,130343.0,6076.0,-129.0
2026-04-09 22:06:37.689054,197839,1327713231,1327714591,0.833504,-0.206912,0.103456,11.6025,-17.94625,3.12375,-24.208002,13.928,26.928001,inter_set_rest,4,3.0,31036.0,403431.0,130343.0,6076.0,-129.0
2026-04-09 22:06:37.691605,197840,1327722138,1327723291,0.833504,-0.206912,0.103456,15.3475,-18.85625,4.585,-24.208002,13.928,26.928001,inter_set_rest,4,3.0,31036.0,403431.0,130343.0,6076.0,-129.0
2026-04-09 22:06:37.719090,197851,1327731146,1327732028,0.831552,-0.144448,0.095648,19.241251,-19.7925,5.25,-23.304,14.360001,26.568,inter_set_rest,4,3.0,31049.0,403431.0,129788.0,5857.0,-155.0
2026-04-09 22:06:37.721559,197852,1327745766,1327746998,0.831552,-0.144448,0.095648,19.53,-19.67,5.15375,-23.304,14.360001,26.568,inter_set_rest,4,3.0,31049.0,403431.0,129788.0,5857.0,-155.0
2026-04-09 22:06:37.724106,197853,1327754803,1327755770,0.837408,-0.193248,0.093696,17.85875,-19.775,3.98125,-24.888,14.376,28.664001,inter_set_rest,4,3.0,31049.0,403431.0,129788.0,5857.0,-155.0
2026-04-09 22:06:37.726596,197854,1327763738,1327764489,0.837408,-0.193248,0.093696,17.185,-20.125,2.94875,-24.888,14.376,28.664001,inter_set_rest,4,3.0,31049.0,403431.0,129788.0,5857.0,-155.0
2026-04-09 22:06:37.730346,197855,1327773227,1327775296,0.833504,-0.216672,0.083936,17.77125,-20.22125,3.4475,-25.464,14.328001,28.160002,inter_set_rest,4,3.0,31049.0,403431.0,129788.0,5857.0,-155.0
2026-04-09 22:06:37.760686,197856,1327787723,1327788198,0.833504,-0.216672,0.083936,19.43375,-20.44,4.55875,-25.464,14.328001,28.160002,inter_set_rest,4,3.0,31049.0,403431.0,129788.0,5857.0,-155.0
2026-04-09 22:06:37.764123,197857,1327797059,1327798955,0.837408,-0.173728,0.07808,20.44,-20.772501,5.99375,-23.688002,14.248001,24.560001,inter_set_rest,4,3.0,31049.0,403431.0,129788.0,5857.0,-155.0
2026-04-09 22:06:37.766661,197858,1327805990,1327807652,0.837408,-0.173728,0.07808,20.58,-21.06125,6.11625,-23.688002,14.248001,24.560001,inter_set_rest,4,3.0,31049.0,403431.0,129788.0,5857.0,-155.0
2026-04-09 22:06:37.796962,197859,1327820556,1327822600,0.83936,-0.183488,0.05856,21.428751,-20.772501,5.74,-23.304,14.400001,26.984001,inter_set_rest,4,3.0,31049.0,403431.0,129788.0,5857.0,-155.0
2026-04-09 22:06:37.822824,197869,1327829689,1327831428,0.83936,-0.183488,0.044896,22.77625,-21.035,4.66375,-23.304,14.400001,26.984001,inter_set_rest,4,3.0,31139.0,403431.0,128221.0,5265.0,-132.0
2026-04-09 22:06:37.825415,197870,1327838637,1327840211,0.83936,-0.212768,0.044896,24.710001,-21.44625,4.655,-23.528002,14.128,25.160002,inter_set_rest,4,3.0,31139.0,403431.0,128221.0,5265.0,-132.0
2026-04-09 22:06:37.827881,197871,1327847554,1327848894,0.83936,-0.212768,0.044896,26.9325,-21.77,4.24375,-23.528002,14.128,25.160002,inter_set_rest,4,3.0,31139.0,403431.0,128221.0,5265.0,-132.0
2026-04-09 22:06:37.830433,197872,1327862138,1327863881,0.83936,-0.20496,0.052704,28.39375,-21.9275,4.8475,-23.864,14.264001,26.408,inter_set_rest,4,3.0,31139.0,403431.0,128221.0,5265.0,-132.0
2026-04-09 22:06:37.832915,197873,1327871107,1327872599,0.841312,-0.208864,0.037088,29.960001,-21.35,5.425,-23.224,14.904,27.52,inter_set_rest,4,3.0,31139.0,403431.0,128221.0,5265.0,-132.0
2026-04-09 22:06:37.838083,197874,1327880094,1327881342,0.841312,-0.208864,0.037088,29.1025,-20.88625,4.6025,-23.224,14.904,27.52,inter_set_rest,4,3.0,31139.0,403431.0,128221.0,5265.0,-132.0
2026-04-09 22:06:37.866905,197875,1327894647,1327896383,0.847168,-0.216672,0.021472,27.15125,-20.0025,4.3575,-23.28,14.728001,27.736002,inter_set_rest,4,3.0,31139.0,403431.0,128221.0,5265.0,-132.0
2026-04-09 22:06:37.870344,197876,1327903576,1327905095,0.847168,-0.216672,0.021472,26.87125,-19.32875,4.15625,-23.28,14.728001,27.736002,inter_set_rest,4,3.0,31139.0,403431.0,128221.0,5265.0,-132.0
2026-04-09 22:06:37.872822,197877,1327912548,1327913839,0.84912,-0.218624,0.00976,27.76375,-18.8825,2.56375,-23.024,14.448001,26.976002,inter_set_rest,4,3.0,31139.0,403431.0,128221.0,5265.0,-132.0
2026-04-09 22:06:37.926640,197887,1327927596,1327928811,0.84912,-0.218624,0.00976,29.505001,-19.04,1.4175,-23.024,14.448001,26.976002,inter_set_rest,4,3.0,31229.0,403431.0,127666.0,5065.0,-153.0
2026-04-09 22:06:37.929124,197888,1327936616,1327937501,0.851072,-0.232288,0.017568,31.85875,-19.18875,0.09625,-23.12,15.024001,27.136002,inter_set_rest,4,3.0,31229.0,403431.0,127666.0,5065.0,-153.0
2026-04-09 22:06:37.934128,197889,1327945554,1327946209,0.851072,-0.232288,0.017568,33.04,-18.40125,-1.54,-23.12,15.024001,27.136002,inter_set_rest,4,3.0,31229.0,403431.0,127666.0,5065.0,-153.0
2026-04-09 22:06:37.936592,197890,1327954814,1327957023,0.853024,-0.228384,0.003904,34.13375,-17.9025,-2.24,-22.944,14.768001,27.136002,inter_set_rest,4,3.0,31229.0,403431.0,127666.0,5065.0,-153.0
2026-04-09 22:06:37.939067,197891,1327969313,1327969920,0.853024,-0.228384,0.003904,34.01125,-17.15,-3.3075,-22.944,14.768001,27.136002,inter_set_rest,4,3.0,31229.0,403431.0,127666.0,5065.0,-153.0
2026-04-09 22:06:37.941651,197892,1327978592,1327980734,0.84912,-0.212768,-0.005856,33.4775,-16.8175,-4.24375,-23.264002,14.936001,27.480001,inter_set_rest,4,3.0,31229.0,403431.0,127666.0,5065.0,-153.0
2026-04-09 22:06:37.978069,197893,1327987537,1327989493,0.84912,-0.212768,-0.005856,33.83625,-16.0475,-5.3375,-23.264002,14.936001,27.480001,inter_set_rest,4,3.0,31229.0,403431.0,127666.0,5065.0,-153.0
2026-04-09 22:06:37.981669,197894,1327996456,1327998189,0.847168,-0.242048,-0.01952,34.30875,-16.12625,-6.37,-23.44,14.416,27.496002,inter_set_rest,4,3.0,31229.0,403431.0,127666.0,5065.0,-153.0
2026-04-09 22:06:37.984167,197895,1328010939,1328013113,0.845216,-0.23424,-0.01952,34.44,-15.846251,-6.825,-23.44,14.840001,29.544,inter_set_rest,4,3.0,31229.0,403431.0,127666.0,5065.0,-153.0
2026-04-09 22:06:37.986573,197896,1328019890,1328021797,0.845216,-0.23424,-0.01952,36.12875,-15.75,-7.2625,-23.160002,14.840001,29.544,inter_set_rest,4,3.0,31229.0,403431.0,127666.0,5065.0,-153.0
2026-04-09 22:06:38.014144,197907,1328029294,1328030602,0.845216,-0.23424,-0.01952,36.88125,-15.1025,-7.28,-23.160002,14.840001,29.544,inter_set_rest,4,3.0,31271.0,403431.0,127379.0,4964.0,-139.0
2026-04-09 22:06:38.016640,197908,1328043828,1328045595,0.841312,-0.212768,-0.00976,36.645,-14.0,-7.14875,-23.216002,14.912001,27.04,inter_set_rest,4,3.0,31271.0,403431.0,127379.0,4964.0,-139.0
2026-04-09 22:06:38.019196,197909,1328052798,1328054303,0.847168,-0.216672,-0.035136,34.8775,-12.46875,-7.735,-22.872002,15.320001,28.104002,inter_set_rest,4,3.0,31271.0,403431.0,127379.0,4964.0,-139.0
2026-04-09 22:06:38.021913,197910,1328061732,1328063099,0.847168,-0.216672,-0.035136,33.6175,-11.66375,-8.2775,-22.872002,15.320001,28.104002,inter_set_rest,4,3.0,31271.0,403431.0,127379.0,4964.0,-139.0
2026-04-09 22:06:38.051900,197911,1328076250,1328078017,0.851072,-0.228384,-0.0488,32.9875,-12.215,-8.75875,-23.672,14.216001,28.400002,inter_set_rest,4,3.0,31271.0,403431.0,127379.0,4964.0,-139.0
2026-04-09 22:06:38.055376,197912,1328085194,1328086728,0.851072,-0.228384,-0.0488,33.10125,-12.10125,-9.30125,-23.672,14.216001,28.400002,inter_set_rest,4,3.0,31271.0,403431.0,127379.0,4964.0,-139.0
2026-04-09 22:06:38.057856,197913,1328094096,1328095454,0.845216,-0.247904,-0.042944,34.23875,-11.9,-9.38875,-23.304,14.112,28.256,inter_set_rest,4,3.0,31271.0,403431.0,127379.0,4964.0,-139.0
2026-04-09 22:06:38.060304,197914,1328103009,1328104206,0.845216,-0.247904,-0.042944,34.6675,-10.92875,-9.065,-23.304,14.112,28.256,inter_set_rest,4,3.0,31271.0,403431.0,127379.0,4964.0,-139.0
2026-04-09 22:06:38.096792,197915,1328117480,1328119128,0.862784,-0.21472,-0.013664,35.51625,-10.325,-8.60125,-24.368002,14.376,29.12,inter_set_rest,4,3.0,31271.0,403431.0,127379.0,4964.0,-139.0
2026-04-09 22:06:38.125289,197925,1328126671,1328127898,0.862784,-0.21472,-0.013664,36.855,-10.4475,-9.17,-24.368002,14.376,29.12,inter_set_rest,4,3.0,31622.0,402523.0,122976.0,3547.0,-128.0
2026-04-09 22:06:38.127775,197926,1328135678,1328136656,0.851072,-0.171776,-0.033184,36.435,-9.12625,-8.82,-23.800001,14.112,28.272001,inter_set_rest,4,3.0,31622.0,402523.0,122976.0,3547.0,-128.0
2026-04-09 22:06:38.130290,197927,1328150133,1328151604,0.851072,-0.171776,-0.033184,33.48625,-8.51375,-9.292501,-23.800001,14.112,28.272001,inter_set_rest,4,3.0,31622.0,402523.0,122976.0,3547.0,-128.0
2026-04-09 22:06:38.132791,197928,1328159056,1328160364,0.845216,-0.230336,-0.033184,29.8725,-7.35,-8.5575,-24.264002,14.408001,28.848001,inter_set_rest,4,3.0,31622.0,402523.0,122976.0,3547.0,-128.0
2026-04-09 22:06:38.135327,197929,1328167990,1328169062,0.845216,-0.230336,-0.033184,27.74625,-6.57125,-8.015,-24.264002,14.408001,28.848001,inter_set_rest,4,3.0,31622.0,402523.0,122976.0,3547.0,-128.0
2026-04-09 22:06:38.139048,197930,1328182498,1328184031,0.854976,-0.22448,-0.03904,27.93,-5.87125,-7.0175,-23.984001,14.52,29.992,inter_set_rest,4,3.0,31622.0,402523.0,122976.0,3547.0,-128.0
2026-04-09 22:06:38.169359,197931,1328191468,1328192763,0.851072,-0.160064,-0.042944,28.7875,-5.3375,-6.51,-23.984001,14.52,29.776001,inter_set_rest,4,3.0,31622.0,402523.0,122976.0,3547.0,-128.0
2026-04-09 22:06:38.172859,197932,1328200399,1328201464,0.851072,-0.160064,-0.042944,29.33875,-4.22625,-6.86,-23.792002,14.656001,29.776001,inter_set_rest,4,3.0,31622.0,402523.0,122976.0,3547.0,-128.0
2026-04-09 22:06:38.175371,197933,1328209306,1328210184,0.851072,-0.160064,-0.042944,26.3025,-3.2725,-8.67125,-23.792002,14.656001,29.776001,inter_set_rest,4,3.0,31622.0,402523.0,122976.0,3547.0,-128.0
2026-04-09 22:06:38.181609,197934,1328223799,1328225169,0.851072,-0.220576,-0.033184,24.255,-2.4325,-8.8375,-23.392,14.664001,28.624,inter_set_rest,4,3.0,31622.0,402523.0,122976.0,3547.0,-128.0
2026-04-09 22:06:38.206526,197944,1328232873,1328233927,0.866688,-0.212768,-0.035136,24.535,-2.00375,-7.735,-24.368002,14.904,30.488,inter_set_rest,4,3.0,31604.0,403336.0,124195.0,3855.0,-151.0
2026-04-09 22:06:38.209082,197945,1328241893,1328242707,0.866688,-0.212768,-0.035136,26.45125,-1.02375,-6.20375,-24.368002,14.904,30.488,inter_set_rest,4,3.0,31604.0,403336.0,124195.0,3855.0,-151.0
2026-04-09 22:06:38.211584,197946,1328256378,1328257614,0.870592,-0.181536,-0.025376,27.20375,-0.23625,-6.0375,-24.400002,14.568001,30.664001,inter_set_rest,4,3.0,31604.0,403336.0,124195.0,3855.0,-151.0
2026-04-09 22:06:38.274283,197947,1328265269,1328266366,0.870592,-0.181536,-0.025376,25.235,0.525,-6.85125,-24.400002,14.568001,30.664001,inter_set_rest,4,3.0,31604.0,403336.0,124195.0,3855.0,-151.0
2026-04-09 22:06:38.277879,197948,1328274247,1328275053,0.86864,-0.163968,-0.027328,23.51125,0.70875,-8.21625,-23.456001,14.704,29.488,inter_set_rest,4,3.0,31604.0,403336.0,124195.0,3855.0,-151.0
2026-04-09 22:06:38.280378,197949,1328288702,1328289938,0.86864,-0.163968,-0.027328,23.66,1.1725,-9.54625,-23.456001,14.704,29.488,inter_set_rest,4,3.0,31604.0,403336.0,124195.0,3855.0,-151.0
2026-04-09 22:06:38.282818,197950,1328297616,1328298689,0.856928,-0.193248,-0.005856,23.49375,1.4525,-10.185,-23.912,14.56,29.408,inter_set_rest,4,3.0,31604.0,403336.0,124195.0,3855.0,-151.0
2026-04-09 22:06:38.285325,197951,1328306612,1328307467,0.856928,-0.193248,-0.005856,22.28625,1.93375,-10.01875,-23.912,14.56,29.408,inter_set_rest,4,3.0,31604.0,403336.0,124195.0,3855.0,-151.0
2026-04-09 22:06:38.287819,197952,1328321057,1328322366,0.860832,-0.173728,-0.025376,20.3875,2.37125,-9.28375,-23.912,14.864,29.608002,inter_set_rest,4,3.0,31604.0,403336.0,124195.0,3855.0,-151.0
2026-04-09 22:06:38.318110,197963,1328330609,1328331105,0.860832,-0.173728,-0.025376,19.57375,2.975,-8.39125,-23.912,14.864,29.608002,inter_set_rest,4,3.0,31592.0,403431.0,125456.0,4227.0,-150.0
2026-04-09 22:06:38.320763,197964,1328340027,1328341914,0.854976,-0.17568,-0.021472,18.61125,2.35375,-7.49,-23.352001,15.160001,31.024002,inter_set_rest,4,3.0,31592.0,403431.0,125456.0,4227.0,-150.0
2026-04-09 22:06:38.322815,197965,1328349073,1328350646,0.854976,-0.17568,-0.021472,17.24625,2.17875,-7.07,-23.352001,15.160001,31.024002,inter_set_rest,4,3.0,31592.0,403431.0,125456.0,4227.0,-150.0
2026-04-09 22:06:38.325374,197966,1328363632,1328365592,0.854976,-0.171776,-0.003904,16.47625,1.65375,-6.6325,-23.808,14.536,30.384,inter_set_rest,4,3.0,31592.0,403431.0,125456.0,4227.0,-150.0
2026-04-09 22:06:38.330354,197967,1328372567,1328374296,0.853024,-0.15616,-0.001952,17.6225,1.30375,-6.11625,-23.912,14.184001,30.392002,inter_set_rest,4,3.0,31592.0,403431.0,125456.0,4227.0,-150.0
2026-04-09 22:06:38.360505,197968,1328381507,1328382989,0.853024,-0.15616,-0.001952,17.4475,1.8025,-6.755,-23.912,14.184001,30.392002,inter_set_rest,4,3.0,31592.0,403431.0,125456.0,4227.0,-150.0
2026-04-09 22:06:38.364088,197969,1328390484,1328391722,0.853024,-0.15616,-0.001952,13.58875,2.66,-7.60375,-23.912,14.184001,30.392002,inter_set_rest,4,3.0,31592.0,403431.0,125456.0,4227.0,-150.0
2026-04-09 22:06:38.367012,197970,1328404939,1328406758,0.864736,-0.144448,-0.013664,10.185,3.57,-7.27125,-23.808,14.472001,30.248001,inter_set_rest,4,3.0,31592.0,403431.0,125456.0,4227.0,-150.0
2026-04-09 22:06:38.371617,197971,1328413848,1328415530,0.86864,-0.167872,-0.021472,8.02375,4.24375,-7.76125,-25.840002,14.368001,30.880001,inter_set_rest,4,3.0,31592.0,403431.0,125456.0,4227.0,-150.0
2026-04-09 22:06:38.401744,197972,1328422823,1328424229,0.86864,-0.167872,-0.021472,6.895,3.43,-8.925,-25.840002,14.368001,30.880001,inter_set_rest,4,3.0,31592.0,403431.0,125456.0,4227.0,-150.0
2026-04-09 22:06:38.427799,197982,1328437380,1328439175,0.86864,-0.152256,0.005856,8.05875,2.3975,-9.3625,-24.088001,14.296001,29.984001,inter_set_rest,4,3.0,31616.0,403431.0,124993.0,4062.0,-148.0
2026-04-09 22:06:38.430370,197983,1328446303,1328447882,0.86864,-0.152256,0.005856,8.93375,2.135,-9.87,-24.088001,14.296001,29.984001,inter_set_rest,4,3.0,31616.0,403431.0,124993.0,4062.0,-148.0
2026-04-09 22:06:38.432815,197984,1328455369,1328456597,0.870592,-0.16592,0.011712,7.63875,2.625,-10.386251,-23.848001,14.352,30.456001,inter_set_rest,4,3.0,31616.0,403431.0,124993.0,4062.0,-148.0
2026-04-09 22:06:38.435396,197985,1328469890,1328471540,0.870592,-0.16592,0.011712,4.7425,3.52625,-10.2725,-23.848001,14.352,30.456001,inter_set_rest,4,3.0,31616.0,403431.0,124993.0,4062.0,-148.0
2026-04-09 22:06:38.437924,197986,1328478817,1328480340,0.862784,-0.152256,0.011712,2.625,4.41875,-9.292501,-23.624,14.68,30.016,inter_set_rest,4,3.0,31616.0,403431.0,124993.0,4062.0,-148.0
2026-04-09 22:06:38.444096,197987,1328487808,1328489057,0.862784,-0.152256,0.011712,2.51125,4.97875,-8.74125,-23.624,14.68,30.016,inter_set_rest,4,3.0,31616.0,403431.0,124993.0,4062.0,-148.0
2026-04-09 22:06:38.474304,197988,1328502340,1328504027,0.85888,-0.160064,-0.011712,1.9425,4.8125,-9.0825,-24.160002,14.512001,30.640001,inter_set_rest,4,3.0,31616.0,403431.0,124993.0,4062.0,-148.0
2026-04-09 22:06:38.478529,197989,1328511297,1328512722,0.85888,-0.160064,-0.011712,2.03,4.36625,-8.68,-24.160002,14.512001,30.640001,inter_set_rest,4,3.0,31616.0,403431.0,124993.0,4062.0,-148.0
2026-04-09 22:06:38.480681,197990,1328520231,1328521407,0.862784,-0.150304,-0.001952,3.2025,4.0075,-8.33875,-23.936,14.032001,30.584002,inter_set_rest,4,3.0,31616.0,403431.0,124993.0,4062.0,-148.0
2026-04-09 22:06:38.512844,198000,1328529626,1328530196,0.862784,-0.150304,-0.001952,3.01875,3.3075,-8.07625,-23.936,14.032001,30.584002,inter_set_rest,4,3.0,31533.0,403431.0,126566.0,4584.0,-150.0
2026-04-09 22:06:38.518414,198001,1328544750,1328545199,0.851072,-0.163968,0.007808,1.26,3.395,-7.42875,-24.312,14.472001,31.288002,inter_set_rest,4,3.0,31533.0,403431.0,126566.0,4584.0,-150.0
2026-04-09 22:06:38.520118,198002,1328554192,1328556021,0.864736,-0.144448,0.013664,0.105,3.7975,-6.3525,-25.112001,14.792001,35.440002,inter_set_rest,4,3.0,31533.0,403431.0,126566.0,4584.0,-150.0
2026-04-09 22:06:38.521702,198003,1328563149,1328564721,0.864736,-0.144448,0.013664,-0.7875,4.06875,-5.495,-25.112001,14.792001,35.440002,inter_set_rest,4,3.0,31533.0,403431.0,126566.0,4584.0,-150.0
2026-04-09 22:06:38.575295,198004,1328572169,1328573445,0.864736,-0.144448,0.013664,-2.765,4.4625,-5.0575,-25.112001,14.792001,35.440002,inter_set_rest,4,3.0,31533.0,403431.0,126566.0,4584.0,-150.0
2026-04-09 22:06:38.577534,198005,1328586729,1328588379,0.85888,-0.15616,0.005856,-4.8825,4.305,-4.97,-24.512001,14.344001,30.616001,inter_set_rest,4,3.0,31533.0,403431.0,126566.0,4584.0,-150.0
2026-04-09 22:06:38.582166,198006,1328595639,1328597078,0.872544,-0.140544,0.005856,-4.64625,4.31375,-5.355,-24.072,14.056001,30.192001,inter_set_rest,4,3.0,31533.0,403431.0,126566.0,4584.0,-150.0
2026-04-09 22:06:38.583800,198007,1328604637,1328605776,0.872544,-0.140544,0.005856,-4.1475,4.61125,-6.46625,-24.072,14.056001,30.192001,inter_set_rest,4,3.0,31533.0,403431.0,126566.0,4584.0,-150.0
2026-04-09 22:06:38.585348,198008,1328619177,1328620664,0.864736,-0.16592,0.013664,-6.3,4.99625,-6.755,-23.864,14.416,30.000002,inter_set_rest,4,3.0,31533.0,403431.0,126566.0,4584.0,-150.0
2026-04-09 22:06:38.613798,198019,1328628074,1328629640,0.864736,-0.16592,0.013664,-7.25375,4.69,-6.6325,-23.864,14.416,30.000002,inter_set_rest,4,3.0,31492.0,403431.0,126743.0,4657.0,-142.0
2026-04-09 22:06:38.615447,198020,1328637097,1328638422,0.862784,-0.163968,-0.001952,-6.7725,4.6025,-6.58875,-24.824001,14.328001,30.984001,inter_set_rest,4,3.0,31492.0,403431.0,126743.0,4657.0,-142.0
2026-04-09 22:06:38.619565,198021,1328646061,1328647256,0.862784,-0.163968,-0.001952,-6.895,4.33125,-5.985,-24.824001,14.328001,30.984001,inter_set_rest,4,3.0,31492.0,403431.0,126743.0,4657.0,-142.0
2026-04-09 22:06:38.621321,198022,1328660547,1328662202,0.862784,-0.13664,0.0,-7.39375,3.73625,-6.405,-25.048,14.192,31.088001,inter_set_rest,4,3.0,31492.0,403431.0,126743.0,4657.0,-142.0
2026-04-09 22:06:38.628268,198023,1328669506,1328670920,0.862784,-0.13664,0.0,-8.04125,3.00125,-8.05,-25.048,14.192,31.088001,inter_set_rest,4,3.0,31492.0,403431.0,126743.0,4657.0,-142.0
2026-04-09 22:06:38.656810,198024,1328678475,1328679651,0.86864,-0.1464,0.011712,-8.6975,3.3425,-9.0825,-24.104002,14.344001,30.816002,inter_set_rest,4,3.0,31492.0,403431.0,126743.0,4657.0,-142.0
2026-04-09 22:06:38.661298,198025,1328692983,1328694554,0.86864,-0.177632,-0.001952,-9.16125,3.50875,-10.167501,-24.104002,14.344001,30.816002,inter_set_rest,4,3.0,31492.0,403431.0,126743.0,4657.0,-142.0
2026-04-09 22:06:38.662934,198026,1328702030,1328703283,0.84912,-0.179584,-0.001952,-9.292501,4.03375,-10.36,-23.800001,14.256001,31.480001,inter_set_rest,4,3.0,31492.0,403431.0,126743.0,4657.0,-142.0
2026-04-09 22:06:38.669473,198027,1328711007,1328712033,0.84912,-0.179584,-0.001952,-9.68625,4.5675,-9.54625,-23.800001,14.256001,31.480001,inter_set_rest,4,3.0,31492.0,403431.0,126743.0,4657.0,-142.0
2026-04-09 22:06:38.700558,198028,1328725535,1328726996,0.851072,-0.154208,0.0,-10.9025,5.13625,-8.54,-25.616001,14.496,31.968002,inter_set_rest,4,3.0,31492.0,403431.0,126743.0,4657.0,-142.0
2026-04-09 22:06:38.745445,198038,1328734603,1328735712,0.851072,-0.138592,-0.015616,-11.29625,5.075,-8.5575,-24.328001,14.288001,30.176,inter_set_rest,4,3.0,31516.0,403431.0,126780.0,4652.0,-155.0
2026-04-09 22:06:38.747903,198039,1328743550,1328744446,0.851072,-0.138592,-0.015616,-11.52375,5.04875,-9.7125,-24.328001,14.288001,30.176,inter_set_rest,4,3.0,31516.0,403431.0,126780.0,4652.0,-155.0
2026-04-09 22:06:38.752396,198040,1328758237,1328759400,0.847168,-0.162016,-0.007808,-12.08375,4.89125,-10.94625,-23.888,14.224001,29.064001,inter_set_rest,4,3.0,31516.0,403431.0,126780.0,4652.0,-155.0
2026-04-09 22:06:38.753885,198041,1328767160,1328768136,0.847168,-0.162016,-0.007808,-11.47125,5.18875,-11.41875,-23.888,14.224001,29.064001,inter_set_rest,4,3.0,31516.0,403431.0,126780.0,4652.0,-155.0
2026-04-09 22:06:38.756316,198042,1328776082,1328776829,0.847168,-0.15616,0.003904,-11.47125,5.36375,-12.145,-24.056002,14.744,29.472002,inter_set_rest,4,3.0,31516.0,403431.0,126780.0,4652.0,-155.0
2026-04-09 22:06:38.757904,198043,1328785445,1328787600,0.847168,-0.15616,0.003904,-11.2525,5.83625,-11.76875,-24.056002,14.744,29.472002,inter_set_rest,4,3.0,31516.0,403431.0,126780.0,4652.0,-155.0
2026-04-09 22:06:38.760337,198044,1328799937,1328800466,0.851072,-0.142496,-0.00976,-12.90625,7.09625,-11.96125,-24.936,13.76,30.032001,inter_set_rest,4,3.0,31516.0,403431.0,126780.0,4652.0,-155.0
2026-04-09 22:06:38.790599,198045,1328809433,1328811239,0.851072,-0.142496,-0.00976,-15.715,7.32375,-13.02875,-24.936,13.76,30.032001,inter_set_rest,4,3.0,31516.0,403431.0,126780.0,4652.0,-155.0
2026-04-09 22:06:38.801223,198046,1328818367,1328820036,0.856928,-0.160064,-0.015616,-16.05625,7.9975,-13.7025,-24.208002,14.296001,29.456001,inter_set_rest,4,3.0,31516.0,403431.0,126780.0,4652.0,-155.0
2026-04-09 22:06:38.801376,198047,1328827274,1328828743,0.856928,-0.160064,-0.015616,-15.89,8.46125,-14.90125,-24.208002,14.296001,29.456001,inter_set_rest,4,3.0,31516.0,403431.0,126780.0,4652.0,-155.0
2026-04-09 22:06:38.825438,198057,1328841831,1328843711,0.864736,-0.18544,-0.01952,-15.0325,8.61,-15.12875,-24.640001,13.568001,29.416002,inter_set_rest,4,3.0,31518.0,403431.0,126903.0,4673.0,-147.0
2026-04-09 22:06:38.829654,198058,1328850849,1328852427,0.864736,-0.18544,-0.01952,-13.16,6.85125,-13.7725,-24.640001,13.568001,29.416002,inter_set_rest,4,3.0,31518.0,403431.0,126903.0,4673.0,-147.0
2026-04-09 22:06:38.831435,198059,1328859790,1328861140,0.872544,-0.17568,-0.001952,-10.9725,6.5275,-12.85375,-25.408,13.952001,30.240002,inter_set_rest,4,3.0,31518.0,403431.0,126903.0,4673.0,-147.0
2026-04-09 22:06:38.832996,198060,1328874313,1328876045,0.880352,-0.177632,0.005856,-8.93375,6.3875,-11.1825,-25.016,14.248001,29.944002,inter_set_rest,4,3.0,31518.0,403431.0,126903.0,4673.0,-147.0
2026-04-09 22:06:38.841120,198061,1328883404,1328884795,0.880352,-0.177632,0.005856,-6.85125,6.44875,-9.45,-25.016,14.248001,29.944002,inter_set_rest,4,3.0,31518.0,403431.0,126903.0,4673.0,-147.0
2026-04-09 22:06:38.877899,198062,1328892343,1328893538,0.880352,-0.177632,0.005856,-6.5975,6.48375,-8.02375,-25.016,14.248001,29.944002,inter_set_rest,4,3.0,31518.0,403431.0,126903.0,4673.0,-147.0
2026-04-09 22:06:38.884059,198063,1328906831,1328908426,0.880352,-0.1952,0.001952,-6.67625,7.28,-5.69625,-24.496,14.488001,28.400002,inter_set_rest,4,3.0,31518.0,403431.0,126903.0,4673.0,-147.0
2026-04-09 22:06:38.884178,198064,1328915780,1328917128,0.866688,-0.16592,0.00976,-7.6825,7.84,-4.0425,-24.704,13.672001,28.824001,inter_set_rest,4,3.0,31518.0,403431.0,126903.0,4673.0,-147.0
2026-04-09 22:06:38.885372,198065,1328924699,1328925882,0.866688,-0.16592,0.00976,-7.2275,8.12,-2.16125,-24.704,13.672001,28.824001,inter_set_rest,4,3.0,31518.0,403431.0,126903.0,4673.0,-147.0
2026-04-09 22:06:38.913826,198076,1328939621,1328940820,0.856928,-0.173728,-0.013664,-6.76375,7.74375,-1.645,-24.528002,13.64,28.768002,inter_set_rest,4,3.0,31542.0,403431.0,127695.0,4933.0,-142.0
2026-04-09 22:06:38.915398,198077,1328948641,1328949557,0.856928,-0.173728,-0.013664,-3.64,7.9975,-1.74125,-24.528002,13.64,28.768002,inter_set_rest,4,3.0,31542.0,403431.0,127695.0,4933.0,-142.0
2026-04-09 22:06:38.919531,198078,1328957556,1328958295,0.853024,-0.130784,0.005856,1.32125,6.86,-2.6775,-24.296001,14.032001,29.136002,inter_set_rest,4,3.0,31542.0,403431.0,127695.0,4933.0,-142.0
2026-04-09 22:06:38.925793,198079,1328966936,1328969130,0.853024,-0.130784,0.005856,4.83875,5.45125,-4.5325,-24.296001,14.032001,29.136002,inter_set_rest,4,3.0,31542.0,403431.0,127695.0,4933.0,-142.0
2026-04-09 22:06:38.954353,198080,1328981443,1328982016,0.845216,-0.130784,0.02928,3.4825,5.04,-5.39,-24.896002,13.688001,30.688002,inter_set_rest,4,3.0,31542.0,403431.0,127695.0,4933.0,-142.0
2026-04-09 22:06:38.958947,198081,1328990672,1328992800,0.845216,-0.130784,0.02928,-1.4175,5.94125,-5.60875,-24.896002,13.688001,30.688002,inter_set_rest,4,3.0,31542.0,403431.0,127695.0,4933.0,-142.0
2026-04-09 22:06:38.960739,198082,1328999610,1329001523,0.841312,-0.163968,0.021472,-6.16875,5.1625,-5.69625,-24.696001,14.248001,29.064001,inter_set_rest,4,3.0,31542.0,403431.0,127695.0,4933.0,-142.0
2026-04-09 22:06:38.967085,198083,1329008544,1329010337,0.841312,-0.163968,0.021472,-6.57125,4.4975,-5.0925,-24.696001,14.248001,29.064001,inter_set_rest,4,3.0,31542.0,403431.0,127695.0,4933.0,-142.0
2026-04-09 22:06:38.995648,198084,1329023007,1329025265,0.843264,-0.138592,0.015616,-1.9425,3.94625,-4.38375,-24.800001,14.224001,30.264002,inter_set_rest,4,3.0,31542.0,403431.0,127695.0,4933.0,-142.0
2026-04-09 22:06:39.025613,198094,1329032442,1329034120,0.843264,-0.138592,0.015616,2.7475,2.5025,-4.97,-24.800001,14.224001,30.264002,inter_set_rest,4,3.0,31444.0,403431.0,128150.0,5130.0,-138.0
2026-04-09 22:06:39.029630,198095,1329041445,1329042903,0.837408,-0.160064,0.025376,5.0925,1.67125,-4.22625,-24.656002,13.944,28.816002,inter_set_rest,4,3.0,31444.0,403431.0,128150.0,5130.0,-138.0
2026-04-09 22:06:39.031415,198096,1329055970,1329057827,0.845216,-0.154208,0.01952,7.0175,1.12,-3.57,-26.28,14.152,30.256,inter_set_rest,4,3.0,31444.0,403431.0,128150.0,5130.0,-138.0
2026-04-09 22:06:39.034356,198097,1329064973,1329066583,0.845216,-0.154208,0.01952,8.3825,0.67375,-2.0475,-26.28,14.152,30.256,inter_set_rest,4,3.0,31444.0,403431.0,128150.0,5130.0,-138.0
2026-04-09 22:06:39.035474,198098,1329073884,1329075317,0.845216,-0.154208,0.01952,6.8775,0.63,-1.14625,-26.28,14.152,30.256,inter_set_rest,4,3.0,31444.0,403431.0,128150.0,5130.0,-138.0
2026-04-09 22:06:39.042429,198099,1329082882,1329084002,0.862784,-0.093696,0.025376,5.57375,0.77875,-1.12875,-24.224,14.104001,29.920002,inter_set_rest,4,3.0,31444.0,403431.0,128150.0,5130.0,-138.0
2026-04-09 22:06:39.074102,198100,1329097352,1329098977,0.870592,-0.142496,0.035136,4.2,0.84,-2.3975,-24.256,14.040001,29.072,inter_set_rest,4,3.0,31444.0,403431.0,128150.0,5130.0,-138.0
2026-04-09 22:06:39.076328,198101,1329106235,1329107660,0.870592,-0.142496,0.035136,4.27875,1.04125,-3.9025,-24.256,14.040001,29.072,inter_set_rest,4,3.0,31444.0,403431.0,128150.0,5130.0,-138.0
2026-04-09 22:06:39.080921,198102,1329115142,1329116346,0.870592,-0.163968,0.021472,7.2625,0.74375,-4.71625,-24.256,13.992001,28.984001,inter_set_rest,4,3.0,31444.0,403431.0,128150.0,5130.0,-138.0
2026-04-09 22:06:39.109333,198103,1329129632,1329131248,0.870592,-0.163968,0.021472,11.92625,-0.16625,-5.03125,-24.376001,13.992001,28.984001,inter_set_rest,4,3.0,31444.0,403431.0,128150.0,5130.0,-138.0
2026-04-09 22:06:39.137194,198113,1329138606,1329139996,0.85888,-0.140544,0.00976,15.16375,-0.245,-4.9525,-24.056002,14.512001,29.192001,inter_set_rest,4,3.0,31412.0,403431.0,129171.0,5513.0,-152.0
2026-04-09 22:06:39.174444,198114,1329147536,1329148718,0.85888,-0.140544,0.00976,15.96,-0.32375,-4.27,-24.056002,14.512001,29.192001,inter_set_rest,4,3.0,31412.0,403431.0,129171.0,5513.0,-152.0
2026-04-09 22:06:39.187287,198115,1329161984,1329163703,0.872544,-0.13664,-0.007808,15.417501,-0.42875,-4.38375,-24.312,14.064001,29.088001,inter_set_rest,4,3.0,31412.0,403431.0,129171.0,5513.0,-152.0
2026-04-09 22:06:39.188909,198116,1329170934,1329172461,0.872544,-0.13664,-0.007808,13.48375,-0.63,-3.22,-24.312,14.064001,29.088001,inter_set_rest,4,3.0,31412.0,403431.0,129171.0,5513.0,-152.0
2026-04-09 22:06:39.190698,198117,1329179881,1329181172,0.84912,-0.169824,-0.00976,11.85625,-0.39375,-2.68625,-24.080002,14.608001,30.328001,inter_set_rest,4,3.0,31412.0,403431.0,129171.0,5513.0,-152.0
2026-04-09 22:06:39.198349,198118,1329194395,1329196128,0.84912,-0.169824,-0.00976,12.08375,-1.02375,-3.21125,-24.080002,14.608001,30.328001,inter_set_rest,4,3.0,31412.0,403431.0,129171.0,5513.0,-152.0
2026-04-09 22:06:39.201254,198119,1329203336,1329204899,0.84912,-0.158112,0.031232,14.77,-2.205,-2.3625,-24.232,14.448001,29.472002,inter_set_rest,4,3.0,31412.0,403431.0,129171.0,5513.0,-152.0
2026-04-09 22:06:39.204991,198120,1329212285,1329213612,0.84912,-0.158112,0.031232,18.34875,-1.6975,-2.73875,-24.232,14.448001,29.472002,inter_set_rest,4,3.0,31412.0,403431.0,129171.0,5513.0,-152.0
2026-04-09 22:06:39.205935,198121,1329226745,1329228598,0.845216,-0.187392,0.025376,18.47125,0.21,-2.84375,-24.320002,14.152,30.016,inter_set_rest,4,3.0,31412.0,403431.0,129171.0,5513.0,-152.0
2026-04-09 22:06:39.242166,198132,1329236237,1329237340,0.854976,-0.206912,-0.027328,14.77,2.52,-1.5225,-25.264002,14.552001,30.112001,inter_set_rest,4,3.0,31724.0,403431.0,127782.0,4881.0,-146.0
2026-04-09 22:06:39.243906,198133,1329245189,1329246142,0.854976,-0.206912,-0.027328,10.47375,4.3225,-0.42,-25.264002,14.552001,30.112001,inter_set_rest,4,3.0,31724.0,403431.0,127782.0,4881.0,-146.0
2026-04-09 22:06:39.245486,198134,1329254203,1329254880,0.854976,-0.206912,-0.027328,9.0475,5.04,-0.16625,-25.264002,14.552001,30.112001,inter_set_rest,4,3.0,31724.0,403431.0,127782.0,4881.0,-146.0
2026-04-09 22:06:39.249748,198135,1329269058,1329269932,0.854976,-0.201056,-0.046848,13.55375,4.025,-1.86375,-24.328001,13.896001,30.144001,inter_set_rest,4,3.0,31724.0,403431.0,127782.0,4881.0,-146.0
2026-04-09 22:06:39.251399,198136,1329277966,1329278706,0.847168,-0.163968,-0.025376,19.9675,2.24875,-5.4075,-25.720001,13.864,33.856003,inter_set_rest,4,3.0,31724.0,403431.0,127782.0,4881.0,-146.0
2026-04-09 22:06:39.252954,198137,1329287365,1329289470,0.847168,-0.163968,-0.025376,26.32875,2.05625,-8.785,-25.720001,13.864,33.856003,inter_set_rest,4,3.0,31724.0,403431.0,127782.0,4881.0,-146.0
2026-04-09 22:06:39.257031,198138,1329296311,1329298172,0.835456,-0.1952,-0.046848,29.77625,3.43,-10.98125,-25.432001,14.552001,32.608,inter_set_rest,4,3.0,31724.0,403431.0,127782.0,4881.0,-146.0
2026-04-09 22:06:39.285582,198139,1329310845,1329313119,0.835456,-0.1952,-0.046848,26.80125,4.57625,-12.90625,-25.432001,14.552001,32.608,inter_set_rest,4,3.0,31724.0,403431.0,127782.0,4881.0,-146.0
2026-04-09 22:06:39.289232,198140,1329319784,1329321825,0.827648,-0.23424,-0.056608,19.285,5.64375,-13.25625,-24.44,13.968,29.672,inter_set_rest,4,3.0,31724.0,403431.0,127782.0,4881.0,-146.0
2026-04-09 22:06:39.295426,198141,1329328719,1329330536,0.827648,-0.23424,-0.056608,15.7325,7.4025,-12.20625,-24.44,13.968,29.672,inter_set_rest,4,3.0,31724.0,403431.0,127782.0,4881.0,-146.0
2026-04-09 22:06:39.324117,198151,1329343348,1329345494,0.8296,-0.247904,-0.06832,15.3475,8.19,-12.67875,-24.632002,14.128,28.576002,inter_set_rest,4,3.0,31775.0,403431.0,125374.0,4079.0,-138.0
2026-04-09 22:06:39.326630,198152,1329352389,1329354295,0.8296,-0.247904,-0.06832,15.96,8.5575,-14.6475,-24.632002,14.128,28.576002,inter_set_rest,4,3.0,31775.0,403431.0,125374.0,4079.0,-138.0
2026-04-09 22:06:39.329136,198153,1329361352,1329363049,0.853024,-0.201056,-0.072224,18.8825,8.82,-16.26625,-24.928001,14.736001,30.368002,inter_set_rest,4,3.0,31775.0,403431.0,125374.0,4079.0,-138.0
2026-04-09 22:06:39.335474,198154,1329375893,1329377971,0.86864,-0.26352,-0.091744,20.6675,10.24625,-18.26125,-24.928001,14.736001,27.568,inter_set_rest,4,3.0,31775.0,403431.0,125374.0,4079.0,-138.0
2026-04-09 22:06:39.376886,198155,1329384839,1329386699,0.870592,-0.26352,-0.091744,20.116251,11.4975,-19.81,-24.720001,14.536,27.568,inter_set_rest,4,3.0,31775.0,403431.0,125374.0,4079.0,-138.0
2026-04-09 22:06:39.380455,198156,1329393811,1329395419,0.870592,-0.26352,-0.091744,18.9875,12.71375,-18.61125,-24.720001,14.536,27.568,inter_set_rest,4,3.0,31775.0,403431.0,125374.0,4079.0,-138.0
2026-04-09 22:06:39.383158,198157,1329402830,1329404121,0.882304,-0.247904,-0.109312,20.335001,13.230001,-17.5875,-24.920002,13.792001,31.584002,inter_set_rest,4,3.0,31775.0,403431.0,125374.0,4079.0,-138.0
2026-04-09 22:06:39.385505,198158,1329417397,1329419026,0.890112,-0.160064,-0.095648,22.12,13.95625,-18.3575,-25.016,13.552001,31.008001,inter_set_rest,4,3.0,31775.0,403431.0,125374.0,4079.0,-138.0
2026-04-09 22:06:39.391698,198159,1329426319,1329427728,0.890112,-0.160064,-0.095648,18.5675,16.8875,-20.15125,-25.016,13.552001,31.008001,inter_set_rest,4,3.0,31775.0,403431.0,125374.0,4079.0,-138.0
2026-04-09 22:06:39.419280,198169,1329435938,1329436512,0.890112,-0.160064,-0.095648,13.1425,19.25,-22.89875,-25.016,13.552001,31.008001,inter_set_rest,4,3.0,31776.0,403394.0,124367.0,3798.0,-145.0
2026-04-09 22:06:39.425469,198170,1329445509,1329447399,0.874496,-0.228384,-0.054656,10.40375,21.6825,-25.48,-26.192001,13.576,32.624,inter_set_rest,4,3.0,31776.0,403394.0,124367.0,3798.0,-145.0
2026-04-09 22:06:39.427905,198171,1329460044,1329462314,0.843264,-0.22448,-0.085888,11.025,25.06875,-26.25,-25.216002,13.408001,31.728,inter_set_rest,4,3.0,31776.0,403394.0,124367.0,3798.0,-145.0
2026-04-09 22:06:39.430415,198172,1329468974,1329471063,0.843264,-0.22448,-0.085888,13.7025,27.7375,-26.01375,-25.216002,13.408001,31.728,inter_set_rest,4,3.0,31776.0,403394.0,124367.0,3798.0,-145.0
2026-04-09 22:06:39.435493,198173,1329477935,1329479809,0.83936,-0.093696,-0.035136,16.905,29.89,-27.06375,-26.008001,13.856001,32.864002,inter_set_rest,4,3.0,31776.0,403394.0,124367.0,3798.0,-145.0
2026-04-09 22:06:39.473178,198174,1329492541,1329494732,0.83936,-0.093696,-0.035136,17.56125,32.6375,-28.315,-26.008001,13.856001,32.864002,inter_set_rest,4,3.0,31776.0,403394.0,124367.0,3798.0,-145.0
2026-04-09 22:06:39.476747,198175,1329501487,1329503464,0.892064,-0.160064,-0.023424,12.915,36.155,-31.29,-24.584002,13.280001,32.104,inter_set_rest,4,3.0,31776.0,403394.0,124367.0,3798.0,-145.0
2026-04-09 22:06:39.479175,198176,1329510477,1329512248,0.892064,-0.160064,-0.023424,5.15375,39.1825,-33.59125,-24.584002,13.280001,32.104,inter_set_rest,4,3.0,31776.0,403394.0,124367.0,3798.0,-145.0
2026-04-09 22:06:39.481701,198177,1329524973,1329527192,0.89792,-0.201056,0.033184,0.88375,41.9475,-32.50625,-25.056002,12.928,32.504,inter_set_rest,4,3.0,31776.0,403394.0,124367.0,3798.0,-145.0
2026-04-09 22:06:39.548464,198188,1329533910,1329535947,0.89792,-0.201056,0.033184,3.59625,44.73,-29.5925,-25.056002,12.928,32.504,inter_set_rest,4,3.0,31876.0,403431.0,126586.0,4420.0,-154.0
2026-04-09 22:06:39.550171,198189,1329543355,1329544751,0.874496,-0.093696,0.119072,7.7875,48.97375,-25.655,-26.536001,13.360001,33.328003,inter_set_rest,4,3.0,31876.0,403431.0,126586.0,4420.0,-154.0
2026-04-09 22:06:39.551709,198190,1329552437,1329553488,0.874496,-0.093696,0.119072,5.57375,52.35125,-24.272501,-26.536001,13.360001,33.328003,inter_set_rest,4,3.0,31876.0,403431.0,126586.0,4420.0,-154.0
2026-04-09 22:06:39.555943,198191,1329566929,1329568461,0.864736,-0.06832,0.037088,0.25375,54.775,-25.97875,-25.712002,13.184001,33.384003,inter_set_rest,4,3.0,31876.0,403431.0,126586.0,4420.0,-154.0
2026-04-09 22:06:39.557666,198192,1329576047,1329577221,0.864736,-0.06832,0.037088,0.1575,56.0,-28.42,-25.712002,13.184001,33.384003,inter_set_rest,4,3.0,31876.0,403431.0,126586.0,4420.0,-154.0
2026-04-09 22:06:39.559220,198193,1329585020,1329585966,0.874496,-0.089792,-0.017568,7.3675,54.32,-31.1325,-26.736002,12.992001,35.08,inter_set_rest,4,3.0,31876.0,403431.0,126586.0,4420.0,-154.0
2026-04-09 22:06:39.563368,198194,1329599534,1329600900,0.880352,-0.027328,0.035136,17.5875,51.975,-32.83875,-26.128002,12.712001,35.264,inter_set_rest,4,3.0,31876.0,403431.0,126586.0,4420.0,-154.0
2026-04-09 22:06:39.567448,198195,1329608476,1329609590,0.880352,-0.027328,0.035136,22.575,49.525,-33.5125,-26.128002,12.712001,35.264,inter_set_rest,4,3.0,31876.0,403431.0,126586.0,4420.0,-154.0
2026-04-09 22:06:39.574618,198196,1329617437,1329618345,0.835456,0.015616,0.113216,21.63875,49.14875,-34.5625,-26.416,12.8,34.328003,inter_set_rest,4,3.0,31876.0,403431.0,126586.0,4420.0,-154.0
2026-04-09 22:06:39.605243,198197,1329626379,1329627112,0.835456,0.015616,0.113216,15.67125,50.05,-36.085,-26.416,12.8,34.328003,inter_set_rest,4,3.0,31876.0,403431.0,126586.0,4420.0,-154.0
2026-04-09 22:06:39.639720,198207,1329641327,1329642121,0.798368,-0.03904,0.095648,7.14,49.595,-36.8725,-25.776001,12.776001,34.56,inter_set_rest,4,3.0,31905.0,402221.0,122778.0,3420.0,-152.0
2026-04-09 22:06:39.641448,198208,1329650762,1329652904,0.798368,-0.03904,0.095648,6.74625,47.1975,-35.28,-25.776001,12.776001,34.56,inter_set_rest,4,3.0,31905.0,402221.0,122778.0,3420.0,-152.0
2026-04-09 22:06:39.643102,198209,1329659819,1329661619,0.84912,-0.062464,0.070272,12.20625,44.2925,-31.96375,-26.056002,12.480001,35.072002,inter_set_rest,4,3.0,31905.0,402221.0,122778.0,3420.0,-152.0
2026-04-09 22:06:39.647221,198210,1329668807,1329670376,0.84912,-0.062464,0.070272,15.11125,44.1175,-28.67375,-26.056002,12.480001,35.072002,inter_set_rest,4,3.0,31905.0,402221.0,122778.0,3420.0,-152.0
2026-04-09 22:06:39.648849,198211,1329683302,1329685350,0.812032,-0.015616,0.095648,12.495,45.05375,-25.59375,-27.2,12.400001,37.608,inter_set_rest,4,3.0,31905.0,402221.0,122778.0,3420.0,-152.0
2026-04-09 22:06:39.650461,198212,1329692304,1329694082,0.812032,-0.015616,0.095648,6.2825,46.025,-23.6425,-27.2,12.400001,37.608,inter_set_rest,4,3.0,31905.0,402221.0,122778.0,3420.0,-152.0
2026-04-09 22:06:39.682299,198213,1329701246,1329702790,0.817888,0.017568,0.130784,0.84875,45.59625,-22.1725,-26.016,11.984,36.232002,inter_set_rest,4,3.0,31905.0,402221.0,122778.0,3420.0,-152.0
2026-04-09 22:06:39.684049,198214,1329715735,1329717738,0.817888,0.017568,0.130784,-1.81125,45.5175,-20.65875,-26.016,11.984,36.232002,inter_set_rest,4,3.0,31905.0,402221.0,122778.0,3420.0,-152.0
2026-04-09 22:06:39.688461,198215,1329724675,1329726453,0.88816,0.003904,0.206912,-9.073751,48.01125,-18.7075,-25.936,12.096001,36.008003,inter_set_rest,4,3.0,31905.0,402221.0,122778.0,3420.0,-152.0
2026-04-09 22:06:39.692744,198216,1329733594,1329735181,0.88816,0.003904,0.206912,-15.93375,54.46,-19.53,-25.936,12.096001,36.008003,inter_set_rest,4,3.0,31905.0,402221.0,122778.0,3420.0,-152.0
2026-04-09 22:06:39.717672,198226,1329748145,1329750164,0.892064,-0.060512,0.261568,-22.42625,62.99125,-19.66125,-27.024002,12.088,37.4,inter_set_rest,4,3.0,32003.0,400859.0,121168.0,3065.0,-153.0
2026-04-09 22:06:39.719269,198227,1329759471,1329760471,0.825696,0.001952,0.20496,-25.54125,70.175,-19.81,-26.672,12.496,36.848003,inter_set_rest,4,3.0,32003.0,400859.0,121168.0,3065.0,-153.0
2026-04-09 22:06:39.727128,198228,1329768456,1329769202,0.825696,0.001952,0.20496,-28.735,73.28125,-18.5675,-26.672,12.496,36.848003,inter_set_rest,4,3.0,32003.0,400859.0,121168.0,3065.0,-153.0
2026-04-09 22:06:39.775418,198229,1329777868,1329779972,0.866688,-0.013664,0.111264,-30.91375,71.3825,-21.14875,-24.976002,12.440001,36.656002,inter_set_rest,4,3.0,32003.0,400859.0,121168.0,3065.0,-153.0
2026-04-09 22:06:39.779728,198230,1329786780,1329788686,0.866688,-0.013664,0.111264,-24.08,68.08375,-22.47875,-24.976002,12.440001,36.656002,inter_set_rest,4,3.0,32003.0,400859.0,121168.0,3065.0,-153.0
2026-04-09 22:06:39.781454,198231,1329801269,1329801593,0.837408,0.031232,0.413824,-15.925,69.08125,-21.5775,-24.592001,12.104001,36.56,inter_set_rest,4,3.0,32003.0,400859.0,121168.0,3065.0,-153.0
2026-04-09 22:06:39.783174,198232,1329810500,1329812384,0.837408,0.031232,0.413824,-17.7975,75.8275,-24.7275,-24.592001,12.104001,36.56,inter_set_rest,4,3.0,32003.0,400859.0,121168.0,3065.0,-153.0
2026-04-09 22:06:39.787523,198233,1329819429,1329821071,0.708576,-0.070272,0.36112,-33.32,84.91875,-29.18125,-25.224,12.280001,38.072002,inter_set_rest,4,3.0,32003.0,400859.0,121168.0,3065.0,-153.0
2026-04-09 22:06:39.794672,198234,1329833925,1329835992,0.708576,-0.070272,0.36112,-47.81875,89.705,-31.01875,-25.224,12.280001,38.072002,inter_set_rest,4,3.0,32003.0,400859.0,121168.0,3065.0,-153.0
2026-04-09 22:06:39.824245,198245,1329842960,1329844810,0.704672,-0.0976,0.203008,-41.8075,88.97875,-30.87,-24.952002,11.744,38.992,inter_set_rest,4,3.0,32109.0,400382.0,120794.0,2970.0,-153.0
2026-04-09 22:06:39.828437,198246,1329851938,1329853615,0.704672,-0.0976,0.203008,-20.2475,83.95625,-27.48375,-24.952002,11.744,38.992,inter_set_rest,4,3.0,32109.0,400382.0,120794.0,2970.0,-153.0
2026-04-09 22:06:39.829973,198247,1329860889,1329862318,0.788608,0.095648,0.18544,0.175,77.09625,-26.6175,-25.776001,11.704,39.504,inter_set_rest,4,3.0,32109.0,400382.0,120794.0,2970.0,-153.0
2026-04-09 22:06:39.834568,198248,1329875406,1329877228,0.788608,0.095648,0.18544,12.94125,73.15,-31.99,-25.776001,11.704,39.504,inter_set_rest,4,3.0,32109.0,400382.0,120794.0,2970.0,-153.0
2026-04-09 22:06:39.842506,198249,1329884322,1329885949,0.726144,0.003904,0.394304,13.37,73.07125,-40.495,-25.784,11.480001,38.792004,inter_set_rest,4,3.0,32109.0,400382.0,120794.0,2970.0,-153.0
2026-04-09 22:06:39.870719,198250,1329893308,1329894665,0.726144,0.003904,0.394304,5.52125,75.38125,-45.49125,-25.784,11.480001,38.792004,inter_set_rest,4,3.0,32109.0,400382.0,120794.0,2970.0,-153.0
2026-04-09 22:06:39.875141,198251,1329907777,1329909568,0.726144,-0.001952,0.310368,0.93625,75.90625,-45.99875,-24.704,11.960001,39.0,inter_set_rest,4,3.0,32109.0,400382.0,120794.0,2970.0,-153.0
2026-04-09 22:06:39.876727,198252,1329916676,1329918290,0.726144,-0.001952,0.310368,9.2225,76.36125,-45.68375,-24.704,11.960001,39.0,inter_set_rest,4,3.0,32109.0,400382.0,120794.0,2970.0,-153.0
2026-04-09 22:06:39.883350,198253,1329925662,1329927023,0.698816,-0.013664,0.363072,15.67125,79.68625,-46.68125,-24.696001,11.704,39.136,inter_set_rest,4,3.0,32109.0,400382.0,120794.0,2970.0,-153.0
2026-04-09 22:06:39.935590,198263,1329940707,1329941964,0.665632,0.042944,0.44896,16.47625,83.51875,-49.25375,-24.720001,10.704,40.232002,inter_set_rest,4,3.0,32098.0,398786.0,119620.0,2752.0,-138.0
2026-04-09 22:06:39.939742,198264,1329949655,1329950763,0.665632,0.042944,0.44896,16.42375,87.77125,-52.82375,-24.720001,10.704,40.232002,inter_set_rest,4,3.0,32098.0,398786.0,119620.0,2752.0,-138.0
2026-04-09 22:06:39.941402,198265,1329958569,1329959439,0.636352,0.109312,0.454816,15.9775,90.3175,-57.260002,-24.448002,10.272,40.920002,inter_set_rest,4,3.0,32098.0,398786.0,119620.0,2752.0,-138.0
2026-04-09 22:06:39.942978,198266,1329967557,1329968264,0.636352,0.109312,0.454816,13.9475,90.7025,-59.64,-24.448002,10.272,40.920002,inter_set_rest,4,3.0,32098.0,398786.0,119620.0,2752.0,-138.0
2026-04-09 22:06:39.947077,198267,1329982483,1329983240,0.757376,0.124928,0.620736,13.58875,91.51625,-59.745,-25.248001,9.648001,43.848003,inter_set_rest,4,3.0,32098.0,398786.0,119620.0,2752.0,-138.0
2026-04-09 22:06:39.950807,198268,1329991918,1329994017,0.757376,0.124928,0.620736,11.48875,99.7325,-59.745,-25.248001,9.648001,43.848003,inter_set_rest,4,3.0,32098.0,398786.0,119620.0,2752.0,-138.0
2026-04-09 22:06:39.979409,198269,1330000849,1330002711,0.52704,0.037088,0.544608,-7.72625,111.9825,-59.01875,-24.912,9.976001,43.320004,inter_set_rest,4,3.0,32098.0,398786.0,119620.0,2752.0,-138.0
2026-04-09 22:06:39.983930,198270,1330009788,1330011427,0.52704,0.037088,0.544608,-33.24125,114.2575,-57.5225,-24.912,9.976001,43.320004,inter_set_rest,4,3.0,32098.0,398786.0,119620.0,2752.0,-138.0
2026-04-09 22:06:39.986301,198271,1330024283,1330026411,0.591456,0.218624,0.452864,-32.48875,108.7625,-55.51875,-23.816002,10.072001,42.728,inter_set_rest,4,3.0,32098.0,398786.0,119620.0,2752.0,-138.0
2026-04-09 22:06:39.990503,198272,1330033201,1330035119,0.591456,0.218624,0.452864,-18.9875,96.60875,-53.1825,-23.816002,10.072001,42.728,inter_set_rest,4,3.0,32098.0,398786.0,119620.0,2752.0,-138.0
2026-04-09 22:06:40.015510,198282,1330042205,1330044272,0.700768,0.103456,0.743712,-11.8475,88.585,-49.0875,-24.368002,9.976001,43.04,inter_set_rest,4,3.0,32146.0,396936.0,118455.0,2519.0,-129.0
2026-04-09 22:06:40.017841,198283,1330056771,1330057200,0.700768,0.103456,0.743712,-20.9125,90.9475,-47.20625,-24.368002,9.976001,43.04,inter_set_rest,4,3.0,32146.0,396936.0,118455.0,2519.0,-129.0
2026-04-09 22:06:40.023003,198284,1330066060,1330067995,0.610976,0.046848,0.66368,-40.38125,91.91,-43.1375,-25.056002,10.592001,44.280003,inter_set_rest,4,3.0,32146.0,396936.0,118455.0,2519.0,-129.0
2026-04-09 22:06:40.074394,198285,1330075101,1330076701,0.610976,0.046848,0.66368,-43.513752,87.255,-39.50625,-25.056002,10.592001,44.280003,inter_set_rest,4,3.0,32146.0,396936.0,118455.0,2519.0,-129.0
2026-04-09 22:06:40.078849,198286,1330089556,1330091594,0.710528,0.259616,0.569984,-21.7,79.2575,-39.69,-23.304,9.8,43.568,inter_set_rest,4,3.0,32146.0,396936.0,118455.0,2519.0,-129.0
2026-04-09 22:06:40.081503,198287,1330098456,1330100294,0.710528,0.236192,0.745664,-5.87125,72.8,-42.21875,-23.304,9.8,41.52,inter_set_rest,4,3.0,32146.0,396936.0,118455.0,2519.0,-129.0
2026-04-09 22:06:40.083555,198288,1330107436,1330109032,0.616832,0.236192,0.745664,-2.42375,74.01625,-47.62625,-23.472002,9.312,42.24,inter_set_rest,4,3.0,32146.0,396936.0,118455.0,2519.0,-129.0
2026-04-09 22:06:40.085807,198289,1330116382,1330117726,0.616832,0.236192,0.745664,-13.79875,76.0725,-52.63125,-23.472002,9.312,42.24,inter_set_rest,4,3.0,32146.0,396936.0,118455.0,2519.0,-129.0
2026-04-09 22:06:40.087971,198290,1330130900,1330132630,0.610976,-0.005856,0.616832,-27.6675,78.35625,-52.885,-23.128,9.272,44.656002,inter_set_rest,4,3.0,32146.0,396936.0,118455.0,2519.0,-129.0
2026-04-09 22:06:40.117965,198301,1330140363,1330141531,0.601216,0.037088,0.669536,-31.26375,78.81125,-47.495,-23.560001,9.672001,45.632004,inter_set_rest,4,3.0,32047.0,398547.0,119380.0,2677.0,-144.0
2026-04-09 22:06:40.124207,198302,1330149467,1330150329,0.601216,0.037088,0.669536,-26.99375,77.69125,-36.3825,-23.560001,9.672001,45.632004,inter_set_rest,4,3.0,32047.0,398547.0,119380.0,2677.0,-144.0
2026-04-09 22:06:40.126699,198303,1330163984,1330165319,0.462624,0.357216,0.710528,-16.21375,79.2225,-27.46625,-22.968,9.648001,46.192,inter_set_rest,4,3.0,32047.0,398547.0,119380.0,2677.0,-144.0
2026-04-09 22:06:40.129182,198304,1330172932,1330174022,0.462624,0.357216,0.710528,-14.81375,81.655,-26.7925,-22.968,9.648001,46.192,inter_set_rest,4,3.0,32047.0,398547.0,119380.0,2677.0,-144.0
2026-04-09 22:06:40.162269,198305,1330182029,1330182704,0.433344,0.06832,0.610976,-27.86,85.96,-32.52375,-22.656,9.200001,46.648003,inter_set_rest,4,3.0,32047.0,398547.0,119380.0,2677.0,-144.0
2026-04-09 22:06:40.165848,198306,1330191313,1330193508,0.433344,0.06832,0.610976,-34.8775,86.73875,-31.255001,-22.656,9.200001,46.648003,inter_set_rest,4,3.0,32047.0,398547.0,119380.0,2677.0,-144.0
2026-04-09 22:06:40.167970,198307,1330205795,1330206356,0.482144,0.070272,0.749568,-34.92125,85.4875,-21.79625,-21.488,9.776,45.496002,inter_set_rest,4,3.0,32047.0,398547.0,119380.0,2677.0,-144.0
2026-04-09 22:06:40.172938,198308,1330215008,1330217140,0.482144,0.070272,0.749568,-35.84875,90.58875,-10.52625,-21.488,9.776,45.496002,inter_set_rest,4,3.0,32047.0,398547.0,119380.0,2677.0,-144.0
2026-04-09 22:06:40.203205,198309,1330223930,1330225836,0.359168,0.08784,0.720288,-43.295002,96.18,-3.7975,-21.616001,10.264001,45.576004,inter_set_rest,4,3.0,32047.0,398547.0,119380.0,2677.0,-144.0
2026-04-09 22:06:40.230981,198319,1330238941,1330241295,0.359168,0.08784,0.720288,-46.12125,99.61,1.26,-21.616001,10.264001,45.576004,inter_set_rest,4,3.0,31956.0,400901.0,121298.0,3067.0,-143.0
2026-04-09 22:06:40.232682,198320,1330247941,1330250150,0.37088,0.191296,0.718336,-34.2125,100.94875,-1.085,-20.080002,10.256001,46.784,inter_set_rest,4,3.0,31956.0,400901.0,121298.0,3067.0,-143.0
2026-04-09 22:06:40.234221,198321,1330256906,1330258888,0.37088,0.191296,0.718336,-21.8575,99.575,-2.26625,-20.080002,10.256001,46.784,inter_set_rest,4,3.0,31956.0,400901.0,121298.0,3067.0,-143.0
2026-04-09 22:06:40.238546,198322,1330265933,1330267642,0.355264,0.021472,0.62464,-18.27875,99.5225,-1.19,-20.896002,10.336,47.856003,inter_set_rest,4,3.0,31956.0,400901.0,121298.0,3067.0,-143.0
2026-04-09 22:06:40.241204,198323,1330280496,1330282555,0.269376,0.103456,0.733952,-18.9,103.6,-0.48125,-19.368,10.672001,47.656002,inter_set_rest,4,3.0,31956.0,400901.0,121298.0,3067.0,-143.0
2026-04-09 22:06:40.269476,198324,1330289440,1330291319,0.269376,0.103456,0.733952,-20.93875,107.5025,0.4375,-19.368,10.672001,47.656002,inter_set_rest,4,3.0,31956.0,400901.0,121298.0,3067.0,-143.0
2026-04-09 22:06:40.273924,198325,1330298388,1330300058,0.269376,0.103456,0.733952,-20.37,110.8975,-1.95125,-19.368,10.672001,47.656002,inter_set_rest,4,3.0,31956.0,400901.0,121298.0,3067.0,-143.0
2026-04-09 22:06:40.275437,198326,1330312917,1330314949,0.26352,0.13664,0.696864,-17.75375,111.3525,-5.1275,-17.936,11.104,44.992,inter_set_rest,4,3.0,31956.0,400901.0,121298.0,3067.0,-143.0
2026-04-09 22:06:40.280877,198327,1330321934,1330323651,0.191296,0.056608,0.601216,-12.5825,107.9925,-9.02125,-17.288,10.888001,47.464,inter_set_rest,4,3.0,31956.0,400901.0,121298.0,3067.0,-143.0
2026-04-09 22:06:40.309372,198328,1330330883,1330332357,0.191296,0.056608,0.601216,-7.035,105.56875,-6.79,-17.288,10.888001,47.464,inter_set_rest,4,3.0,31956.0,400901.0,121298.0,3067.0,-143.0
2026-04-09 22:06:40.335547,198338,1330340253,1330341134,0.095648,0.093696,0.704672,-6.25625,105.79625,-3.78,-16.528,11.216001,47.712,inter_set_rest,4,3.0,32090.0,398882.0,119922.0,2766.0,-151.0
2026-04-09 22:06:40.339714,198339,1330354823,1330356177,0.095648,0.093696,0.704672,-7.58625,108.255,-4.06,-16.528,11.216001,47.712,inter_set_rest,4,3.0,32090.0,398882.0,119922.0,2766.0,-151.0
2026-04-09 22:06:40.341477,198340,1330363788,1330364896,0.060512,0.070272,0.759328,-9.80875,110.03125,-5.10125,-16.056002,11.736001,48.296,inter_set_rest,4,3.0,32090.0,398882.0,119922.0,2766.0,-151.0
2026-04-09 22:06:40.342982,198341,1330372778,1330373632,0.060512,0.070272,0.759328,-9.16125,112.51625,-5.95875,-16.056002,11.736001,48.296,inter_set_rest,4,3.0,32090.0,398882.0,119922.0,2766.0,-151.0
2026-04-09 22:06:40.379135,198342,1330387288,1330388567,0.050752,0.091744,0.694912,-2.17,113.365,-6.615,-14.64,10.872001,49.952003,inter_set_rest,4,3.0,32090.0,398882.0,119922.0,2766.0,-151.0
2026-04-09 22:06:40.383550,198343,1330396238,1330397330,0.050752,0.091744,0.694912,3.29875,112.97125,-6.62375,-14.64,10.872001,49.952003,inter_set_rest,4,3.0,32090.0,398882.0,119922.0,2766.0,-151.0
2026-04-09 22:06:40.385180,198344,1330405189,1330406037,0.003904,0.074176,0.689056,3.49125,113.365,-6.74625,-14.096001,11.400001,49.144,inter_set_rest,4,3.0,32090.0,398882.0,119922.0,2766.0,-151.0
2026-04-09 22:06:40.386785,198345,1330419694,1330420945,0.003904,0.163968,0.737856,0.84875,113.02375,-6.5625,-14.096001,11.400001,49.144,inter_set_rest,4,3.0,32090.0,398882.0,119922.0,2766.0,-151.0
2026-04-09 22:06:40.390862,198346,1330428584,1330429667,-0.076128,0.163968,0.737856,0.0,110.9325,-5.6175,-13.464001,11.352,51.72,inter_set_rest,4,3.0,32090.0,398882.0,119922.0,2766.0,-151.0
2026-04-09 22:06:40.394998,198347,1330437534,1330438424,-0.076128,0.163968,0.737856,5.355,108.15875,-8.86375,-13.464001,11.352,51.72,inter_set_rest,4,3.0,32090.0,398882.0,119922.0,2766.0,-151.0
2026-04-09 22:06:40.424397,198358,1330446499,1330447182,-0.03904,0.122976,0.724192,16.6075,105.42,-12.573751,-13.376,11.328,51.144,inter_set_rest,4,3.0,32005.0,399570.0,120310.0,2828.0,-144.0
2026-04-09 22:06:40.426776,198359,1330461485,1330462215,-0.015616,0.095648,1.040416,24.053751,107.02125,-13.51875,-12.952001,11.024,51.480003,inter_set_rest,4,3.0,32005.0,399570.0,120310.0,2828.0,-144.0
2026-04-09 22:06:40.429288,198360,1330470897,1330472998,-0.015616,0.095648,1.040416,18.83875,114.275,-13.1425,-12.952001,11.024,51.480003,inter_set_rest,4,3.0,32005.0,399570.0,120310.0,2828.0,-144.0
2026-04-09 22:06:40.464157,198361,1330479965,1330481700,-0.015616,0.23424,1.056032,4.85625,124.27625,-13.2475,-12.952001,11.024,49.432003,inter_set_rest,4,3.0,32005.0,399570.0,120310.0,2828.0,-144.0
2026-04-09 22:06:40.468566,198362,1330494481,1330496611,-0.132736,0.23424,1.056032,-10.43875,127.925,-20.895,-11.432,11.672001,50.992,inter_set_rest,4,3.0,32005.0,399570.0,120310.0,2828.0,-144.0
2026-04-09 22:06:40.470217,198363,1330503382,1330505317,-0.173728,0.052704,0.599264,-11.92625,121.45875,-30.87875,-9.872001,11.568001,50.704002,inter_set_rest,4,3.0,32005.0,399570.0,120310.0,2828.0,-144.0
2026-04-09 22:06:40.471807,198364,1330512348,1330514042,-0.173728,0.052704,0.599264,3.885,109.7425,-30.93125,-9.872001,11.568001,50.704002,inter_set_rest,4,3.0,32005.0,399570.0,120310.0,2828.0,-144.0
2026-04-09 22:06:40.480710,198365,1330521287,1330522767,-0.257664,0.066368,0.767136,25.515,101.12375,-24.42125,-10.328,11.024,51.72,inter_set_rest,4,3.0,32005.0,399570.0,120310.0,2828.0,-144.0
2026-04-09 22:06:40.508219,198366,1330535789,1330537702,-0.257664,0.066368,0.767136,39.48875,100.58125,-14.105001,-10.328,11.024,51.72,inter_set_rest,4,3.0,32005.0,399570.0,120310.0,2828.0,-144.0
2026-04-09 22:06:40.537767,198376,1330544926,1330546437,-0.269376,0.085888,1.059936,34.41375,100.79125,-5.3375,-8.752001,10.416,52.232002,inter_set_rest,4,3.0,31784.0,401379.0,121892.0,3199.0,-156.0
2026-04-09 22:06:40.539288,198377,1330553879,1330555224,-0.269376,0.085888,1.059936,28.76125,102.0775,-4.7775,-8.752001,10.416,52.232002,inter_set_rest,4,3.0,31784.0,401379.0,121892.0,3199.0,-156.0
2026-04-09 22:06:40.543468,198378,1330568440,1330570175,-0.271328,0.042944,0.905728,25.68125,103.67875,-4.41875,-7.696001,10.272,51.984,inter_set_rest,4,3.0,31784.0,401379.0,121892.0,3199.0,-156.0
2026-04-09 22:06:40.545209,198379,1330577425,1330578870,-0.271328,0.042944,0.905728,27.76375,102.90875,-1.58375,-7.696001,10.272,51.984,inter_set_rest,4,3.0,31784.0,401379.0,121892.0,3199.0,-156.0
2026-04-09 22:06:40.546797,198380,1330586349,1330587647,-0.23424,0.109312,0.8784,31.9025,101.19375,1.225,-6.6,10.088,52.344,inter_set_rest,4,3.0,31784.0,401379.0,121892.0,3199.0,-156.0
2026-04-09 22:06:40.577878,198381,1330601003,1330602623,-0.240096,0.044896,0.895968,36.14625,101.43875,1.6975,-5.696,9.6,54.376003,inter_set_rest,4,3.0,31784.0,401379.0,121892.0,3199.0,-156.0
2026-04-09 22:06:40.580611,198382,1330609968,1330611313,-0.240096,0.044896,0.895968,39.97,101.64,-0.34125,-5.696,9.6,54.376003,inter_set_rest,4,3.0,31784.0,401379.0,121892.0,3199.0,-156.0
2026-04-09 22:06:40.582995,198383,1330618873,1330620050,-0.240096,0.044896,0.895968,42.14,101.52625,-2.0825,-5.696,9.6,54.376003,inter_set_rest,4,3.0,31784.0,401379.0,121892.0,3199.0,-156.0
2026-04-09 22:06:40.585417,198384,1330627792,1330628770,-0.249856,0.093696,0.890112,45.66625,101.4825,-1.33875,-5.024,9.664001,52.376003,inter_set_rest,4,3.0,31784.0,401379.0,121892.0,3199.0,-156.0
2026-04-09 22:06:40.706974,198394,1330642483,1330643812,-0.261568,0.080032,0.892064,46.576252,101.9725,-0.91,-3.76,8.824,54.208004,inter_set_rest,4,3.0,31820.0,401284.0,121833.0,3179.0,-140.0
2026-04-09 22:06:40.710482,198395,1330651481,1330652608,-0.261568,0.080032,0.892064,46.795002,102.48875,-2.485,-3.76,8.824,54.208004,inter_set_rest,4,3.0,31820.0,401284.0,121833.0,3179.0,-140.0
2026-04-09 22:06:40.713003,198396,1330660403,1330661283,-0.261568,0.12688,0.874496,51.94875,102.8475,-3.80625,-3.76,8.824,54.208004,inter_set_rest,4,3.0,31820.0,401284.0,121833.0,3179.0,-140.0
2026-04-09 22:06:40.715449,198397,1330674962,1330676168,-0.325984,0.138592,0.874496,59.5,103.565,-4.80375,-3.176,8.264,53.616,inter_set_rest,4,3.0,31820.0,401284.0,121833.0,3179.0,-140.0
2026-04-09 22:06:40.719266,198398,1330683924,1330684874,-0.40016,0.199104,0.825696,66.29,102.8125,-7.34125,-2.088,7.576,54.736004,inter_set_rest,4,3.0,31820.0,401284.0,121833.0,3179.0,-140.0
2026-04-09 22:06:40.721836,198399,1330692850,1330693564,-0.40016,0.199104,0.825696,72.56375,101.5175,-11.2175,-2.088,7.576,54.736004,inter_set_rest,4,3.0,31820.0,401284.0,121833.0,3179.0,-140.0
2026-04-09 22:06:40.725924,198400,1330702151,1330704291,-0.454816,0.21472,0.864736,75.10125,99.47875,-14.18375,-1.08,6.856,56.784004,inter_set_rest,4,3.0,31820.0,401284.0,121833.0,3179.0,-140.0
2026-04-09 22:06:40.727938,198401,1330716627,1330717129,-0.454816,0.21472,0.864736,72.4675,97.79,-14.105001,-1.08,6.856,56.784004,inter_set_rest,4,3.0,31820.0,401284.0,121833.0,3179.0,-140.0
2026-04-09 22:06:40.730466,198402,1330725965,1330727979,-0.548512,0.294752,0.977952,64.9075,96.32875,-11.10375,-0.304,6.704001,55.504,inter_set_rest,4,3.0,31820.0,401284.0,121833.0,3179.0,-140.0
2026-04-09 22:06:40.732935,198403,1330734871,1330736701,-0.548512,0.294752,0.977952,52.22,95.1125,-10.08875,-0.304,6.704001,55.504,inter_set_rest,4,3.0,31820.0,401284.0,121833.0,3179.0,-140.0
2026-04-09 22:06:40.764170,198414,1330749456,1330751666,-0.607072,0.30256,1.065792,39.54125,94.71,-13.60625,0.776,6.856,55.24,inter_set_rest,4,3.0,31455.0,403315.0,124226.0,3819.0,-165.0
2026-04-09 22:06:40.766659,198415,1330758377,1330760382,-0.607072,0.30256,1.065792,26.845,94.64875,-12.64375,0.776,6.856,55.24,inter_set_rest,4,3.0,31455.0,403315.0,124226.0,3819.0,-165.0
2026-04-09 22:06:40.769242,198416,1330767319,1330769099,-0.591456,0.261568,0.944768,18.13,94.7975,-12.95875,0.52,6.4,56.368004,inter_set_rest,4,3.0,31455.0,403315.0,124226.0,3819.0,-165.0
2026-04-09 22:06:40.771701,198417,1330781910,1330784064,-0.601216,0.247904,0.76128,10.77125,95.48875,-18.17375,1.808,6.864,56.024002,inter_set_rest,4,3.0,31455.0,403315.0,124226.0,3819.0,-165.0
2026-04-09 22:06:40.774178,198418,1330790877,1330792834,-0.601216,0.247904,0.76128,7.5075,97.04625,-16.49375,1.808,6.864,56.024002,inter_set_rest,4,3.0,31455.0,403315.0,124226.0,3819.0,-165.0
2026-04-09 22:06:40.776676,198419,1330799993,1330801603,-0.601216,0.247904,0.76128,4.55,99.07625,-12.355001,1.808,6.864,56.024002,inter_set_rest,4,3.0,31455.0,403315.0,124226.0,3819.0,-165.0
2026-04-09 22:06:40.779172,198420,1330809125,1330810320,-0.601216,0.22448,0.74176,9.275,102.515,-12.87125,3.632,6.72,55.928,inter_set_rest,4,3.0,31455.0,403315.0,124226.0,3819.0,-165.0
2026-04-09 22:06:40.781761,198421,1330823587,1330825293,-0.562176,0.244,0.733952,8.72375,108.5175,-18.0425,4.392,6.232,55.856003,inter_set_rest,4,3.0,31455.0,403315.0,124226.0,3819.0,-165.0
2026-04-09 22:06:40.811910,198422,1330832533,1330834017,-0.562176,0.244,0.733952,11.6375,114.63375,-21.735,4.392,6.232,55.856003,inter_set_rest,4,3.0,31455.0,403315.0,124226.0,3819.0,-165.0
2026-04-09 22:06:40.837862,198432,1330841505,1330842730,-0.61488,0.277184,0.519232,15.2075,120.5225,-20.825,4.392,6.232,54.752003,inter_set_rest,4,3.0,31341.0,403431.0,127410.0,4710.0,-150.0
2026-04-09 22:06:40.840464,198433,1330856017,1330857631,-0.61488,0.277184,0.519232,17.4825,126.28875,-20.8425,5.848,6.768,54.752003,inter_set_rest,4,3.0,31341.0,403431.0,127410.0,4710.0,-150.0
2026-04-09 22:06:40.842933,198434,1330864933,1330866351,-0.710528,0.294752,0.534848,22.741251,132.29124,-30.52,7.096,5.672,54.472004,inter_set_rest,4,3.0,31341.0,403431.0,127410.0,4710.0,-150.0
2026-04-09 22:06:40.845443,198435,1330873943,1330875086,-0.710528,0.294752,0.534848,26.41625,135.17876,-29.02375,7.096,5.672,54.472004,inter_set_rest,4,3.0,31341.0,403431.0,127410.0,4710.0,-150.0
2026-04-09 22:06:40.847987,198436,1330888510,1330890094,-0.843264,0.308416,0.72224,36.8725,132.65,-22.82875,7.224001,5.392,55.72,inter_set_rest,4,3.0,31341.0,403431.0,127410.0,4710.0,-150.0
2026-04-09 22:06:40.854204,198437,1330897464,1330898827,-0.843264,0.308416,0.72224,62.5275,125.51,-27.69375,7.224001,5.392,55.72,inter_set_rest,4,3.0,31341.0,403431.0,127410.0,4710.0,-150.0
2026-04-09 22:06:40.884410,198438,1330906374,1330907496,-0.948672,0.32208,1.022848,88.96125,115.246254,-18.45375,9.072001,4.728,54.712,inter_set_rest,4,3.0,31341.0,403431.0,127410.0,4710.0,-150.0
2026-04-09 22:06:40.888033,198439,1330915269,1330916223,-0.948672,0.32208,1.022848,115.82375,98.98,-12.145,9.072001,4.728,54.712,inter_set_rest,4,3.0,31341.0,403431.0,127410.0,4710.0,-150.0
2026-04-09 22:06:40.890503,198440,1330929768,1330931136,-0.933056,0.06832,1.036512,147.42876,81.76875,-23.33625,9.864,3.592,55.360004,inter_set_rest,4,3.0,31341.0,403431.0,127410.0,4710.0,-150.0
2026-04-09 22:06:40.895527,198441,1330938690,1330939825,-0.933056,0.06832,1.036512,167.41376,66.63125,-17.82375,9.864,3.592,55.360004,inter_set_rest,4,3.0,31341.0,403431.0,127410.0,4710.0,-150.0
2026-04-09 22:06:40.922891,198451,1330947797,1330948623,-0.93696,0.244,0.739808,164.43875,59.36,-2.905,10.184,2.472,55.416004,inter_set_rest,4,3.0,32320.0,403431.0,130906.0,5612.0,-132.0
2026-04-09 22:06:40.925472,198452,1330962300,1330963545,-0.825696,0.542656,0.636352,150.78,59.885002,2.93125,11.336,0.856,55.600002,inter_set_rest,4,3.0,32320.0,403431.0,130906.0,5612.0,-132.0
2026-04-09 22:06:40.927936,198453,1330971211,1330972288,-0.825696,0.542656,0.636352,113.95125,65.52,9.8175,11.336,0.856,55.600002,inter_set_rest,4,3.0,32320.0,403431.0,130906.0,5612.0,-132.0
2026-04-09 22:06:40.976919,198454,1330980176,1330980990,-0.825696,0.542656,0.636352,57.575,74.165,22.98625,11.336,0.856,55.600002,inter_set_rest,4,3.0,32320.0,403431.0,130906.0,5612.0,-132.0
2026-04-09 22:06:40.980494,198455,1330994654,1330995856,-0.696864,0.532896,0.462624,13.16875,84.41125,15.8025,12.192,1.536,55.736004,inter_set_rest,4,3.0,32320.0,403431.0,130906.0,5612.0,-132.0
2026-04-09 22:06:40.982920,198456,1331003550,1331004545,-0.687104,0.011712,0.347456,-5.3025,92.0325,0.98,12.544001,0.856,55.24,inter_set_rest,4,3.0,32320.0,403431.0,130906.0,5612.0,-132.0
2026-04-09 22:06:40.985455,198457,1331012497,1331013252,-0.687104,0.011712,0.347456,5.355,95.75125,-8.9425,12.544001,0.856,55.24,inter_set_rest,4,3.0,32320.0,403431.0,130906.0,5612.0,-132.0
2026-04-09 22:06:40.987962,198458,1331021860,1331024023,-0.687104,0.646112,0.40016,56.1225,94.325,-3.5,12.544001,0.856,55.24,inter_set_rest,4,3.0,32320.0,403431.0,130906.0,5612.0,-132.0
2026-04-09 22:06:40.991740,198459,1331036349,1331036887,-0.843264,0.646112,0.40016,81.69875,91.77875,10.91125,13.904,-0.16,54.632004,inter_set_rest,4,3.0,32320.0,403431.0,130906.0,5612.0,-132.0
2026-04-09 22:06:41.047895,198470,1331046408,1331048122,-1.20048,0.423584,0.89792,66.89375,89.1275,6.99125,13.304001,-0.44,55.632004,inter_set_rest,4,3.0,35162.0,399444.0,123351.0,2822.0,-142.0
2026-04-09 22:06:41.050435,198471,1331055460,1331056813,-1.20048,0.423584,0.89792,54.66125,77.09625,3.29875,13.304001,-0.44,55.632004,inter_set_rest,4,3.0,35162.0,399444.0,123351.0,2822.0,-142.0
2026-04-09 22:06:41.052930,198472,1331064536,1331065525,-1.465952,0.52704,0.976,57.67125,54.18875,0.35,14.968,-1.04,54.512,inter_set_rest,4,3.0,35162.0,399444.0,123351.0,2822.0,-142.0
2026-04-09 22:06:41.055426,198473,1331079088,1331080482,-1.465952,0.52704,0.976,74.795,32.2175,11.87375,14.968,-1.04,54.512,inter_set_rest,4,3.0,35162.0,399444.0,123351.0,2822.0,-142.0
2026-04-09 22:06:41.057928,198474,1331088091,1331089221,-0.821792,0.798368,0.37088,84.56875,25.99625,30.1525,15.656001,-1.632,54.320004,inter_set_rest,4,3.0,35162.0,399444.0,123351.0,2822.0,-142.0
2026-04-09 22:06:41.060425,198475,1331097021,1331097959,-0.821792,0.798368,0.37088,74.2525,37.3625,28.07875,15.656001,-1.632,54.320004,inter_set_rest,4,3.0,35162.0,399444.0,123351.0,2822.0,-142.0
2026-04-09 22:06:41.090739,198476,1331111544,1331112924,-0.591456,0.628544,0.191296,54.50375,54.670002,19.775,16.024,-2.496,54.24,inter_set_rest,4,3.0,35162.0,399444.0,123351.0,2822.0,-142.0
2026-04-09 22:06:41.094231,198477,1331120471,1331121638,-0.591456,0.628544,0.191296,43.3125,71.5575,10.78875,16.024,-2.496,54.24,inter_set_rest,4,3.0,35162.0,399444.0,123351.0,2822.0,-142.0
2026-04-09 22:06:41.096824,198478,1331129390,1331130347,-0.757376,0.710528,0.091744,43.085,82.985,4.10375,17.424002,-3.272,54.032,inter_set_rest,4,3.0,35162.0,399444.0,123351.0,2822.0,-142.0
2026-04-09 22:06:41.124489,198488,1331144376,1331145344,-0.835456,0.564128,0.072224,47.1975,88.76,-5.495,17.0,-3.208,54.536003,inter_set_rest,4,3.0,38188.0,373566.0,108836.0,569.0,-157.0
2026-04-09 22:06:41.126677,198489,1331153447,1331154160,-0.835456,0.564128,0.072224,49.0,91.175,-16.2225,17.0,-3.208,54.536003,inter_set_rest,4,3.0,38188.0,373566.0,108836.0,569.0,-157.0
2026-04-09 22:06:41.129190,198490,1331162926,1331165029,-1.007232,0.530944,0.173728,47.46875,92.435,-24.8325,17.0,-3.032,54.776,inter_set_rest,4,3.0,38188.0,373566.0,108836.0,569.0,-157.0
2026-04-09 22:06:41.131647,198491,1331171879,1331173764,-1.007232,0.530944,0.173728,46.97,91.25375,-29.365,17.52,-3.032,54.776,inter_set_rest,4,3.0,38188.0,373566.0,108836.0,569.0,-157.0
2026-04-09 22:06:41.161924,198492,1331186478,1331188700,-1.116544,0.648064,0.242048,48.27375,88.33125,-33.0575,19.0,-3.76,51.920002,inter_set_rest,4,3.0,38188.0,373566.0,108836.0,569.0,-157.0
2026-04-09 22:06:41.165554,198493,1331195399,1331197397,-1.116544,0.648064,0.242048,53.15625,83.67625,-38.54375,19.0,-3.76,51.920002,inter_set_rest,4,3.0,38188.0,373566.0,108836.0,569.0,-157.0
2026-04-09 22:06:41.167990,198494,1331204385,1331206111,-1.050176,0.665632,0.160064,58.68625,78.16375,-45.955,20.112001,-3.624,52.000004,inter_set_rest,4,3.0,38188.0,373566.0,108836.0,569.0,-157.0
2026-04-09 22:06:41.170451,198495,1331213391,1331214798,-1.050176,0.665632,0.160064,60.2175,73.78875,-51.33625,20.112001,-3.624,52.000004,inter_set_rest,4,3.0,38188.0,373566.0,108836.0,569.0,-157.0
2026-04-09 22:06:41.201951,198496,1331227953,1331229716,-1.030656,0.515328,0.105408,61.53875,69.72,-56.62125,20.416,-3.504,51.24,inter_set_rest,4,3.0,38188.0,373566.0,108836.0,569.0,-157.0
2026-04-09 22:06:41.205256,198497,1331236867,1331238402,-1.030656,0.515328,0.105408,67.27,65.625,-61.0225,20.416,-3.504,51.24,inter_set_rest,4,3.0,38188.0,373566.0,108836.0,569.0,-157.0
2026-04-09 22:06:41.233031,198507,1331245979,1331247296,-1.057984,0.583648,0.08784,72.98375,63.37625,-63.857502,20.176,-4.072,50.952003,inter_set_rest,4,3.0,40386.0,348225.0,93297.0,-118.0,-132.0
2026-04-09 22:06:41.237290,198508,1331260667,1331262313,-1.057984,0.583648,0.08784,76.34375,61.355,-66.8675,20.176,-4.072,50.952003,inter_set_rest,4,3.0,40386.0,348225.0,93297.0,-118.0,-132.0
2026-04-09 22:06:41.238996,198509,1331269614,1331271021,-1.009184,0.530944,0.12688,74.38375,59.9025,-72.75625,21.528002,-3.8,50.256,inter_set_rest,4,3.0,40386.0,348225.0,93297.0,-118.0,-132.0
2026-04-09 22:06:41.240531,198510,1331278555,1331279777,-1.009184,0.530944,0.12688,71.54875,58.765,-78.05,21.528002,-3.8,50.256,inter_set_rest,4,3.0,40386.0,348225.0,93297.0,-118.0,-132.0
2026-04-09 22:06:41.311728,198511,1331293047,1331294728,-0.979904,0.445056,0.142496,69.7375,58.835,-80.7975,20.696001,-4.176,52.616,inter_set_rest,4,3.0,40386.0,348225.0,93297.0,-118.0,-132.0
2026-04-09 22:06:41.313921,198512,1331301973,1331303427,-0.979904,0.445056,0.142496,70.07,58.31,-81.06,20.696001,-4.176,52.616,inter_set_rest,4,3.0,40386.0,348225.0,93297.0,-118.0,-132.0
2026-04-09 22:06:41.318533,198513,1331310927,1331312113,-0.972096,0.456768,0.177632,72.135,56.822502,-81.165,21.864,-4.088,51.824,inter_set_rest,4,3.0,40386.0,348225.0,93297.0,-118.0,-132.0
2026-04-09 22:06:41.320231,198514,1331319859,1331320833,-0.972096,0.456768,0.177632,71.0675,55.125,-81.515,21.864,-4.088,51.824,inter_set_rest,4,3.0,40386.0,348225.0,93297.0,-118.0,-132.0
2026-04-09 22:06:41.322728,198515,1331334350,1331335745,-0.989664,0.495808,0.210816,68.53875,52.21125,-81.6025,21.528002,-3.992,49.928,inter_set_rest,4,3.0,40386.0,348225.0,93297.0,-118.0,-132.0
2026-04-09 22:06:41.324259,198516,1331343291,1331344459,-0.974048,0.404064,0.197152,65.17,48.6675,-82.18875,21.528002,-3.992,53.272003,inter_set_rest,4,3.0,40386.0,348225.0,93297.0,-118.0,-132.0
2026-04-09 22:06:41.349247,198526,1331352304,1331353201,-0.974048,0.404064,0.197152,61.34625,45.77125,-84.455,21.896002,-2.976,53.272003,inter_set_rest,4,3.0,40335.0,341966.0,88725.0,-146.0,-128.0
2026-04-09 22:06:41.353850,198527,1331366865,1331368096,-0.987712,0.318176,0.191296,59.447502,43.60125,-86.58125,22.216002,-3.168,49.592003,inter_set_rest,4,3.0,40335.0,341966.0,88725.0,-146.0,-128.0
2026-04-09 22:06:41.354249,198528,1331375899,1331376905,-0.987712,0.318176,0.191296,63.525,39.19125,-85.86375,22.216002,-3.168,49.592003,inter_set_rest,4,3.0,40335.0,341966.0,88725.0,-146.0,-128.0
2026-04-09 22:06:41.359733,198529,1331384934,1331385639,-0.970144,0.404064,0.201056,69.99125,34.29125,-82.34625,21.944,-3.264,50.464,inter_set_rest,4,3.0,40335.0,341966.0,88725.0,-146.0,-128.0
2026-04-09 22:06:41.361020,198530,1331399917,1331400592,-0.970144,0.404064,0.201056,70.21,30.75625,-80.027504,21.944,-3.264,50.464,inter_set_rest,4,3.0,40335.0,341966.0,88725.0,-146.0,-128.0
2026-04-09 22:06:41.389439,198531,1331409284,1331411391,-1.046272,0.335744,0.173728,65.19625,27.3875,-80.96375,22.648,-2.992,49.000004,inter_set_rest,4,3.0,40335.0,341966.0,88725.0,-146.0,-128.0
2026-04-09 22:06:41.393925,198532,1331418337,1331420130,-1.046272,0.335744,0.173728,58.353752,24.42125,-80.465004,22.648,-2.992,49.000004,inter_set_rest,4,3.0,40335.0,341966.0,88725.0,-146.0,-128.0
2026-04-09 22:06:41.395561,198533,1331427254,1331428833,-1.065792,0.304512,0.111264,59.35125,20.79875,-77.07875,21.928001,-2.624,49.552002,inter_set_rest,4,3.0,40335.0,341966.0,88725.0,-146.0,-128.0
2026-04-09 22:06:41.399682,198534,1331441789,1331443707,-1.065792,0.304512,0.111264,66.22,17.045,-72.371254,21.928001,-2.624,49.552002,inter_set_rest,4,3.0,40335.0,341966.0,88725.0,-146.0,-128.0
2026-04-09 22:06:41.428512,198545,1331450852,1331452470,-1.095072,0.325984,0.050752,69.685,14.0875,-69.06375,21.848001,-2.856,49.264004,inter_set_rest,4,3.0,39214.0,341802.0,87610.0,-164.0,-139.0
2026-04-09 22:06:41.430272,198546,1331459834,1331461219,-1.095072,0.325984,0.050752,70.4375,10.8325,-66.80625,21.848001,-2.856,49.264004,inter_set_rest,4,3.0,39214.0,341802.0,87610.0,-164.0,-139.0
2026-04-09 22:06:41.432630,198547,1331474441,1331476213,-1.243424,0.359168,0.01952,69.475,8.0675,-65.47625,22.552002,-2.912,50.832,inter_set_rest,4,3.0,39214.0,341802.0,87610.0,-164.0,-139.0
2026-04-09 22:06:41.462993,198548,1331483456,1331484994,-1.243424,0.359168,-0.150304,67.10375,2.70375,-61.635002,22.552002,-2.912,50.832,inter_set_rest,4,3.0,39214.0,341802.0,87610.0,-164.0,-139.0
2026-04-09 22:06:41.465163,198549,1331492396,1331493715,-1.33712,0.3904,-0.150304,69.39625,-4.375,-56.07,21.312,-2.952,51.392002,inter_set_rest,4,3.0,39214.0,341802.0,87610.0,-164.0,-139.0
2026-04-09 22:06:41.469778,198550,1331501339,1331502456,-1.33712,0.3904,-0.150304,68.62625,-8.93375,-55.30875,21.312,-2.952,51.392002,inter_set_rest,4,3.0,39214.0,341802.0,87610.0,-164.0,-139.0
2026-04-09 22:06:41.475862,198551,1331515854,1331517416,-1.272704,0.169824,-0.167872,61.03125,-11.94375,-52.482502,21.544,-2.392,49.840004,inter_set_rest,4,3.0,39214.0,341802.0,87610.0,-164.0,-139.0
2026-04-09 22:06:41.484674,198552,1331524795,1331526142,-1.315648,0.193248,-0.124928,50.0675,-13.72875,-43.3475,20.808,-2.176,49.816,inter_set_rest,4,3.0,39214.0,341802.0,87610.0,-164.0,-139.0
2026-04-09 22:06:41.513275,198553,1331533743,1331534846,-1.315648,0.193248,-0.124928,42.77875,-15.575,-34.2825,20.808,-2.176,49.816,inter_set_rest,4,3.0,39214.0,341802.0,87610.0,-164.0,-139.0
2026-04-09 22:06:41.580647,198563,1331548512,1331549781,-1.231712,0.128832,-0.066368,39.2525,-17.255,-26.3725,20.856,-2.704,50.024002,inter_set_rest,4,3.0,40162.0,340265.0,87596.0,-150.0,-133.0
2026-04-09 22:06:41.583001,198564,1331557522,1331558459,-1.231712,0.128832,-0.066368,33.9325,-18.22625,-19.897501,20.856,-2.704,50.024002,inter_set_rest,4,3.0,40162.0,340265.0,87596.0,-150.0,-133.0
2026-04-09 22:06:41.585542,198565,1331566518,1331567242,-1.179008,0.10736,-0.007808,29.35625,-18.3925,-13.95625,19.976002,-3.24,51.568,inter_set_rest,4,3.0,40162.0,340265.0,87596.0,-150.0,-133.0
2026-04-09 22:06:41.587955,198566,1331575870,1331578091,-1.179008,0.10736,-0.007808,30.8,-18.73375,-5.9675,19.976002,-3.24,51.568,inter_set_rest,4,3.0,40162.0,340265.0,87596.0,-150.0,-133.0
2026-04-09 22:06:41.590499,198567,1331590367,1331590959,-1.153632,0.162016,0.0,36.91625,-18.7075,-0.81375,20.480001,-3.192,50.328003,inter_set_rest,4,3.0,40162.0,340265.0,87596.0,-150.0,-133.0
2026-04-09 22:06:41.592980,198568,1331599534,1331601704,-1.153632,0.162016,0.0,41.326252,-19.03125,1.1025,20.480001,-3.192,50.328003,inter_set_rest,4,3.0,40162.0,340265.0,87596.0,-150.0,-133.0
2026-04-09 22:06:41.595468,198569,1331608469,1331610426,-1.118496,0.181536,-0.027328,41.60625,-19.06625,1.12,20.096,-4.048,51.336002,inter_set_rest,4,3.0,40162.0,340265.0,87596.0,-150.0,-133.0
2026-04-09 22:06:41.598927,198570,1331623049,1331625326,-1.118496,0.181536,-0.027328,41.41375,-19.6,0.84,20.096,-4.048,51.336002,inter_set_rest,4,3.0,40162.0,340265.0,87596.0,-150.0,-133.0
2026-04-09 22:06:41.601368,198571,1331631979,1331634011,-1.09312,0.193248,-0.054656,42.1575,-19.78375,-2.7475,19.6,-3.912,51.120003,inter_set_rest,4,3.0,40162.0,340265.0,87596.0,-150.0,-133.0
2026-04-09 22:06:41.603124,198572,1331640905,1331642757,-1.09312,0.193248,-0.054656,43.295002,-20.5975,-5.83625,19.6,-3.912,51.120003,inter_set_rest,4,3.0,40162.0,340265.0,87596.0,-150.0,-133.0
2026-04-09 22:06:41.627936,198582,1331650387,1331651528,-1.067744,0.203008,-0.01952,45.15875,-21.46375,-8.6275,19.472,-3.768,51.56,inter_set_rest,4,3.0,40148.0,337112.0,85248.0,-164.0,-129.0
2026-04-09 22:06:41.630470,198583,1331664914,1331666520,-1.032608,0.158112,-0.040992,46.935,-22.14625,-10.17625,18.888,-4.248,52.760002,inter_set_rest,4,3.0,40148.0,337112.0,85248.0,-164.0,-129.0
2026-04-09 22:06:41.632987,198584,1331673867,1331675258,-1.032608,0.158112,-0.040992,49.13125,-23.47625,-14.72625,18.888,-4.248,52.760002,inter_set_rest,4,3.0,40148.0,337112.0,85248.0,-164.0,-129.0
2026-04-09 22:06:41.663298,198585,1331682795,1331683987,-1.032608,0.158112,-0.040992,48.9475,-23.6075,-18.19125,18.888,-4.248,52.760002,inter_set_rest,4,3.0,40148.0,337112.0,85248.0,-164.0,-129.0
2026-04-09 22:06:41.666857,198586,1331697224,1331698932,-1.028704,0.132736,-0.02928,49.37625,-23.38,-21.0875,18.416,-4.592,52.032,inter_set_rest,4,3.0,40148.0,337112.0,85248.0,-164.0,-129.0
2026-04-09 22:06:41.669282,198587,1331706149,1331707626,-1.050176,0.119072,-0.06832,50.00625,-24.08,-21.9975,18.128,-5.088,52.488003,inter_set_rest,4,3.0,40148.0,337112.0,85248.0,-164.0,-129.0
2026-04-09 22:06:41.671795,198588,1331715040,1331716311,-1.050176,0.119072,-0.06832,49.6475,-23.51125,-21.6825,18.128,-5.088,52.488003,inter_set_rest,4,3.0,40148.0,337112.0,85248.0,-164.0,-129.0
2026-04-09 22:06:41.703367,198589,1331729498,1331731250,-1.04432,0.083936,-0.085888,47.88,-21.5425,-21.67375,17.464,-5.376,52.624004,inter_set_rest,4,3.0,40148.0,337112.0,85248.0,-164.0,-129.0
2026-04-09 22:06:41.706755,198590,1331738449,1331739966,-1.04432,0.083936,-0.085888,46.97,-20.545,-22.40875,17.464,-5.376,52.624004,inter_set_rest,4,3.0,40148.0,337112.0,85248.0,-164.0,-129.0
2026-04-09 22:06:41.734376,198601,1331747658,1331748798,-1.052128,0.099552,-0.031232,46.34,-20.44,-21.455,17.968,-5.136,52.688004,inter_set_rest,4,3.0,41365.0,336692.0,86361.0,-151.0,-127.0
2026-04-09 22:06:41.736715,198602,1331756647,1331757625,-1.052128,0.099552,-0.031232,47.2675,-21.315,-18.9875,17.968,-5.136,52.688004,inter_set_rest,4,3.0,41365.0,336692.0,86361.0,-151.0,-127.0
2026-04-09 22:06:41.739211,198603,1331771156,1331772561,-1.079456,0.099552,-0.01952,50.61,-22.925,-20.16,15.936001,-6.064,54.272003,inter_set_rest,4,3.0,41365.0,336692.0,86361.0,-151.0,-127.0
2026-04-09 22:06:41.741746,198604,1331780086,1331781269,-1.079456,0.099552,-0.01952,53.9525,-25.62,-21.7,15.936001,-6.064,54.272003,inter_set_rest,4,3.0,41365.0,336692.0,86361.0,-151.0,-127.0
2026-04-09 22:06:41.746756,198605,1331789093,1331790034,-1.08336,0.138592,-0.121024,58.24,-27.317501,-23.7125,15.824,-6.064,54.232002,inter_set_rest,4,3.0,41365.0,336692.0,86361.0,-151.0,-127.0
2026-04-09 22:06:41.780768,198606,1331803595,1331804963,-1.08336,0.138592,-0.121024,61.10125,-27.29125,-22.63625,15.824,-6.064,54.232002,inter_set_rest,4,3.0,41365.0,336692.0,86361.0,-151.0,-127.0
2026-04-09 22:06:41.784191,198607,1331812500,1331813651,-1.087264,0.105408,-0.091744,61.95,-28.0175,-22.3125,16.36,-6.288,54.992004,inter_set_rest,4,3.0,41365.0,336692.0,86361.0,-151.0,-127.0
2026-04-09 22:06:41.786754,198608,1331821437,1331822354,-1.087264,0.105408,-0.091744,58.625,-28.79625,-21.70875,16.36,-6.288,54.992004,inter_set_rest,4,3.0,41365.0,336692.0,86361.0,-151.0,-127.0
2026-04-09 22:06:41.793035,198609,1331835935,1331837235,-1.097024,0.070272,-0.046848,57.39125,-29.47,-21.69125,15.64,-6.512,53.632004,inter_set_rest,4,3.0,41365.0,336692.0,86361.0,-151.0,-127.0
2026-04-09 22:06:41.823231,198610,1331844848,1331845937,-1.097024,0.070272,-0.072224,58.73875,-31.6575,-20.7375,15.64,-6.512,53.632004,inter_set_rest,4,3.0,41365.0,336692.0,86361.0,-151.0,-127.0
2026-04-09 22:06:41.886718,198620,1331853924,1331854671,-1.087264,0.021472,-0.072224,61.013752,-33.7225,-18.55,15.432001,-7.272,53.088,inter_set_rest,4,3.0,42319.0,334236.0,85626.0,-164.0,-135.0
2026-04-09 22:06:41.889231,198621,1331863381,1331865473,-1.087264,0.021472,-0.072224,67.90875,-35.8225,-16.2225,15.432001,-7.272,53.088,inter_set_rest,4,3.0,42319.0,334236.0,85626.0,-164.0,-135.0
2026-04-09 22:06:41.891759,198622,1331877883,1331878317,-1.03456,0.0488,-0.103456,72.590004,-36.00625,-14.105001,15.376,-8.504001,51.632004,inter_set_rest,4,3.0,42319.0,334236.0,85626.0,-164.0,-135.0
2026-04-09 22:06:41.894223,198623,1331887195,1331889104,-1.06384,0.105408,-0.025376,75.94125,-36.0325,-12.792501,14.6,-8.552,54.008003,inter_set_rest,4,3.0,42319.0,334236.0,85626.0,-164.0,-135.0
2026-04-09 22:06:41.896723,198624,1331896130,1331897868,-1.06384,0.105408,-0.025376,76.48375,-36.23375,-12.1975,14.6,-8.552,54.008003,inter_set_rest,4,3.0,42319.0,334236.0,85626.0,-164.0,-135.0
2026-04-09 22:06:41.899249,198625,1331910612,1331912762,-1.057984,0.072224,-0.001952,75.9675,-37.1175,-13.65,14.488001,-9.072001,54.808002,inter_set_rest,4,3.0,42319.0,334236.0,85626.0,-164.0,-135.0
2026-04-09 22:06:41.901718,198626,1331919538,1331921462,-1.057984,0.072224,-0.001952,77.4725,-37.66,-15.435,14.488001,-9.072001,54.808002,inter_set_rest,4,3.0,42319.0,334236.0,85626.0,-164.0,-135.0
2026-04-09 22:06:41.904254,198627,1331928473,1331930190,-1.013088,0.089792,-0.031232,82.17125,-38.61375,-15.96,13.936001,-9.256001,54.72,inter_set_rest,4,3.0,42319.0,334236.0,85626.0,-164.0,-135.0
2026-04-09 22:06:41.906730,198628,1331943067,1331945096,-1.013088,0.089792,-0.031232,85.84625,-38.98125,-16.45,13.936001,-9.256001,54.72,inter_set_rest,4,3.0,42319.0,334236.0,85626.0,-164.0,-135.0
2026-04-09 22:06:41.956726,198638,1331952248,1331953958,-0.983808,0.115168,-0.001952,88.68125,-38.31625,-17.84125,13.6,-9.928,54.616,inter_set_rest,4,3.0,42538.0,330876.0,83433.0,-159.0,-135.0
2026-04-09 22:06:41.959245,198639,1331961219,1331962766,-0.983808,0.115168,-0.001952,92.32125,-38.0625,-19.1625,13.6,-9.928,54.616,inter_set_rest,4,3.0,42538.0,330876.0,83433.0,-159.0,-135.0
2026-04-09 22:06:41.961762,198640,1331970243,1331971508,-0.987712,0.12688,-0.001952,95.445,-36.8375,-20.79875,13.080001,-11.280001,54.944004,inter_set_rest,4,3.0,42538.0,330876.0,83433.0,-159.0,-135.0
2026-04-09 22:06:41.964229,198641,1331984709,1331986441,-0.987712,0.12688,-0.001952,98.4725,-36.19875,-23.00375,13.080001,-11.280001,54.944004,inter_set_rest,4,3.0,42538.0,330876.0,83433.0,-159.0,-135.0
2026-04-09 22:06:41.966740,198642,1331993652,1331995179,-0.99552,0.128832,0.015616,100.065,-35.1575,-25.366251,12.72,-12.040001,54.56,inter_set_rest,4,3.0,42538.0,330876.0,83433.0,-159.0,-135.0
2026-04-09 22:06:41.969316,198643,1332002679,1332003906,-0.99552,0.128832,0.015616,100.2925,-33.845,-27.2125,12.72,-12.040001,54.56,inter_set_rest,4,3.0,42538.0,330876.0,83433.0,-159.0,-135.0
2026-04-09 22:06:41.974371,198644,1332017248,1332018870,-0.976,0.115168,0.027328,100.4325,-32.62,-29.0325,11.656,-12.664001,54.840004,inter_set_rest,4,3.0,42538.0,330876.0,83433.0,-159.0,-135.0
