pc_time,serial_num,sensor_ts,host_ts,ax,ay,az,gx,gy,gz,mx,my,mz,phase,rpe,weight_kg,ppg_a,ppg_b,ppg_c,ppg_d,ppg_e
2026-04-08 21:49:55.388443,242337,1609504167598950,1767565358,0.940864,-0.046848,-0.003904,2.4675,8.32125,-0.72625,-17.048,19.304,7.920001,inter_set_rest,4,3.0,20048.0,141841.0,229286.0,280161.0,263734.0
2026-04-08 21:49:55.393612,242338,1609504167607907,1767574019,0.940864,-0.046848,-0.003904,1.68,8.07625,-2.2225,-17.048,19.304,7.920001,inter_set_rest,4,3.0,20048.0,141841.0,229286.0,280161.0,263734.0
2026-04-08 21:49:55.393693,242339,1609504167622423,1767588855,0.938912,-0.023424,0.074176,0.55125,8.4875,-2.51125,-17.024,19.808,7.528,inter_set_rest,4,3.0,20048.0,141841.0,229286.0,280161.0,263734.0
2026-04-08 21:49:55.397226,242340,1609504167631365,1767597571,0.938912,-0.023424,0.074176,-1.86375,9.14375,-4.26125,-17.024,19.808,7.528,inter_set_rest,4,3.0,20048.0,141841.0,229286.0,280161.0,263734.0
2026-04-08 21:49:55.428667,242341,1609504167645834,1767612436,0.886208,0.0,0.132736,-4.61125,9.94,-4.83,-17.104,19.384,9.688001,inter_set_rest,4,3.0,20048.0,141841.0,229286.0,280161.0,263734.0
2026-04-08 21:49:55.455970,242352,1609504167654898,1767621238,0.8784,0.025376,0.11712,-8.44375,9.9225,-4.1125,-16.816,19.368,9.512,inter_set_rest,4,3.0,19900.0,141478.0,229105.0,280100.0,263756.0
2026-04-08 21:49:55.458393,242353,1609504167669485,1767636111,0.8784,0.025376,0.11712,-13.055,9.835,-4.585,-16.816,19.368,9.512,inter_set_rest,4,3.0,19900.0,141478.0,229105.0,280100.0,263756.0
2026-04-08 21:49:55.460967,242354,1609504167678480,1767644818,0.952576,-0.027328,-0.027328,-16.0475,9.66875,-5.7925,-17.112001,19.76,7.504,inter_set_rest,4,3.0,19900.0,141478.0,229105.0,280100.0,263756.0
2026-04-08 21:49:55.463473,242355,1609504167687537,1767653526,0.952576,-0.027328,-0.027328,-19.39875,10.1325,-7.02625,-17.112001,19.76,7.504,inter_set_rest,4,3.0,19900.0,141478.0,229105.0,280100.0,263756.0
2026-04-08 21:49:55.468576,242356,1609504167702048,1767668399,0.876448,0.040992,0.138592,-22.02375,10.57875,-6.78125,-16.912,19.960001,7.432,inter_set_rest,4,3.0,19900.0,141478.0,229105.0,280100.0,263756.0
2026-04-08 21:49:55.498695,242357,1609504167711101,1767677086,0.876448,0.040992,0.138592,-22.8025,11.025,-5.38125,-16.912,19.960001,7.432,inter_set_rest,4,3.0,19900.0,141478.0,229105.0,280100.0,263756.0
2026-04-08 21:49:55.502258,242358,1609504167725570,1767691940,0.921344,0.027328,0.158112,-25.1825,11.33125,-4.90875,-16.808,19.808,8.504001,inter_set_rest,4,3.0,19900.0,141478.0,229105.0,280100.0,263756.0
2026-04-08 21:49:55.504783,242359,1609504167734452,1767700574,0.935008,0.027328,0.162016,-26.9325,10.75375,-4.1825,-16.808,20.072,7.384,inter_set_rest,4,3.0,19900.0,141478.0,229105.0,280100.0,263756.0
2026-04-08 21:49:55.509739,242360,1609504167743334,1767709243,0.935008,0.027328,0.162016,-28.595,10.6225,-2.87,-16.816,20.072,7.384,inter_set_rest,4,3.0,19900.0,141478.0,229105.0,280100.0,263756.0
2026-04-08 21:49:55.542160,242371,1609504167757850,1767724169,0.972096,0.001952,0.121024,-29.79375,10.36,-2.1175,-16.512001,20.240002,7.544,inter_set_rest,4,3.0,19973.0,141791.0,229348.0,280181.0,263720.0
2026-04-08 21:49:55.544708,242372,1609504167766803,1767732947,0.972096,0.001952,0.121024,-31.22875,10.42125,-2.87875,-16.512001,20.240002,7.544,inter_set_rest,4,3.0,19973.0,141791.0,229348.0,280181.0,263720.0
2026-04-08 21:49:55.547547,242373,1609504167781252,1767747843,0.845216,0.02928,-0.00976,-32.357502,10.9375,-2.70375,-16.728,20.248001,5.144,inter_set_rest,4,3.0,19973.0,141791.0,229348.0,280181.0,263720.0
2026-04-08 21:49:55.605005,242374,1609504167790191,1767756575,0.845216,0.02928,-0.00976,-32.87375,10.4125,-1.0325,-16.728,20.248001,5.144,inter_set_rest,4,3.0,19973.0,141791.0,229348.0,280181.0,263720.0
2026-04-08 21:49:55.608514,242375,1609504167804611,1767771417,0.929152,0.015616,0.208864,-31.36875,10.386251,0.315,-16.336,20.008001,7.832,inter_set_rest,4,3.0,19973.0,141791.0,229348.0,280181.0,263720.0
2026-04-08 21:49:55.610969,242376,1609504167813541,1767780155,0.929152,0.015616,0.208864,-28.58625,9.3975,0.20125,-16.336,20.008001,7.832,inter_set_rest,4,3.0,19973.0,141791.0,229348.0,280181.0,263720.0
2026-04-08 21:49:55.613493,242377,1609504167822467,1767788837,0.864736,0.003904,0.0,-26.915,8.575,0.49875,-16.784,20.784,7.184001,inter_set_rest,4,3.0,19973.0,141791.0,229348.0,280181.0,263720.0
2026-04-08 21:49:55.615984,242378,1609504167836969,1767803796,0.856928,0.021472,-0.023424,-26.39,8.18125,0.90125,-16.68,21.184002,6.56,inter_set_rest,4,3.0,19973.0,141791.0,229348.0,280181.0,263720.0
2026-04-08 21:49:55.618458,242379,1609504167845890,1767812438,0.856928,0.021472,-0.023424,-26.04875,8.09375,1.19,-16.68,21.184002,6.56,inter_set_rest,4,3.0,19973.0,141791.0,229348.0,280181.0,263720.0
2026-04-08 21:49:55.646074,242390,1609504167860507,1767827394,0.845216,0.011712,0.03904,-25.78625,8.2075,0.23625,-16.472,20.304,7.584001,inter_set_rest,4,3.0,19989.0,141848.0,229432.0,280234.0,263723.0
2026-04-08 21:49:55.648465,242391,1609504167869472,1767836110,0.845216,0.011712,0.03904,-26.15375,7.49875,-0.245,-16.472,20.304,7.584001,inter_set_rest,4,3.0,19989.0,141848.0,229432.0,280234.0,263723.0
2026-04-08 21:49:55.650976,242392,1609504167883978,1767851016,0.909632,-0.003904,0.148352,-26.69625,7.5425,0.06125,-16.416,20.896002,7.04,inter_set_rest,4,3.0,19989.0,141848.0,229432.0,280234.0,263723.0
2026-04-08 21:49:55.681212,242393,1609504167892941,1767859674,0.909632,-0.003904,0.148352,-26.95875,6.9825,-0.84,-16.416,20.896002,7.04,inter_set_rest,4,3.0,19989.0,141848.0,229432.0,280234.0,263723.0
2026-04-08 21:49:55.693634,242394,1609504167901929,1767868341,0.919392,-0.021472,0.015616,-26.04875,6.5625,-1.3125,-16.176,21.008001,7.312,inter_set_rest,4,3.0,19989.0,141848.0,229432.0,280234.0,263723.0
2026-04-08 21:49:55.696098,242395,1609504167916428,1767883281,0.84912,-0.027328,-0.005856,-24.28125,6.3175,-2.4675,-16.312,21.024,5.392,inter_set_rest,4,3.0,19989.0,141848.0,229432.0,280234.0,263723.0
2026-04-08 21:49:55.698510,242396,1609504167925342,1767891960,0.84912,-0.027328,-0.005856,-23.37125,5.95,-2.3975,-16.312,21.024,5.392,inter_set_rest,4,3.0,19989.0,141848.0,229432.0,280234.0,263723.0
2026-04-08 21:49:55.728754,242397,1609504167939900,1767906862,0.88816,-0.046848,0.017568,-22.68875,5.8275,-2.2925,-16.192001,21.048,6.192,inter_set_rest,4,3.0,19989.0,141848.0,229432.0,280234.0,263723.0
2026-04-08 21:49:55.732294,242398,1609504167948833,1767915525,0.88816,-0.046848,0.017568,-21.14,5.32875,-2.4325,-16.192001,21.048,6.192,inter_set_rest,4,3.0,19989.0,141848.0,229432.0,280234.0,263723.0
2026-04-08 21:49:55.759818,242409,1609504167963334,1767930410,0.9272,-0.005856,0.20496,-18.40125,5.15375,-2.59875,-16.048,20.720001,6.096,inter_set_rest,4,3.0,19831.0,141481.0,229379.0,280317.0,263889.0
2026-04-08 21:49:55.762290,242410,1609504167972261,1767939096,0.9272,-0.005856,0.20496,-15.505,4.47125,-3.73625,-16.048,20.720001,6.096,inter_set_rest,4,3.0,19831.0,141481.0,229379.0,280317.0,263889.0
2026-04-08 21:49:55.764758,242411,1609504167981282,1767947803,0.933056,-0.01952,0.144448,-15.16375,4.24375,-4.94375,-16.44,21.112001,7.064,inter_set_rest,4,3.0,19831.0,141481.0,229379.0,280317.0,263889.0
2026-04-08 21:49:55.767309,242412,1609504167995817,1767962725,0.933056,-0.02928,-0.015616,-16.75625,3.9025,-5.8625,-16.44,21.112001,7.064,inter_set_rest,4,3.0,19831.0,141481.0,229379.0,280317.0,263889.0
2026-04-08 21:49:55.773538,242413,1609504168004730,1767971421,0.870592,-0.02928,-0.015616,-18.3925,4.26125,-5.67875,-16.424002,21.104,6.76,inter_set_rest,4,3.0,19831.0,141481.0,229379.0,280317.0,263889.0
2026-04-08 21:49:55.803697,242414,1609504168019214,1767986287,0.958432,-0.025376,0.201056,-20.23875,4.97875,-4.41,-16.024,21.088001,5.984,inter_set_rest,4,3.0,19831.0,141481.0,229379.0,280317.0,263889.0
2026-04-08 21:49:55.807200,242415,1609504168028144,1767994964,0.958432,-0.025376,0.201056,-20.72,4.59375,-3.4825,-16.024,21.088001,5.984,inter_set_rest,4,3.0,19831.0,141481.0,229379.0,280317.0,263889.0
2026-04-08 21:49:55.809702,242416,1609504168042602,1768007764,0.915488,-0.0488,0.013664,-19.81875,4.10375,-4.13,-16.240002,21.256,5.616,inter_set_rest,4,3.0,19831.0,141481.0,229379.0,280317.0,263889.0
2026-04-08 21:49:55.840968,242427,1609504168052057,1768018505,0.915488,-0.0488,0.013664,-19.17125,3.57,-4.3575,-16.240002,21.256,5.616,inter_set_rest,4,3.0,19731.0,141296.0,229422.0,280436.0,263992.0
2026-04-08 21:49:55.843510,242428,1609504168061062,1768027272,0.903776,-0.023424,0.17568,-17.5175,2.59875,-4.6725,-16.344,20.84,5.864,inter_set_rest,4,3.0,19731.0,141296.0,229422.0,280436.0,263992.0
2026-04-08 21:49:55.846062,242429,1609504168075604,1768042239,0.903776,-0.023424,0.17568,-15.855001,2.52,-4.8125,-16.344,20.84,5.864,inter_set_rest,4,3.0,19731.0,141296.0,229422.0,280436.0,263992.0
2026-04-08 21:49:55.852285,242430,1609504168084565,1768050918,0.862784,0.005856,0.113216,-17.71875,2.68625,-4.71625,-16.04,21.448002,7.856,inter_set_rest,4,3.0,19731.0,141296.0,229422.0,280436.0,263992.0
2026-04-08 21:49:55.900242,242431,1609504168099046,1768065796,0.950624,-0.015616,0.21472,-19.88,2.835,-5.1275,-16.152,21.376001,6.328,inter_set_rest,4,3.0,19731.0,141296.0,229422.0,280436.0,263992.0
2026-04-08 21:49:55.903513,242432,1609504168107961,1768074446,0.950624,-0.015616,0.21472,-20.88625,3.03625,-5.46,-16.152,21.376001,6.328,inter_set_rest,4,3.0,19731.0,141296.0,229422.0,280436.0,263992.0
2026-04-08 21:49:55.908454,242433,1609504168116865,1768083110,0.954528,-0.040992,0.150304,-22.47875,2.68625,-5.355,-16.152,21.376001,4.488,inter_set_rest,4,3.0,19731.0,141296.0,229422.0,280436.0,263992.0
2026-04-08 21:49:55.910965,242434,1609504168131313,1768097969,0.954528,-0.040992,0.150304,-24.80625,2.56375,-5.0575,-16.256,21.552002,4.488,inter_set_rest,4,3.0,19731.0,141296.0,229422.0,280436.0,263992.0
2026-04-08 21:49:55.913465,242435,1609504168140244,1768106646,0.90768,-0.011712,0.228384,-26.01375,2.695,-5.22375,-16.144001,21.424002,5.088,inter_set_rest,4,3.0,19731.0,141296.0,229422.0,280436.0,263992.0
2026-04-08 21:49:55.943472,242446,1609504168155335,1768121813,0.90768,-0.011712,0.228384,-25.935,2.63375,-5.29375,-16.144001,21.424002,5.088,inter_set_rest,4,3.0,19657.0,141212.0,229526.0,280566.0,264099.0
2026-04-08 21:49:55.946576,242447,1609504168164435,1768130514,0.890112,-0.023424,0.001952,-26.460001,2.7825,-5.985,-16.0,21.232,3.688,inter_set_rest,4,3.0,19657.0,141212.0,229526.0,280566.0,264099.0
2026-04-08 21:49:55.948609,242448,1609504168178870,1768145461,0.913536,-0.023424,0.025376,-26.06625,2.835,-6.09,-16.400002,21.432001,6.208,inter_set_rest,4,3.0,19657.0,141212.0,229526.0,280566.0,264099.0
2026-04-08 21:49:55.953464,242449,1609504168187815,1768154178,0.913536,-0.023424,0.025376,-25.76,3.36875,-5.04875,-16.400002,21.432001,6.208,inter_set_rest,4,3.0,19657.0,141212.0,229526.0,280566.0,264099.0
2026-04-08 21:49:55.983606,242450,1609504168196726,1768162851,0.913536,-0.023424,0.056608,-26.32,3.5,-4.2175,-16.400002,21.432001,6.208,inter_set_rest,4,3.0,19657.0,141212.0,229526.0,280566.0,264099.0
2026-04-08 21:49:55.987256,242451,1609504168211228,1768177772,0.860832,-0.021472,0.050752,-25.6725,3.26375,-4.31375,-16.264,21.768002,5.072,inter_set_rest,4,3.0,19657.0,141212.0,229526.0,280566.0,264099.0
2026-04-08 21:49:55.989698,242452,1609504168220198,1768186421,0.856928,-0.017568,0.054656,-24.8325,3.535,-3.85875,-16.240002,22.048,4.28,inter_set_rest,4,3.0,19657.0,141212.0,229526.0,280566.0,264099.0
2026-04-08 21:49:56.019927,242453,1609504168234733,1768201282,0.856928,-0.017568,0.054656,-24.33375,3.28125,-3.255,-16.240002,22.048,4.28,inter_set_rest,4,3.0,19657.0,141212.0,229526.0,280566.0,264099.0
2026-04-08 21:49:56.023521,242454,1609504168243627,1768209938,0.884256,-0.042944,-0.007808,-23.10875,3.71875,-3.89375,-16.144001,21.912,4.464,inter_set_rest,4,3.0,19657.0,141212.0,229526.0,280566.0,264099.0
2026-04-08 21:49:56.054731,242465,1609504168258221,1768224925,0.851072,-0.013664,0.044896,-23.2225,4.2525,-4.20875,-16.128,21.672,4.744,inter_set_rest,4,3.0,19605.0,141229.0,229699.0,280730.0,264175.0
2026-04-08 21:49:56.057183,242466,1609504168267195,1768233629,0.851072,-0.013664,0.044896,-23.135,4.76,-2.17875,-16.128,21.672,4.744,inter_set_rest,4,3.0,19605.0,141229.0,229699.0,280730.0,264175.0
2026-04-08 21:49:56.059691,242467,1609504168276211,1768242370,0.851072,-0.013664,0.044896,-23.16125,4.7075,-1.84625,-16.128,21.672,4.744,inter_set_rest,4,3.0,19605.0,141229.0,229699.0,280730.0,264175.0
2026-04-08 21:49:56.062245,242468,1609504168290813,1768257245,0.935008,-0.02928,0.267424,-24.28125,4.48,-3.07125,-15.880001,21.992,5.064,inter_set_rest,4,3.0,19605.0,141229.0,229699.0,280730.0,264175.0
2026-04-08 21:49:56.064759,242469,1609504168299774,1768265982,0.899872,-0.00976,0.199104,-24.43,4.62875,-3.36875,-16.112001,22.288,4.872,inter_set_rest,4,3.0,19605.0,141229.0,229699.0,280730.0,264175.0
2026-04-08 21:49:56.116177,242470,1609504168314254,1768280847,0.899872,-0.00976,0.199104,-23.79125,5.1275,-3.0275,-16.112001,22.288,4.872,inter_set_rest,4,3.0,19605.0,141229.0,229699.0,280730.0,264175.0
2026-04-08 21:49:56.119790,242471,1609504168323176,1768289516,0.958432,-0.027328,0.26352,-23.51125,5.39875,-3.63125,-15.896001,21.792002,3.864,inter_set_rest,4,3.0,19605.0,141229.0,229699.0,280730.0,264175.0
2026-04-08 21:49:56.125946,242472,1609504168332095,1768298170,0.958432,-0.027328,0.26352,-23.65125,5.2325,-4.3575,-15.896001,21.792002,3.864,inter_set_rest,4,3.0,19605.0,141229.0,229699.0,280730.0,264175.0
2026-04-08 21:49:56.128511,242473,1609504168346575,1768313003,0.909632,-0.017568,0.271328,-24.535,4.90875,-4.8475,-16.056002,22.560001,3.68,inter_set_rest,4,3.0,19605.0,141229.0,229699.0,280730.0,264175.0
2026-04-08 21:49:56.159702,242484,1609504168355577,1768321766,0.909632,-0.017568,0.271328,-24.255,5.0925,-3.9025,-16.056002,22.560001,3.68,inter_set_rest,4,3.0,19451.0,140977.0,229861.0,280965.0,264407.0
2026-04-08 21:49:56.162233,242485,1609504168370099,1768336725,0.876448,-0.035136,0.074176,-24.115,4.9875,-3.78875,-16.04,22.208,4.632,inter_set_rest,4,3.0,19451.0,140977.0,229861.0,280965.0,264407.0
2026-04-08 21:49:56.164797,242486,1609504168379047,1768345411,0.890112,-0.0488,0.040992,-24.815,5.4425,-4.7775,-16.232,22.336,6.688,inter_set_rest,4,3.0,19451.0,140977.0,229861.0,280965.0,264407.0
2026-04-08 21:49:56.167244,242487,1609504168393664,1768360286,0.890112,-0.0488,0.040992,-23.6075,5.6525,-5.29375,-16.232,22.336,6.688,inter_set_rest,4,3.0,19451.0,140977.0,229861.0,280965.0,264407.0
2026-04-08 21:49:56.201294,242488,1609504168402617,1768369007,0.860832,-0.011712,0.18544,-22.522501,6.01125,-6.2825,-16.336,22.344002,5.152,inter_set_rest,4,3.0,19451.0,140977.0,229861.0,280965.0,264407.0
2026-04-08 21:49:56.204800,242489,1609504168411559,1768377699,0.860832,-0.011712,0.18544,-22.75875,5.6,-8.33,-16.336,22.344002,5.152,inter_set_rest,4,3.0,19451.0,140977.0,229861.0,280965.0,264407.0
2026-04-08 21:49:56.207311,242490,1609504168426052,1768392593,0.954528,-0.070272,0.171776,-23.2575,5.31125,-10.7275,-16.16,22.152,2.72,inter_set_rest,4,3.0,19451.0,140977.0,229861.0,280965.0,264407.0
2026-04-08 21:49:56.209661,242491,1609504168434957,1768401246,0.954528,-0.070272,0.171776,-21.6825,4.66375,-8.8725,-16.16,22.152,2.72,inter_set_rest,4,3.0,19451.0,140977.0,229861.0,280965.0,264407.0
2026-04-08 21:49:56.214822,242492,1609504168449446,1768416169,0.948672,-0.035136,0.249856,-18.55,4.90875,-4.71625,-15.896001,21.968,2.944,inter_set_rest,4,3.0,19451.0,140977.0,229861.0,280965.0,264407.0
2026-04-08 21:49:56.246253,242504,1609504168458564,1768424889,0.948672,-0.035136,0.249856,-18.54125,5.4775,-6.81625,-15.896001,21.968,2.944,inter_set_rest,4,3.0,19420.0,140923.0,229873.0,280976.0,264440.0
2026-04-08 21:49:56.248485,242505,1609504168473101,1768439870,0.944768,-0.037088,0.259616,-19.85375,5.8975,-9.16125,-16.232,21.984001,3.048,inter_set_rest,4,3.0,19420.0,140923.0,229873.0,280976.0,264440.0
2026-04-08 21:49:56.251012,242506,1609504168482183,1768448642,0.94672,-0.00976,0.232288,-20.01125,6.265,-7.3675,-15.992001,22.000002,3.92,inter_set_rest,4,3.0,19420.0,140923.0,229873.0,280976.0,264440.0
2026-04-08 21:49:56.257274,242507,1609504168491164,1768457309,0.94672,-0.00976,0.232288,-20.83375,5.845,-6.6675,-15.992001,22.000002,3.92,inter_set_rest,4,3.0,19420.0,140923.0,229873.0,280976.0,264440.0
2026-04-08 21:49:56.287541,242508,1609504168505591,1768472193,0.983808,-0.037088,0.187392,-22.19875,5.6525,-7.79625,-16.208,22.160002,2.928,inter_set_rest,4,3.0,19420.0,140923.0,229873.0,280976.0,264440.0
2026-04-08 21:49:56.291020,242509,1609504168514510,1768480853,0.983808,-0.037088,0.187392,-23.52,5.01375,-7.69125,-16.208,22.160002,2.928,inter_set_rest,4,3.0,19420.0,140923.0,229873.0,280976.0,264440.0
2026-04-08 21:49:56.294899,242510,1609504168529030,1768495758,0.89792,-0.042944,0.003904,-26.15375,5.495,-6.7375,-16.400002,22.352001,2.528,inter_set_rest,4,3.0,19420.0,140923.0,229873.0,280976.0,264440.0
2026-04-08 21:49:56.326213,242511,1609504168537940,1768504448,0.89792,-0.042944,0.003904,-27.48375,5.9325,-6.0375,-16.400002,22.352001,2.528,inter_set_rest,4,3.0,19420.0,140923.0,229873.0,280976.0,264440.0
2026-04-08 21:49:56.354707,242522,1609504168552396,1768519643,0.886208,-0.046848,0.054656,-27.335001,6.5275,-6.34375,-16.248001,22.6,2.528,inter_set_rest,4,3.0,19330.0,140859.0,229929.0,281057.0,264479.0
2026-04-08 21:49:56.357169,242523,1609504168561347,1768528318,0.882304,-0.046848,0.035136,-27.475,6.1425,-5.69625,-16.08,22.568,2.344,inter_set_rest,4,3.0,19330.0,140859.0,229929.0,281057.0,264479.0
2026-04-08 21:49:56.359689,242524,1609504168570288,1768536981,0.882304,-0.046848,0.035136,-26.94125,5.6875,-5.46,-16.08,22.568,2.344,inter_set_rest,4,3.0,19330.0,140859.0,229929.0,281057.0,264479.0
2026-04-08 21:49:56.362246,242525,1609504168584934,1768551859,0.919392,-0.037088,0.247904,-26.66125,5.285,-5.52125,-16.36,22.584002,2.184,inter_set_rest,4,3.0,19330.0,140859.0,229929.0,281057.0,264479.0
2026-04-08 21:49:56.364668,242526,1609504168594020,1768560612,0.919392,-0.037088,0.247904,-26.04875,4.27875,-5.635,-16.36,22.584002,2.184,inter_set_rest,4,3.0,19330.0,140859.0,229929.0,281057.0,264479.0
2026-04-08 21:49:56.394874,242527,1609504168608575,1768575534,0.905728,-0.031232,0.255712,-26.46875,4.7775,-5.9325,-16.232,22.672,1.976,inter_set_rest,4,3.0,19330.0,140859.0,229929.0,281057.0,264479.0
2026-04-08 21:49:56.398501,242528,1609504168617481,1768584187,0.905728,-0.031232,0.255712,-26.78375,5.66125,-6.62375,-16.232,22.672,1.976,inter_set_rest,4,3.0,19330.0,140859.0,229929.0,281057.0,264479.0
2026-04-08 21:49:56.400982,242529,1609504168626404,1768592834,0.915488,-0.070272,0.173728,-26.3375,6.11625,-7.035,-16.208,22.632002,1.824,inter_set_rest,4,3.0,19330.0,140859.0,229929.0,281057.0,264479.0
2026-04-08 21:49:56.431119,242530,1609504168640921,1768607711,0.892064,-0.07808,0.013664,-25.3225,6.9825,-7.385,-16.320002,23.056002,2.2,inter_set_rest,4,3.0,19330.0,140859.0,229929.0,281057.0,264479.0
2026-04-08 21:49:56.434711,242531,1609504168649834,1768616385,0.892064,-0.07808,0.013664,-24.14125,7.46375,-8.417501,-16.320002,23.056002,2.2,inter_set_rest,4,3.0,19330.0,140859.0,229929.0,281057.0,264479.0
2026-04-08 21:49:56.462303,242542,1609504168664343,1768631316,0.870592,-0.017568,0.105408,-23.8525,7.4025,-8.5925,-16.288,22.656,1.792,inter_set_rest,4,3.0,19310.0,140797.0,230033.0,281132.0,264541.0
2026-04-08 21:49:56.467256,242543,1609504168673265,1768640087,0.870592,-0.017568,0.105408,-24.0275,8.05,-8.5925,-16.288,22.656,1.792,inter_set_rest,4,3.0,19310.0,140797.0,230033.0,281132.0,264541.0
2026-04-08 21:49:56.501139,242544,1609504168687784,1768652976,0.823744,-0.005856,0.128832,-25.375,9.23125,-8.84625,-16.400002,22.432001,1.784,inter_set_rest,4,3.0,19310.0,140797.0,230033.0,281132.0,264541.0
2026-04-08 21:49:56.506468,242545,1609504168697190,1768663724,0.823744,-0.005856,0.128832,-28.5075,10.75375,-8.505,-16.400002,22.432001,1.784,inter_set_rest,4,3.0,19310.0,140797.0,230033.0,281132.0,264541.0
2026-04-08 21:49:56.507516,242546,1609504168706164,1768672371,0.919392,-0.02928,0.245952,-33.425,11.48875,-8.28625,-16.512001,22.816002,2.128,inter_set_rest,4,3.0,19310.0,140797.0,230033.0,281132.0,264541.0
2026-04-08 21:49:56.510040,242547,1609504168720626,1768687244,0.88816,-0.054656,0.01952,-37.9225,11.20875,-7.69125,-16.512001,22.816002,0.08,inter_set_rest,4,3.0,19310.0,140797.0,230033.0,281132.0,264541.0
2026-04-08 21:49:56.512291,242548,1609504168729592,1768695910,0.880352,-0.054656,0.01952,-41.23,11.90875,-7.88375,-16.152,22.512001,1.808,inter_set_rest,4,3.0,19310.0,140797.0,230033.0,281132.0,264541.0
2026-04-08 21:49:56.514769,242549,1609504168744099,1768710777,0.866688,-0.070272,0.066368,-42.5075,12.69625,-8.417501,-16.368,22.624,1.224,inter_set_rest,4,3.0,19310.0,140797.0,230033.0,281132.0,264541.0
2026-04-08 21:49:56.519787,242550,1609504168753111,1768719467,0.866688,-0.070272,0.066368,-42.63,13.335,-10.07125,-16.368,22.624,1.224,inter_set_rest,4,3.0,19310.0,140797.0,230033.0,281132.0,264541.0
2026-04-08 21:49:56.547208,242561,1609504168762074,1768728275,0.870592,-0.060512,0.0976,-43.19,13.7025,-11.4625,-16.376001,22.968,2.952,inter_set_rest,4,3.0,19217.0,140658.0,230065.0,281209.0,264603.0
2026-04-08 21:49:56.552281,242562,1609504168776613,1768743216,0.870592,-0.060512,0.0976,-42.8925,13.895,-12.2675,-16.376001,22.968,2.952,inter_set_rest,4,3.0,19217.0,140658.0,230065.0,281209.0,264603.0
2026-04-08 21:49:56.554770,242563,1609504168785561,1768751881,0.972096,-0.046848,0.284992,-41.34375,13.895,-13.32625,-16.848001,22.856,2.52,inter_set_rest,4,3.0,19217.0,140658.0,230065.0,281209.0,264603.0
2026-04-08 21:49:56.584911,242564,1609504168800093,1768766782,0.972096,-0.046848,0.284992,-41.4225,13.2825,-15.35625,-16.848001,22.856,2.52,inter_set_rest,4,3.0,19217.0,140658.0,230065.0,281209.0,264603.0
2026-04-08 21:49:56.590051,242565,1609504168809007,1768775439,0.974048,-0.072224,0.044896,-41.055,12.81875,-17.325,-16.648,22.944,0.76,inter_set_rest,4,3.0,19217.0,140658.0,230065.0,281209.0,264603.0
2026-04-08 21:49:56.591332,242566,1609504168823457,1768790277,0.940864,-0.003904,0.247904,-41.16,12.792501,-18.66375,-16.656,22.936,-0.064,inter_set_rest,4,3.0,19217.0,140658.0,230065.0,281209.0,264603.0
2026-04-08 21:49:56.621289,242567,1609504168832462,1768798979,0.940864,-0.003904,0.247904,-43.09375,12.45125,-19.76625,-16.656,22.936,-0.064,inter_set_rest,4,3.0,19217.0,140658.0,230065.0,281209.0,264603.0
2026-04-08 21:49:56.624797,242568,1609504168841398,1768807672,0.925248,0.0,0.28304,-44.695,12.34625,-20.08125,-16.656,22.936,1.984,inter_set_rest,4,3.0,19217.0,140658.0,230065.0,281209.0,264603.0
2026-04-08 21:49:56.654757,242579,1609504168856262,1768822564,0.931104,0.0,0.28304,-44.94,12.32875,-19.1275,-16.608002,22.816002,0.12,inter_set_rest,4,3.0,19053.0,140303.0,229718.0,280953.0,264474.0
2026-04-08 21:49:56.657260,242580,1609504168865246,1768831259,0.923296,-0.037088,0.113216,-45.2025,12.215,-17.99,-16.936,23.184002,-0.56,inter_set_rest,4,3.0,19053.0,140303.0,229718.0,280953.0,264474.0
2026-04-08 21:49:56.659836,242581,1609504168879918,1768846266,0.923296,-0.037088,0.113216,-43.995,12.4775,-17.84125,-16.936,23.184002,-0.56,inter_set_rest,4,3.0,19053.0,140303.0,229718.0,280953.0,264474.0
2026-04-08 21:49:56.662293,242582,1609504168888837,1768854963,0.866688,-0.033184,0.0976,-42.84875,13.08125,-16.77375,-16.856,22.976002,0.176,inter_set_rest,4,3.0,19053.0,140303.0,229718.0,280953.0,264474.0
2026-04-08 21:49:56.670663,242583,1609504168903385,1768869876,0.831552,0.042944,0.247904,-43.58375,13.22125,-15.33,-16.992,22.632002,-1.032,inter_set_rest,4,3.0,19053.0,140303.0,229718.0,280953.0,264474.0
2026-04-08 21:49:56.701190,242584,1609504168912301,1768878609,0.831552,0.042944,0.247904,-44.765,12.92375,-14.60375,-16.992,22.632002,-1.032,inter_set_rest,4,3.0,19053.0,140303.0,229718.0,280953.0,264474.0
2026-04-08 21:49:56.703519,242585,1609504168921218,1768887298,0.831552,0.042944,0.247904,-45.91125,12.20625,-13.92125,-16.992,22.632002,-1.032,inter_set_rest,4,3.0,19053.0,140303.0,229718.0,280953.0,264474.0
2026-04-08 21:49:56.706060,242586,1609504168935775,1768902137,0.90768,0.027328,0.206912,-46.83,11.2875,-13.34375,-17.136002,22.608002,-0.68,inter_set_rest,4,3.0,19053.0,140303.0,229718.0,280953.0,264474.0
2026-04-08 21:49:56.711107,242587,1609504168944763,1768910869,0.823744,0.027328,0.150304,-49.8225,11.55875,-13.23875,-17.312,22.52,0.112,inter_set_rest,4,3.0,19053.0,140303.0,229718.0,280953.0,264474.0
2026-04-08 21:49:56.767302,242598,1609504168959756,1768926026,0.823744,0.027328,0.150304,-54.6,10.85875,-13.72875,-17.312,22.52,0.112,inter_set_rest,4,3.0,19030.0,140357.0,229890.0,281104.0,264553.0
2026-04-08 21:49:56.802426,242599,1609504168968660,1768934726,0.81984,-0.01952,0.035136,-57.72375,10.0975,-13.755,-17.176,22.888,-1.88,inter_set_rest,4,3.0,19030.0,140357.0,229890.0,281104.0,264553.0
2026-04-08 21:49:56.804840,242600,1609504168977532,1768943403,0.81984,-0.01952,0.035136,-58.8,9.3275,-14.41125,-17.176,22.888,-1.88,inter_set_rest,4,3.0,19030.0,140357.0,229890.0,281104.0,264553.0
2026-04-08 21:49:56.807314,242601,1609504168992014,1768958319,0.913536,-0.013664,0.275232,-58.59875,8.93375,-15.1025,-17.216002,22.720001,-2.224,inter_set_rest,4,3.0,19030.0,140357.0,229890.0,281104.0,264553.0
2026-04-08 21:49:56.809753,242602,1609504169000955,1768967025,0.913536,-0.013664,0.275232,-58.26625,8.58375,-15.89875,-17.216002,22.720001,-2.224,inter_set_rest,4,3.0,19030.0,140357.0,229890.0,281104.0,264553.0
2026-04-08 21:49:56.812347,242603,1609504169015454,1768981920,0.88816,0.001952,0.134688,-57.076252,7.65625,-16.0475,-17.448,22.456001,-3.344,inter_set_rest,4,3.0,19030.0,140357.0,229890.0,281104.0,264553.0
2026-04-08 21:49:56.814821,242604,1609504169024446,1768990573,0.9272,0.035136,0.158112,-55.53625,6.9825,-14.91875,-17.488,22.320002,-3.544,inter_set_rest,4,3.0,19030.0,140357.0,229890.0,281104.0,264553.0
2026-04-08 21:49:56.817264,242605,1609504169038923,1769005516,0.9272,0.035136,0.158112,-56.1925,6.2475,-14.035,-17.488,22.320002,-3.544,inter_set_rest,4,3.0,19030.0,140357.0,229890.0,281104.0,264553.0
2026-04-08 21:49:56.819839,242606,1609504169047856,1769014181,0.886208,0.056608,0.220576,-59.045002,5.1625,-14.90125,-17.464,22.640001,-2.408,inter_set_rest,4,3.0,19030.0,140357.0,229890.0,281104.0,264553.0
2026-04-08 21:49:56.849815,242617,1609504169056784,1769022870,0.886208,0.056608,0.220576,-62.072502,4.3225,-15.68,-17.464,22.640001,-2.408,inter_set_rest,4,3.0,18933.0,140177.0,229768.0,281017.0,264494.0
2026-04-08 21:49:56.852357,242618,1609504169071710,1769037833,0.864736,0.031232,0.091744,-64.96875,3.2725,-13.62375,-17.624,22.144001,-2.848,inter_set_rest,4,3.0,18933.0,140177.0,229768.0,281017.0,264494.0
2026-04-08 21:49:56.854770,242619,1609504169080660,1769046529,0.864736,0.031232,0.091744,-67.13,1.96,-12.29375,-17.624,22.144001,-2.848,inter_set_rest,4,3.0,18933.0,140177.0,229768.0,281017.0,264494.0
2026-04-08 21:49:56.861037,242620,1609504169095168,1769061408,0.894016,0.044896,0.22448,-65.135,1.1725,-11.33125,-17.52,22.664001,-3.328,inter_set_rest,4,3.0,18933.0,140177.0,229768.0,281017.0,264494.0
2026-04-08 21:49:56.891254,242621,1609504169104179,1769070118,0.86864,0.007808,0.171776,-60.103752,0.84,-10.6225,-17.76,22.352001,-4.888,inter_set_rest,4,3.0,18933.0,140177.0,229768.0,281017.0,264494.0
2026-04-08 21:49:56.894817,242622,1609504169113089,1769078796,0.86864,0.007808,0.171776,-58.87875,0.4025,-10.33375,-17.76,22.352001,-4.888,inter_set_rest,4,3.0,18933.0,140177.0,229768.0,281017.0,264494.0
2026-04-08 21:49:56.897284,242623,1609504169127568,1769093672,0.86864,0.00976,0.240096,-60.7075,-0.20125,-9.7125,-17.52,22.056002,-5.256,inter_set_rest,4,3.0,18933.0,140177.0,229768.0,281017.0,264494.0
2026-04-08 21:49:56.903363,242624,1609504169136510,1769102386,0.86864,0.00976,0.240096,-61.1275,-1.26875,-8.49625,-17.52,22.056002,-5.256,inter_set_rest,4,3.0,18933.0,140177.0,229768.0,281017.0,264494.0
2026-04-08 21:49:56.932478,242625,1609504169150977,1769117250,0.935008,-0.027328,0.25376,-59.8325,-2.54625,-8.5225,-18.248001,21.872002,-3.504,inter_set_rest,4,3.0,18933.0,140177.0,229768.0,281017.0,264494.0
2026-04-08 21:49:56.964836,242636,1609504169159989,1769125916,0.935008,-0.027328,0.25376,-57.47,-2.485,-9.485,-18.248001,21.872002,-3.504,inter_set_rest,4,3.0,18775.0,139695.0,229239.0,280675.0,264322.0
2026-04-08 21:49:56.967265,242637,1609504169174513,1769140843,0.886208,-0.021472,0.300608,-52.7275,-2.63375,-10.3775,-18.056002,22.024,-6.224001,inter_set_rest,4,3.0,18775.0,139695.0,229239.0,280675.0,264322.0
2026-04-08 21:49:56.969800,242638,1609504169183438,1769149574,0.886208,-0.037088,0.109312,-47.38125,-3.08875,-11.655,-18.056002,22.024,-6.224001,inter_set_rest,4,3.0,18775.0,139695.0,229239.0,280675.0,264322.0
2026-04-08 21:49:56.972280,242639,1609504169192374,1769158286,0.870592,-0.040992,0.109312,-45.96375,-4.13875,-12.88,-17.728,22.136002,-6.336,inter_set_rest,4,3.0,18775.0,139695.0,229239.0,280675.0,264322.0
2026-04-08 21:49:56.974768,242640,1609504169206885,1769173154,0.882304,-0.02928,0.169824,-46.26125,-4.9175,-13.5275,-18.344002,21.768002,-5.784,inter_set_rest,4,3.0,18775.0,139695.0,229239.0,280675.0,264322.0
2026-04-08 21:49:56.981015,242641,1609504169215844,1769181869,0.882304,-0.02928,0.169824,-46.87375,-4.8825,-14.18375,-18.344002,21.768002,-5.784,inter_set_rest,4,3.0,18775.0,139695.0,229239.0,280675.0,264322.0
2026-04-08 21:49:57.011317,242642,1609504169230339,1769196733,0.915488,-0.066368,0.31232,-50.65375,-4.94375,-15.627501,-18.216002,21.672,-6.504,inter_set_rest,4,3.0,18775.0,139695.0,229239.0,280675.0,264322.0
2026-04-08 21:49:57.014803,242643,1609504169239255,1769205386,0.915488,-0.066368,0.31232,-57.015,-4.8825,-16.6775,-18.216002,21.672,-6.504,inter_set_rest,4,3.0,18775.0,139695.0,229239.0,280675.0,264322.0
2026-04-08 21:49:57.021098,242644,1609504169253713,1769220321,0.847168,-0.035136,0.398208,-64.47875,-4.6725,-18.15625,-18.296001,21.736002,-7.416,inter_set_rest,4,3.0,18775.0,139695.0,229239.0,280675.0,264322.0
2026-04-08 21:49:57.051039,242655,1609504169262750,1769229116,0.847168,-0.035136,0.398208,-69.39625,-4.36625,-19.38125,-18.296001,21.736002,-7.416,inter_set_rest,4,3.0,18811.0,139913.0,229567.0,280895.0,264424.0
2026-04-08 21:49:57.053536,242656,1609504169271656,1769237800,0.90768,-0.066368,0.286944,-73.75375,-3.5875,-20.06375,-18.248001,21.048,-5.032,inter_set_rest,4,3.0,18811.0,139913.0,229567.0,280895.0,264424.0
2026-04-08 21:49:57.056043,242657,1609504169286167,1769252734,0.935008,-0.083936,0.464576,-78.18125,-2.2575,-20.78125,-18.744001,20.696001,-7.744,inter_set_rest,4,3.0,18811.0,139913.0,229567.0,280895.0,264424.0
2026-04-08 21:49:57.062379,242658,1609504169295264,1769261395,0.935008,-0.083936,0.464576,-82.29375,-0.83125,-20.08125,-18.744001,20.696001,-7.744,inter_set_rest,4,3.0,18811.0,139913.0,229567.0,280895.0,264424.0
2026-04-08 21:49:57.100227,242659,1609504169309744,1769276335,0.890112,-0.03904,0.476288,-84.1925,0.58625,-15.9425,-18.376001,21.296001,-8.92,inter_set_rest,4,3.0,18811.0,139913.0,229567.0,280895.0,264424.0
2026-04-08 21:49:57.103562,242660,1609504169318660,1769284993,0.890112,-0.03904,0.476288,-78.79375,2.7125,-7.07875,-18.376001,21.296001,-8.92,inter_set_rest,4,3.0,18811.0,139913.0,229567.0,280895.0,264424.0
2026-04-08 21:49:57.106037,242661,1609504169333104,1769299846,0.845216,-0.033184,0.398208,-75.88875,4.94375,-13.448751,-18.880001,20.424002,-9.496,inter_set_rest,4,3.0,18811.0,139913.0,229567.0,280895.0,264424.0
2026-04-08 21:49:57.108455,242662,1609504169342010,1769308496,0.845216,-0.033184,0.398208,-70.41125,6.48375,-19.39875,-18.880001,20.424002,-9.496,inter_set_rest,4,3.0,18811.0,139913.0,229567.0,280895.0,264424.0
2026-04-08 21:49:57.139886,242663,1609504169350943,1769317178,0.8296,-0.042944,0.308416,-63.1225,8.4875,-19.87125,-19.016,20.248001,-8.208,inter_set_rest,4,3.0,18811.0,139913.0,229567.0,280895.0,264424.0
2026-04-08 21:49:57.170994,242674,1609504169365521,1769332296,0.915488,-0.06832,0.466528,-58.6775,10.2725,-19.3375,-19.344002,19.856,-10.864,inter_set_rest,4,3.0,18863.0,139978.0,229501.0,280739.0,264281.0
2026-04-08 21:49:57.173498,242675,1609504169374548,1769340958,0.915488,-0.06832,0.466528,-51.63375,11.68125,-17.87625,-19.344002,19.856,-10.864,inter_set_rest,4,3.0,18863.0,139978.0,229501.0,280739.0,264281.0
2026-04-08 21:49:57.175989,242676,1609504169389099,1769355863,0.983808,-0.13664,0.417728,-40.915,12.67875,-17.24625,-19.136002,19.464,-10.200001,inter_set_rest,4,3.0,18863.0,139978.0,229501.0,280739.0,264281.0
2026-04-08 21:49:57.178540,242677,1609504169398040,1769364610,0.983808,-0.13664,0.417728,-31.52625,13.405,-16.905,-19.136002,19.464,-10.200001,inter_set_rest,4,3.0,18863.0,139978.0,229501.0,280739.0,264281.0
2026-04-08 21:49:57.180987,242678,1609504169412540,1769379557,0.948672,-0.0976,0.349408,-23.17,12.915,-15.8375,-19.448002,19.568,-9.280001,inter_set_rest,4,3.0,18863.0,139978.0,229501.0,280739.0,264281.0
2026-04-08 21:49:57.187277,242679,1609504169421462,1769388261,0.948672,-0.0976,0.349408,-13.09875,12.915,-15.2425,-19.448002,19.568,-9.280001,inter_set_rest,4,3.0,18863.0,139978.0,229501.0,280739.0,264281.0
2026-04-08 21:49:57.217435,242680,1609504169430390,1769396930,0.919392,-0.089792,0.359168,-4.36625,11.87375,-16.4325,-19.28,19.072,-9.080001,inter_set_rest,4,3.0,18863.0,139978.0,229501.0,280739.0,264281.0
2026-04-08 21:49:57.221049,242681,1609504169444860,1769411790,0.919392,-0.089792,0.265472,2.1175,10.85875,-17.0975,-19.28,19.072,-9.080001,inter_set_rest,4,3.0,18863.0,139978.0,229501.0,280739.0,264281.0
2026-04-08 21:49:57.227334,242682,1609504169453845,1769420477,0.901824,-0.08784,0.275232,2.10875,8.2775,-16.63375,-19.528002,19.152,-10.92,inter_set_rest,4,3.0,18863.0,139978.0,229501.0,280739.0,264281.0
2026-04-08 21:49:57.254753,242693,1609504169468420,1769435415,0.786656,-0.103456,0.093696,0.84875,6.55375,-17.84125,-19.664001,19.008001,-9.64,inter_set_rest,4,3.0,18733.0,139387.0,228762.0,280162.0,263921.0
2026-04-08 21:49:57.257195,242694,1609504169477452,1769444119,0.786656,-0.103456,0.093696,1.82875,4.6725,-21.84,-19.664001,19.008001,-9.64,inter_set_rest,4,3.0,18733.0,139387.0,228762.0,280162.0,263921.0
2026-04-08 21:49:57.259733,242695,1609504169492032,1769459047,0.76128,-0.050752,0.222528,2.1175,1.61,-20.5625,-20.216002,18.36,-9.008,inter_set_rest,4,3.0,18733.0,139387.0,228762.0,280162.0,263921.0
2026-04-08 21:49:57.289946,242696,1609504169500921,1769467716,0.76128,-0.050752,0.222528,1.84625,-1.1725,-18.41,-20.216002,18.36,-9.008,inter_set_rest,4,3.0,18733.0,139387.0,228762.0,280162.0,263921.0
2026-04-08 21:49:57.293550,242697,1609504169509815,1769476357,0.728096,-0.056608,0.060512,2.35375,-2.82625,-21.28875,-19.904001,18.336,-9.536,inter_set_rest,4,3.0,18733.0,139387.0,228762.0,280162.0,263921.0
2026-04-08 21:49:57.296036,242698,1609504169524287,1769491241,0.728096,-0.056608,0.060512,5.13625,-5.55625,-26.022501,-19.904001,18.336,-9.536,inter_set_rest,4,3.0,18733.0,139387.0,228762.0,280162.0,263921.0
2026-04-08 21:49:57.299785,242699,1609504169533190,1769499899,0.798368,-0.103456,0.163968,0.455,-9.275,-39.1125,-20.264002,17.984001,-9.304001,inter_set_rest,4,3.0,18733.0,139387.0,228762.0,280162.0,263921.0
2026-04-08 21:49:57.330943,242700,1609504169547694,1769514790,0.83936,-0.074176,0.359168,-9.23125,-10.78875,-43.0675,-20.6,18.264,-9.792001,inter_set_rest,4,3.0,18733.0,139387.0,228762.0,280162.0,263921.0
2026-04-08 21:49:57.333163,242701,1609504169556615,1769523448,0.83936,-0.074176,0.359168,-3.0275,-10.815,-31.0625,-20.6,18.264,-9.792001,inter_set_rest,4,3.0,18733.0,139387.0,228762.0,280162.0,263921.0
2026-04-08 21:49:57.361039,242712,1609504169571114,1769536265,0.796416,-0.089792,0.290848,0.2975,-10.185,-29.60125,-20.904001,17.808,-9.936001,inter_set_rest,4,3.0,18609.0,139196.0,228750.0,280241.0,264020.0
2026-04-08 21:49:57.364563,242713,1609504169580250,1769547048,0.796416,-0.089792,0.290848,-2.82625,-10.78,-39.40125,-20.904001,17.808,-9.936001,inter_set_rest,4,3.0,18609.0,139196.0,228750.0,280241.0,264020.0
2026-04-08 21:49:57.366054,242714,1609504169589279,1769555772,0.769088,-0.072224,0.27328,-7.14,-13.13375,-42.67375,-20.752,17.368,-10.056001,inter_set_rest,4,3.0,18609.0,139196.0,228750.0,280241.0,264020.0
2026-04-08 21:49:57.427404,242715,1609504169603749,1769570676,0.769088,-0.072224,0.27328,-9.4325,-14.752501,-39.935,-20.752,17.368,-10.056001,inter_set_rest,4,3.0,18609.0,139196.0,228750.0,280241.0,264020.0
2026-04-08 21:49:57.429796,242716,1609504169612660,1769579367,0.728096,-0.091744,0.181536,-12.10125,-14.77,-40.55625,-21.152,17.024,-10.264001,inter_set_rest,4,3.0,18609.0,139196.0,228750.0,280241.0,264020.0
2026-04-08 21:49:57.432333,242717,1609504169627139,1769594206,0.745664,-0.080032,0.199104,-14.51625,-14.65625,-42.27125,-21.752,16.888,-12.608001,inter_set_rest,4,3.0,18609.0,139196.0,228750.0,280241.0,264020.0
2026-04-08 21:49:57.443596,242718,1609504169636125,1769602916,0.745664,-0.080032,0.199104,-18.935,-15.2075,-43.05,-21.752,16.888,-12.608001,inter_set_rest,4,3.0,18609.0,139196.0,228750.0,280241.0,264020.0
2026-04-08 21:49:57.446241,242719,1609504169650599,1769615745,0.755424,-0.052704,0.222528,-24.35125,-15.82,-43.4875,-21.800001,16.552,-11.256001,inter_set_rest,4,3.0,18609.0,139196.0,228750.0,280241.0,264020.0
2026-04-08 21:49:57.475999,242730,1609504169659704,1769626528,0.755424,-0.052704,0.222528,-29.37375,-16.63375,-43.8375,-21.800001,16.552,-11.256001,inter_set_rest,4,3.0,18686.0,139678.0,229434.0,280713.0,264276.0
2026-04-08 21:49:57.478577,242731,1609504169669076,1769635193,0.835456,-0.070272,0.316224,-35.5075,-16.75625,-44.89625,-22.152,15.944001,-11.536,inter_set_rest,4,3.0,18686.0,139678.0,229434.0,280713.0,264276.0
2026-04-08 21:49:57.481062,242732,1609504169683552,1769650146,0.835456,-0.070272,0.316224,-42.27125,-16.87875,-45.42125,-22.152,15.944001,-11.536,inter_set_rest,4,3.0,18686.0,139678.0,229434.0,280713.0,264276.0
2026-04-08 21:49:57.483467,242733,1609504169692509,1769658935,0.841312,-0.05856,0.21472,-47.99375,-16.695,-46.50625,-22.512001,15.416,-11.048,inter_set_rest,4,3.0,18686.0,139678.0,229434.0,280713.0,264276.0
2026-04-08 21:49:57.486043,242734,1609504169707113,1769673892,0.919392,-0.054656,0.162016,-50.513752,-17.01875,-47.11875,-22.512001,15.416,-10.744,inter_set_rest,4,3.0,18686.0,139678.0,229434.0,280713.0,264276.0
2026-04-08 21:49:57.488500,242735,1609504169716159,1769682601,0.911584,-0.054656,0.162016,-52.22,-16.835001,-47.4075,-22.640001,15.296001,-10.744,inter_set_rest,4,3.0,18686.0,139678.0,229434.0,280713.0,264276.0
2026-04-08 21:49:57.492295,242736,1609504169725096,1769691270,0.911584,-0.054656,0.162016,-52.22875,-17.28125,-45.605,-22.640001,15.296001,-10.744,inter_set_rest,4,3.0,18686.0,139678.0,229434.0,280713.0,264276.0
2026-04-08 21:49:57.524951,242737,1609504169739618,1769706214,1.057984,-0.05856,0.228384,-48.86875,-16.70375,-43.53125,-23.52,14.6,-10.6,inter_set_rest,4,3.0,18686.0,139678.0,229434.0,280713.0,264276.0
2026-04-08 21:49:57.528586,242738,1609504169748509,1769714878,0.981856,0.023424,0.138592,-46.71625,-15.47,-45.98125,-23.192001,14.224001,-14.064001,inter_set_rest,4,3.0,18686.0,139678.0,229434.0,280713.0,264276.0
2026-04-08 21:49:57.556255,242749,1609504169763104,1769730220,0.981856,0.023424,0.138592,-41.06375,-15.61,-42.02625,-23.192001,14.224001,-14.064001,inter_set_rest,4,3.0,18739.0,139958.0,229768.0,280904.0,264389.0
2026-04-08 21:49:57.562666,242750,1609504169772148,1769738937,1.118496,-0.025376,0.228384,-44.09125,-15.33,-45.2375,-23.616001,14.144001,-12.496,inter_set_rest,4,3.0,18739.0,139958.0,229768.0,280904.0,264389.0
2026-04-08 21:49:57.578653,242751,1609504169781166,1769747657,1.118496,-0.025376,0.228384,-35.11375,-15.51375,-31.12375,-23.616001,14.144001,-12.496,inter_set_rest,4,3.0,18739.0,139958.0,229768.0,280904.0,264389.0
2026-04-08 21:49:57.581063,242752,1609504169795796,1769762637,1.05408,0.052704,0.345504,-30.6775,-15.0675,-27.51,-23.432001,13.400001,-12.792001,inter_set_rest,4,3.0,18739.0,139958.0,229768.0,280904.0,264389.0
2026-04-08 21:49:57.583477,242753,1609504169804725,1769771325,1.05408,0.052704,0.345504,-38.4125,-14.7875,-35.97125,-23.432001,13.400001,-12.792001,inter_set_rest,4,3.0,18739.0,139958.0,229768.0,280904.0,264389.0
2026-04-08 21:49:57.586108,242754,1609504169819245,1769786187,0.970144,0.140544,0.324032,-19.11875,-12.10125,-20.09875,-23.560001,13.384001,-13.768001,inter_set_rest,4,3.0,18739.0,139958.0,229768.0,280904.0,264389.0
2026-04-08 21:49:57.617534,242755,1609504169828182,1769794846,0.977952,0.083936,0.388448,-12.04,-9.9925,-16.72125,-23.560001,13.536,-12.280001,inter_set_rest,4,3.0,18739.0,139958.0,229768.0,280904.0,264389.0
2026-04-08 21:49:57.621104,242756,1609504169842643,1769809718,0.977952,0.083936,0.388448,-4.96125,-7.56875,-12.90625,-23.6,13.536,-12.280001,inter_set_rest,4,3.0,18739.0,139958.0,229768.0,280904.0,264389.0
2026-04-08 21:49:57.623833,242757,1609504169851537,1769818393,0.806176,0.115168,0.386496,5.81,-5.29375,-2.17,-23.576,13.456,-13.880001,inter_set_rest,4,3.0,18739.0,139958.0,229768.0,280904.0,264389.0
2026-04-08 21:49:57.651009,242768,1609504169860451,1769827042,0.806176,0.115168,0.386496,6.81625,-4.92625,3.00125,-23.576,13.456,-13.880001,inter_set_rest,4,3.0,18269.0,138404.0,228065.0,279839.0,263866.0
2026-04-08 21:49:57.653576,242769,1609504169875441,1769842045,0.776896,0.056608,0.203008,13.71125,-4.55,7.88375,-23.344002,14.120001,-13.928,inter_set_rest,4,3.0,18269.0,138404.0,228065.0,279839.0,263866.0
2026-04-08 21:49:57.656047,242770,1609504169884412,1769850755,0.776896,0.056608,0.203008,17.94625,-4.235,11.917501,-23.344002,14.120001,-13.928,inter_set_rest,4,3.0,18269.0,138404.0,228065.0,279839.0,263866.0
2026-04-08 21:49:57.701317,242771,1609504169898932,1769865712,0.815936,0.046848,0.17568,16.9225,-5.10125,16.3275,-23.672,14.192,-14.168,inter_set_rest,4,3.0,18269.0,138404.0,228065.0,279839.0,263866.0
2026-04-08 21:49:57.709637,242772,1609504169907853,1769874381,0.815936,0.046848,0.17568,19.6,-4.5325,22.40875,-23.672,14.192,-14.168,inter_set_rest,4,3.0,18269.0,138404.0,228065.0,279839.0,263866.0
2026-04-08 21:49:57.712702,242773,1609504169916828,1769883065,0.796416,0.023424,0.197152,21.42,-4.48,25.96125,-23.552002,14.440001,-12.912001,inter_set_rest,4,3.0,18269.0,138404.0,228065.0,279839.0,263866.0
2026-04-08 21:49:57.713811,242774,1609504169931296,1769897946,0.835456,-0.011712,0.01952,22.6625,-3.71875,26.71375,-23.112001,14.952001,-14.072001,inter_set_rest,4,3.0,18269.0,138404.0,228065.0,279839.0,263866.0
2026-04-08 21:49:57.715970,242775,1609504169940194,1769906605,0.835456,-0.011712,0.01952,23.7825,-3.94625,27.58,-23.112001,14.952001,-14.072001,inter_set_rest,4,3.0,18269.0,138404.0,228065.0,279839.0,263866.0
2026-04-08 21:49:57.722302,242776,1609504169954657,1769921475,0.835456,0.070272,0.181536,30.07375,-3.99875,28.2275,-23.224,15.272,-13.752001,inter_set_rest,4,3.0,18269.0,138404.0,228065.0,279839.0,263866.0
2026-04-08 21:49:57.752255,242787,1609504169963918,1769930313,0.835456,0.070272,0.181536,42.09625,-3.56125,25.147501,-23.224,15.272,-13.752001,inter_set_rest,4,3.0,18433.0,138955.0,228701.0,280271.0,264089.0
2026-04-08 21:49:57.754797,242788,1609504169978624,1769945297,0.86864,0.00976,0.115168,54.495,-3.26375,23.8,-23.160002,15.464001,-12.616,inter_set_rest,4,3.0,18433.0,138955.0,228701.0,280271.0,264089.0
2026-04-08 21:49:57.757299,242789,1609504169987591,1769953990,0.86864,0.00976,0.115168,58.59875,-3.35125,26.775,-23.160002,15.464001,-12.616,inter_set_rest,4,3.0,18433.0,138955.0,228701.0,280271.0,264089.0
2026-04-08 21:49:57.763595,242790,1609504169996557,1769962672,0.892064,0.050752,0.140544,56.49,-3.9725,29.39125,-22.808,16.536001,-13.952001,inter_set_rest,4,3.0,18433.0,138955.0,228701.0,280271.0,264089.0
2026-04-08 21:49:57.797220,242791,1609504170011052,1769977651,0.899872,0.089792,0.080032,55.92125,-4.12125,29.286251,-22.576,16.688002,-11.848001,inter_set_rest,4,3.0,18433.0,138955.0,228701.0,280271.0,264089.0
2026-04-08 21:49:57.799405,242792,1609504170019946,1769986308,0.899872,0.089792,0.080032,58.31,-3.2725,32.64625,-22.576,16.688002,-11.848001,inter_set_rest,4,3.0,18433.0,138955.0,228701.0,280271.0,264089.0
2026-04-08 21:49:57.803985,242793,1609504170034389,1770001155,0.890112,0.085888,0.015616,61.99375,-2.1525,35.14875,-22.248001,17.488,-12.792001,inter_set_rest,4,3.0,18433.0,138955.0,228701.0,280271.0,264089.0
2026-04-08 21:49:57.832528,242794,1609504170043310,1770009829,0.890112,0.085888,0.015616,59.52625,-1.9775,32.73375,-22.248001,17.488,-12.792001,inter_set_rest,4,3.0,18433.0,138955.0,228701.0,280271.0,264089.0
2026-04-08 21:49:57.837118,242795,1609504170057781,1770024666,0.86864,0.12688,0.056608,53.6025,-2.1875,32.795002,-22.320002,18.528002,-12.336,inter_set_rest,4,3.0,18433.0,138955.0,228701.0,280271.0,264089.0
2026-04-08 21:49:57.865324,242806,1609504170066877,1770033789,0.86864,0.12688,0.056608,50.9775,-3.2375,36.16375,-22.320002,18.528002,-12.336,inter_set_rest,4,3.0,18528.0,139304.0,229042.0,280464.0,264163.0
2026-04-08 21:49:57.868733,242807,1609504170075941,1770042471,0.921344,0.130784,0.054656,51.03875,-3.4125,39.375,-22.000002,18.976002,-12.544001,inter_set_rest,4,3.0,18528.0,139304.0,229042.0,280464.0,264163.0
2026-04-08 21:49:57.870160,242808,1609504170090457,1770057439,1.009184,0.03904,0.099552,56.74375,-2.3975,45.6225,-21.928001,19.984001,-9.904,inter_set_rest,4,3.0,18528.0,139304.0,229042.0,280464.0,264163.0
2026-04-08 21:49:57.871943,242809,1609504170099376,1770066156,1.009184,0.03904,0.099552,52.68375,-2.26625,43.68875,-21.928001,19.984001,-9.904,inter_set_rest,4,3.0,18528.0,139304.0,229042.0,280464.0,264163.0
2026-04-08 21:49:57.902641,242810,1609504170113883,1770081030,0.977952,0.083936,0.15616,52.29875,-1.60125,47.1275,-21.464,20.320002,-9.736,inter_set_rest,4,3.0,18528.0,139304.0,229042.0,280464.0,264163.0
2026-04-08 21:49:57.906034,242811,1609504170122809,1770089690,0.977952,0.083936,0.15616,51.66,-1.05875,53.15625,-21.464,20.320002,-9.736,inter_set_rest,4,3.0,18528.0,139304.0,229042.0,280464.0,264163.0
2026-04-08 21:49:57.908539,242812,1609504170137393,1770102565,0.968192,0.113216,0.259616,52.263752,-1.3475,53.40125,-20.880001,20.912,-11.648001,inter_set_rest,4,3.0,18528.0,139304.0,229042.0,280464.0,264163.0
2026-04-08 21:49:57.913547,242813,1609504170146551,1770113296,0.968192,0.113216,0.259616,57.82,0.16625,51.73,-20.880001,20.912,-11.648001,inter_set_rest,4,3.0,18528.0,139304.0,229042.0,280464.0,264163.0
2026-04-08 21:49:57.943734,242814,1609504170155479,1770121968,0.977952,0.111264,0.199104,60.13,0.315,51.275,-20.528002,21.296001,-9.992001,inter_set_rest,4,3.0,18528.0,139304.0,229042.0,280464.0,264163.0
2026-04-08 21:49:58.008539,242825,1609504170170059,1770136887,0.977952,0.064416,0.222528,54.232502,-0.34125,49.28,-20.528002,21.296001,-9.992001,inter_set_rest,4,3.0,18532.0,139244.0,229013.0,280446.0,264169.0
2026-04-08 21:49:58.011040,242826,1609504170178966,1770145549,1.018944,0.064416,0.222528,42.44625,-1.53125,39.095,-20.032001,22.2,-10.768001,inter_set_rest,4,3.0,18532.0,139244.0,229013.0,280446.0,264169.0
2026-04-08 21:49:58.013503,242827,1609504170193417,1770160472,0.972096,0.095648,0.261568,34.27375,-1.0675,39.445,-19.496,22.776001,-9.592,inter_set_rest,4,3.0,18532.0,139244.0,229013.0,280446.0,264169.0
2026-04-08 21:49:58.016048,242828,1609504170202402,1770169132,0.972096,0.095648,0.261568,39.38375,0.11375,52.885,-19.496,22.776001,-9.592,inter_set_rest,4,3.0,18532.0,139244.0,229013.0,280446.0,264169.0
2026-04-08 21:49:58.018508,242829,1609504170211462,1770177818,0.882304,0.056608,0.115168,39.4625,1.33,53.69875,-19.04,23.296001,-9.528001,inter_set_rest,4,3.0,18532.0,139244.0,229013.0,280446.0,264169.0
2026-04-08 21:49:58.020994,242830,1609504170225956,1770192732,0.882304,0.056608,0.115168,41.97375,2.59,45.325,-19.04,23.296001,-9.528001,inter_set_rest,4,3.0,18532.0,139244.0,229013.0,280446.0,264169.0
2026-04-08 21:49:58.023483,242831,1609504170234856,1770201393,0.864736,0.060512,0.128832,40.52125,2.26625,40.3025,-18.448,23.544,-9.776,inter_set_rest,4,3.0,18532.0,139244.0,229013.0,280446.0,264169.0
2026-04-08 21:49:58.026037,242832,1609504170249413,1770216244,0.864736,0.060512,0.128832,34.81625,1.28625,36.96875,-18.448,23.544,-9.776,inter_set_rest,4,3.0,18532.0,139244.0,229013.0,280446.0,264169.0
2026-04-08 21:49:58.029555,242833,1609504170258363,1770224917,0.89792,0.03904,0.163968,32.59375,0.7525,33.80125,-18.392,24.112001,-10.064,inter_set_rest,4,3.0,18532.0,139244.0,229013.0,280446.0,264169.0
2026-04-08 21:49:58.059749,242844,1609504170272935,1770239874,0.847168,0.02928,0.03904,35.48125,1.785,34.685,-18.160002,24.304,-7.888001,inter_set_rest,4,3.0,18600.0,139517.0,229232.0,280588.0,264236.0
2026-04-08 21:49:58.062315,242845,1609504170281854,1770248599,0.847168,0.02928,0.03904,34.39625,2.98375,33.95875,-18.160002,24.304,-7.888001,inter_set_rest,4,3.0,18600.0,139517.0,229232.0,280588.0,264236.0
2026-04-08 21:49:58.064764,242846,1609504170290775,1770257252,0.847168,0.02928,0.22448,31.272501,3.75375,29.40875,-18.160002,24.304,-7.888001,inter_set_rest,4,3.0,18600.0,139517.0,229232.0,280588.0,264236.0
2026-04-08 21:49:58.095044,242847,1609504170305233,1770272098,0.882304,0.017568,0.22448,30.275,4.06,24.99,-18.184,24.768002,-8.008,inter_set_rest,4,3.0,18600.0,139517.0,229232.0,280588.0,264236.0
2026-04-08 21:49:58.098566,242848,1609504170314168,1770280791,0.929152,0.005856,0.163968,27.44,4.01625,20.81625,-17.816,25.096,-8.88,inter_set_rest,4,3.0,18600.0,139517.0,229232.0,280588.0,264236.0
2026-04-08 21:49:58.101061,242849,1609504170328652,1770295640,0.929152,0.005856,0.163968,26.53875,3.2025,19.92375,-17.816,25.096,-8.88,inter_set_rest,4,3.0,18600.0,139517.0,229232.0,280588.0,264236.0
2026-04-08 21:49:58.103582,242850,1609504170337648,1770304313,0.864736,0.040992,-0.023424,28.6125,3.03625,20.553751,-17.632,25.552002,-8.68,inter_set_rest,4,3.0,18600.0,139517.0,229232.0,280588.0,264236.0
2026-04-08 21:49:58.133702,242851,1609504170352125,1770319191,0.884256,0.00976,0.056608,28.385,2.91375,17.59625,-17.240002,25.760002,-8.304001,inter_set_rest,4,3.0,18600.0,139517.0,229232.0,280588.0,264236.0
2026-04-08 21:49:58.137232,242852,1609504170361049,1770327870,0.884256,0.00976,0.056608,27.0375,2.94875,15.61,-17.240002,25.760002,-8.304001,inter_set_rest,4,3.0,18600.0,139517.0,229232.0,280588.0,264236.0
2026-04-08 21:49:58.167295,242863,1609504170369976,1770336545,0.884256,0.00976,0.056608,22.82875,3.00125,14.60375,-17.240002,25.760002,-8.304001,inter_set_rest,4,3.0,18671.0,139739.0,229480.0,280764.0,264325.0
2026-04-08 21:49:58.171564,242864,1609504170384521,1770351448,0.942816,0.0,0.01952,19.3725,2.4675,12.08375,-17.368,25.816002,-7.648,inter_set_rest,4,3.0,18671.0,139739.0,229480.0,280764.0,264325.0
2026-04-08 21:49:58.173195,242865,1609504170393438,1770360176,0.923296,0.01952,0.140544,16.84375,1.74125,8.636251,-17.248001,26.008001,-8.792001,inter_set_rest,4,3.0,18671.0,139739.0,229480.0,280764.0,264325.0
2026-04-08 21:49:58.174765,242866,1609504170407981,1770375123,0.923296,0.01952,0.140544,13.440001,0.6825,6.1075,-17.248001,26.008001,-8.792001,inter_set_rest,4,3.0,18671.0,139739.0,229480.0,280764.0,264325.0
2026-04-08 21:49:58.205883,242867,1609504170416942,1770383830,0.962336,-0.013664,0.064416,14.93625,0.13125,8.49625,-17.176,25.880001,-8.016001,inter_set_rest,4,3.0,18671.0,139739.0,229480.0,280764.0,264325.0
2026-04-08 21:49:58.210275,242868,1609504170431408,1770396636,0.962336,-0.013664,0.0488,15.5225,-0.7,6.39625,-17.176,25.880001,-8.016001,inter_set_rest,4,3.0,18671.0,139739.0,229480.0,280764.0,264325.0
2026-04-08 21:49:58.211795,242869,1609504170440600,1770407385,0.991616,-0.027328,0.054656,14.72625,-1.54875,2.33625,-17.088001,26.408,-9.896001,inter_set_rest,4,3.0,18671.0,139739.0,229480.0,280764.0,264325.0
2026-04-08 21:49:58.217588,242870,1609504170449506,1770416052,0.991616,-0.027328,0.054656,13.405,-1.54,1.46125,-17.088001,26.408,-9.896001,inter_set_rest,4,3.0,18671.0,139739.0,229480.0,280764.0,264325.0
2026-04-08 21:49:58.311034,242881,1609504170464476,1770430994,0.925248,0.0488,0.07808,11.97875,-2.6425,2.14375,-16.92,25.968,-6.392,inter_set_rest,4,3.0,18677.0,139701.0,229433.0,280724.0,264315.0
2026-04-08 21:49:58.313497,242882,1609504170473508,1770439701,0.9272,-0.005856,0.054656,9.80875,-3.8675,0.56,-17.264,25.968,-6.584,inter_set_rest,4,3.0,18677.0,139701.0,229433.0,280724.0,264315.0
2026-04-08 21:49:58.316015,242883,1609504170488042,1770454576,0.9272,-0.005856,0.054656,8.8025,-4.87375,-0.805,-17.264,25.968,-6.584,inter_set_rest,4,3.0,18677.0,139701.0,229433.0,280724.0,264315.0
2026-04-08 21:49:58.318487,242884,1609504170496988,1770463283,0.929152,-0.035136,0.056608,4.97875,-6.25625,-2.6425,-16.832,25.752,-7.84,inter_set_rest,4,3.0,18677.0,139701.0,229433.0,280724.0,264315.0
2026-04-08 21:49:58.321070,242885,1609504170505908,1770472024,0.929152,-0.035136,0.056608,-0.14,-7.20125,-4.865,-16.832,25.752,-7.84,inter_set_rest,4,3.0,18677.0,139701.0,229433.0,280724.0,264315.0
2026-04-08 21:49:58.323568,242886,1609504170520458,1770486901,0.909632,0.025376,0.101504,-1.70625,-7.35875,-5.83625,-17.528002,26.168001,-6.992,inter_set_rest,4,3.0,18677.0,139701.0,229433.0,280724.0,264315.0
2026-04-08 21:49:58.329774,242887,1609504170529403,1770495561,0.909632,0.025376,0.101504,-0.3325,-7.23625,-6.545,-17.528002,26.168001,-6.992,inter_set_rest,4,3.0,18677.0,139701.0,229433.0,280724.0,264315.0
2026-04-08 21:49:58.332289,242888,1609504170543858,1770510434,0.892064,0.021472,0.064416,-3.64875,-6.825,-8.61875,-17.384,26.048,-7.776001,inter_set_rest,4,3.0,18677.0,139701.0,229433.0,280724.0,264315.0
2026-04-08 21:49:58.334724,242889,1609504170552777,1770519157,0.8784,0.005856,0.15616,-8.5925,-7.44625,-9.35375,-17.384,26.048,-7.784,inter_set_rest,4,3.0,18677.0,139701.0,229433.0,280724.0,264315.0
2026-04-08 21:49:58.364826,242900,1609504170567741,1770534282,0.8784,0.005856,0.15616,-13.74625,-7.98,-10.29875,-17.392,26.384,-7.784,inter_set_rest,4,3.0,18568.0,139428.0,229143.0,280577.0,264257.0
2026-04-08 21:49:58.367288,242901,1609504170576700,1770542986,0.872544,-0.021472,0.10736,-18.52375,-8.75875,-12.04,-17.472,25.872002,-7.344,inter_set_rest,4,3.0,18568.0,139428.0,229143.0,280577.0,264257.0
2026-04-08 21:49:58.369781,242902,1609504170585626,1770551659,0.872544,-0.021472,0.10736,-23.73875,-9.56375,-13.99125,-17.472,25.872002,-7.344,inter_set_rest,4,3.0,18568.0,139428.0,229143.0,280577.0,264257.0
2026-04-08 21:49:58.372200,242903,1609504170600132,1770566537,0.905728,-0.023424,0.095648,-29.4175,-9.6775,-15.32125,-17.584002,25.952002,-7.672,inter_set_rest,4,3.0,18568.0,139428.0,229143.0,280577.0,264257.0
2026-04-08 21:49:58.374749,242904,1609504170609137,1770575297,0.905728,-0.023424,0.095648,-32.69875,-9.835,-16.42375,-17.584002,25.952002,-7.672,inter_set_rest,4,3.0,18568.0,139428.0,229143.0,280577.0,264257.0
2026-04-08 21:49:58.405038,242905,1609504170623618,1770590204,0.88816,-0.02928,0.10736,-34.11625,-9.9575,-17.6225,-17.688002,25.728,-8.264,inter_set_rest,4,3.0,18568.0,139428.0,229143.0,280577.0,264257.0
2026-04-08 21:49:58.408576,242906,1609504170632524,1770598847,0.88816,-0.02928,0.10736,-36.32125,-9.61625,-19.460001,-17.688002,25.728,-8.264,inter_set_rest,4,3.0,18568.0,139428.0,229143.0,280577.0,264257.0
2026-04-08 21:49:58.411039,242907,1609504170641426,1770607520,0.872544,-0.013664,0.056608,-39.94375,-9.9575,-24.29,-17.808,25.28,-9.528001,inter_set_rest,4,3.0,18568.0,139428.0,229143.0,280577.0,264257.0
2026-04-08 21:49:58.441238,242908,1609504170655916,1770622412,0.9272,-0.02928,0.003904,-41.79875,-10.115,-28.28875,-18.304,25.056002,-9.792001,inter_set_rest,4,3.0,18568.0,139428.0,229143.0,280577.0,264257.0
2026-04-08 21:49:58.469777,242919,1609504170664814,1770631042,0.9272,-0.02928,0.003904,-41.65875,-9.77375,-28.04375,-18.304,25.056002,-9.792001,inter_set_rest,4,3.0,18694.0,139859.0,229646.0,280877.0,264392.0
2026-04-08 21:49:58.472244,242920,1609504170679847,1770645946,0.890112,-0.025376,-0.015616,-41.62375,-9.7825,-27.50125,-18.256,25.000002,-10.488001,inter_set_rest,4,3.0,18694.0,139859.0,229646.0,280877.0,264392.0
2026-04-08 21:49:58.474750,242921,1609504170688785,1770654799,0.890112,-0.025376,-0.015616,-43.70625,-9.93125,-29.67125,-18.256,25.000002,-10.488001,inter_set_rest,4,3.0,18694.0,139859.0,229646.0,280877.0,264392.0
2026-04-08 21:49:58.477285,242922,1609504170703354,1770669734,0.911584,-0.03904,0.035136,-45.185,-10.0625,-30.56375,-18.824001,24.232,-9.808001,inter_set_rest,4,3.0,18694.0,139859.0,229646.0,280877.0,264392.0
2026-04-08 21:49:58.479735,242923,1609504170712291,1770678405,0.911584,-0.03904,0.035136,-43.68875,-10.3425,-29.96875,-18.824001,24.232,-9.808001,inter_set_rest,4,3.0,18694.0,139859.0,229646.0,280877.0,264392.0
2026-04-08 21:49:58.486102,242924,1609504170721234,1770687104,0.903776,-0.03904,-0.01952,-43.7675,-10.9375,-32.445,-19.296001,23.976002,-9.736,inter_set_rest,4,3.0,18694.0,139859.0,229646.0,280877.0,264392.0
2026-04-08 21:49:58.517219,242925,1609504170735784,1770701985,0.979904,-0.03904,0.134688,-46.357502,-11.50625,-37.49375,-19.224,23.928001,-11.928,inter_set_rest,4,3.0,18694.0,139859.0,229646.0,280877.0,264392.0
2026-04-08 21:49:58.519384,242926,1609504170744666,1770710638,0.979904,-0.03904,0.134688,-47.04,-10.98125,-39.2875,-19.224,23.928001,-11.928,inter_set_rest,4,3.0,18694.0,139859.0,229646.0,280877.0,264392.0
2026-04-08 21:49:58.527988,242927,1609504170759172,1770725543,0.890112,-0.01952,0.08784,-47.78375,-10.5175,-39.0075,-19.448002,22.896002,-11.792001,inter_set_rest,4,3.0,18694.0,139859.0,229646.0,280877.0,264392.0
2026-04-08 21:49:58.559826,242938,1609504170768195,1770734277,0.890112,-0.01952,0.08784,-47.985,-9.91375,-39.8475,-19.448002,22.896002,-11.792001,inter_set_rest,4,3.0,18685.0,139756.0,229531.0,280748.0,264305.0
2026-04-08 21:49:58.564087,242939,1609504170777185,1770742959,0.952576,-0.035136,0.20496,-48.475,-8.6625,-41.11625,-20.208,22.544,-11.528001,inter_set_rest,4,3.0,18685.0,139756.0,229531.0,280748.0,264305.0
2026-04-08 21:49:58.565786,242940,1609504170791695,1770757859,0.952576,-0.035136,0.20496,-48.48375,-8.3825,-41.37875,-20.208,22.544,-11.528001,inter_set_rest,4,3.0,18685.0,139756.0,229531.0,280748.0,264305.0
2026-04-08 21:49:58.567317,242941,1609504170800614,1770766604,0.93696,-0.042944,0.089792,-46.87375,-7.8225,-41.64125,-20.344002,22.304,-12.696001,inter_set_rest,4,3.0,18685.0,139756.0,229531.0,280748.0,264305.0
2026-04-08 21:49:58.603947,242942,1609504170815106,1770781494,0.915488,0.005856,0.193248,-44.1525,-6.88625,-42.7525,-20.792002,21.672,-15.128,inter_set_rest,4,3.0,18685.0,139756.0,229531.0,280748.0,264305.0
2026-04-08 21:49:58.607356,242943,1609504170824020,1770790180,0.915488,0.005856,0.193248,-44.05625,-5.85375,-43.23375,-20.792002,21.672,-15.128,inter_set_rest,4,3.0,18685.0,139756.0,229531.0,280748.0,264305.0
2026-04-08 21:49:58.609814,242944,1609504170838491,1770805041,0.944768,0.001952,0.220576,-44.72125,-4.795,-41.79875,-20.856,21.728,-13.576,inter_set_rest,4,3.0,18685.0,139756.0,229531.0,280748.0,264305.0
2026-04-08 21:49:58.614907,242945,1609504170847427,1770813698,0.944768,0.001952,0.220576,-46.0075,-3.6575,-39.38375,-20.856,21.728,-13.576,inter_set_rest,4,3.0,18685.0,139756.0,229531.0,280748.0,264305.0
2026-04-08 21:49:58.621093,242946,1609504170856378,1770822418,0.98576,-0.06832,0.046848,-47.90625,-3.465,-38.255,-21.408,20.944,-13.056001,inter_set_rest,4,3.0,18685.0,139756.0,229531.0,280748.0,264305.0
2026-04-08 21:49:58.711085,242957,1609504170871008,1770837372,0.98576,-0.06832,0.046848,-48.5975,-2.45,-37.5725,-21.408,20.944,-13.056001,inter_set_rest,4,3.0,18616.0,139527.0,229226.0,280517.0,264147.0
2026-04-08 21:49:58.713565,242958,1609504170879958,1770846083,1.009184,-0.064416,0.23424,-48.2125,-1.6625,-36.8025,-21.312,20.696001,-14.256001,inter_set_rest,4,3.0,18616.0,139527.0,229226.0,280517.0,264147.0
2026-04-08 21:49:58.716092,242959,1609504170894405,1770861015,1.009184,-0.064416,0.07808,-47.888752,-1.42625,-36.49625,-21.312,20.696001,-14.256001,inter_set_rest,4,3.0,18616.0,139527.0,229226.0,280517.0,264147.0
2026-04-08 21:49:58.718555,242960,1609504170903367,1770869689,0.98576,-0.064416,0.089792,-45.395,0.06125,-37.24,-22.04,20.024,-12.464001,inter_set_rest,4,3.0,18616.0,139527.0,229226.0,280517.0,264147.0
2026-04-08 21:49:58.723530,242961,1609504170917835,1770884566,0.976,-0.017568,0.197152,-40.46,1.49625,-37.3275,-22.160002,19.512001,-14.768001,inter_set_rest,4,3.0,18616.0,139527.0,229226.0,280517.0,264147.0
2026-04-08 21:49:58.726029,242962,1609504170926746,1770893223,0.976,-0.017568,0.197152,-37.47625,2.03,-37.59,-22.160002,19.512001,-14.768001,inter_set_rest,4,3.0,18616.0,139527.0,229226.0,280517.0,264147.0
2026-04-08 21:49:58.728552,242963,1609504170935684,1770901943,0.964288,-0.001952,0.181536,-38.33375,2.065,-36.785,-22.368002,19.184,-15.056001,inter_set_rest,4,3.0,18616.0,139527.0,229226.0,280517.0,264147.0
2026-04-08 21:49:58.731031,242964,1609504170950194,1770916857,0.964288,-0.001952,0.181536,-40.90625,1.365,-35.14,-22.368002,19.184,-15.056001,inter_set_rest,4,3.0,18616.0,139527.0,229226.0,280517.0,264147.0
2026-04-08 21:49:58.733536,242965,1609504170959206,1770925579,0.991616,0.005856,0.181536,-43.46125,0.20125,-33.46,-22.624,18.640001,-13.968,inter_set_rest,4,3.0,18616.0,139527.0,229226.0,280517.0,264147.0
2026-04-08 21:49:58.761028,242976,1609504170973762,1770940583,0.991616,0.005856,0.181536,-42.245,-0.21,-32.99625,-22.624,18.640001,-13.968,inter_set_rest,4,3.0,18589.0,139337.0,229053.0,280371.0,264063.0
2026-04-08 21:49:58.763560,242977,1609504170982689,1770949279,1.003328,-0.02928,0.062464,-39.43625,-0.035,-32.7075,-23.160002,18.624,-16.792002,inter_set_rest,4,3.0,18589.0,139337.0,229053.0,280371.0,264063.0
2026-04-08 21:49:58.766021,242978,1609504170997178,1770964247,1.087264,-0.056608,0.023424,-40.3725,-0.74375,-32.165,-22.952002,17.896,-13.984,inter_set_rest,4,3.0,18589.0,139337.0,229053.0,280371.0,264063.0
2026-04-08 21:49:58.796277,242979,1609504171006151,1770972999,1.087264,-0.056608,0.023424,-42.4025,-2.54625,-31.4475,-22.952002,17.896,-13.984,inter_set_rest,4,3.0,18589.0,139337.0,229053.0,280371.0,264063.0
2026-04-08 21:49:58.799832,242980,1609504171015098,1770981745,1.087264,-0.056608,0.023424,-40.90625,-4.03375,-32.3225,-22.952002,17.896,-13.984,inter_set_rest,4,3.0,18589.0,139337.0,229053.0,280371.0,264063.0
2026-04-08 21:49:58.802291,242981,1609504171029641,1770996603,1.08336,-0.06832,0.027328,-35.638752,-3.7975,-34.1775,-23.392,17.480001,-18.448,inter_set_rest,4,3.0,18589.0,139337.0,229053.0,280371.0,264063.0
2026-04-08 21:49:58.804818,242982,1609504171038543,1771005298,1.011136,-0.044896,0.035136,-32.13,-3.71875,-34.65875,-23.560001,17.224,-16.472,inter_set_rest,4,3.0,18589.0,139337.0,229053.0,280371.0,264063.0
2026-04-08 21:49:58.838467,242983,1609504171053037,1771020217,1.011136,-0.044896,0.035136,-28.315,-2.54625,-33.0925,-23.560001,17.224,-16.472,inter_set_rest,4,3.0,18589.0,139337.0,229053.0,280371.0,264063.0
2026-04-08 21:49:58.840774,242984,1609504171061936,1771028864,0.88816,0.001952,0.056608,-22.37375,-2.7825,-30.3275,-23.800001,16.672,-16.104,inter_set_rest,4,3.0,18589.0,139337.0,229053.0,280371.0,264063.0
2026-04-08 21:49:58.868520,242995,1609504171076609,1771041766,0.798368,-0.001952,0.070272,-16.00375,-2.86125,-28.39375,-24.064001,16.744001,-16.552,inter_set_rest,4,3.0,18524.0,139165.0,228858.0,280224.0,263964.0
2026-04-08 21:49:58.908237,242996,1609504171085892,1771052524,0.798368,-0.001952,0.070272,-8.11125,-2.835,-26.880001,-24.064001,16.744001,-16.552,inter_set_rest,4,3.0,18524.0,139165.0,228858.0,280224.0,263964.0
2026-04-08 21:49:58.912494,242997,1609504171094919,1771061198,0.798368,-0.001952,0.070272,-1.1725,-2.52875,-24.01875,-24.064001,16.744001,-16.552,inter_set_rest,4,3.0,18524.0,139165.0,228858.0,280224.0,263964.0
2026-04-08 21:49:58.914734,242998,1609504171109482,1771076065,0.778848,0.003904,-0.023424,1.11125,-1.91625,-21.13125,-23.736002,16.536001,-18.304,inter_set_rest,4,3.0,18524.0,139165.0,228858.0,280224.0,263964.0
2026-04-08 21:49:58.917344,242999,1609504171118434,1771084780,0.782752,0.083936,0.154208,-0.49875,-1.49625,-18.147501,-24.072,16.592001,-15.776001,inter_set_rest,4,3.0,18524.0,139165.0,228858.0,280224.0,263964.0
2026-04-08 21:49:58.919800,243000,1609504171132888,1771099623,0.782752,0.083936,0.154208,-3.54375,-1.365,-15.02375,-24.072,16.592001,-15.776001,inter_set_rest,4,3.0,18524.0,139165.0,228858.0,280224.0,263964.0
2026-04-08 21:49:58.922244,243001,1609504171141787,1771108273,0.851072,0.056608,0.189344,-7.49875,-0.41125,-12.6525,-23.864,16.416,-16.6,inter_set_rest,4,3.0,18524.0,139165.0,228858.0,280224.0,263964.0
2026-04-08 21:49:58.924780,243002,1609504171150743,1771116937,0.851072,0.056608,0.189344,-10.57875,0.175,-10.325,-23.864,16.416,-16.6,inter_set_rest,4,3.0,18524.0,139165.0,228858.0,280224.0,263964.0
2026-04-08 21:49:58.931210,243003,1609504171165243,1771131896,0.85888,-0.00976,0.199104,-13.825,1.12,-7.76125,-24.04,16.688002,-16.104,inter_set_rest,4,3.0,18524.0,139165.0,228858.0,280224.0,263964.0
2026-04-08 21:49:58.958524,243014,1609504171174215,1771140608,0.85888,-0.00976,0.199104,-17.9725,2.2925,-4.76875,-24.04,16.688002,-16.104,inter_set_rest,4,3.0,18575.0,139440.0,229204.0,280445.0,264102.0
2026-04-08 21:49:58.961016,243015,1609504171188756,1771155522,0.929152,-0.05856,0.152256,-17.07125,3.885,-3.15875,-24.256,16.664001,-15.432001,inter_set_rest,4,3.0,18575.0,139440.0,229204.0,280445.0,264102.0
2026-04-08 21:49:58.963495,243016,1609504171197692,1771164193,1.009184,-0.011712,0.240096,-10.815,5.425,-2.8175,-24.224,16.856,-15.584001,inter_set_rest,4,3.0,18575.0,139440.0,229204.0,280445.0,264102.0
2026-04-08 21:49:58.993697,243017,1609504171212207,1771179058,1.009184,-0.011712,0.240096,-5.4075,6.3175,-0.09625,-24.224,16.856,-15.584001,inter_set_rest,4,3.0,18575.0,139440.0,229204.0,280445.0,264102.0
2026-04-08 21:49:58.997249,243018,1609504171221154,1771187715,0.884256,0.062464,0.105408,-4.57625,7.04375,2.87,-24.160002,17.232,-16.52,inter_set_rest,4,3.0,18575.0,139440.0,229204.0,280445.0,264102.0
2026-04-08 21:49:58.999695,243019,1609504171230041,1771196371,0.884256,0.062464,0.105408,-1.05875,8.5225,9.6775,-24.160002,17.232,-16.52,inter_set_rest,4,3.0,18575.0,139440.0,229204.0,280445.0,264102.0
2026-04-08 21:49:59.030059,243020,1609504171244537,1771211300,0.886208,0.08784,0.158112,7.04375,9.82625,18.50625,-23.608002,17.488,-16.320002,inter_set_rest,4,3.0,18575.0,139440.0,229204.0,280445.0,264102.0
2026-04-08 21:49:59.033592,243021,1609504171253470,1771219969,0.886208,0.08784,0.158112,16.38875,9.31,25.82125,-23.608002,17.488,-16.320002,inter_set_rest,4,3.0,18575.0,139440.0,229204.0,280445.0,264102.0
2026-04-08 21:49:59.061107,243032,1609504171267927,1771234881,0.899872,0.037088,0.027328,26.15375,9.4325,29.9775,-23.416,18.072,-15.832001,inter_set_rest,4,3.0,18669.0,139888.0,229726.0,280812.0,264298.0
2026-04-08 21:49:59.064912,243033,1609504171277428,1771243659,0.899872,0.037088,0.189344,36.47,10.89375,35.105,-23.416,18.072,-15.832001,inter_set_rest,4,3.0,18669.0,139888.0,229726.0,280812.0,264298.0
2026-04-08 21:49:59.066074,243034,1609504171291963,1771258572,0.935008,0.037088,0.189344,46.1125,12.80125,43.5225,-23.624,18.800001,-15.712001,inter_set_rest,4,3.0,18669.0,139888.0,229726.0,280812.0,264298.0
2026-04-08 21:49:59.071273,243035,1609504171300904,1771267234,0.90768,0.035136,0.177632,47.87125,14.21,49.9625,-22.880001,20.208,-14.480001,inter_set_rest,4,3.0,18669.0,139888.0,229726.0,280812.0,264298.0
2026-04-08 21:49:59.098809,243036,1609504171309885,1771275906,0.90768,0.035136,0.177632,41.763752,14.8925,55.6325,-22.880001,20.208,-14.480001,inter_set_rest,4,3.0,18669.0,139888.0,229726.0,280812.0,264298.0
2026-04-08 21:49:59.102362,243037,1609504171324382,1771290844,0.925248,0.101504,0.228384,35.56,14.56,64.25125,-22.008001,20.584002,-16.456001,inter_set_rest,4,3.0,18669.0,139888.0,229726.0,280812.0,264298.0
2026-04-08 21:49:59.104812,243038,1609504171333293,1771299520,0.925248,0.101504,0.228384,32.6375,14.533751,73.7275,-22.008001,20.584002,-16.456001,inter_set_rest,4,3.0,18669.0,139888.0,229726.0,280812.0,264298.0
2026-04-08 21:49:59.135125,243039,1609504171347794,1771314414,0.882304,0.042944,-0.003904,31.87625,14.6475,79.2925,-21.456001,21.472,-14.984001,inter_set_rest,4,3.0,18669.0,139888.0,229726.0,280812.0,264298.0
2026-04-08 21:49:59.138695,243040,1609504171356700,1771323059,0.882304,0.042944,-0.003904,35.76125,14.65625,82.565,-21.456001,21.472,-14.984001,inter_set_rest,4,3.0,18669.0,139888.0,229726.0,280812.0,264298.0
2026-04-08 21:49:59.205109,243051,1609504171371441,1771338147,0.925248,-0.089792,0.089792,37.75625,14.8925,85.435,-20.512001,22.512001,-15.136001,inter_set_rest,4,3.0,18614.0,139832.0,229762.0,280928.0,264440.0
2026-04-08 21:49:59.213690,243052,1609504171380493,1771346859,0.931104,-0.052704,0.150304,36.23375,15.47,84.93625,-19.968,23.688002,-13.888001,inter_set_rest,4,3.0,18614.0,139832.0,229762.0,280928.0,264440.0
2026-04-08 21:49:59.216070,243053,1609504171389519,1771355573,0.931104,-0.052704,0.150304,35.4025,16.47625,85.61875,-19.968,23.688002,-13.888001,inter_set_rest,4,3.0,18614.0,139832.0,229762.0,280928.0,264440.0
2026-04-08 21:49:59.218568,243054,1609504171404070,1771370468,0.976,0.003904,0.21472,32.0075,16.91375,91.13125,-18.904001,24.568,-12.048,inter_set_rest,4,3.0,18614.0,139832.0,229762.0,280928.0,264440.0
2026-04-08 21:49:59.221144,243055,1609504171413036,1771379177,0.976,0.003904,0.21472,27.41375,16.93125,98.76125,-18.904001,24.568,-12.048,inter_set_rest,4,3.0,18614.0,139832.0,229762.0,280928.0,264440.0
2026-04-08 21:49:59.223586,243056,1609504171427539,1771394079,0.940864,-0.095648,0.244,22.2075,15.3475,103.2325,-17.904001,25.480001,-13.344001,inter_set_rest,4,3.0,18614.0,139832.0,229762.0,280928.0,264440.0
2026-04-08 21:49:59.226072,243057,1609504171436433,1771402735,0.940864,-0.095648,0.244,18.6375,13.79,99.4175,-17.904001,25.480001,-13.344001,inter_set_rest,4,3.0,18614.0,139832.0,229762.0,280928.0,264440.0
2026-04-08 21:49:59.230708,243058,1609504171445362,1771411380,0.895968,-0.22448,0.035136,24.045,13.78125,105.90125,-16.616001,26.52,-13.104001,inter_set_rest,4,3.0,18614.0,139832.0,229762.0,280928.0,264440.0
2026-04-08 21:49:59.232026,243059,1609504171459896,1771426299,0.90768,-0.16592,0.249856,26.3025,11.80375,107.371254,-15.432001,27.408,-13.296001,inter_set_rest,4,3.0,18614.0,139832.0,229762.0,280928.0,264440.0
2026-04-08 21:49:59.264812,243070,1609504171468835,1771435036,0.90768,-0.16592,0.249856,29.26875,9.6425,101.7275,-15.432001,27.408,-13.296001,inter_set_rest,4,3.0,18605.0,139904.0,229898.0,281128.0,264567.0
2026-04-08 21:49:59.267244,243071,1609504171483374,1771449968,1.01504,-0.201056,0.267424,35.07875,8.05875,96.78375,-14.504001,28.776001,-11.984,inter_set_rest,4,3.0,18605.0,139904.0,229898.0,281128.0,264567.0
2026-04-08 21:49:59.269807,243072,1609504171492293,1771458739,1.01504,-0.201056,0.267424,39.85625,6.34375,94.12375,-14.504001,28.776001,-11.984,inter_set_rest,4,3.0,18605.0,139904.0,229898.0,281128.0,264567.0
2026-04-08 21:49:59.273512,243073,1609504171506874,1771473611,0.899872,-0.21472,0.093696,43.9425,5.18,98.49875,-13.024,29.208002,-11.784,inter_set_rest,4,3.0,18605.0,139904.0,229898.0,281128.0,264567.0
2026-04-08 21:49:59.303707,243074,1609504171515797,1771482264,0.899872,-0.21472,0.093696,45.29,2.79125,101.33375,-13.024,29.208002,-11.784,inter_set_rest,4,3.0,18605.0,139904.0,229898.0,281128.0,264567.0
2026-04-08 21:49:59.307609,243075,1609504171524747,1771490940,0.938912,-0.203008,0.208864,43.951252,-0.48125,101.10625,-11.912001,29.880001,-10.896001,inter_set_rest,4,3.0,18605.0,139904.0,229898.0,281128.0,264567.0
2026-04-08 21:49:59.310290,243076,1609504171539235,1771505789,0.970144,-0.261568,0.271328,47.41625,-3.22875,98.56875,-11.912001,29.880001,-12.52,inter_set_rest,4,3.0,18605.0,139904.0,229898.0,281128.0,264567.0
2026-04-08 21:49:59.314862,243077,1609504171548179,1771514466,0.968192,-0.261568,0.271328,54.985,-5.29375,92.505,-10.808001,30.400002,-12.52,inter_set_rest,4,3.0,18605.0,139904.0,229898.0,281128.0,264567.0
2026-04-08 21:49:59.345016,243078,1609504171562678,1771529329,0.923296,-0.281088,0.062464,62.02,-5.94125,94.73625,-9.656,31.272001,-10.928,inter_set_rest,4,3.0,18605.0,139904.0,229898.0,281128.0,264567.0
2026-04-08 21:49:59.377303,243089,1609504171571698,1771538066,0.923296,-0.281088,0.062464,56.21875,-7.14,93.52,-9.656,31.272001,-10.928,inter_set_rest,4,3.0,18563.0,139780.0,229823.0,281050.0,264506.0
2026-04-08 21:49:59.379807,243090,1609504171586246,1771553012,0.903776,-0.318176,0.10736,50.295002,-8.1375,89.45125,-8.112,31.928001,-11.120001,inter_set_rest,4,3.0,18563.0,139780.0,229823.0,281050.0,264506.0
2026-04-08 21:49:59.383410,243091,1609504171595194,1771561702,0.903776,-0.318176,0.10736,48.74625,-10.255,88.82125,-8.112,31.928001,-11.120001,inter_set_rest,4,3.0,18563.0,139780.0,229823.0,281050.0,264506.0
2026-04-08 21:49:59.384813,243092,1609504171604221,1771570386,0.880352,-0.281088,0.093696,50.995,-12.22375,93.19625,-7.128,32.872,-8.320001,inter_set_rest,4,3.0,18563.0,139780.0,229823.0,281050.0,264506.0
2026-04-08 21:49:59.389521,243093,1609504171618734,1771585339,0.880352,-0.281088,0.093696,56.035,-14.28875,96.6175,-7.128,32.872,-8.320001,inter_set_rest,4,3.0,18563.0,139780.0,229823.0,281050.0,264506.0
2026-04-08 21:49:59.393675,243094,1609504171627643,1771594003,0.86864,-0.333792,0.238144,55.88625,-16.7475,94.745,-5.712,33.392002,-9.416,inter_set_rest,4,3.0,18563.0,139780.0,229823.0,281050.0,264506.0
2026-04-08 21:49:59.426295,243095,1609504171642133,1771608916,0.843264,-0.3416,0.251808,48.755,-19.73125,91.945,-4.76,33.616,-9.344001,inter_set_rest,4,3.0,18563.0,139780.0,229823.0,281050.0,264506.0
2026-04-08 21:49:59.431612,243096,1609504171651068,1771617574,0.843264,-0.3416,0.251808,37.59,-23.19625,91.7875,-4.76,33.616,-9.344001,inter_set_rest,4,3.0,18563.0,139780.0,229823.0,281050.0,264506.0
2026-04-08 21:49:59.433314,243097,1609504171665561,1771632469,0.874496,-0.472384,0.23424,26.69625,-27.0725,91.91,-2.784,33.672,-8.992001,inter_set_rest,4,3.0,18563.0,139780.0,229823.0,281050.0,264506.0
2026-04-08 21:49:59.461578,243108,1609504171674663,1771641224,0.874496,-0.472384,0.23424,22.9075,-30.26625,95.01625,-2.784,33.672,-8.992001,inter_set_rest,4,3.0,18457.0,139437.0,229462.0,280800.0,264380.0
2026-04-08 21:49:59.464398,243109,1609504171683677,1771649947,0.813984,-0.554368,0.158112,20.895,-33.62625,99.04125,-1.4,33.712,-9.184,inter_set_rest,4,3.0,18457.0,139437.0,229462.0,280800.0,264380.0
2026-04-08 21:49:59.465518,243110,1609504171698243,1771664881,0.813984,-0.554368,0.158112,19.81,-36.96875,99.225,-1.4,33.712,-9.184,inter_set_rest,4,3.0,18457.0,139437.0,229462.0,280800.0,264380.0
2026-04-08 21:49:59.502357,243111,1609504171707179,1771673572,0.80032,-0.519232,0.121024,21.91,-41.60625,97.51,-0.048,34.496002,-10.688001,inter_set_rest,4,3.0,18457.0,139437.0,229462.0,280800.0,264380.0
2026-04-08 21:49:59.504452,243112,1609504171721675,1771688432,0.784704,-0.540704,0.05856,27.4925,-45.59625,94.5875,1.088,34.256,-8.52,inter_set_rest,4,3.0,18457.0,139437.0,229462.0,280800.0,264380.0
2026-04-08 21:49:59.509066,243113,1609504171730600,1771697122,0.784704,-0.540704,0.05856,34.29125,-47.41625,91.0,1.088,34.256,-8.52,inter_set_rest,4,3.0,18457.0,139437.0,229462.0,280800.0,264380.0
2026-04-08 21:49:59.511549,243114,1609504171739508,1771705781,0.784704,-0.540704,0.05856,35.07875,-48.69375,89.06625,1.088,34.256,-8.52,inter_set_rest,4,3.0,18457.0,139437.0,229462.0,280800.0,264380.0
2026-04-08 21:49:59.540054,243115,1609504171754065,1771720640,0.77104,-0.5856,0.099552,29.46125,-50.05,86.77375,2.608,34.496002,-8.064,inter_set_rest,4,3.0,18457.0,139437.0,229462.0,280800.0,264380.0
2026-04-08 21:49:59.544610,243116,1609504171763009,1771729327,0.616832,-0.57584,-0.042944,19.90625,-52.73625,85.5925,3.8,34.776,-8.592,inter_set_rest,4,3.0,18457.0,139437.0,229462.0,280800.0,264380.0
2026-04-08 21:49:59.575714,243127,1609504171777624,1771744264,0.616832,-0.57584,-0.042944,13.9825,-56.76125,86.02125,3.8,34.776,-8.592,inter_set_rest,4,3.0,18185.0,138675.0,228752.0,280426.0,264242.0
2026-04-08 21:49:59.577268,243128,1609504171786583,1771752937,0.669536,-0.607072,0.10736,11.917501,-61.22375,87.1675,5.192,35.016003,-8.248,inter_set_rest,4,3.0,18185.0,138675.0,228752.0,280426.0,264242.0
2026-04-08 21:49:59.581549,243129,1609504171801097,1771767820,0.685152,-0.593408,-0.00976,16.52875,-62.93875,84.88375,5.192,35.016003,-9.952001,inter_set_rest,4,3.0,18185.0,138675.0,228752.0,280426.0,264242.0
2026-04-08 21:49:59.583280,243130,1609504171810117,1771776489,0.685152,-0.593408,-0.00976,18.0775,-62.8425,80.38625,6.08,34.968002,-9.952001,inter_set_rest,4,3.0,18185.0,138675.0,228752.0,280426.0,264242.0
2026-04-08 21:49:59.584840,243131,1609504171819090,1771785258,0.685152,-0.593408,-0.00976,14.63,-60.47125,74.29625,6.08,34.968002,-9.952001,inter_set_rest,4,3.0,18185.0,138675.0,228752.0,280426.0,264242.0
2026-04-08 21:49:59.616014,243132,1609504171833594,1771800170,0.560224,-0.550464,-0.070272,14.4725,-57.37375,70.04375,7.28,35.08,-7.184001,inter_set_rest,4,3.0,18185.0,138675.0,228752.0,280426.0,264242.0
2026-04-08 21:49:59.617397,243133,1609504171842547,1771808837,0.554368,-0.579744,0.03904,12.59125,-57.732502,68.9675,8.672001,34.768,-7.464,inter_set_rest,4,3.0,18185.0,138675.0,228752.0,280426.0,264242.0
2026-04-08 21:49:59.628975,243134,1609504171857015,1771823709,0.554368,-0.579744,0.03904,4.7775,-59.08875,69.69375,8.672001,34.768,-7.464,inter_set_rest,4,3.0,18185.0,138675.0,228752.0,280426.0,264242.0
2026-04-08 21:49:59.632741,243135,1609504171865958,1771832409,0.532896,-0.571936,0.021472,-2.73,-59.228752,66.05375,9.424001,34.760002,-8.088,inter_set_rest,4,3.0,18185.0,138675.0,228752.0,280426.0,264242.0
2026-04-08 21:49:59.667327,243146,1609504171880997,1771847557,0.532896,-0.571936,0.021472,-7.77,-57.697502,59.115,9.424001,34.760002,-8.088,inter_set_rest,4,3.0,17794.0,137480.0,227607.0,279904.0,264103.0
2026-04-08 21:49:59.671599,243147,1609504171889926,1771856297,0.484096,-0.523136,-0.076128,-11.12125,-56.32375,54.83625,10.168,34.792,-8.656,inter_set_rest,4,3.0,17794.0,137480.0,227607.0,279904.0,264103.0
2026-04-08 21:49:59.674084,243148,1609504171898941,1771864966,0.484096,-0.523136,-0.076128,-15.68,-55.37875,53.59375,10.168,34.792,-8.656,inter_set_rest,4,3.0,17794.0,137480.0,227607.0,279904.0,264103.0
2026-04-08 21:49:59.703596,243149,1609504171913473,1771879857,0.532896,-0.593408,-0.163968,-20.9125,-55.27375,51.135,10.648001,34.296,-7.512001,inter_set_rest,4,3.0,17794.0,137480.0,227607.0,279904.0,264103.0
2026-04-08 21:49:59.709097,243150,1609504171922402,1771888568,0.568032,-0.577792,0.115168,-26.27625,-55.30875,46.515,11.704,34.192,-11.096001,inter_set_rest,4,3.0,17794.0,137480.0,227607.0,279904.0,264103.0
2026-04-08 21:49:59.711685,243151,1609504171936886,1771903458,0.568032,-0.577792,0.115168,-28.42,-54.59125,42.1575,11.704,34.192,-11.096001,inter_set_rest,4,3.0,17794.0,137480.0,227607.0,279904.0,264103.0
2026-04-08 21:49:59.712823,243152,1609504171945787,1771912141,0.488,-0.474336,-0.083936,-24.52625,-51.42375,37.275,11.776001,33.760002,-8.72,inter_set_rest,4,3.0,17794.0,137480.0,227607.0,279904.0,264103.0
2026-04-08 21:49:59.741329,243153,1609504171954784,1771920849,0.488,-0.474336,-0.083936,-13.13375,-46.99625,32.9525,11.776001,33.760002,-8.72,inter_set_rest,4,3.0,17794.0,137480.0,227607.0,279904.0,264103.0
2026-04-08 21:49:59.745854,243154,1609504171969297,1771935695,0.476288,-0.488,-0.160064,-8.07625,-44.91375,31.710001,12.72,34.424,-9.008,inter_set_rest,4,3.0,17794.0,137480.0,227607.0,279904.0,264103.0
2026-04-08 21:49:59.804441,243165,1609504171978319,1771944463,0.476288,-0.488,-0.160064,-15.3825,-46.64625,31.08875,12.72,34.424,-9.008,inter_set_rest,4,3.0,17562.0,136825.0,227003.0,279680.0,264102.0
2026-04-08 21:49:59.809126,243166,1609504171992822,1771959399,0.55632,-0.612928,-0.066368,-26.06625,-48.46625,30.1175,12.880001,34.008003,-9.088,inter_set_rest,4,3.0,17562.0,136825.0,227003.0,279680.0,264102.0
2026-04-08 21:49:59.810814,243167,1609504172001792,1771968117,0.55632,-0.612928,0.085888,-34.8075,-50.81125,25.095,12.880001,34.008003,-9.088,inter_set_rest,4,3.0,17562.0,136825.0,227003.0,279680.0,264102.0
2026-04-08 21:49:59.812456,243168,1609504172016312,1771983008,0.646112,-0.755424,0.085888,-40.81875,-51.98375,17.24625,13.176001,33.792,-8.112,inter_set_rest,4,3.0,17562.0,136825.0,227003.0,279680.0,264102.0
2026-04-08 21:49:59.816569,243169,1609504172025251,1771991672,0.687104,-0.640256,0.095648,-38.2025,-52.701252,13.0375,13.816001,33.640003,-9.328,inter_set_rest,4,3.0,17562.0,136825.0,227003.0,279680.0,264102.0
2026-04-08 21:49:59.818246,243170,1609504172034150,1772000334,0.687104,-0.640256,0.095648,-18.5675,-48.7025,9.6425,13.816001,33.640003,-9.328,inter_set_rest,4,3.0,17562.0,136825.0,227003.0,279680.0,264102.0
2026-04-08 21:49:59.819808,243171,1609504172048807,1772015267,0.716384,-0.542656,0.142496,18.34875,-38.33375,1.225,13.728001,33.312,-8.984,inter_set_rest,4,3.0,17562.0,136825.0,227003.0,279680.0,264102.0
2026-04-08 21:49:59.823608,243172,1609504172057721,1772023952,0.716384,-0.542656,0.142496,50.0675,-29.19,-9.5375,13.728001,33.312,-8.984,inter_set_rest,4,3.0,17562.0,136825.0,227003.0,279680.0,264102.0
2026-04-08 21:49:59.879943,243183,1609504172072187,1772038866,0.568032,-0.55632,0.011712,58.16125,-29.0325,-16.77375,13.424001,33.632,-7.984,inter_set_rest,4,3.0,17504.0,136734.0,226980.0,279700.0,264123.0
2026-04-08 21:49:59.884050,243184,1609504172081565,1772047554,0.568032,-0.55632,0.011712,40.17125,-38.2025,-18.40125,13.424001,33.632,-7.984,inter_set_rest,4,3.0,17504.0,136734.0,226980.0,279700.0,264123.0
2026-04-08 21:49:59.885767,243185,1609504172090462,1772056207,0.583648,-0.573888,0.021472,22.67125,-46.3925,-18.795,13.320001,33.52,-7.76,inter_set_rest,4,3.0,17504.0,136734.0,226980.0,279700.0,264123.0
2026-04-08 21:49:59.887452,243186,1609504172104978,1772071134,0.5856,-0.622688,-0.080032,21.42,-46.01625,-21.42,12.76,33.768,-6.736001,inter_set_rest,4,3.0,17504.0,136734.0,226980.0,279700.0,264123.0
2026-04-08 21:49:59.891393,243187,1609504172114012,1772079880,0.5856,-0.622688,-0.080032,27.9475,-42.49,-25.725,12.76,33.768,-6.736001,inter_set_rest,4,3.0,17504.0,136734.0,226980.0,279700.0,264123.0
2026-04-08 21:49:59.897713,243188,1609504172128513,1772094771,0.650016,-0.579744,-0.169824,28.42,-44.87,-28.23625,12.568001,33.792,-6.28,inter_set_rest,4,3.0,17504.0,136734.0,226980.0,279700.0,264123.0
2026-04-08 21:49:59.903971,243189,1609504172137449,1772103461,0.650016,-0.579744,-0.169824,28.35,-48.88625,-28.93625,12.568001,33.792,-6.28,inter_set_rest,4,3.0,17504.0,136734.0,226980.0,279700.0,264123.0
2026-04-08 21:49:59.932594,243190,1609504172151918,1772118332,0.714432,-0.665632,0.044896,34.37,-47.355,-28.56875,12.288,33.792,-5.728,inter_set_rest,4,3.0,17504.0,136734.0,226980.0,279700.0,264123.0
2026-04-08 21:49:59.969748,243191,1609504172160826,1772126999,0.714432,-0.665632,0.044896,23.45,-48.37875,-29.8025,12.288,33.792,-5.728,inter_set_rest,4,3.0,17504.0,136734.0,226980.0,279700.0,264123.0
2026-04-08 21:49:59.978093,243192,1609504172169733,1772135648,0.646112,-0.648064,0.013664,10.99,-47.3725,-39.26125,12.024,33.488003,-6.456,inter_set_rest,4,3.0,17504.0,136734.0,226980.0,279700.0,264123.0
2026-04-08 21:50:00.012069,243203,1609504172184246,1772150542,0.671488,-0.581696,-0.203008,17.22,-45.115,-44.17875,11.160001,33.648003,-7.144001,inter_set_rest,4,3.0,17530.0,136899.0,227164.0,279783.0,264097.0
2026-04-08 21:50:00.013579,243204,1609504172193164,1772159197,0.671488,-0.581696,-0.203008,28.20125,-46.50625,-38.7275,11.160001,33.648003,-7.144001,inter_set_rest,4,3.0,17530.0,136899.0,227164.0,279783.0,264097.0
2026-04-08 21:50:00.017851,243205,1609504172207637,1772174057,0.786656,-0.540704,-0.011712,35.14875,-48.50125,-33.565,11.016001,33.552002,-5.960001,inter_set_rest,4,3.0,17530.0,136899.0,227164.0,279783.0,264097.0
2026-04-08 21:50:00.019515,243206,1609504172216541,1772182722,0.786656,-0.540704,-0.011712,35.9275,-45.8325,-33.06625,11.016001,33.552002,-5.960001,inter_set_rest,4,3.0,17530.0,136899.0,227164.0,279783.0,264097.0
2026-04-08 21:50:00.021048,243207,1609504172231026,1772197615,0.632448,-0.554368,-0.160064,24.78875,-41.4225,-32.12125,10.984,34.024002,-2.608,inter_set_rest,4,3.0,17530.0,136899.0,227164.0,279783.0,264097.0
2026-04-08 21:50:00.025282,243208,1609504172239977,1772206320,0.632448,-0.554368,-0.160064,1.30375,-39.85625,-28.7525,10.984,34.024002,-2.608,inter_set_rest,4,3.0,17530.0,136899.0,227164.0,279783.0,264097.0
2026-04-08 21:50:00.028445,243209,1609504172248924,1772215046,0.589504,-0.548512,-0.042944,-17.40375,-41.83375,-24.4125,10.8,34.112003,-5.808,inter_set_rest,4,3.0,17530.0,136899.0,227164.0,279783.0,264097.0
2026-04-08 21:50:00.031967,243210,1609504172263422,1772229998,0.589504,-0.548512,-0.13664,-22.23375,-41.13375,-20.58875,10.8,34.112003,-5.808,inter_set_rest,4,3.0,17530.0,136899.0,227164.0,279783.0,264097.0
2026-04-08 21:50:00.040172,243211,1609504172272359,1772238755,0.679296,-0.548512,-0.13664,-13.69375,-35.6825,-16.415,10.456,33.992,-4.192,inter_set_rest,4,3.0,17530.0,136899.0,227164.0,279783.0,264097.0
2026-04-08 21:50:00.067885,243222,1609504172286937,1772253657,0.681248,-0.57584,-0.353312,-7.46375,-26.9675,-14.0,10.184,33.928,-5.016,inter_set_rest,4,3.0,17501.0,136831.0,227147.0,279777.0,264116.0
2026-04-08 21:50:00.070571,243223,1609504172295896,1772262343,0.681248,-0.57584,-0.353312,-12.5825,-18.62,-12.81875,10.184,33.928,-5.016,inter_set_rest,4,3.0,17501.0,136831.0,227147.0,279777.0,264116.0
2026-04-08 21:50:00.103502,243224,1609504172310445,1772277216,0.706624,-0.620736,-0.208864,-29.715,-18.24375,-12.04,10.040001,33.312,-5.456,inter_set_rest,4,3.0,17501.0,136831.0,227147.0,279777.0,264116.0
2026-04-08 21:50:00.108226,243225,1609504172319373,1772285908,0.706624,-0.620736,-0.208864,-45.815,-22.3475,-12.4075,10.040001,33.312,-5.456,inter_set_rest,4,3.0,17501.0,136831.0,227147.0,279777.0,264116.0
2026-04-08 21:50:00.111170,243226,1609504172328276,1772294555,0.650016,-0.630496,0.03904,-49.201252,-22.4525,-15.37375,9.96,33.168003,-6.896,inter_set_rest,4,3.0,17501.0,136831.0,227147.0,279777.0,264116.0
2026-04-08 21:50:00.113093,243227,1609504172342741,1772309428,0.650016,-0.630496,0.03904,-38.89375,-17.36875,-18.94375,9.96,33.168003,-6.896,inter_set_rest,4,3.0,17501.0,136831.0,227147.0,279777.0,264116.0
2026-04-08 21:50:00.141350,243228,1609504172351705,1772318119,0.677344,-0.505568,-0.365024,-23.6425,-13.7375,-24.465,9.712001,33.528,-7.224001,inter_set_rest,4,3.0,17501.0,136831.0,227147.0,279777.0,264116.0
2026-04-08 21:50:00.145804,243229,1609504172366207,1772333002,0.677344,-0.433344,-0.249856,-16.75625,-13.755,-29.39125,9.360001,33.208,-7.440001,inter_set_rest,4,3.0,17501.0,136831.0,227147.0,279777.0,264116.0
2026-04-08 21:50:00.179540,243240,1609504172375137,1772342194,0.677344,-0.433344,-0.249856,-19.52125,-16.70375,-24.73625,9.360001,33.208,-7.440001,inter_set_rest,4,3.0,17324.0,136176.0,226409.0,279356.0,263945.0
2026-04-08 21:50:00.182002,243241,1609504172389845,1772355113,0.632448,-0.470432,-0.1464,-25.97,-19.46875,-21.8225,9.224,33.352,-7.848001,inter_set_rest,4,3.0,17324.0,136176.0,226409.0,279356.0,263945.0
2026-04-08 21:50:00.183564,243242,1609504172399217,1772365882,0.632448,-0.470432,-0.1464,-28.69125,-14.971251,-27.125,9.224,33.352,-7.848001,inter_set_rest,4,3.0,17324.0,136176.0,226409.0,279356.0,263945.0
2026-04-08 21:50:00.187894,243243,1609504172408145,1772374561,0.698816,-0.488,-0.216672,-28.455,-10.29,-32.375,8.528001,33.216003,-6.976,inter_set_rest,4,3.0,17324.0,136176.0,226409.0,279356.0,263945.0
2026-04-08 21:50:00.190493,243244,1609504172422633,1772389568,0.698816,-0.488,-0.216672,-32.6725,-6.65875,-33.83625,8.528001,33.216003,-6.976,inter_set_rest,4,3.0,17324.0,136176.0,226409.0,279356.0,263945.0
2026-04-08 21:50:00.218813,243245,1609504172431572,1772398241,0.689056,-0.421632,-0.210816,-42.21,-4.4975,-36.00625,8.312,32.464,-7.376,inter_set_rest,4,3.0,17324.0,136176.0,226409.0,279356.0,263945.0
2026-04-08 21:50:00.223264,243246,1609504172446119,1772413122,0.640256,-0.470432,-0.353312,-54.67875,-3.99,-40.355,7.2,32.600002,-8.992001,inter_set_rest,4,3.0,17324.0,136176.0,226409.0,279356.0,263945.0
2026-04-08 21:50:00.225585,243247,1609504172455047,1772421769,0.640256,-0.470432,-0.353312,-60.89125,-3.1675,-42.06125,7.2,32.600002,-8.992001,inter_set_rest,4,3.0,17324.0,136176.0,226409.0,279356.0,263945.0
2026-04-08 21:50:00.231423,243248,1609504172464022,1772430493,0.640256,-0.470432,-0.353312,-63.81375,-2.73875,-43.98625,7.2,32.600002,-8.992001,inter_set_rest,4,3.0,17324.0,136176.0,226409.0,279356.0,263945.0
2026-04-08 21:50:00.288200,243259,1609504172478999,1772445375,0.765184,-0.62464,-0.142496,-60.2875,-0.53375,-49.42875,6.920001,32.584003,-7.952,inter_set_rest,4,3.0,17414.0,136508.0,226810.0,279595.0,264057.0
2026-04-08 21:50:00.289760,243260,1609504172487978,1772454095,0.909632,-0.33184,-0.121024,-57.54875,4.9875,-52.36,5.984,32.056,-10.088,inter_set_rest,4,3.0,17414.0,136508.0,226810.0,279595.0,264057.0
2026-04-08 21:50:00.294091,243261,1609504172502411,1772468971,0.909632,-0.33184,-0.121024,-36.513752,11.50625,-56.69125,5.984,32.056,-10.088,inter_set_rest,4,3.0,17414.0,136508.0,226810.0,279595.0,264057.0
2026-04-08 21:50:00.295789,243262,1609504172511381,1772477700,0.767136,-0.365024,-0.193248,-25.4275,15.155,-55.15125,5.28,31.760002,-9.656,inter_set_rest,4,3.0,17414.0,136508.0,226810.0,279595.0,264057.0
2026-04-08 21:50:00.297657,243263,1609504172525909,1772492581,0.796416,-0.374784,-0.281088,-43.225,3.01875,-41.92125,5.28,31.12,-10.192,inter_set_rest,4,3.0,17414.0,136508.0,226810.0,279595.0,264057.0
2026-04-08 21:50:00.302661,243264,1609504172534860,1772501285,0.796416,-0.374784,-0.281088,-54.8975,-4.94375,-38.0275,4.88,31.12,-10.192,inter_set_rest,4,3.0,17414.0,136508.0,226810.0,279595.0,264057.0
2026-04-08 21:50:00.331316,243265,1609504172543848,1772509959,0.796416,-0.374784,-0.281088,-57.44375,-6.9825,-39.8125,4.88,31.12,-10.192,inter_set_rest,4,3.0,17414.0,136508.0,226810.0,279595.0,264057.0
2026-04-08 21:50:00.337403,243266,1609504172558321,1772524916,0.694912,-0.3904,-0.388448,-52.38625,-1.53125,-42.06125,4.752,30.592001,-11.080001,inter_set_rest,4,3.0,17414.0,136508.0,226810.0,279595.0,264057.0
2026-04-08 21:50:00.342525,243267,1609504172567253,1772533574,0.661728,-0.324032,-0.382592,-51.555,1.5925,-43.28625,4.096,30.152002,-12.144001,inter_set_rest,4,3.0,17414.0,136508.0,226810.0,279595.0,264057.0
2026-04-08 21:50:00.369165,243278,1609504172581850,1772548532,0.661728,-0.324032,-0.382592,-54.36375,1.89,-42.2275,4.096,30.152002,-12.144001,inter_set_rest,4,3.0,17365.0,136190.0,226399.0,279298.0,263874.0
2026-04-08 21:50:00.407625,243279,1609504172590791,1772557227,0.806176,-0.454816,-0.281088,-55.510002,-0.00875,-41.3,3.368,29.376001,-11.808001,inter_set_rest,4,3.0,17365.0,136190.0,226399.0,279298.0,263874.0
2026-04-08 21:50:00.414110,243280,1609504172605252,1772572115,0.806176,-0.454816,-0.281088,-53.2,-1.68875,-44.7475,3.368,29.376001,-11.808001,inter_set_rest,4,3.0,17365.0,136190.0,226399.0,279298.0,263874.0
2026-04-08 21:50:00.415839,243281,1609504172614297,1772580808,0.64416,-0.544608,-0.417728,-44.7475,-0.25375,-56.21,2.568,28.856,-11.328,inter_set_rest,4,3.0,17365.0,136190.0,226399.0,279298.0,263874.0
2026-04-08 21:50:00.417452,243282,1609504172623226,1772589462,0.64416,-0.544608,-0.417728,-43.6275,2.9575,-63.49,2.568,28.856,-11.328,inter_set_rest,4,3.0,17365.0,136190.0,226399.0,279298.0,263874.0
2026-04-08 21:50:00.421607,243283,1609504172637716,1772604309,0.843264,-0.515328,-0.823744,-32.85625,-6.74625,-64.14625,2.32,27.976002,-13.440001,inter_set_rest,4,3.0,17365.0,136190.0,226399.0,279298.0,263874.0
2026-04-08 21:50:00.424066,243284,1609504172646630,1772612968,1.333216,-0.480192,-0.41968,-8.05,-23.82625,-60.82125,2.32,27.976002,-12.608001,inter_set_rest,4,3.0,17365.0,136190.0,226399.0,279298.0,263874.0
2026-04-08 21:50:00.430436,243285,1609504172661192,1772627997,1.333216,-0.480192,-0.41968,1.9075,-24.3075,-38.01,1.736,27.976002,-12.608001,inter_set_rest,4,3.0,17365.0,136190.0,226399.0,279298.0,263874.0
2026-04-08 21:50:00.458787,243286,1609504172670102,1772636727,1.411296,-0.534848,-0.435296,22.00625,-20.95625,-27.44875,1.736,27.848001,-12.632001,inter_set_rest,4,3.0,17365.0,136190.0,226399.0,279298.0,263874.0
2026-04-08 21:50:00.493558,243298,1609504172679583,1772645892,1.411296,-0.534848,-0.435296,5.43375,-20.36125,-18.54125,1.736,27.848001,-12.632001,inter_set_rest,4,3.0,17895.0,138362.0,228899.0,280811.0,264561.0
2026-04-08 21:50:00.496200,243299,1609504172694059,1772660737,1.342976,-0.324032,-0.437248,-28.11375,-35.39375,10.64,1.936,27.04,-13.896001,inter_set_rest,4,3.0,17895.0,138362.0,228899.0,280811.0,264561.0
2026-04-08 21:50:00.498545,243300,1609504172702987,1772669418,1.342976,-0.324032,-0.437248,-38.75375,-44.275,28.67375,1.936,27.04,-13.896001,inter_set_rest,4,3.0,17895.0,138362.0,228899.0,280811.0,264561.0
2026-04-08 21:50:00.501037,243301,1609504172717540,1772684324,1.124352,-0.242048,-0.20496,-43.5225,-51.607502,28.665,1.896,27.312002,-13.448001,inter_set_rest,4,3.0,17895.0,138362.0,228899.0,280811.0,264561.0
2026-04-08 21:50:00.503564,243302,1609504172726498,1772693019,1.124352,-0.242048,-0.20496,-38.15,-45.10625,26.92375,1.896,27.312002,-13.448001,inter_set_rest,4,3.0,17895.0,138362.0,228899.0,280811.0,264561.0
2026-04-08 21:50:00.508239,243303,1609504172741020,1772707934,0.856928,-0.226432,-0.392352,-1.18125,-27.01125,13.93875,2.08,26.624,-11.656,inter_set_rest,4,3.0,17895.0,138362.0,228899.0,280811.0,264561.0
2026-04-08 21:50:00.540033,243304,1609504172749978,1772716593,0.726144,-0.394304,-0.513376,9.765,-16.4325,0.56875,2.416,26.392002,-12.072001,inter_set_rest,4,3.0,17895.0,138362.0,228899.0,280811.0,264561.0
2026-04-08 21:50:00.543642,243305,1609504172758901,1772725270,0.726144,-0.394304,-0.513376,-19.678751,-20.7375,-5.13625,2.416,26.392002,-12.072001,inter_set_rest,4,3.0,17895.0,138362.0,228899.0,280811.0,264561.0
2026-04-08 21:50:00.546082,243306,1609504172773359,1772740176,0.792512,-0.569984,-0.353312,-65.21375,-26.22375,-11.06875,2.208,26.000002,-13.664001,inter_set_rest,4,3.0,17895.0,138362.0,228899.0,280811.0,264561.0
2026-04-08 21:50:00.577344,243317,1609504172782401,1772748869,0.792512,-0.569984,-0.353312,-82.25,-26.145,-17.87625,2.208,26.000002,-13.664001,inter_set_rest,4,3.0,19548.0,141693.0,230809.0,281187.0,264157.0
2026-04-08 21:50:00.579779,243318,1609504172796949,1772763793,0.882304,-0.75152,-0.415776,-69.3875,-21.84,-27.86875,1.488,25.648,-13.040001,inter_set_rest,4,3.0,19548.0,141693.0,230809.0,281187.0,264157.0
2026-04-08 21:50:00.583405,243319,1609504172805948,1772772536,0.882304,-0.75152,-0.415776,-37.47625,-12.73125,-37.1,1.488,25.648,-13.040001,inter_set_rest,4,3.0,19548.0,141693.0,230809.0,281187.0,264157.0
2026-04-08 21:50:00.585388,243320,1609504172814888,1772781264,0.808128,-0.616832,-0.52704,-8.58375,-2.87875,-40.38125,1.576,25.352001,-15.352001,inter_set_rest,4,3.0,19548.0,141693.0,230809.0,281187.0,264157.0
2026-04-08 21:50:00.617552,243321,1609504172829441,1772796151,0.735904,-0.372832,-0.324032,17.0625,3.91125,-34.3875,1.672,25.576002,-12.68,inter_set_rest,4,3.0,19548.0,141693.0,230809.0,281187.0,264157.0
2026-04-08 21:50:00.621083,243322,1609504172838329,1772804812,0.735904,-0.372832,-0.324032,24.08875,4.80375,-25.15625,1.672,25.576002,-12.68,inter_set_rest,4,3.0,19548.0,141693.0,230809.0,281187.0,264157.0
2026-04-08 21:50:00.623528,243323,1609504172852754,1772819656,0.794464,-0.437248,-0.4392,30.77375,2.2925,-21.76125,1.016,25.416,-13.352,inter_set_rest,4,3.0,19548.0,141693.0,230809.0,281187.0,264157.0
2026-04-08 21:50:00.628620,243324,1609504172861708,1772828323,0.794464,-0.437248,-0.4392,19.1975,0.8575,-24.885,1.016,25.416,-13.352,inter_set_rest,4,3.0,19548.0,141693.0,230809.0,281187.0,264157.0
2026-04-08 21:50:00.723580,243335,1609504172876238,1772843187,0.710528,-0.601216,-0.532896,15.785,-7.18375,-35.07,0.688,25.352001,-13.296001,inter_set_rest,4,3.0,20827.0,144578.0,232985.0,282438.0,264775.0
2026-04-08 21:50:00.726123,243336,1609504172885195,1772851865,0.710528,-0.601216,-0.532896,21.28,-4.83875,-48.51875,0.688,25.352001,-13.296001,inter_set_rest,4,3.0,20827.0,144578.0,232985.0,282438.0,264775.0
2026-04-08 21:50:00.728548,243337,1609504172894182,1772860537,0.886208,-0.388448,-0.36112,30.94875,-1.19,-52.263752,0.032,25.472002,-12.920001,inter_set_rest,4,3.0,20827.0,144578.0,232985.0,282438.0,264775.0
2026-04-08 21:50:00.731065,243338,1609504172908879,1772875430,0.837408,-0.286944,-0.450912,37.9575,3.7975,-53.235,-0.504,25.240002,-14.56,inter_set_rest,4,3.0,20827.0,144578.0,232985.0,282438.0,264775.0
2026-04-08 21:50:00.733555,243339,1609504172917805,1772884093,0.837408,-0.286944,-0.450912,57.81125,8.88125,-53.64625,-0.504,25.240002,-14.56,inter_set_rest,4,3.0,20827.0,144578.0,232985.0,282438.0,264775.0
2026-04-08 21:50:00.736102,243340,1609504172932262,1772898950,0.83936,-0.244,-0.1464,64.32125,12.32875,-44.59875,-1.008,25.616001,-12.344001,inter_set_rest,4,3.0,20827.0,144578.0,232985.0,282438.0,264775.0
2026-04-08 21:50:00.738570,243341,1609504172941152,1772907612,0.83936,-0.244,-0.1464,52.9375,13.76375,-31.85,-1.008,25.616001,-12.344001,inter_set_rest,4,3.0,20827.0,144578.0,232985.0,282438.0,264775.0
2026-04-08 21:50:00.741081,243342,1609504172955650,1772922512,0.81008,-0.27328,-0.327936,28.49875,11.6725,-25.025,-1.384,25.808,-9.968,inter_set_rest,4,3.0,20827.0,144578.0,232985.0,282438.0,264775.0
2026-04-08 21:50:00.743536,243343,1609504172964601,1772931201,0.81008,-0.27328,-0.327936,7.60375,9.345,-25.55,-1.384,25.808,-9.968,inter_set_rest,4,3.0,20827.0,144578.0,232985.0,282438.0,264775.0
2026-04-08 21:50:00.746241,243344,1609504172973573,1772939884,0.831552,-0.269376,-0.366976,-3.21125,9.59875,-23.54625,-1.408,25.744001,-12.088,inter_set_rest,4,3.0,20827.0,144578.0,232985.0,282438.0,264775.0
2026-04-08 21:50:00.779742,243355,1609504172988322,1772954859,0.831552,-0.269376,-0.491904,-1.84625,8.68,-25.8475,-1.408,25.744001,-12.088,inter_set_rest,4,3.0,20270.0,143918.0,233562.0,283424.0,265664.0
2026-04-08 21:50:00.782282,243356,1609504172997397,1772963633,0.845216,-0.25376,-0.488,-4.4625,8.0325,-26.81,-1.912,25.168001,-12.200001,inter_set_rest,4,3.0,20270.0,143918.0,233562.0,283424.0,265664.0
2026-04-08 21:50:00.784796,243357,1609504173012022,1772978523,1.057984,-0.103456,-0.493856,-3.22,6.93875,-28.28,-2.52,25.072,-10.864,inter_set_rest,4,3.0,20270.0,143918.0,233562.0,283424.0,265664.0
2026-04-08 21:50:00.787302,243358,1609504173020918,1772987164,1.057984,-0.103456,-0.493856,-0.18375,7.84,-32.095,-2.52,25.072,-10.864,inter_set_rest,4,3.0,20270.0,143918.0,233562.0,283424.0,265664.0
2026-04-08 21:50:00.817570,243359,1609504173035462,1773002062,0.976,-0.386496,-0.476288,26.11875,6.67625,-59.85,-2.912,25.376001,-10.576,inter_set_rest,4,3.0,20270.0,143918.0,233562.0,283424.0,265664.0
2026-04-08 21:50:00.821112,243360,1609504173044393,1773010751,0.976,-0.386496,-0.476288,37.68625,20.3525,-69.615,-2.912,25.376001,-10.576,inter_set_rest,4,3.0,20270.0,143918.0,233562.0,283424.0,265664.0
2026-04-08 21:50:00.823597,243361,1609504173053290,1773019403,0.95648,-0.343552,-0.230336,26.22375,20.475,-39.71625,-3.208,25.072,-11.552001,inter_set_rest,4,3.0,20270.0,143918.0,233562.0,283424.0,265664.0
2026-04-08 21:50:00.853815,243362,1609504173067779,1773034318,0.95648,-0.343552,-0.230336,31.1675,15.42625,-19.46875,-3.208,25.072,-11.552001,inter_set_rest,4,3.0,20270.0,143918.0,233562.0,283424.0,265664.0
2026-04-08 21:50:00.857325,243363,1609504173076704,1773042996,0.806176,-0.52704,-0.28304,13.67625,19.18,-6.93,-3.28,25.008001,-10.128,inter_set_rest,4,3.0,20270.0,143918.0,233562.0,283424.0,265664.0
2026-04-08 21:50:00.888119,243374,1609504173091200,1773057915,0.794464,-0.54656,-0.415776,3.7975,18.48875,-3.26375,-3.448,24.928001,-11.152,inter_set_rest,4,3.0,20281.0,143737.0,233176.0,283008.0,265348.0
2026-04-08 21:50:00.888935,243375,1609504173100113,1773066587,0.794464,-0.54656,-0.415776,3.07125,19.3375,-7.77,-3.448,24.928001,-11.152,inter_set_rest,4,3.0,20281.0,143737.0,233176.0,283008.0,265348.0
2026-04-08 21:50:00.893658,243376,1609504173114684,1773081519,0.823744,-0.476288,-0.306464,18.9525,25.3575,-21.3325,-3.6,25.28,-10.288,inter_set_rest,4,3.0,20281.0,143737.0,233176.0,283008.0,265348.0
2026-04-08 21:50:00.895675,243377,1609504173123609,1773090246,0.823744,-0.476288,-0.306464,44.0825,29.89875,-33.6875,-3.6,25.28,-10.288,inter_set_rest,4,3.0,20281.0,143737.0,233176.0,283008.0,265348.0
2026-04-08 21:50:00.898886,243378,1609504173132578,1773098932,0.976,-0.349408,-0.232288,53.19125,32.08625,-35.28,-4.032,24.992,-9.864,inter_set_rest,4,3.0,20281.0,143737.0,233176.0,283008.0,265348.0
2026-04-08 21:50:00.928703,243379,1609504173147091,1773113867,0.976,-0.349408,-0.232288,61.24125,30.49375,-30.56375,-4.032,24.992,-9.864,inter_set_rest,4,3.0,20281.0,143737.0,233176.0,283008.0,265348.0
2026-04-08 21:50:00.932223,243380,1609504173156015,1773122537,1.026752,-0.242048,-0.38064,68.845,29.39125,-25.57625,-4.216,25.144001,-9.528001,inter_set_rest,4,3.0,20281.0,143737.0,233176.0,283008.0,265348.0
2026-04-08 21:50:00.944822,243381,1609504173170481,1773137377,1.028704,-0.093696,-0.251808,75.06625,29.18125,-21.455,-4.504,25.408,-9.184,inter_set_rest,4,3.0,20281.0,143737.0,233176.0,283008.0,265348.0
2026-04-08 21:50:01.011017,243392,1609504173179415,1773146515,1.028704,-0.093696,-0.251808,86.808754,28.848751,-24.15875,-4.504,25.408,-9.184,inter_set_rest,4,3.0,19505.0,141922.0,232074.0,282960.0,265786.0
2026-04-08 21:50:01.013532,243393,1609504173193961,1773159329,0.925248,-0.005856,-0.113216,102.375,30.205,-30.0125,-5.048,25.376001,-7.424,inter_set_rest,4,3.0,19505.0,141922.0,232074.0,282960.0,265786.0
2026-04-08 21:50:01.016018,243394,1609504173203390,1773170136,0.925248,-0.005856,-0.113216,121.24875,30.87,-33.9325,-5.048,25.376001,-7.424,inter_set_rest,4,3.0,19505.0,141922.0,232074.0,282960.0,265786.0
2026-04-08 21:50:01.018491,243395,1609504173212301,1773178809,0.974048,-0.070272,-0.277184,131.845,32.92625,-35.0175,-4.976,25.944002,-6.688,inter_set_rest,4,3.0,19505.0,141922.0,232074.0,282960.0,265786.0
2026-04-08 21:50:01.020986,243396,1609504173226786,1773193701,0.974048,-0.070272,-0.277184,130.795,31.96375,-30.52875,-4.976,25.944002,-6.688,inter_set_rest,4,3.0,19505.0,141922.0,232074.0,282960.0,265786.0
2026-04-08 21:50:01.023448,243397,1609504173235715,1773202349,1.085312,-0.122976,-0.267424,114.695,27.2125,-22.085001,-5.256,25.640001,-5.888001,inter_set_rest,4,3.0,19505.0,141922.0,232074.0,282960.0,265786.0
2026-04-08 21:50:01.025982,243398,1609504173250223,1773217281,1.085312,-0.144448,-0.388448,90.825,22.58375,-15.7325,-5.256,25.640001,-5.888001,inter_set_rest,4,3.0,19505.0,141922.0,232074.0,282960.0,265786.0
2026-04-08 21:50:01.028557,243399,1609504173259133,1773225951,1.022848,-0.144448,-0.388448,71.155,19.03125,-14.35,-5.304,26.096,-7.008,inter_set_rest,4,3.0,19505.0,141922.0,232074.0,282960.0,265786.0
2026-04-08 21:50:01.034835,243400,1609504173268084,1773234629,1.022848,-0.144448,-0.388448,56.49875,13.58875,-10.59625,-5.304,26.096,-7.008,inter_set_rest,4,3.0,19505.0,141922.0,232074.0,282960.0,265786.0
2026-04-08 21:50:01.097415,243411,1609504173283211,1773249598,1.08336,-0.16592,-0.26352,42.4025,12.31125,-10.115,-4.944,25.728,-4.656,inter_set_rest,4,3.0,19243.0,141738.0,232151.0,283142.0,265953.0
2026-04-08 21:50:01.099853,243412,1609504173292126,1773258269,1.114592,-0.193248,-0.17568,36.25125,14.69125,-8.0675,-4.784,25.456001,-2.424,inter_set_rest,4,3.0,19243.0,141738.0,232151.0,283142.0,265953.0
2026-04-08 21:50:01.102440,243413,1609504173306600,1773273149,1.114592,-0.193248,-0.17568,37.52875,18.8475,-1.855,-4.784,25.456001,-2.424,inter_set_rest,4,3.0,19243.0,141738.0,232151.0,283142.0,265953.0
2026-04-08 21:50:01.104783,243414,1609504173315524,1773281854,1.0736,-0.206912,-0.121024,40.1625,21.7175,8.33875,-4.296,25.792002,-3.384,inter_set_rest,4,3.0,19243.0,141738.0,232151.0,283142.0,265953.0
2026-04-08 21:50:01.109847,243415,1609504173324498,1773290517,1.0736,-0.206912,-0.121024,38.745,24.4475,17.7625,-4.296,25.792002,-3.384,inter_set_rest,4,3.0,19243.0,141738.0,232151.0,283142.0,265953.0
2026-04-08 21:50:01.112334,243416,1609504173339010,1773305510,1.0248,-0.232288,-0.16592,35.81375,27.67625,20.8425,-3.528,25.824001,-3.312,inter_set_rest,4,3.0,19243.0,141738.0,232151.0,283142.0,265953.0
2026-04-08 21:50:01.114910,243417,1609504173347991,1773314191,1.0248,-0.232288,-0.16592,33.22375,30.8875,20.79875,-3.528,25.824001,-3.312,inter_set_rest,4,3.0,19243.0,141738.0,232151.0,283142.0,265953.0
2026-04-08 21:50:01.144983,243418,1609504173362464,1773329058,0.96624,-0.216672,-0.167872,28.8225,33.013752,21.02625,-3.528,25.984001,-1.576,inter_set_rest,4,3.0,19243.0,141738.0,232151.0,283142.0,265953.0
2026-04-08 21:50:01.149059,243419,1609504173371358,1773337714,1.028704,-0.89792,0.925248,22.49625,34.50125,20.475,-3.528,28.032001,-2.824,inter_set_rest,4,3.0,19243.0,141738.0,232151.0,283142.0,265953.0
2026-04-08 21:50:01.178503,243430,1609504173385956,1773352621,1.028704,-0.89792,0.925248,15.53125,55.72,29.95125,-2.664,26.760002,-2.824,inter_set_rest,4,3.0,18462.0,139771.0,230466.0,282352.0,265682.0
2026-04-08 21:50:01.181025,243431,1609504173394946,1773361325,0.778848,-0.363072,-1.022848,-1.82,82.32,73.92,-1.336,27.072,-1.968,inter_set_rest,4,3.0,18462.0,139771.0,230466.0,282352.0,265682.0
2026-04-08 21:50:01.183536,243432,1609504173403884,1773370129,0.778848,-0.363072,-1.022848,-24.29875,35.49,95.59375,-1.336,27.072,-1.968,inter_set_rest,4,3.0,18462.0,139771.0,230466.0,282352.0,265682.0
2026-04-08 21:50:01.185922,243433,1609504173418409,1773385018,1.202432,-0.284992,0.06832,-20.34375,44.89625,39.13,-1.344,27.240002,0.8,inter_set_rest,4,3.0,18462.0,139771.0,230466.0,282352.0,265682.0
2026-04-08 21:50:01.236270,243434,1609504173427399,1773393733,1.202432,-0.284992,0.06832,42.420002,75.67,-0.46375,-1.344,27.240002,0.8,inter_set_rest,4,3.0,18462.0,139771.0,230466.0,282352.0,265682.0
2026-04-08 21:50:01.239807,243435,1609504173441860,1773408588,1.13216,-0.681248,-0.0488,87.9725,69.125,24.29875,-0.416,27.528002,-0.968,inter_set_rest,4,3.0,18462.0,139771.0,230466.0,282352.0,265682.0
2026-04-08 21:50:01.242317,243436,1609504173450762,1773417238,1.13216,-0.681248,-0.0488,98.63875,77.07,63.76125,-0.416,27.528002,-0.968,inter_set_rest,4,3.0,18462.0,139771.0,230466.0,282352.0,265682.0
2026-04-08 21:50:01.244832,243437,1609504173465234,1773432084,0.88816,-0.51728,-0.18544,107.590004,83.62375,75.97625,0.784,28.328001,-0.656,inter_set_rest,4,3.0,18462.0,139771.0,230466.0,282352.0,265682.0
2026-04-08 21:50:01.247329,243438,1609504173474134,1773440730,0.85888,-0.386496,-0.109312,117.6,78.91625,55.4575,1.192,28.728,1.4,inter_set_rest,4,3.0,18462.0,139771.0,230466.0,282352.0,265682.0
2026-04-08 21:50:01.311090,243449,1609504173483601,1773449447,0.85888,-0.386496,-0.109312,126.02625,69.405,43.7675,1.192,28.728,1.4,inter_set_rest,4,3.0,18500.0,140249.0,231122.0,282824.0,265900.0
2026-04-08 21:50:01.312111,243450,1609504173498232,1773464321,0.794464,-0.18544,-0.091744,116.1475,60.66375,47.845,1.76,29.112001,2.648,inter_set_rest,4,3.0,18500.0,140249.0,231122.0,282824.0,265900.0
2026-04-08 21:50:01.317036,243451,1609504173507212,1773472982,0.794464,-0.18544,-0.091744,103.3375,52.9025,41.055,1.76,29.112001,2.648,inter_set_rest,4,3.0,18500.0,140249.0,231122.0,282824.0,265900.0
2026-04-08 21:50:01.318460,243452,1609504173521703,1773487858,0.737856,-0.3416,-0.201056,89.6175,46.69,30.0825,2.4,29.016,3.512,inter_set_rest,4,3.0,18500.0,140249.0,231122.0,282824.0,265900.0
2026-04-08 21:50:01.321930,243453,1609504173530578,1773496509,0.737856,-0.3416,-0.201056,67.6025,38.33375,30.52875,2.4,29.016,3.512,inter_set_rest,4,3.0,18500.0,140249.0,231122.0,282824.0,265900.0
2026-04-08 21:50:01.324452,243454,1609504173539488,1773505171,0.831552,-0.407968,-0.046848,47.18,28.735,39.62875,2.688,29.392002,4.96,inter_set_rest,4,3.0,18500.0,140249.0,231122.0,282824.0,265900.0
2026-04-08 21:50:01.326038,243455,1609504173554104,1773520072,0.77104,-0.435296,-0.103456,38.21125,22.365,43.98625,3.072,29.448002,4.44,inter_set_rest,4,3.0,18500.0,140249.0,231122.0,282824.0,265900.0
2026-04-08 21:50:01.330181,243456,1609504173562996,1773528768,0.77104,-0.435296,-0.103456,37.79125,17.84125,40.55625,3.072,29.448002,4.44,inter_set_rest,4,3.0,18500.0,140249.0,231122.0,282824.0,265900.0
2026-04-08 21:50:01.358749,243457,1609504173577531,1773543675,0.636352,-0.396256,-0.02928,42.07,13.7025,31.5175,3.696,29.648,5.448,inter_set_rest,4,3.0,18500.0,140249.0,231122.0,282824.0,265900.0
2026-04-08 21:50:01.391235,243468,1609504173586585,1773552712,0.636352,-0.396256,-0.02928,52.3775,10.96375,22.2075,3.696,29.648,5.448,inter_set_rest,4,3.0,18409.0,139957.0,230825.0,282718.0,265914.0
2026-04-08 21:50:01.395335,243469,1609504173601067,1773567627,0.728096,-0.343552,0.148352,69.76375,13.04625,10.22,3.72,29.464,6.096,inter_set_rest,4,3.0,18409.0,139957.0,230825.0,282718.0,265914.0
2026-04-08 21:50:01.397055,243470,1609504173610025,1773576323,0.728096,-0.343552,0.148352,80.605,14.42,-0.42875,3.72,29.464,6.096,inter_set_rest,4,3.0,18409.0,139957.0,230825.0,282718.0,265914.0
2026-04-08 21:50:01.398538,243471,1609504173618957,1773585007,0.7808,-0.27328,0.20496,68.39875,16.765,-3.66625,4.08,29.480001,7.752,inter_set_rest,4,3.0,18409.0,139957.0,230825.0,282718.0,265914.0
2026-04-08 21:50:01.402669,243472,1609504173633498,1773599944,0.71248,-0.308416,-0.050752,44.3975,20.3175,-5.145,3.92,29.712002,7.408001,inter_set_rest,4,3.0,18409.0,139957.0,230825.0,282718.0,265914.0
2026-04-08 21:50:01.431291,243473,1609504173642470,1773608662,0.71248,-0.308416,-0.050752,21.77875,21.70875,-7.83125,3.92,29.712002,7.408001,inter_set_rest,4,3.0,18409.0,139957.0,230825.0,282718.0,265914.0
2026-04-08 21:50:01.434775,243474,1609504173656952,1773623503,0.499712,-0.355264,-0.050752,2.1525,20.92125,-4.59375,4.336,29.640001,7.2,inter_set_rest,4,3.0,18409.0,139957.0,230825.0,282718.0,265914.0
2026-04-08 21:50:01.437280,243475,1609504173665891,1773632172,0.499712,-0.355264,-0.050752,-7.105,13.58,0.77,4.336,29.640001,7.2,inter_set_rest,4,3.0,18409.0,139957.0,230825.0,282718.0,265914.0
2026-04-08 21:50:01.493569,243486,1609504173680468,1773647049,0.696864,-0.476288,0.193248,2.7475,13.29125,-0.77875,3.952,29.888,9.416,inter_set_rest,4,3.0,18170.0,139278.0,230251.0,282514.0,265892.0
2026-04-08 21:50:01.496102,243487,1609504173689398,1773655719,0.696864,-0.476288,0.193248,14.6825,8.19,-11.935,3.952,29.888,9.416,inter_set_rest,4,3.0,18170.0,139278.0,230251.0,282514.0,265892.0
2026-04-08 21:50:01.498508,243488,1609504173698351,1773664395,0.915488,-0.470432,0.070272,14.49875,5.55625,-31.68375,3.896,29.464,7.768001,inter_set_rest,4,3.0,18170.0,139278.0,230251.0,282514.0,265892.0
2026-04-08 21:50:01.501014,243489,1609504173712854,1773679306,0.915488,-0.470432,0.070272,16.77375,7.28875,-48.4225,3.896,29.464,7.768001,inter_set_rest,4,3.0,18170.0,139278.0,230251.0,282514.0,265892.0
2026-04-08 21:50:01.503490,243490,1609504173721797,1773687979,0.817888,-0.462624,0.003904,29.23375,9.8,-47.41625,3.672,29.552002,7.480001,inter_set_rest,4,3.0,18170.0,139278.0,230251.0,282514.0,265892.0
2026-04-08 21:50:01.506036,243491,1609504173736287,1773702901,0.710528,-0.32208,0.142496,35.3325,9.42375,-32.1125,3.608,29.224,8.648001,inter_set_rest,4,3.0,18170.0,139278.0,230251.0,282514.0,265892.0
2026-04-08 21:50:01.511117,243492,1609504173745283,1773711626,0.710528,-0.32208,0.142496,28.455,7.07,-22.16375,3.608,29.224,8.648001,inter_set_rest,4,3.0,18170.0,139278.0,230251.0,282514.0,265892.0
2026-04-08 21:50:01.541295,243493,1609504173759760,1773726508,0.661728,-0.25376,0.095648,10.675,2.56375,-24.15,3.072,29.672,8.744,inter_set_rest,4,3.0,18170.0,139278.0,230251.0,282514.0,265892.0
2026-04-08 21:50:01.544868,243494,1609504173768690,1773735190,0.661728,-0.25376,0.095648,-7.90125,-2.17,-29.995,3.072,29.672,8.744,inter_set_rest,4,3.0,18170.0,139278.0,230251.0,282514.0,265892.0
2026-04-08 21:50:01.548352,243495,1609504173777658,1773743853,0.7808,-0.32208,0.150304,-21.60375,-7.37625,-34.30875,2.704,29.752,8.52,inter_set_rest,4,3.0,18170.0,139278.0,230251.0,282514.0,265892.0
2026-04-08 21:50:01.613585,243506,1609504173792278,1773758762,0.7808,-0.32208,0.150304,-30.975,-10.07125,-37.17875,2.704,29.752,8.52,inter_set_rest,4,3.0,18195.0,139372.0,230361.0,282585.0,265938.0
2026-04-08 21:50:01.616035,243507,1609504173801205,1773767475,0.72224,-0.349408,0.083936,-31.6225,-11.83,-32.13,2.264,29.672,9.208,inter_set_rest,4,3.0,18195.0,139372.0,230361.0,282585.0,265938.0
2026-04-08 21:50:01.618521,243508,1609504173815666,1773782347,0.843264,-0.376736,0.26352,-30.58125,-13.448751,-34.22125,1.816,29.992,8.576,inter_set_rest,4,3.0,18195.0,139372.0,230361.0,282585.0,265938.0
2026-04-08 21:50:01.621019,243509,1609504173824574,1773791050,0.843264,-0.376736,0.26352,-27.22125,-14.8225,-35.53375,1.816,29.992,8.576,inter_set_rest,4,3.0,18195.0,139372.0,230361.0,282585.0,265938.0
2026-04-08 21:50:01.623524,243510,1609504173839057,1773805878,0.827648,-0.349408,0.20496,-18.9875,-16.02125,-32.43625,1.608,29.992,8.376,inter_set_rest,4,3.0,18195.0,139372.0,230361.0,282585.0,265938.0
2026-04-08 21:50:01.626071,243511,1609504173848053,1773814541,0.827648,-0.349408,0.20496,-11.48875,-16.45,-34.8425,1.608,29.992,8.376,inter_set_rest,4,3.0,18195.0,139372.0,230361.0,282585.0,265938.0
2026-04-08 21:50:01.629118,243512,1609504173857038,1773823271,0.843264,-0.333792,0.17568,-7.53375,-15.30375,-37.63375,1.16,29.840002,10.128,inter_set_rest,4,3.0,18195.0,139372.0,230361.0,282585.0,265938.0
2026-04-08 21:50:01.658759,243513,1609504173871554,1773838167,0.843264,-0.333792,0.17568,-4.8125,-13.95625,-32.73375,1.16,29.840002,10.128,inter_set_rest,4,3.0,18195.0,139372.0,230361.0,282585.0,265938.0
2026-04-08 21:50:01.662320,243514,1609504173880481,1773846863,0.903776,-0.286944,0.259616,-2.5025,-12.67,-23.835001,0.728,30.080002,9.440001,inter_set_rest,4,3.0,18195.0,139372.0,230361.0,282585.0,265938.0
2026-04-08 21:50:01.689724,243525,1609504173894981,1773861745,0.886208,-0.230336,0.324032,-1.49625,-10.57875,-19.215,0.728,29.760002,9.616,inter_set_rest,4,3.0,18312.0,139943.0,231057.0,282976.0,266089.0
2026-04-08 21:50:01.696105,243526,1609504173903903,1773870449,0.886208,-0.230336,0.324032,-2.51125,-8.26,-20.23875,0.64,29.760002,9.616,inter_set_rest,4,3.0,18312.0,139943.0,231057.0,282976.0,266089.0
2026-04-08 21:50:01.698516,243527,1609504173918434,1773885452,0.921344,-0.247904,0.296704,-4.59375,-6.18625,-23.91375,0.32,30.024002,8.664001,inter_set_rest,4,3.0,18312.0,139943.0,231057.0,282976.0,266089.0
2026-04-08 21:50:01.701059,243528,1609504173927414,1773894175,0.921344,-0.247904,0.296704,-7.55125,-3.7625,-26.71375,0.32,30.024002,8.664001,inter_set_rest,4,3.0,18312.0,139943.0,231057.0,282976.0,266089.0
2026-04-08 21:50:01.703602,243529,1609504173936369,1773902897,0.856928,-0.23424,0.284992,-12.39875,-1.4525,-27.25625,-0.192,30.416002,11.032001,inter_set_rest,4,3.0,18312.0,139943.0,231057.0,282976.0,266089.0
2026-04-08 21:50:01.733779,243530,1609504173950833,1773917765,0.856928,-0.23424,0.284992,-20.58,0.84,-27.09,-0.192,30.416002,11.032001,inter_set_rest,4,3.0,18312.0,139943.0,231057.0,282976.0,266089.0
2026-04-08 21:50:01.737314,243531,1609504173959748,1773926437,0.835456,-0.244,0.269376,-28.210001,2.61625,-24.4125,-0.288,30.576002,8.400001,inter_set_rest,4,3.0,18312.0,139943.0,231057.0,282976.0,266089.0
2026-04-08 21:50:01.742289,243532,1609504173974247,1773941306,0.835456,-0.244,0.269376,-37.1875,4.06875,-27.755001,-0.288,30.576002,8.400001,inter_set_rest,4,3.0,18312.0,139943.0,231057.0,282976.0,266089.0
2026-04-08 21:50:01.772294,243543,1609504173983380,1773950709,0.831552,-0.244,0.277184,-46.01625,4.9875,-30.45,-0.704,30.616001,8.776,inter_set_rest,4,3.0,18248.0,139914.0,231117.0,282988.0,266071.0
2026-04-08 21:50:01.774802,243544,1609504173992404,1773959382,0.831552,-0.244,0.277184,-49.0175,7.18375,-27.95625,-0.704,30.616001,8.776,inter_set_rest,4,3.0,18248.0,139914.0,231117.0,282988.0,266071.0
2026-04-08 21:50:01.777314,243545,1609504174006924,1773972217,0.847168,-0.2928,0.30256,-48.2825,10.2725,-27.825,-0.936,31.128002,8.480001,inter_set_rest,4,3.0,18248.0,139914.0,231117.0,282988.0,266071.0
2026-04-08 21:50:01.783857,243546,1609504174016313,1773982939,0.84912,-0.327936,0.333792,-46.94375,14.16625,-30.695,-1.376,31.368002,8.176001,inter_set_rest,4,3.0,18248.0,139914.0,231117.0,282988.0,266071.0
2026-04-08 21:50:01.812548,243547,1609504174030782,1773997861,0.84912,-0.327936,0.333792,-44.275,16.9925,-30.77375,-1.376,31.368002,8.176001,inter_set_rest,4,3.0,18248.0,139914.0,231117.0,282988.0,266071.0
2026-04-08 21:50:01.816050,243548,1609504174039715,1774006538,0.870592,-0.335744,0.255712,-40.73125,19.48625,-28.8575,-1.184,31.352001,7.304,inter_set_rest,4,3.0,18248.0,139914.0,231117.0,282988.0,266071.0
2026-04-08 21:50:01.819820,243549,1609504174054172,1774019334,0.870592,-0.335744,0.255712,-38.05375,22.2425,-27.51,-1.184,31.352001,7.304,inter_set_rest,4,3.0,18248.0,139914.0,231117.0,282988.0,266071.0
2026-04-08 21:50:01.849968,243550,1609504174063302,1774030103,0.821792,-0.267424,0.33184,-37.345,24.45625,-25.5325,-1.568,32.032,6.904,inter_set_rest,4,3.0,18248.0,139914.0,231117.0,282988.0,266071.0
2026-04-08 21:50:01.853617,243551,1609504174072220,1774038815,0.821792,-0.267424,0.33184,-42.67375,25.725,-29.05875,-1.568,32.032,6.904,inter_set_rest,4,3.0,18248.0,139914.0,231117.0,282988.0,266071.0
2026-04-08 21:50:01.923548,243562,1609504174087334,1774053701,0.732,-0.220576,0.119072,-50.09375,26.39,-28.07,-1.768,32.008003,6.36,inter_set_rest,4,3.0,18285.0,140140.0,231455.0,283131.0,266111.0
2026-04-08 21:50:01.926067,243563,1609504174096320,1774062439,0.757376,-0.183488,0.325984,-59.0975,25.795,-25.4275,-1.768,32.448,7.176,inter_set_rest,4,3.0,18285.0,140140.0,231455.0,283131.0,266111.0
2026-04-08 21:50:01.928610,243564,1609504174110881,1774077373,0.757376,-0.183488,0.325984,-70.14875,26.355,-25.2,-2.0,32.448,7.176,inter_set_rest,4,3.0,18285.0,140140.0,231455.0,283131.0,266111.0
2026-04-08 21:50:01.931015,243565,1609504174119807,1774086065,0.733952,-0.240096,0.150304,-82.88,26.2325,-27.64125,-2.456,32.528,4.256,inter_set_rest,4,3.0,18285.0,140140.0,231455.0,283131.0,266111.0
2026-04-08 21:50:01.933523,243566,1609504174128764,1774094729,0.733952,-0.240096,0.150304,-94.92,25.66375,-28.58625,-2.456,32.528,4.256,inter_set_rest,4,3.0,18285.0,140140.0,231455.0,283131.0,266111.0
2026-04-08 21:50:01.936074,243567,1609504174143233,1774109576,0.753472,-0.242048,0.247904,-103.95875,25.34,-27.5625,-2.792,33.048,5.248,inter_set_rest,4,3.0,18285.0,140140.0,231455.0,283131.0,266111.0
2026-04-08 21:50:01.938555,243568,1609504174152135,1774118250,0.753472,-0.242048,0.247904,-108.815,25.54125,-27.15125,-2.792,33.048,5.248,inter_set_rest,4,3.0,18285.0,140140.0,231455.0,283131.0,266111.0
2026-04-08 21:50:01.941053,243569,1609504174166648,1774133127,0.786656,-0.271328,0.26352,-110.0225,26.7225,-30.37125,-2.864,33.4,3.448,inter_set_rest,4,3.0,18285.0,140140.0,231455.0,283131.0,266111.0
2026-04-08 21:50:01.943864,243570,1609504174175665,1774141860,0.786656,-0.271328,0.26352,-109.0775,27.51,-35.245,-2.864,33.4,3.448,inter_set_rest,4,3.0,18285.0,140140.0,231455.0,283131.0,266111.0
2026-04-08 21:50:01.973528,243581,1609504174190198,1774156872,0.728096,-0.284992,0.142496,-106.4,28.77875,-38.52625,-3.472,33.384003,0.936,inter_set_rest,4,3.0,18332.0,140401.0,231831.0,283323.0,266209.0
