pc_time,serial_num,sensor_ts,host_ts,ax,ay,az,gx,gy,gz,mx,my,mz,phase,rpe,weight_kg,ppg_a,ppg_b,ppg_c,ppg_d,ppg_e
2026-04-09 22:15:34.259842,296047,1864252030,1864254167,-1.065792,0.191296,-0.01952,11.75125,1.9775,-6.09875,26.288002,-2.64,19.2,inter_set_rest,5,5.0,37323.0,400579.0,130083.0,5675.0,-144.0
2026-04-09 22:15:34.261646,296048,1864260980,1864262876,-1.042368,0.208864,-0.042944,11.71625,1.61,-6.6325,26.488,-3.28,17.888,inter_set_rest,5,5.0,37323.0,400579.0,130083.0,5675.0,-144.0
2026-04-09 22:15:34.267825,296049,1864269939,1864271598,-1.042368,0.208864,-0.042944,11.480001,1.645,-7.07,26.488,-3.28,17.888,inter_set_rest,5,5.0,37323.0,400579.0,130083.0,5675.0,-144.0
2026-04-09 22:15:34.298616,296050,1864284503,1864286517,-1.052128,0.203008,-0.035136,12.10125,2.05625,-7.49875,25.656002,-2.76,17.936,inter_set_rest,5,5.0,37323.0,400579.0,130083.0,5675.0,-144.0
2026-04-09 22:15:34.301619,296051,1864293432,1864295239,-1.052128,0.203008,-0.035136,10.98125,2.6775,-7.9625,25.656002,-2.76,17.936,inter_set_rest,5,5.0,37323.0,400579.0,130083.0,5675.0,-144.0
2026-04-09 22:15:34.329011,296062,1864302381,1864303921,-1.06384,0.173728,-0.033184,9.5375,2.93125,-7.6125,26.344002,-1.984,17.6,inter_set_rest,5,5.0,37311.0,400846.0,130436.0,5827.0,-149.0
2026-04-09 22:15:34.331566,296063,1864317244,1864318880,-1.06384,0.173728,-0.033184,9.56375,3.19375,-7.91875,26.344002,-1.984,17.6,inter_set_rest,5,5.0,37311.0,400846.0,130436.0,5827.0,-149.0
2026-04-09 22:15:34.334055,296064,1864326269,1864327663,-1.0736,0.193248,-0.023424,10.3775,3.8675,-6.6325,25.752,-2.656,19.408,inter_set_rest,5,5.0,37311.0,400846.0,130436.0,5827.0,-149.0
2026-04-09 22:15:34.336570,296065,1864335272,1864336375,-1.0736,0.193248,-0.023424,11.1475,4.24375,-5.53875,25.752,-2.656,19.408,inter_set_rest,5,5.0,37311.0,400846.0,130436.0,5827.0,-149.0
2026-04-09 22:15:34.366723,296066,1864349762,1864351273,-1.087264,0.232288,-0.050752,10.22,4.26125,-5.20625,25.264002,-2.624,19.04,inter_set_rest,5,5.0,37311.0,400846.0,130436.0,5827.0,-149.0
2026-04-09 22:15:34.370315,296067,1864358756,1864359955,-1.081408,0.18544,-0.072224,8.3125,4.13875,-5.495,26.736002,-2.616,17.528002,inter_set_rest,5,5.0,37311.0,400846.0,130436.0,5827.0,-149.0
2026-04-09 22:15:34.381567,296068,1864367679,1864368731,-1.081408,0.18544,-0.072224,5.38125,4.13875,-7.07,26.736002,-2.616,17.528002,inter_set_rest,5,5.0,37311.0,400846.0,130436.0,5827.0,-149.0
2026-04-09 22:15:34.384096,296069,1864376600,1864377419,-1.081408,0.18544,-0.072224,3.59625,2.975,-8.86375,26.736002,-2.616,17.528002,inter_set_rest,5,5.0,37311.0,400846.0,130436.0,5827.0,-149.0
2026-04-09 22:15:34.389188,296070,1864391086,1864392327,-1.100928,0.169824,-0.056608,6.79,2.9575,-8.72375,26.672,-2.368,19.184,inter_set_rest,5,5.0,37311.0,400846.0,130436.0,5827.0,-149.0
2026-04-09 22:15:34.460273,296071,1864399964,1864401054,-1.08336,0.181536,-0.02928,10.31625,3.42125,-8.02375,25.512001,-1.888,20.648,inter_set_rest,5,5.0,37311.0,400846.0,130436.0,5827.0,-149.0
2026-04-09 22:15:34.522852,296081,1864408952,1864410134,-1.08336,0.181536,-0.02928,11.73375,3.64875,-8.19,25.512001,-1.888,20.648,inter_set_rest,5,5.0,36957.0,401315.0,130696.0,5986.0,-147.0
2026-04-09 22:15:34.526321,296082,1864423465,1864425044,-1.10288,0.203008,-0.033184,10.75375,3.99875,-8.23375,26.568,-2.232,17.608002,inter_set_rest,5,5.0,36957.0,401315.0,130696.0,5986.0,-147.0
2026-04-09 22:15:34.526418,296083,1864432412,1864433776,-1.10288,0.203008,-0.033184,11.08625,5.03125,-8.28625,26.568,-2.232,17.608002,inter_set_rest,5,5.0,36957.0,401315.0,130696.0,5986.0,-147.0
2026-04-09 22:15:34.527864,296084,1864441354,1864442486,-1.091168,0.17568,-0.0488,10.15875,5.1275,-8.05,26.648,-1.976,18.128,inter_set_rest,5,5.0,36957.0,401315.0,130696.0,5986.0,-147.0
2026-04-09 22:15:34.532151,296085,1864455847,1864457382,-1.091168,0.17568,-0.0488,8.2775,5.4425,-8.93375,26.648,-1.976,18.128,inter_set_rest,5,5.0,36957.0,401315.0,130696.0,5986.0,-147.0
2026-04-09 22:15:34.533837,296086,1864464766,1864466103,-1.100928,0.148352,-0.040992,7.2275,5.81875,-9.0475,26.512001,-2.288,17.984001,inter_set_rest,5,5.0,36957.0,401315.0,130696.0,5986.0,-147.0
2026-04-09 22:15:34.535428,296087,1864473725,1864474817,-1.100928,0.148352,-0.040992,9.68625,5.53875,-8.6625,26.512001,-2.288,17.984001,inter_set_rest,5,5.0,36957.0,401315.0,130696.0,5986.0,-147.0
2026-04-09 22:15:34.539656,296088,1864482798,1864483543,-1.097024,0.177632,-0.033184,12.97625,5.425,-8.3825,26.44,-2.216,18.032001,inter_set_rest,5,5.0,36957.0,401315.0,130696.0,5986.0,-147.0
2026-04-09 22:15:34.541413,296089,1864497700,1864498472,-1.097024,0.177632,-0.033184,12.97625,5.7225,-8.42625,26.44,-2.216,18.032001,inter_set_rest,5,5.0,36957.0,401315.0,130696.0,5986.0,-147.0
2026-04-09 22:15:34.567932,296099,1864507613,1864509235,-1.120448,0.163968,-0.050752,11.82125,5.67875,-8.4525,26.552002,-2.368,19.944,inter_set_rest,5,5.0,36749.0,401793.0,131150.0,6205.0,-139.0
2026-04-09 22:15:34.571437,296100,1864516577,1864517944,-1.120448,0.163968,-0.050752,12.0225,5.59125,-8.86375,26.552002,-2.368,19.944,inter_set_rest,5,5.0,36749.0,401793.0,131150.0,6205.0,-139.0
2026-04-09 22:15:34.573807,296101,1864525526,1864526633,-1.116544,0.193248,-0.037088,13.16875,5.38125,-9.24875,25.720001,-1.96,18.776001,inter_set_rest,5,5.0,36749.0,401793.0,131150.0,6205.0,-139.0
2026-04-09 22:15:34.575393,296102,1864540297,1864541642,-1.11264,0.163968,-0.040992,12.6875,5.92375,-10.14125,25.968,-1.408,19.336,inter_set_rest,5,5.0,36749.0,401793.0,131150.0,6205.0,-139.0
2026-04-09 22:15:34.579645,296103,1864549308,1864550393,-1.11264,0.163968,-0.040992,11.38375,5.74875,-11.10375,25.968,-1.408,19.336,inter_set_rest,5,5.0,36749.0,401793.0,131150.0,6205.0,-139.0
2026-04-09 22:15:34.581369,296104,1864558294,1864559081,-1.11264,0.163968,-0.040992,9.24875,5.69625,-11.9,25.968,-1.408,19.336,inter_set_rest,5,5.0,36749.0,401793.0,131150.0,6205.0,-139.0
2026-04-09 22:15:34.582964,296105,1864572817,1864574040,-1.138016,0.148352,-0.066368,9.93125,5.5825,-11.7425,25.736002,-1.904,19.056002,inter_set_rest,5,5.0,36749.0,401793.0,131150.0,6205.0,-139.0
2026-04-09 22:15:34.587170,296106,1864581785,1864582809,-1.153632,0.20496,-0.046848,10.85875,4.69875,-11.5325,24.952002,-1.576,19.008001,inter_set_rest,5,5.0,36749.0,401793.0,131150.0,6205.0,-139.0
2026-04-09 22:15:34.589580,296107,1864590787,1864591572,-1.153632,0.20496,-0.046848,12.25,3.955,-11.76,24.952002,-1.576,19.008001,inter_set_rest,5,5.0,36749.0,401793.0,131150.0,6205.0,-139.0
2026-04-09 22:15:34.644113,296118,1864605756,1864607126,-1.15168,0.193248,-0.035136,12.9675,4.165,-13.055,25.768002,-1.408,17.776001,inter_set_rest,5,5.0,37222.0,403162.0,133642.0,7262.0,-147.0
2026-04-09 22:15:34.646624,296119,1864614778,1864615849,-1.15168,0.193248,-0.035136,11.1125,5.11875,-14.63875,25.768002,-1.408,17.776001,inter_set_rest,5,5.0,37222.0,403162.0,133642.0,7262.0,-147.0
2026-04-09 22:15:34.649135,296120,1864623716,1864624554,-1.138016,0.142496,-0.062464,8.95125,5.29375,-15.56625,25.880001,-1.472,17.800001,inter_set_rest,5,5.0,37222.0,403162.0,133642.0,7262.0,-147.0
2026-04-09 22:15:34.655442,296121,1864632689,1864633264,-1.138016,0.142496,-0.062464,9.02125,5.985,-15.95125,25.880001,-1.472,17.800001,inter_set_rest,5,5.0,37222.0,403162.0,133642.0,7262.0,-147.0
2026-04-09 22:15:34.657842,296122,1864647836,1864648281,-1.138016,0.173728,-0.054656,10.1325,6.545,-15.925,26.368002,-1.4,17.368,inter_set_rest,5,5.0,37222.0,403162.0,133642.0,7262.0,-147.0
2026-04-09 22:15:34.666675,296123,1864657874,1864660045,-1.138016,0.173728,-0.054656,11.7775,6.69375,-15.645,26.368002,-1.4,17.368,inter_set_rest,5,5.0,37222.0,403162.0,133642.0,7262.0,-147.0
2026-04-09 22:15:34.669255,296124,1864666864,1864668767,-1.128256,0.18544,-0.070272,9.2225,6.65875,-15.74125,24.672,-1.584,19.144001,inter_set_rest,5,5.0,37222.0,403162.0,133642.0,7262.0,-147.0
2026-04-09 22:15:34.674223,296125,1864675781,1864677458,-1.128256,0.18544,-0.070272,6.0375,6.64125,-16.275,24.672,-1.584,19.144001,inter_set_rest,5,5.0,37222.0,403162.0,133642.0,7262.0,-147.0
2026-04-09 22:15:34.705655,296126,1864690293,1864692395,-1.098976,0.187392,-0.05856,5.6175,6.5275,-16.4675,25.248001,-1.448,18.096,inter_set_rest,5,5.0,37222.0,403162.0,133642.0,7262.0,-147.0
2026-04-09 22:15:34.709143,296127,1864699211,1864701094,-1.098976,0.187392,-0.089792,5.3025,6.51875,-17.272501,25.248001,-1.448,18.096,inter_set_rest,5,5.0,37222.0,403162.0,133642.0,7262.0,-147.0
2026-04-09 22:15:34.770364,296137,1864708514,1864709827,-1.10288,0.210816,-0.08784,1.95125,6.11625,-18.725,25.536001,-1.168,16.744001,concentric,5,5.0,36846.0,403431.0,134231.0,7658.0,-160.0
2026-04-09 22:15:34.772853,296138,1864717456,1864718559,-1.10288,0.210816,-0.08784,-4.2525,6.09875,-20.32625,25.536001,-1.168,16.744001,concentric,5,5.0,36846.0,403431.0,134231.0,7658.0,-160.0
2026-04-09 22:15:34.779172,296139,1864732030,1864733560,-1.077504,0.154208,-0.103456,-9.7825,5.46,-22.12875,25.304,-0.72,17.312,concentric,5,5.0,36846.0,403431.0,134231.0,7658.0,-160.0
2026-04-09 22:15:34.786643,296140,1864741015,1864742255,-1.05408,0.128832,-0.062464,-9.0125,5.08375,-24.19375,25.688002,-0.904,18.872002,concentric,5,5.0,36846.0,403431.0,134231.0,7658.0,-160.0
2026-04-09 22:15:34.789121,296141,1864749913,1864750955,-1.05408,0.128832,-0.062464,-0.74375,4.20875,-24.5525,25.688002,-0.904,18.872002,concentric,5,5.0,36846.0,403431.0,134231.0,7658.0,-160.0
2026-04-09 22:15:34.791646,296142,1864764458,1864765933,-1.036512,0.189344,0.01952,10.955,3.7625,-23.93125,24.824001,-0.632,18.784,concentric,5,5.0,36846.0,403431.0,134231.0,7658.0,-160.0
2026-04-09 22:15:34.794119,296143,1864773432,1864774680,-1.036512,0.189344,0.01952,19.03125,4.36625,-23.28375,24.824001,-0.632,18.784,concentric,5,5.0,36846.0,403431.0,134231.0,7658.0,-160.0
2026-04-09 22:15:34.796596,296144,1864782399,1864783450,-0.99552,0.193248,-0.035136,18.305,4.73375,-22.54,24.696001,-0.624,18.704,concentric,5,5.0,36846.0,403431.0,134231.0,7658.0,-160.0
2026-04-09 22:15:34.799105,296145,1864796943,1864798369,-0.99552,0.193248,-0.035136,10.05375,4.795,-22.44375,24.696001,-0.624,18.704,concentric,5,5.0,36846.0,403431.0,134231.0,7658.0,-160.0
2026-04-09 22:15:34.827825,296155,1864806064,1864807125,-0.999424,0.103456,-0.066368,-0.63,5.38125,-20.81625,25.104002,-0.456,18.696001,concentric,5,5.0,35882.0,403431.0,133348.0,7431.0,-127.0
2026-04-09 22:15:34.830359,296156,1864815080,1864815918,-0.999424,0.103456,-0.066368,-6.34375,5.22375,-18.22625,25.104002,-0.456,18.696001,concentric,5,5.0,35882.0,403431.0,133348.0,7431.0,-127.0
2026-04-09 22:15:34.832863,296157,1864823969,1864824732,-0.958432,0.105408,-0.01952,-5.2675,5.62625,-14.665,23.6,-0.76,18.816,concentric,5,5.0,35882.0,403431.0,133348.0,7431.0,-127.0
2026-04-09 22:15:34.836631,296158,1864839093,1864839724,-0.958432,0.105408,-0.01952,-1.86375,6.9825,-11.261251,23.6,-0.76,18.816,concentric,5,5.0,35882.0,403431.0,133348.0,7431.0,-127.0
2026-04-09 22:15:34.866910,296159,1864848325,1864850472,-0.942816,0.130784,-0.001952,-0.6825,7.76125,-8.0675,24.488,-1.072,19.856,concentric,5,5.0,35882.0,403431.0,133348.0,7431.0,-127.0
2026-04-09 22:15:34.870385,296160,1864857262,1864859173,-0.942816,0.130784,-0.001952,-2.45,8.05,-4.33125,24.488,-1.072,19.856,concentric,5,5.0,35882.0,403431.0,133348.0,7431.0,-127.0
2026-04-09 22:15:34.872882,296161,1864871768,1864872077,-0.958432,0.152256,-0.074176,-6.1075,6.51,-1.96,25.096,-0.8,17.36,concentric,5,5.0,35882.0,403431.0,133348.0,7431.0,-127.0
2026-04-09 22:15:34.903013,296162,1864880940,1864882835,-0.952576,0.1464,-0.062464,-8.53125,5.7225,-1.44375,25.368002,-0.784,16.248001,concentric,5,5.0,35882.0,403431.0,133348.0,7431.0,-127.0
2026-04-09 22:15:34.906673,296163,1864889844,1864891485,-0.952576,0.1464,-0.062464,-6.8775,4.61125,-1.05,25.368002,-0.784,16.248001,concentric,5,5.0,35882.0,403431.0,133348.0,7431.0,-127.0
2026-04-09 22:15:34.909124,296164,1864898755,1864900238,-0.952576,0.1464,-0.062464,-4.865,3.22,-0.8225,25.368002,-0.784,16.248001,concentric,5,5.0,35882.0,403431.0,133348.0,7431.0,-127.0
2026-04-09 22:15:34.942879,296175,1864913269,1864915198,-0.954528,0.162016,-0.03904,-0.9625,2.02125,-1.19875,24.704,-1.112,16.912,concentric,5,5.0,35940.0,403431.0,133076.0,7285.0,-142.0
2026-04-09 22:15:34.945382,296176,1864922248,1864923898,-0.952576,0.236192,-0.023424,5.39,1.32125,-1.63625,24.752,-1.288,16.328001,concentric,5,5.0,35940.0,403431.0,133076.0,7285.0,-142.0
2026-04-09 22:15:34.947882,296177,1864931238,1864932700,-0.952576,0.236192,-0.023424,6.58,0.735,-1.93375,24.752,-1.288,16.328001,concentric,5,5.0,35940.0,403431.0,133076.0,7285.0,-142.0
2026-04-09 22:15:34.950445,296178,1864945725,1864947594,-0.974048,0.154208,-0.033184,0.93625,-0.1225,-3.08,24.44,-0.824,19.728,concentric,5,5.0,35940.0,403431.0,133076.0,7285.0,-142.0
2026-04-09 22:15:34.952869,296179,1864954664,1864956287,-0.974048,0.154208,-0.033184,-2.9575,-0.09625,-5.36375,24.44,-0.824,19.728,concentric,5,5.0,35940.0,403431.0,133076.0,7285.0,-142.0
2026-04-09 22:15:34.983086,296180,1864963631,1864965036,-0.983808,0.169824,-0.052704,-3.115,-0.02625,-5.845,25.160002,-1.168,17.904001,concentric,5,5.0,35940.0,403431.0,133076.0,7285.0,-142.0
2026-04-09 22:15:34.986708,296181,1864978122,1864979935,-0.983808,0.169824,-0.052704,-1.75,0.2975,-5.0925,25.160002,-1.168,17.904001,concentric,5,5.0,35940.0,403431.0,133076.0,7285.0,-142.0
2026-04-09 22:15:34.989108,296182,1864987034,1864988671,-0.98576,0.179584,-0.066368,-1.4,0.07875,-3.73625,25.008001,-1.248,17.744001,concentric,5,5.0,35940.0,403431.0,133076.0,7285.0,-142.0
2026-04-09 22:15:34.994146,296183,1864995938,1864997345,-0.98576,0.179584,-0.066368,-3.42125,-0.7,-3.17625,25.008001,-1.248,17.744001,concentric,5,5.0,35940.0,403431.0,133076.0,7285.0,-142.0
2026-04-09 22:15:35.003847,296184,1865004915,1865006068,-1.009184,0.173728,-0.03904,-3.955,-2.555,-2.52,23.968,-1.264,17.6,concentric,5,5.0,35940.0,403431.0,133076.0,7285.0,-142.0
2026-04-09 22:15:35.072857,296194,1865019495,1865021117,-1.009184,0.173728,-0.03904,-3.7275,-2.6775,-1.715,23.968,-1.264,17.6,concentric,5,5.0,36843.0,403431.0,134103.0,7584.0,-127.0
2026-04-09 22:15:35.075375,296195,1865028415,1865029816,-0.997472,0.152256,-0.040992,-4.82125,-2.59875,-0.77,24.480001,-0.6,18.104,concentric,5,5.0,36843.0,403431.0,134103.0,7584.0,-127.0
2026-04-09 22:15:35.077877,296196,1865037324,1865038511,-0.997472,0.152256,-0.040992,-6.90375,-2.24,0.97125,24.480001,-0.6,18.104,concentric,5,5.0,36843.0,403431.0,134103.0,7584.0,-127.0
2026-04-09 22:15:35.081284,296197,1865051800,1865053430,-1.046272,0.171776,-0.017568,-5.18,-1.5575,3.8325,25.288002,-1.344,17.720001,concentric,5,5.0,36843.0,403431.0,134103.0,7584.0,-127.0
2026-04-09 22:15:35.084173,296198,1865060710,1865062185,-1.046272,0.171776,-0.017568,-3.31625,-0.9625,6.23875,25.288002,-1.344,17.720001,concentric,5,5.0,36843.0,403431.0,134103.0,7584.0,-127.0
2026-04-09 22:15:35.085520,296199,1865069641,1865070891,-1.059936,0.22448,-0.035136,-4.68125,-1.39125,7.77,25.328001,-1.128,17.856,concentric,5,5.0,36843.0,403431.0,134103.0,7584.0,-127.0
2026-04-09 22:15:35.088297,296200,1865084108,1865085866,-1.071648,0.167872,-0.037088,-7.035,-1.44375,7.83125,25.456001,-0.888,18.144001,concentric,5,5.0,36843.0,403431.0,134103.0,7584.0,-127.0
2026-04-09 22:15:35.091691,296201,1865092993,1865094571,-1.071648,0.167872,-0.037088,-9.56375,-0.77875,8.4,25.456001,-0.888,18.144001,concentric,5,5.0,36843.0,403431.0,134103.0,7584.0,-127.0
2026-04-09 22:15:35.121961,296202,1865102088,1865103314,-1.100928,0.160064,-0.01952,-9.8175,-1.32125,10.24625,24.952002,-1.312,20.568,concentric,5,5.0,36843.0,403431.0,134103.0,7584.0,-127.0
2026-04-09 22:15:35.150460,296212,1865116643,1865118357,-1.100928,0.160064,-0.01952,-10.185,-1.855,11.08625,24.952002,-1.312,20.568,concentric,5,5.0,37390.0,403405.0,134287.0,7505.0,-137.0
2026-04-09 22:15:35.152863,296213,1865125547,1865127044,-1.120448,0.167872,-0.02928,-10.99875,-1.505,11.54125,24.888,-1.728,19.68,concentric,5,5.0,37390.0,403405.0,134287.0,7505.0,-137.0
2026-04-09 22:15:35.155410,296214,1865134460,1865135744,-1.120448,0.167872,-0.02928,-11.31375,-1.05875,12.50375,24.888,-1.728,19.68,concentric,5,5.0,37390.0,403405.0,134287.0,7505.0,-137.0
2026-04-09 22:15:35.157915,296215,1865143406,1865144511,-1.138016,0.128832,-0.046848,-13.23875,-0.7175,13.41375,25.208002,-1.92,19.608002,concentric,5,5.0,37390.0,403405.0,134287.0,7505.0,-137.0
2026-04-09 22:15:35.160990,296216,1865157950,1865159426,-1.138016,0.128832,-0.046848,-13.1775,-1.35625,14.88375,25.208002,-1.92,19.608002,concentric,5,5.0,37390.0,403405.0,134287.0,7505.0,-137.0
2026-04-09 22:15:35.164381,296217,1865166923,1865168162,-1.130208,0.105408,-0.0488,-9.30125,-0.74375,17.491251,25.152,-2.024,19.080002,concentric,5,5.0,37390.0,403405.0,134287.0,7505.0,-137.0
2026-04-09 22:15:35.194394,296218,1865175819,1865176919,-1.130208,0.105408,-0.0488,-4.19125,-0.97125,20.125,25.152,-2.024,19.080002,concentric,5,5.0,37390.0,403405.0,134287.0,7505.0,-137.0
2026-04-09 22:15:35.197916,296219,1865190316,1865191822,-1.126304,0.169824,-0.017568,-1.16375,-1.19,22.11125,23.248001,-2.864,21.344002,concentric,5,5.0,37390.0,403405.0,134287.0,7505.0,-137.0
2026-04-09 22:15:35.200437,296220,1865199248,1865200532,-1.126304,0.169824,-0.017568,1.42625,-1.47,22.89,23.248001,-2.864,21.344002,concentric,5,5.0,37390.0,403405.0,134287.0,7505.0,-137.0
2026-04-09 22:15:35.227824,296230,1865208291,1865209243,-1.128256,0.189344,-0.021472,-0.55125,-0.6125,22.63625,23.976002,-3.224,21.376001,concentric,5,5.0,37831.0,403431.0,135455.0,8024.0,-143.0
2026-04-09 22:15:35.230368,296231,1865222877,1865224241,-1.14192,0.12688,-0.031232,-4.97875,0.25375,21.945,25.576002,-3.0,19.216002,concentric,5,5.0,37831.0,403431.0,135455.0,8024.0,-143.0
2026-04-09 22:15:35.232879,296232,1865232709,1865233749,-1.14192,0.12688,-0.031232,-10.14125,0.32375,21.16625,25.576002,-3.0,19.216002,concentric,5,5.0,37831.0,403431.0,135455.0,8024.0,-143.0
2026-04-09 22:15:35.239174,296233,1865241636,1865242465,-1.14192,0.12688,-0.052704,-12.04,0.84875,21.44625,25.576002,-3.0,19.216002,concentric,5,5.0,37831.0,403431.0,135455.0,8024.0,-143.0
2026-04-09 22:15:35.248370,296234,1865250604,1865251194,-1.188768,0.062464,-0.052704,-9.19625,0.58625,23.38,25.832,-3.208,19.968,concentric,5,5.0,37831.0,403431.0,135455.0,8024.0,-143.0
2026-04-09 22:15:35.278141,296235,1865265477,1865266061,-1.143872,0.0976,-0.015616,-2.9575,0.1575,26.08375,25.840002,-3.512,19.048,concentric,5,5.0,37831.0,403431.0,135455.0,8024.0,-143.0
2026-04-09 22:15:35.285454,296236,1865274681,1865276826,-1.143872,0.0976,-0.015616,5.0225,0.84,28.4375,25.840002,-3.512,19.048,concentric,5,5.0,37831.0,403431.0,135455.0,8024.0,-143.0
2026-04-09 22:15:35.287914,296237,1865283609,1865285511,-1.159488,0.134688,-0.005856,6.8425,2.35375,29.855,26.400002,-4.296,18.744001,concentric,5,5.0,37831.0,403431.0,135455.0,8024.0,-143.0
2026-04-09 22:15:35.290391,296238,1865292584,1865294226,-1.159488,0.134688,-0.005856,4.795,3.22,31.3425,26.400002,-4.296,18.744001,concentric,5,5.0,37831.0,403431.0,135455.0,8024.0,-143.0
2026-04-09 22:15:35.370299,296249,1865307088,1865309078,-1.19072,0.122976,-0.056608,0.91875,4.59375,33.013752,25.36,-4.2,17.816,concentric,5,5.0,38229.0,403431.0,135981.0,8193.0,-144.0
2026-04-09 22:15:35.372905,296250,1865316102,1865317789,-1.19072,0.122976,-0.056608,-0.6825,6.08125,35.035,25.36,-4.2,17.816,concentric,5,5.0,38229.0,403431.0,135981.0,8193.0,-144.0
2026-04-09 22:15:35.375387,296251,1865325041,1865326504,-1.198528,0.07808,-0.060512,-0.245,6.475,37.0825,26.672,-4.92,17.952002,concentric,5,5.0,38229.0,403431.0,135981.0,8193.0,-144.0
2026-04-09 22:15:35.377879,296252,1865339539,1865341388,-1.198528,0.07808,-0.060512,-0.28,5.9325,37.695,26.672,-4.92,17.952002,concentric,5,5.0,38229.0,403431.0,135981.0,8193.0,-144.0
2026-04-09 22:15:35.380369,296253,1865348459,1865350114,-1.173152,0.13664,-0.021472,3.35125,6.195,39.75125,25.976002,-5.520001,17.736,concentric,5,5.0,38229.0,403431.0,135981.0,8193.0,-144.0
2026-04-09 22:15:35.382881,296254,1865357501,1865358829,-1.173152,0.13664,-0.021472,8.61875,6.62375,40.705,25.976002,-5.520001,17.736,concentric,5,5.0,38229.0,403431.0,135981.0,8193.0,-144.0
2026-04-09 22:15:35.385415,296255,1865372105,1865373696,-1.118496,0.197152,-0.007808,7.55125,6.41375,38.75375,25.424002,-5.464,19.112001,concentric,5,5.0,38229.0,403431.0,135981.0,8193.0,-144.0
2026-04-09 22:15:35.387870,296256,1865381075,1865382462,-1.118496,0.197152,-0.007808,4.33125,7.14875,35.595,25.424002,-5.464,19.112001,concentric,5,5.0,38229.0,403431.0,135981.0,8193.0,-144.0
2026-04-09 22:15:35.390723,296257,1865390060,1865391192,-1.149728,0.199104,-0.05856,3.12375,6.6325,32.52375,25.064001,-6.304,18.608002,concentric,5,5.0,38229.0,403431.0,135981.0,8193.0,-144.0
2026-04-09 22:15:35.397238,296258,1865399047,1865399891,-1.149728,0.199104,-0.05856,2.31875,6.95625,29.286251,25.064001,-6.304,18.608002,concentric,5,5.0,38229.0,403431.0,135981.0,8193.0,-144.0
2026-04-09 22:15:35.450426,296268,1865413682,1865414880,-1.136064,0.193248,-0.054656,2.4325,7.44625,26.7575,25.624,-7.056,18.648,concentric,5,5.0,37410.0,403431.0,136271.0,8591.0,-137.0
2026-04-09 22:15:35.452885,296269,1865422658,1865423617,-1.136064,0.197152,-0.052704,2.16125,6.58875,24.6925,25.624,-7.056,18.648,concentric,5,5.0,37410.0,403431.0,136271.0,8591.0,-137.0
2026-04-09 22:15:35.455376,296270,1865431671,1865432318,-1.11264,0.197152,-0.052704,4.01625,5.9675,22.2425,26.080002,-7.272,19.504002,concentric,5,5.0,37410.0,403431.0,136271.0,8591.0,-137.0
2026-04-09 22:15:35.457920,296271,1865446507,1865447256,-1.071648,0.222528,-0.027328,6.6325,5.6875,19.04875,24.496,-7.56,18.232,concentric,5,5.0,37410.0,403431.0,136271.0,8591.0,-137.0
2026-04-09 22:15:35.460372,296272,1865455972,1865458013,-1.071648,0.222528,-0.027328,7.55125,5.775,15.1725,24.496,-7.56,18.232,concentric,5,5.0,37410.0,403431.0,136271.0,8591.0,-137.0
2026-04-09 22:15:35.462942,296273,1865464977,1865466782,-1.11264,0.183488,-0.074176,4.6375,5.95,11.50625,25.072,-7.344,17.808,concentric,5,5.0,37410.0,403431.0,136271.0,8591.0,-137.0
2026-04-09 22:15:35.493016,296274,1865473905,1865475481,-1.11264,0.183488,-0.074176,0.0175,6.7375,8.77625,25.072,-7.344,17.808,concentric,5,5.0,37410.0,403431.0,136271.0,8591.0,-137.0
2026-04-09 22:15:35.496573,296275,1865488391,1865490338,-1.100928,0.210816,-0.031232,-4.54125,5.985,7.65625,24.984001,-7.832,17.368,concentric,5,5.0,37410.0,403431.0,136271.0,8591.0,-137.0
2026-04-09 22:15:35.499114,296276,1865497330,1865499043,-1.100928,0.210816,-0.031232,-2.47625,5.83625,6.7375,24.984001,-7.832,17.368,concentric,5,5.0,37410.0,403431.0,136271.0,8591.0,-137.0
2026-04-09 22:15:35.504098,296277,1865506242,1865507814,-1.104832,0.242048,-0.007808,0.20125,5.66125,4.8125,24.368002,-8.512,18.128,concentric,5,5.0,37410.0,403431.0,136271.0,8591.0,-137.0
2026-04-09 22:15:35.532800,296287,1865520831,1865522794,-1.104832,0.242048,-0.007808,1.37375,5.74875,1.49625,24.368002,-8.512,18.128,concentric,5,5.0,36569.0,403431.0,136415.0,8896.0,-143.0
2026-04-09 22:15:35.535488,296288,1865529944,1865531560,-1.098976,0.251808,-0.021472,-0.16625,5.94125,-1.82875,23.776001,-8.072001,18.152,concentric,5,5.0,36569.0,403431.0,136415.0,8896.0,-143.0
2026-04-09 22:15:35.537888,296289,1865538902,1865540281,-1.098976,0.251808,-0.021472,-4.0775,5.29375,-4.66375,23.776001,-8.072001,18.152,concentric,5,5.0,36569.0,403431.0,136415.0,8896.0,-143.0
2026-04-09 22:15:35.568052,296290,1865553465,1865555206,-1.108736,0.1952,-0.076128,-8.00625,4.41,-6.965,24.536001,-8.152,16.576,concentric,5,5.0,36569.0,403431.0,136415.0,8896.0,-143.0
2026-04-09 22:15:35.571738,296291,1865562408,1865563909,-1.108736,0.1952,-0.076128,-8.12875,4.13,-8.4,24.536001,-8.152,16.576,concentric,5,5.0,36569.0,403431.0,136415.0,8896.0,-143.0
2026-04-09 22:15:35.574075,296292,1865571326,1865572594,-1.124352,0.251808,-0.054656,-5.04,3.71875,-8.44375,24.352001,-7.984,15.168001,concentric,5,5.0,36569.0,403431.0,136415.0,8896.0,-143.0
2026-04-09 22:15:35.577970,296293,1865580217,1865581304,-1.124352,0.251808,-0.054656,-1.05875,3.185,-9.23125,24.352001,-7.984,15.168001,concentric,5,5.0,36569.0,403431.0,136415.0,8896.0,-143.0
2026-04-09 22:15:35.608125,296294,1865594728,1865596160,-1.110688,0.294752,-0.02928,-1.35625,2.86125,-11.36625,22.632002,-8.064,18.928001,concentric,5,5.0,36569.0,403431.0,136415.0,8896.0,-143.0
2026-04-09 22:15:35.611754,296295,1865603630,1865604852,-1.14192,0.275232,-0.001952,-4.2875,2.16125,-14.21875,22.632002,-8.064,16.584002,concentric,5,5.0,36569.0,403431.0,136415.0,8896.0,-143.0
2026-04-09 22:15:35.671637,296306,1865613196,1865613647,-1.14192,0.275232,-0.001952,-5.92375,3.08,-16.8175,23.824001,-7.664001,16.584002,concentric,5,5.0,36541.0,403431.0,137279.0,9371.0,-137.0
2026-04-09 22:15:35.680387,296307,1865628127,1865628585,-1.15168,0.300608,-0.050752,-7.88375,4.12125,-18.48,22.224,-8.448,17.376001,concentric,5,5.0,36541.0,403431.0,137279.0,9371.0,-137.0
2026-04-09 22:15:35.682836,296308,1865637583,1865639402,-1.15168,0.300608,-0.050752,-11.2875,4.165,-20.29125,22.224,-8.448,17.376001,concentric,5,5.0,36541.0,403431.0,137279.0,9371.0,-137.0
2026-04-09 22:15:35.685390,296309,1865646523,1865648067,-1.138016,0.314272,-0.037088,-10.9025,4.62,-23.19625,23.432001,-8.096001,16.432001,concentric,5,5.0,36541.0,403431.0,137279.0,9371.0,-137.0
2026-04-09 22:15:35.687868,296310,1865655428,1865656768,-1.138016,0.314272,-0.037088,-8.82,4.62875,-25.3925,23.432001,-8.096001,16.432001,concentric,5,5.0,36541.0,403431.0,137279.0,9371.0,-137.0
2026-04-09 22:15:35.690392,296311,1865669937,1865671717,-1.153632,0.308416,-0.08784,-10.2725,5.4075,-27.475,22.640001,-8.152,17.472,concentric,5,5.0,36541.0,403431.0,137279.0,9371.0,-137.0
2026-04-09 22:15:35.692803,296312,1865679028,1865680587,-1.153632,0.308416,-0.08784,-12.73125,5.7575,-30.1175,22.640001,-8.152,17.472,concentric,5,5.0,36541.0,403431.0,137279.0,9371.0,-137.0
2026-04-09 22:15:35.695335,296313,1865687977,1865689305,-1.167296,0.320128,-0.035136,-13.15125,6.02875,-31.99,22.744001,-8.912001,15.952001,concentric,5,5.0,36541.0,403431.0,137279.0,9371.0,-137.0
2026-04-09 22:15:35.720512,296314,1865702522,1865704294,-1.167296,0.320128,-0.035136,-10.8675,6.71125,-32.78625,22.744001,-8.912001,15.952001,concentric,5,5.0,36541.0,403431.0,137279.0,9371.0,-137.0
2026-04-09 22:15:35.745352,296324,1865712082,1865713359,-1.169248,0.333792,-0.037088,-10.57875,7.11375,-33.78375,23.584002,-8.032001,17.576,concentric,5,5.0,36381.0,403431.0,137898.0,9838.0,-153.0
2026-04-09 22:15:35.747861,296325,1865721065,1865722142,-1.169248,0.333792,-0.037088,-12.4775,6.36125,-35.420002,23.584002,-8.032001,17.576,concentric,5,5.0,36381.0,403431.0,137898.0,9838.0,-153.0
2026-04-09 22:15:35.750428,296326,1865729964,1865730850,-1.138016,0.339648,-0.05856,-13.335,6.3,-36.53125,22.408,-8.008,16.12,concentric,5,5.0,36381.0,403431.0,137898.0,9838.0,-153.0
2026-04-09 22:15:35.752868,296327,1865744484,1865745760,-1.139968,0.333792,-0.035136,-14.595,6.475,-38.14125,22.408,-8.288,16.832,concentric,5,5.0,36381.0,403431.0,137898.0,9838.0,-153.0
2026-04-09 22:15:35.755374,296328,1865753393,1865754499,-1.139968,0.333792,-0.035136,-14.88375,6.4225,-39.095,22.224,-8.288,16.832,concentric,5,5.0,36381.0,403431.0,137898.0,9838.0,-153.0
2026-04-09 22:15:35.759194,296329,1865762331,1865763226,-1.139968,0.333792,-0.035136,-15.3825,6.69375,-40.57375,22.224,-8.288,16.832,concentric,5,5.0,36381.0,403431.0,137898.0,9838.0,-153.0
2026-04-09 22:15:35.789360,296330,1865776811,1865778152,-1.136064,0.310368,-0.033184,-14.02625,7.8225,-41.57125,21.616001,-7.992001,16.832,concentric,5,5.0,36381.0,403431.0,137898.0,9838.0,-153.0
2026-04-09 22:15:35.792894,296331,1865785705,1865786848,-1.091168,0.36112,-0.03904,-12.32,8.8725,-42.02625,21.472,-7.656,12.632001,concentric,5,5.0,36381.0,403431.0,137898.0,9838.0,-153.0
2026-04-09 22:15:35.799180,296332,1865794604,1865795532,-1.091168,0.36112,-0.03904,-11.165,10.2375,-43.21625,21.472,-7.656,12.632001,concentric,5,5.0,36381.0,403431.0,137898.0,9838.0,-153.0
2026-04-09 22:15:35.829313,296333,1865809065,1865810462,-1.10288,0.318176,-0.042944,-14.21875,9.72125,-44.3975,20.632002,-7.36,16.728,concentric,5,5.0,36381.0,403431.0,137898.0,9838.0,-153.0
2026-04-09 22:15:35.861662,296343,1865817997,1865819209,-1.10288,0.318176,-0.042944,-18.55875,9.30125,-45.01,20.632002,-7.36,16.728,concentric,5,5.0,35526.0,403431.0,137072.0,9616.0,-144.0
2026-04-09 22:15:35.864166,296344,1865826841,1865827927,-1.110688,0.314272,-0.046848,-20.37,8.96,-45.73625,21.424002,-7.8,15.904,concentric,5,5.0,35526.0,403431.0,137072.0,9616.0,-144.0
2026-04-09 22:15:35.869182,296345,1865835754,1865836615,-1.110688,0.314272,-0.046848,-15.1025,10.12375,-44.765,21.424002,-7.8,15.904,concentric,5,5.0,35526.0,403431.0,137072.0,9616.0,-144.0
2026-04-09 22:15:35.871688,296346,1865850261,1865851600,-1.081408,0.345504,-0.031232,-12.285,10.9025,-44.6425,20.296001,-7.664001,16.6,concentric,5,5.0,35526.0,403431.0,137072.0,9616.0,-144.0
2026-04-09 22:15:35.874121,296347,1865859194,1865860331,-1.081408,0.345504,-0.031232,-19.74,10.5175,-47.43375,20.296001,-7.664001,16.6,concentric,5,5.0,35526.0,403431.0,137072.0,9616.0,-144.0
2026-04-09 22:15:35.876709,296348,1865868131,1865869062,-1.061888,0.265472,-0.050752,-21.02625,11.095,-49.63,20.776001,-7.248,15.136001,concentric,5,5.0,35526.0,403431.0,137072.0,9616.0,-144.0
2026-04-09 22:15:35.882621,296349,1865882636,1865884025,-1.061888,0.265472,-0.050752,-19.2675,11.61125,-48.3525,20.776001,-7.248,15.136001,concentric,5,5.0,35526.0,403431.0,137072.0,9616.0,-144.0
2026-04-09 22:15:35.944148,296350,1865891603,1865892788,-1.050176,0.31232,-0.021472,-18.71625,11.445,-47.06625,21.032001,-7.136,16.896,concentric,5,5.0,35526.0,403431.0,137072.0,9616.0,-144.0
2026-04-09 22:15:35.946387,296351,1865900521,1865901480,-1.050176,0.31232,-0.021472,-19.18,12.0925,-46.19125,21.032001,-7.136,16.896,concentric,5,5.0,35526.0,403431.0,137072.0,9616.0,-144.0
2026-04-09 22:15:35.975160,296362,1865915612,1865916595,-1.09312,0.300608,-0.122976,-19.41625,11.8475,-45.8675,20.736,-6.88,14.936001,concentric,5,5.0,34753.0,403431.0,135012.0,8657.0,-150.0
2026-04-09 22:15:35.976772,296363,1865924521,1865925330,-1.09312,0.284992,-0.0976,-18.41,12.425,-44.58125,20.736,-6.88,14.936001,concentric,5,5.0,34753.0,403431.0,135012.0,8657.0,-150.0
2026-04-09 22:15:35.980967,296364,1865933439,1865934030,-1.198528,0.294752,-0.0976,-14.62125,10.7625,-43.951252,20.296001,-7.16,15.376,concentric,5,5.0,34753.0,403431.0,135012.0,8657.0,-150.0
2026-04-09 22:15:35.983409,296365,1865942660,1865944813,-1.198528,0.294752,-0.0976,-8.9075,8.645,-43.435,20.296001,-7.16,15.376,concentric,5,5.0,34753.0,403431.0,135012.0,8657.0,-150.0
2026-04-09 22:15:35.985182,296366,1865957169,1865957671,-1.016992,0.220576,-0.085888,-10.3775,7.7175,-44.8,20.096,-6.952,15.000001,concentric,5,5.0,34753.0,403431.0,135012.0,8657.0,-150.0
2026-04-09 22:15:35.986722,296367,1865966568,1865968471,-1.079456,0.245952,-0.00976,-15.82875,7.56875,-42.84875,19.824001,-7.152,14.936001,concentric,5,5.0,34753.0,403431.0,135012.0,8657.0,-150.0
2026-04-09 22:15:35.991004,296368,1865975524,1865977228,-1.079456,0.245952,-0.00976,-17.9375,9.17875,-38.05375,19.824001,-7.152,14.936001,concentric,5,5.0,34753.0,403431.0,135012.0,8657.0,-150.0
2026-04-09 22:15:35.993379,296369,1865990060,1865992169,-1.056032,0.261568,-0.1952,-19.6175,10.40375,-36.6975,19.632002,-7.32,15.080001,concentric,5,5.0,34753.0,403431.0,135012.0,8657.0,-150.0
2026-04-09 22:15:35.997475,296370,1865998995,1866000948,-1.056032,0.261568,-0.1952,-13.125,8.77625,-36.1725,19.632002,-7.32,15.080001,concentric,5,5.0,34753.0,403431.0,135012.0,8657.0,-150.0
2026-04-09 22:15:36.027809,296371,1866007931,1866009664,-1.052128,0.163968,-0.091744,-8.7675,6.3875,-36.89875,19.76,-6.8,14.928,concentric,5,5.0,34753.0,403431.0,135012.0,8657.0,-150.0
2026-04-09 22:15:36.057319,296381,1866017007,1866018426,-1.052128,0.163968,-0.091744,-7.04375,4.33125,-38.43875,19.76,-6.8,14.928,concentric,5,5.0,35033.0,403431.0,132723.0,7508.0,-145.0
2026-04-09 22:15:36.058911,296382,1866031549,1866033319,-1.03456,0.22448,-0.03904,-3.01,3.85875,-36.1725,18.992,-6.28,14.56,concentric,5,5.0,35033.0,403431.0,132723.0,7508.0,-145.0
2026-04-09 22:15:36.061375,296383,1866040519,1866042092,-1.03456,0.22448,-0.03904,-2.275,6.55375,-32.27875,18.992,-6.28,14.56,concentric,5,5.0,35033.0,403431.0,132723.0,7508.0,-145.0
2026-04-09 22:15:36.062970,296384,1866049501,1866050803,-0.99552,0.193248,-0.052704,-4.935,9.5375,-31.22875,18.216002,-6.416,15.136001,concentric,5,5.0,35033.0,403431.0,132723.0,7508.0,-145.0
2026-04-09 22:15:36.067067,296385,1866064038,1866065777,-0.99552,0.193248,-0.052704,-6.71125,12.29375,-33.013752,18.216002,-6.416,15.136001,concentric,5,5.0,35033.0,403431.0,132723.0,7508.0,-145.0
2026-04-09 22:15:36.073357,296386,1866073003,1866074482,-1.061888,0.218624,-0.105408,-2.0125,14.1925,-35.90125,17.664001,-6.824,14.840001,concentric,5,5.0,35033.0,403431.0,132723.0,7508.0,-145.0
2026-04-09 22:15:36.101898,296387,1866082299,1866083195,-1.061888,0.218624,-0.105408,5.6,14.74375,-35.72625,17.664001,-6.824,14.840001,concentric,5,5.0,35033.0,403431.0,132723.0,7508.0,-145.0
2026-04-09 22:15:36.105642,296388,1866096798,1866098241,-1.040416,0.13664,-0.101504,8.9775,15.07625,-36.25125,17.456001,-6.864,14.168,concentric,5,5.0,35033.0,403431.0,132723.0,7508.0,-145.0
2026-04-09 22:15:36.107913,296389,1866105686,1866106927,-1.042368,0.167872,-0.027328,9.66,16.72125,-36.82875,17.456001,-6.864,15.544001,concentric,5,5.0,35033.0,403431.0,132723.0,7508.0,-145.0
2026-04-09 22:15:36.136869,296399,1866115004,1866115729,-1.042368,0.167872,-0.027328,10.15,19.97625,-33.1625,18.816,-6.6,15.544001,concentric,5,5.0,35072.0,403431.0,132996.0,7627.0,-155.0
2026-04-09 22:15:36.141042,296400,1866124411,1866126586,-1.042368,0.167872,-0.027328,7.6125,21.77,-32.17375,18.816,-6.6,15.544001,concentric,5,5.0,35072.0,403431.0,132996.0,7627.0,-155.0
2026-04-09 22:15:36.142524,296401,1866138953,1866139452,-0.991616,0.140544,-0.179584,8.33,21.7875,-33.7925,17.392,-6.488,15.112,concentric,5,5.0,35072.0,403431.0,132996.0,7627.0,-155.0
2026-04-09 22:15:36.148375,296402,1866148318,1866150311,-1.028704,0.132736,-0.15616,10.89375,19.25,-32.24375,17.128,-6.104,15.016001,concentric,5,5.0,35072.0,403431.0,132996.0,7627.0,-155.0
2026-04-09 22:15:36.176840,296403,1866157240,1866159052,-1.028704,0.132736,-0.15616,12.4075,15.79375,-30.5725,17.128,-6.104,15.016001,concentric,5,5.0,35072.0,403431.0,132996.0,7627.0,-155.0
2026-04-09 22:15:36.181552,296404,1866166241,1866167757,-0.938912,0.128832,-0.040992,13.85125,12.8975,-27.772501,17.624,-5.592001,12.648001,concentric,5,5.0,35072.0,403431.0,132996.0,7627.0,-155.0
2026-04-09 22:15:36.183006,296405,1866180780,1866182651,-0.938912,0.128832,-0.040992,14.60375,12.8625,-26.36375,17.624,-5.592001,12.648001,concentric,5,5.0,35072.0,403431.0,132996.0,7627.0,-155.0
2026-04-09 22:15:36.189663,296406,1866189702,1866191379,-0.913536,0.1464,-0.00976,14.69125,14.525,-24.15875,17.312,-5.552,12.912001,concentric,5,5.0,35072.0,403431.0,132996.0,7627.0,-155.0
2026-04-09 22:15:36.246618,296407,1866198663,1866200142,-0.913536,0.1464,-0.00976,15.91625,16.4325,-24.57875,17.312,-5.552,12.912001,concentric,5,5.0,35072.0,403431.0,132996.0,7627.0,-155.0
2026-04-09 22:15:36.275933,296418,1866213158,1866215071,-0.903776,0.040992,-0.124928,15.67125,18.20875,-26.6175,16.824001,-5.744,13.248001,concentric,5,5.0,35058.0,403431.0,134124.0,8177.0,-146.0
2026-04-09 22:15:36.277622,296419,1866222528,1866223779,-0.903776,0.040992,-0.124928,12.355001,16.52,-26.39875,16.824001,-5.744,13.248001,concentric,5,5.0,35058.0,403431.0,134124.0,8177.0,-146.0
2026-04-09 22:15:36.279237,296420,1866231488,1866232507,-0.979904,0.115168,-0.20496,13.0025,12.775,-22.12,16.968,-5.552,13.416,concentric,5,5.0,35058.0,403431.0,134124.0,8177.0,-146.0
2026-04-09 22:15:36.283419,296421,1866240421,1866241199,-0.979904,0.115168,-0.20496,17.43875,6.5975,-16.275,16.968,-5.552,13.416,concentric,5,5.0,35058.0,403431.0,134124.0,8177.0,-146.0
2026-04-09 22:15:36.285229,296422,1866254906,1866256085,-0.853024,0.089792,-0.115168,18.34875,1.4875,-14.761251,16.968,-5.664,13.624001,concentric,5,5.0,35058.0,403431.0,134124.0,8177.0,-146.0
2026-04-09 22:15:36.286883,296423,1866263945,1866264808,-0.853024,0.089792,-0.115168,16.38875,0.32375,-16.7125,16.968,-5.664,13.624001,concentric,5,5.0,35058.0,403431.0,134124.0,8177.0,-146.0
2026-04-09 22:15:36.291034,296424,1866272987,1866273514,-0.825696,0.074176,0.046848,14.27125,2.625,-16.0475,16.328001,-5.536,14.584001,concentric,5,5.0,35058.0,403431.0,134124.0,8177.0,-146.0
2026-04-09 22:15:36.293306,296425,1866287979,1866288514,-0.954528,0.091744,-0.109312,14.41125,6.23875,-13.2825,16.144001,-5.576,15.056001,concentric,5,5.0,35058.0,403431.0,134124.0,8177.0,-146.0
2026-04-09 22:15:36.297055,296426,1866297419,1866299287,-0.954528,0.091744,-0.109312,13.2825,7.86625,-11.50625,16.144001,-5.576,15.056001,concentric,5,5.0,35058.0,403431.0,134124.0,8177.0,-146.0
2026-04-09 22:15:36.325583,296427,1866306485,1866308010,-0.860832,0.031232,-0.247904,14.752501,5.95,-9.35375,16.144001,-5.576,13.416,concentric,5,5.0,35058.0,403431.0,134124.0,8177.0,-146.0
2026-04-09 22:15:36.356963,296437,1866315446,1866316806,-0.866688,0.031232,-0.247904,16.1175,1.46125,-8.56625,17.072,-5.568,13.416,concentric,5,5.0,35708.0,403431.0,135193.0,8643.0,-134.0
2026-04-09 22:15:36.361052,296438,1866329978,1866331751,-0.90768,0.044896,0.021472,15.4,-2.695,-5.2325,17.856,-5.744,13.424001,concentric,5,5.0,35708.0,403431.0,135193.0,8643.0,-134.0
2026-04-09 22:15:36.364373,296439,1866338962,1866340503,-0.90768,0.044896,0.021472,17.185,-3.40375,-1.6625,17.856,-5.744,13.424001,concentric,5,5.0,35708.0,403431.0,135193.0,8643.0,-134.0
2026-04-09 22:15:36.364434,296440,1866347984,1866349210,-0.903776,0.17568,0.015616,18.0425,-1.47,-0.07875,15.744,-5.336,10.264001,concentric,5,5.0,35708.0,403431.0,135193.0,8643.0,-134.0
2026-04-09 22:15:36.365433,296441,1866362633,1866364268,-0.903776,0.17568,0.015616,17.2375,0.91,-0.90125,15.744,-5.336,10.264001,concentric,5,5.0,35708.0,403431.0,135193.0,8643.0,-134.0
2026-04-09 22:15:36.370878,296442,1866371567,1866372981,-0.929152,-0.013664,-0.0976,14.72625,1.9075,-7.63875,16.096,-5.672,14.288001,concentric,5,5.0,35708.0,403431.0,135193.0,8643.0,-134.0
