pc_time,serial_num,sensor_ts,host_ts,ax,ay,az,gx,gy,gz,mx,my,mz,phase,rpe,weight_kg,ppg_a,ppg_b,ppg_c,ppg_d,ppg_e
2026-04-09 22:15:53.172239,299576,1883169124,1883170120,-1.032608,0.074176,-0.060512,-5.90625,-0.55125,-14.0525,18.44,-7.632,13.848001,eccentric,5,5.0,34963.0,403431.0,141743.0,12020.0,-136.0
2026-04-09 22:15:53.203730,299577,1883183618,1883185013,-1.032608,0.179584,-0.003904,-3.36875,-1.2075,-10.2025,18.304,-7.544,13.568001,eccentric,5,5.0,34963.0,403431.0,141743.0,12020.0,-136.0
2026-04-09 22:15:53.207261,299578,1883192559,1883193757,-1.032608,0.179584,-0.003904,-2.49375,-1.65375,-10.68375,18.304,-7.544,13.568001,eccentric,5,5.0,34963.0,403431.0,141743.0,12020.0,-136.0
2026-04-09 22:15:53.209755,299579,1883201462,1883202459,-0.96624,0.150304,-0.081984,-3.14125,-4.31375,-13.25625,18.256,-8.08,14.008,eccentric,5,5.0,34963.0,403431.0,141743.0,12020.0,-136.0
2026-04-09 22:15:53.238218,299590,1883210965,1883211327,-0.96624,0.150304,-0.081984,-2.38,-5.6525,-17.605,18.256,-8.08,14.008,eccentric,5,5.0,35470.0,403431.0,139319.0,10283.0,-147.0
2026-04-09 22:15:53.239709,299591,1883225808,1883226330,-1.022848,0.119072,0.052704,0.1575,-5.53875,-16.86125,18.768002,-7.000001,13.688001,eccentric,5,5.0,35470.0,403431.0,139319.0,10283.0,-147.0
2026-04-09 22:15:53.243275,299592,1883235206,1883237141,-1.022848,0.119072,0.052704,-0.63,-3.31625,-13.055,18.768002,-7.000001,13.688001,eccentric,5,5.0,35470.0,403431.0,139319.0,10283.0,-147.0
2026-04-09 22:15:53.244846,299593,1883244141,1883245879,-1.0736,0.1464,-0.122976,-5.04875,-2.02125,-10.91125,18.192001,-7.704001,14.120001,eccentric,5,5.0,35470.0,403431.0,139319.0,10283.0,-147.0
2026-04-09 22:15:53.274957,299594,1883253102,1883254671,-1.0736,0.1464,-0.122976,-3.0275,-3.89375,-9.79125,18.192001,-7.704001,14.120001,eccentric,5,5.0,35470.0,403431.0,139319.0,10283.0,-147.0
2026-04-09 22:15:53.278534,299595,1883267694,1883269640,-1.022848,0.122976,-0.037088,1.86375,-5.495,-12.32875,16.896,-8.08,13.624001,eccentric,5,5.0,35470.0,403431.0,139319.0,10283.0,-147.0
2026-04-09 22:15:53.281003,299596,1883276594,1883278350,-1.022848,0.148352,0.031232,6.335,-7.27125,-12.73125,16.896,-8.08,13.624001,eccentric,5,5.0,35470.0,403431.0,139319.0,10283.0,-147.0
2026-04-09 22:15:53.284762,299597,1883285517,1883287082,-0.983808,0.148352,0.031232,8.225,-7.27125,-10.675,18.336,-7.304,13.832001,eccentric,5,5.0,35470.0,403431.0,139319.0,10283.0,-147.0
2026-04-09 22:15:53.314905,299598,1883300066,1883301969,-1.081408,0.181536,-0.007808,4.935,-4.5325,-9.19625,18.528002,-7.960001,14.176001,eccentric,5,5.0,35470.0,403431.0,139319.0,10283.0,-147.0
2026-04-09 22:15:53.341067,299608,1883309049,1883310949,-1.081408,0.181536,-0.007808,0.51625,-0.79625,-7.51625,18.528002,-7.960001,14.176001,eccentric,5,5.0,35193.0,403431.0,139113.0,10295.0,-154.0
2026-04-09 22:15:53.343549,299609,1883317984,1883319651,-1.026752,0.091744,-0.1952,-1.42625,0.21,-7.76125,18.264,-7.592001,14.072001,eccentric,5,5.0,35193.0,403431.0,139113.0,10295.0,-154.0
2026-04-09 22:15:53.346010,299610,1883332523,1883334724,-1.026752,0.091744,-0.1952,1.65375,-3.98125,-9.79125,18.264,-7.592001,14.072001,eccentric,5,5.0,35193.0,403431.0,139113.0,10295.0,-154.0
2026-04-09 22:15:53.348514,299611,1883341581,1883343452,-1.013088,0.093696,0.07808,9.10875,-7.0175,-10.43,17.384,-7.584001,15.128,eccentric,5,5.0,35193.0,403431.0,139113.0,10295.0,-154.0
2026-04-09 22:15:53.351058,299612,1883350527,1883352196,-1.013088,0.093696,0.07808,16.38875,-7.25375,-6.055,17.384,-7.584001,15.128,eccentric,5,5.0,35193.0,403431.0,139113.0,10295.0,-154.0
2026-04-09 22:15:53.381291,299613,1883359582,1883360904,-1.01504,0.160064,0.056608,14.315001,-4.90875,-3.71875,17.792002,-7.312,15.056001,eccentric,5,5.0,35193.0,403431.0,139113.0,10295.0,-154.0
2026-04-09 22:15:53.384788,299614,1883374096,1883375831,-1.01504,0.160064,0.056608,4.725,-0.8925,-6.01125,17.792002,-7.312,15.056001,eccentric,5,5.0,35193.0,403431.0,139113.0,10295.0,-154.0
2026-04-09 22:15:53.387280,299615,1883383019,1883384541,-0.999424,0.181536,-0.119072,6.06375,1.04125,-3.08,18.168001,-7.496,14.032001,eccentric,5,5.0,35193.0,403431.0,139113.0,10295.0,-154.0
2026-04-09 22:15:53.391026,299616,1883391977,1883393251,-0.999424,0.181536,-0.119072,8.49625,1.19,-7.69125,18.168001,-7.496,14.032001,eccentric,5,5.0,35193.0,403431.0,139113.0,10295.0,-154.0
2026-04-09 22:15:53.428713,299617,1883406577,1883408164,-0.98576,0.060512,-0.05856,10.52625,-0.49,-8.295,17.52,-7.496,15.544001,eccentric,5,5.0,35193.0,403431.0,139113.0,10295.0,-154.0
2026-04-09 22:15:53.454708,299627,1883415622,1883416932,-0.98576,0.060512,-0.05856,15.25125,-1.51375,-2.77375,17.52,-7.496,15.544001,eccentric,5,5.0,34107.0,403431.0,139123.0,10550.0,-142.0
2026-04-09 22:15:53.457297,299628,1883424548,1883425689,-0.972096,0.203008,0.064416,18.40125,-2.16125,0.6825,18.544,-7.672,12.728001,eccentric,5,5.0,34107.0,403431.0,139123.0,10550.0,-142.0
2026-04-09 22:15:53.459803,299629,1883439036,1883440625,-1.003328,0.15616,-0.054656,15.9075,-1.4875,-0.455,17.392,-7.68,14.848001,eccentric,5,5.0,34107.0,403431.0,139123.0,10550.0,-142.0
2026-04-09 22:15:53.462307,299630,1883448078,1883449347,-1.003328,0.15616,-0.054656,9.26625,-0.5425,-2.7125,17.392,-7.68,14.848001,eccentric,5,5.0,34107.0,403431.0,139123.0,10550.0,-142.0
2026-04-09 22:15:53.464712,299631,1883457009,1883458142,-1.003328,0.15616,-0.060512,11.6375,-0.35,-2.415,17.392,-7.68,14.848001,eccentric,5,5.0,34107.0,403431.0,139123.0,10550.0,-142.0
2026-04-09 22:15:53.467301,299632,1883466065,1883466873,-1.00528,0.152256,-0.060512,16.24875,-0.34125,-2.6075,17.768002,-7.552001,15.6,eccentric,5,5.0,34107.0,403431.0,139123.0,10550.0,-142.0
2026-04-09 22:15:53.497482,299633,1883480572,1883481780,-0.962336,0.142496,0.062464,19.18875,0.1225,-1.77625,18.656,-7.24,14.400001,eccentric,5,5.0,34107.0,403431.0,139123.0,10550.0,-142.0
2026-04-09 22:15:53.501070,299634,1883489494,1883490483,-0.962336,0.142496,0.062464,16.80875,2.05625,-1.155,18.656,-7.24,14.400001,eccentric,5,5.0,34107.0,403431.0,139123.0,10550.0,-142.0
2026-04-09 22:15:53.503512,299635,1883498440,1883499190,-1.0248,0.216672,-0.046848,13.545,2.73875,1.575,18.704,-7.496,14.64,eccentric,5,5.0,34107.0,403431.0,139123.0,10550.0,-142.0
2026-04-09 22:15:53.537363,299646,1883513894,1883514267,-1.0248,0.216672,-0.046848,11.1125,3.28125,2.2925,18.704,-7.496,14.64,eccentric,5,5.0,33494.0,403431.0,139230.0,10769.0,-148.0
2026-04-09 22:15:53.539730,299647,1883523273,1883525118,-0.983808,0.163968,-0.121024,10.885,2.135,1.79375,19.0,-6.976,14.416,eccentric,5,5.0,33494.0,403431.0,139230.0,10769.0,-148.0
2026-04-09 22:15:53.542307,299648,1883532312,1883533841,-0.983808,0.163968,-0.121024,12.4075,0.0175,-0.9975,19.0,-6.976,14.416,eccentric,5,5.0,33494.0,403431.0,139230.0,10769.0,-148.0
2026-04-09 22:15:53.544752,299649,1883541302,1883542609,-0.96624,0.148352,-0.001952,15.575,-2.24,0.2975,18.128,-7.536,14.656001,eccentric,5,5.0,33494.0,403431.0,139230.0,10769.0,-148.0
2026-04-09 22:15:53.575034,299650,1883555835,1883557525,-0.96624,0.148352,-0.001952,17.35125,-3.0625,3.115,18.128,-7.536,14.656001,eccentric,5,5.0,33494.0,403431.0,139230.0,10769.0,-148.0
2026-04-09 22:15:53.578542,299651,1883564735,1883566223,-0.919392,0.212768,0.02928,16.30125,-2.05625,5.87125,17.184,-7.144001,14.144001,eccentric,5,5.0,33494.0,403431.0,139230.0,10769.0,-148.0
2026-04-09 22:15:53.581002,299652,1883573725,1883574926,-0.919392,0.212768,0.02928,12.845,-0.97125,5.50375,17.184,-7.144001,14.144001,eccentric,5,5.0,33494.0,403431.0,139230.0,10769.0,-148.0
2026-04-09 22:15:53.587258,299653,1883588213,1883589987,-0.962336,0.226432,-0.044896,9.9925,1.02375,5.6175,18.912,-7.528,14.456,eccentric,5,5.0,33494.0,403431.0,139230.0,10769.0,-148.0
2026-04-09 22:15:53.640031,299654,1883597208,1883598737,-0.962336,0.226432,-0.044896,9.98375,2.2925,6.0025,18.912,-7.528,14.456,eccentric,5,5.0,33494.0,403431.0,139230.0,10769.0,-148.0
2026-04-09 22:15:53.645049,299655,1883606128,1883607410,-0.942816,0.20496,-0.0488,10.5175,1.68875,5.7575,18.608002,-7.296001,14.352,eccentric,5,5.0,33494.0,403431.0,139230.0,10769.0,-148.0
2026-04-09 22:15:53.668465,299665,1883615748,1883616208,-0.942816,0.20496,-0.0488,11.92625,0.9275,7.49,18.608002,-7.296001,14.352,eccentric,5,5.0,33132.0,403431.0,139363.0,10935.0,-154.0
2026-04-09 22:15:53.671055,299666,1883630628,1883631142,-0.909632,0.197152,0.021472,10.31625,0.44625,9.1875,18.880001,-7.408001,14.128,eccentric,5,5.0,33132.0,403431.0,139363.0,10935.0,-154.0
2026-04-09 22:15:53.673517,299667,1883640100,1883641921,-0.931104,0.247904,-0.033184,6.46625,0.7875,11.17375,19.072,-7.016,14.496,eccentric,5,5.0,33132.0,403431.0,139363.0,10935.0,-154.0
2026-04-09 22:15:53.675982,299668,1883649055,1883650625,-0.931104,0.247904,-0.033184,3.57875,0.6825,13.25625,19.072,-7.016,14.496,eccentric,5,5.0,33132.0,403431.0,139363.0,10935.0,-154.0
2026-04-09 22:15:53.678528,299669,1883657993,1883659395,-0.931104,0.247904,-0.072224,3.2375,0.53375,14.5075,19.072,-7.016,14.496,eccentric,5,5.0,33132.0,403431.0,139363.0,10935.0,-154.0
2026-04-09 22:15:53.681041,299670,1883672685,1883674453,-0.925248,0.23424,-0.072224,6.3175,-0.34125,14.035,19.504002,-7.392,15.304001,eccentric,5,5.0,33132.0,403431.0,139363.0,10935.0,-154.0
2026-04-09 22:15:53.683546,299671,1883681694,1883683204,-0.913536,0.228384,-0.00976,9.6775,-2.03,14.542501,18.888,-7.400001,16.088001,eccentric,5,5.0,33132.0,403431.0,139363.0,10935.0,-154.0
2026-04-09 22:15:53.689823,299672,1883690633,1883691897,-0.913536,0.228384,-0.00976,11.01625,-3.3425,17.03625,18.888,-7.400001,16.088001,eccentric,5,5.0,33132.0,403431.0,139363.0,10935.0,-154.0
2026-04-09 22:15:53.729549,299673,1883705119,1883706834,-0.890112,0.236192,0.031232,8.4875,-4.36625,18.27875,18.08,-7.440001,15.064001,eccentric,5,5.0,33132.0,403431.0,139363.0,10935.0,-154.0
2026-04-09 22:15:53.758604,299683,1883714128,1883715641,-0.890112,0.236192,0.031232,2.35375,-4.71625,20.64125,18.08,-7.440001,15.064001,eccentric,5,5.0,33083.0,403431.0,138890.0,10646.0,-139.0
2026-04-09 22:15:53.761087,299684,1883723140,1883724379,-0.952576,0.298656,-0.042944,-2.59,-4.9875,22.61875,19.448002,-8.440001,14.936001,eccentric,5,5.0,33083.0,403431.0,138890.0,10646.0,-139.0
2026-04-09 22:15:53.763564,299685,1883737584,1883739325,-0.952576,0.298656,-0.042944,-3.2025,-6.09875,23.8175,19.448002,-8.440001,14.936001,eccentric,5,5.0,33083.0,403431.0,138890.0,10646.0,-139.0
2026-04-09 22:15:53.766018,299686,1883746515,1883748103,-0.88816,0.244,-0.08784,-1.04125,-7.30625,23.40625,19.456001,-8.256001,15.936001,eccentric,5,5.0,33083.0,403431.0,138890.0,10646.0,-139.0
2026-04-09 22:15:53.768525,299687,1883755563,1883756862,-0.88816,0.244,-0.08784,1.8025,-11.1125,21.9275,19.456001,-8.256001,15.936001,eccentric,5,5.0,33083.0,403431.0,138890.0,10646.0,-139.0
2026-04-09 22:15:53.771064,299688,1883764483,1883765581,-0.886208,0.269376,-0.017568,6.29125,-15.3475,25.31375,19.592001,-8.104,15.544001,eccentric,5,5.0,33083.0,403431.0,138890.0,10646.0,-139.0
2026-04-09 22:15:53.802805,299689,1883778969,1883780496,-0.901824,0.366976,0.103456,7.62125,-18.12125,27.79875,19.592001,-8.464001,16.048,eccentric,5,5.0,33083.0,403431.0,138890.0,10646.0,-139.0
2026-04-09 22:15:53.806219,299690,1883787862,1883789181,-0.901824,0.366976,0.103456,6.37,-18.3225,29.785,19.512001,-8.464001,16.048,eccentric,5,5.0,33083.0,403431.0,138890.0,10646.0,-139.0
2026-04-09 22:15:53.811096,299691,1883796789,1883797902,-0.901824,0.366976,0.103456,1.95125,-17.01,31.045,19.512001,-8.464001,16.048,eccentric,5,5.0,33083.0,403431.0,138890.0,10646.0,-139.0
2026-04-09 22:15:53.817340,299692,1883811292,1883812823,-0.923296,0.337696,-0.042944,-2.58125,-13.965,29.522501,20.256,-8.336,16.536001,eccentric,5,5.0,33083.0,403431.0,138890.0,10646.0,-139.0
2026-04-09 22:15:53.844727,299703,1883820266,1883821582,-0.929152,0.339648,0.005856,-0.39375,-11.55,29.4,18.992,-9.008,18.024,eccentric,5,5.0,34816.0,403431.0,137939.0,9651.0,-128.0
2026-04-09 22:15:53.847276,299704,1883829231,1883830331,-0.929152,0.339648,0.005856,2.3275,-10.5,31.185,18.992,-9.008,18.024,eccentric,5,5.0,34816.0,403431.0,137939.0,9651.0,-128.0
2026-04-09 22:15:53.849760,299705,1883843880,1883845298,-0.95648,0.388448,-0.017568,2.80875,-10.89375,33.3725,20.432001,-9.136001,16.328001,eccentric,5,5.0,34816.0,403431.0,137939.0,9651.0,-128.0
2026-04-09 22:15:53.852265,299706,1883852830,1883854020,-0.95648,0.388448,-0.017568,0.93625,-12.4425,34.83375,20.432001,-9.136001,16.328001,eccentric,5,5.0,34816.0,403431.0,137939.0,9651.0,-128.0
2026-04-09 22:15:53.883078,299707,1883861774,1883862750,-0.944768,0.392352,0.003904,-0.4375,-13.0725,35.035,20.744001,-9.272,16.456001,eccentric,5,5.0,34816.0,403431.0,137939.0,9651.0,-128.0
2026-04-09 22:15:53.886446,299708,1883876269,1883877648,-0.944768,0.392352,0.003904,-0.4375,-11.90875,35.35875,20.744001,-9.272,16.456001,eccentric,5,5.0,34816.0,403431.0,137939.0,9651.0,-128.0
2026-04-09 22:15:53.890478,299709,1883885172,1883886337,-0.98576,0.411872,0.062464,-1.53125,-9.292501,34.64125,20.656,-9.52,16.432001,eccentric,5,5.0,34816.0,403431.0,137939.0,9651.0,-128.0
2026-04-09 22:15:53.893574,299710,1883894082,1883895010,-0.98576,0.411872,0.062464,-1.435,-7.16625,35.35,20.656,-9.52,16.432001,eccentric,5,5.0,34816.0,403431.0,137939.0,9651.0,-128.0
2026-04-09 22:15:53.923788,299711,1883903003,1883903753,-1.032608,0.402112,0.017568,-0.28875,-6.37875,36.63625,21.344002,-10.016001,16.960001,eccentric,5,5.0,34816.0,403431.0,137939.0,9651.0,-128.0
2026-04-09 22:15:53.949812,299721,1883918130,1883918726,-1.032608,0.402112,0.017568,0.63875,-7.175,36.46125,21.344002,-10.016001,16.960001,eccentric,5,5.0,34374.0,403431.0,137786.0,9713.0,-138.0
2026-04-09 22:15:53.952315,299722,1883927341,1883929495,-1.00528,0.407968,-0.01952,3.4125,-7.91875,34.30875,21.312,-9.896001,17.008001,eccentric,5,5.0,34374.0,403431.0,137786.0,9713.0,-138.0
2026-04-09 22:15:53.954812,299723,1883936287,1883938205,-1.00528,0.407968,-0.01952,4.06,-7.97125,34.06375,21.312,-9.896001,17.008001,eccentric,5,5.0,34374.0,403431.0,137786.0,9713.0,-138.0
2026-04-09 22:15:53.957237,299724,1883950838,1883951168,-0.989664,0.427488,0.081984,1.8375,-7.0875,33.775,21.336,-9.968,16.68,eccentric,5,5.0,34374.0,403431.0,137786.0,9713.0,-138.0
2026-04-09 22:15:53.959794,299725,1883960136,1883961928,-1.026752,0.460672,0.074176,3.14125,-4.1825,33.6525,21.52,-10.88,20.112001,eccentric,5,5.0,34374.0,403431.0,137786.0,9713.0,-138.0
2026-04-09 22:15:53.990050,299726,1883969106,1883970687,-1.026752,0.460672,0.074176,3.80625,-0.98,32.7775,21.52,-10.88,20.112001,eccentric,5,5.0,34374.0,403431.0,137786.0,9713.0,-138.0
2026-04-09 22:15:53.993558,299727,1883978035,1883979421,-1.026752,0.460672,0.074176,3.92,1.07625,33.27625,21.52,-10.88,20.112001,eccentric,5,5.0,34374.0,403431.0,137786.0,9713.0,-138.0
2026-04-09 22:15:53.996060,299728,1883992501,1883994345,-0.987712,0.489952,0.015616,4.0075,2.275,31.12375,21.536001,-10.584001,16.576,eccentric,5,5.0,34374.0,403431.0,137786.0,9713.0,-138.0
2026-04-09 22:15:54.032528,299729,1884001452,1884003038,-1.013088,0.37088,-0.011712,-0.28875,3.0975,23.9925,20.944,-11.056001,18.128,eccentric,5,5.0,34374.0,403431.0,137786.0,9713.0,-138.0
2026-04-09 22:15:54.036112,299730,1884010382,1884011833,-1.013088,0.37088,-0.011712,-2.77375,2.87,23.0825,20.944,-11.056001,18.128,eccentric,5,5.0,34374.0,403431.0,137786.0,9713.0,-138.0
2026-04-09 22:15:54.061041,299740,1884024900,1884025234,-1.001376,0.452864,0.027328,-1.12,2.68625,25.375,21.640001,-11.248,17.344002,eccentric,5,5.0,34091.0,403431.0,138913.0,10432.0,-141.0
2026-04-09 22:15:54.063558,299741,1884034143,1884036027,-1.001376,0.452864,0.027328,0.35,1.95125,26.60875,21.640001,-11.248,17.344002,eccentric,5,5.0,34091.0,403431.0,138913.0,10432.0,-141.0
2026-04-09 22:15:54.068528,299742,1884043050,1884044759,-1.03456,0.515328,0.07808,1.28625,2.3975,27.81625,22.080002,-11.512,17.608002,eccentric,5,5.0,34091.0,403431.0,138913.0,10432.0,-141.0
2026-04-09 22:15:54.071005,299743,1884052082,1884053513,-1.03456,0.515328,0.07808,-0.455,2.555,25.57625,22.080002,-11.512,17.608002,eccentric,5,5.0,34091.0,403431.0,138913.0,10432.0,-141.0
2026-04-09 22:15:54.073500,299744,1884066622,1884068519,-1.038464,0.491904,-0.070272,-3.325,1.39125,22.303751,22.216002,-11.488001,16.952002,eccentric,5,5.0,34091.0,403431.0,138913.0,10432.0,-141.0
2026-04-09 22:15:54.076093,299745,1884075535,1884077218,-1.038464,0.491904,-0.070272,-2.9925,-0.1925,19.4775,22.216002,-11.488001,16.952002,eccentric,5,5.0,34091.0,403431.0,138913.0,10432.0,-141.0
2026-04-09 22:15:54.106294,299746,1884084502,1884085947,-1.030656,0.38064,0.005856,-4.69875,-2.835,16.72125,22.696001,-11.472,17.640001,eccentric,5,5.0,34091.0,403431.0,138913.0,10432.0,-141.0
2026-04-09 22:15:54.109882,299747,1884098988,1884100859,-1.030656,0.38064,0.005856,-4.43625,-4.68125,17.54375,22.696001,-11.472,17.640001,eccentric,5,5.0,34091.0,403431.0,138913.0,10432.0,-141.0
2026-04-09 22:15:54.112265,299748,1884107894,1884109571,-1.030656,0.466528,0.033184,-1.39125,-6.53625,17.71875,23.160002,-11.672001,18.056002,eccentric,5,5.0,34091.0,403431.0,138913.0,10432.0,-141.0
2026-04-09 22:15:54.139787,299759,1884117165,1884118347,-1.030656,0.466528,0.033184,1.155,-7.805,17.59625,23.160002,-11.672001,18.056002,eccentric,5,5.0,33040.0,403431.0,139424.0,11033.0,-136.0
2026-04-09 22:15:54.142228,299760,1884131720,1884133425,-1.056032,0.552416,0.066368,5.4775,-7.46375,16.10875,22.768002,-12.224001,20.664001,eccentric,5,5.0,33040.0,403431.0,139424.0,11033.0,-136.0
2026-04-09 22:15:54.144747,299761,1884140695,1884142139,-1.100928,0.452864,0.031232,3.5875,-6.25625,10.36875,21.800001,-12.264001,22.352001,eccentric,5,5.0,33040.0,403431.0,139424.0,11033.0,-136.0
2026-04-09 22:15:54.148758,299762,1884149650,1884150872,-1.100928,0.452864,0.031232,1.225,-5.6,7.63875,21.800001,-12.264001,22.352001,eccentric,5,5.0,33040.0,403431.0,139424.0,11033.0,-136.0
2026-04-09 22:15:54.179726,299763,1884158659,1884159632,-1.100928,0.452864,0.031232,7.7525,-4.40125,8.33875,21.800001,-12.264001,22.352001,eccentric,5,5.0,33040.0,403431.0,139424.0,11033.0,-136.0
2026-04-09 22:15:54.182174,299764,1884173171,1884174508,-1.087264,0.415776,0.017568,6.09,-3.5525,8.12,22.384,-11.408001,20.12,eccentric,5,5.0,33040.0,403431.0,139424.0,11033.0,-136.0
2026-04-09 22:15:54.184741,299765,1884182110,1884183207,-1.130208,0.456768,0.011712,2.0475,-3.85,10.045,23.544,-12.000001,18.264,eccentric,5,5.0,33040.0,403431.0,139424.0,11033.0,-136.0
2026-04-09 22:15:54.189748,299766,1884191048,1884191907,-1.130208,0.456768,0.011712,-0.69125,-4.0075,11.71625,23.544,-12.000001,18.264,eccentric,5,5.0,33040.0,403431.0,139424.0,11033.0,-136.0
2026-04-09 22:15:54.219943,299767,1884205525,1884206797,-1.13216,0.49776,0.050752,-0.60375,-5.6525,12.03125,23.376001,-12.088,19.640001,eccentric,5,5.0,33040.0,403431.0,139424.0,11033.0,-136.0
2026-04-09 22:15:54.245946,299777,1884214554,1884215912,-1.13216,0.49776,0.050752,1.42625,-6.64125,11.48875,23.376001,-12.088,19.640001,eccentric,5,5.0,33343.0,403431.0,140702.0,11826.0,-141.0
2026-04-09 22:15:54.248497,299778,1884223477,1884224582,-1.110688,0.443104,0.031232,1.4525,-7.91875,9.63375,24.320002,-11.64,19.248001,eccentric,5,5.0,33343.0,403431.0,140702.0,11826.0,-141.0
2026-04-09 22:15:54.251068,299779,1884237976,1884239669,-1.110688,0.443104,0.031232,1.67125,-8.11125,9.77375,24.320002,-11.64,19.248001,eccentric,5,5.0,33343.0,403431.0,140702.0,11826.0,-141.0
2026-04-09 22:15:54.253469,299780,1884247130,1884248416,-1.097024,0.454816,0.056608,4.13,-7.4375,10.115,24.544,-11.704,19.912,eccentric,5,5.0,33343.0,403431.0,140702.0,11826.0,-141.0
2026-04-09 22:15:54.256050,299781,1884256054,1884257140,-1.097024,0.454816,0.056608,3.3425,-6.7725,10.31625,24.544,-11.704,19.912,eccentric,5,5.0,33343.0,403431.0,140702.0,11826.0,-141.0
2026-04-09 22:15:54.287423,299782,1884264993,1884265858,-1.136064,0.47824,0.064416,2.205,-6.93,10.57875,24.392002,-12.096001,21.384,eccentric,5,5.0,33343.0,403431.0,140702.0,11826.0,-141.0
2026-04-09 22:15:54.291054,299783,1884279616,1884280787,-1.136064,0.47824,0.064416,1.65375,-6.65,9.8,24.392002,-12.096001,21.384,eccentric,5,5.0,33343.0,403431.0,140702.0,11826.0,-141.0
2026-04-09 22:15:54.293604,299784,1884288519,1884289483,-1.120448,0.441152,0.0488,2.38,-6.0025,8.61875,24.632002,-12.216001,20.672,eccentric,5,5.0,33343.0,403431.0,140702.0,11826.0,-141.0
2026-04-09 22:15:54.296076,299785,1884297451,1884298183,-1.120448,0.441152,0.0488,0.91,-6.615,7.9975,24.632002,-12.216001,20.672,eccentric,5,5.0,33343.0,403431.0,140702.0,11826.0,-141.0
2026-04-09 22:15:54.332480,299786,1884312373,1884313095,-1.104832,0.421632,0.056608,0.86625,-6.755,7.79625,23.624,-12.496,21.576,eccentric,5,5.0,33343.0,403431.0,140702.0,11826.0,-141.0
2026-04-09 22:15:54.358518,299796,1884321819,1884323902,-1.097024,0.447008,0.083936,1.96,-6.7025,7.84875,25.096,-12.848001,20.376001,eccentric,5,5.0,34065.0,403431.0,142895.0,13106.0,-134.0
2026-04-09 22:15:54.363262,299797,1884330788,1884332643,-1.097024,0.447008,0.083936,3.35125,-5.90625,7.77875,25.096,-12.848001,20.376001,eccentric,5,5.0,34065.0,403431.0,142895.0,13106.0,-134.0
2026-04-09 22:15:54.367216,299798,1884339745,1884341347,-1.097024,0.447008,0.083936,3.99,-4.2875,7.07,25.096,-12.848001,20.376001,eccentric,5,5.0,34065.0,403431.0,142895.0,13106.0,-134.0
2026-04-09 22:15:54.369815,299799,1884354291,1884356302,-1.10288,0.42944,0.085888,3.33375,-2.485,5.81875,24.056002,-12.224001,22.544,eccentric,5,5.0,34065.0,403431.0,142895.0,13106.0,-134.0
2026-04-09 22:15:54.372333,299800,1884363320,1884365048,-1.08336,0.3904,0.037088,2.4325,-1.81125,5.06625,24.616001,-12.56,21.776001,eccentric,5,5.0,34065.0,403431.0,142895.0,13106.0,-134.0
2026-04-09 22:15:54.374847,299801,1884372279,1884373754,-1.08336,0.3904,0.037088,1.96,-1.89,5.03125,24.616001,-12.56,21.776001,eccentric,5,5.0,34065.0,403431.0,142895.0,13106.0,-134.0
2026-04-09 22:15:54.404983,299802,1884386787,1884388624,-1.087264,0.40016,0.085888,1.8375,-2.07375,4.50625,26.000002,-12.192,20.960001,eccentric,5,5.0,34065.0,403431.0,142895.0,13106.0,-134.0
2026-04-09 22:15:54.408552,299803,1884395704,1884397345,-1.087264,0.40016,0.085888,4.20875,-3.115,4.48875,26.000002,-12.192,20.960001,eccentric,5,5.0,34065.0,403431.0,142895.0,13106.0,-134.0
2026-04-09 22:15:54.411055,299804,1884404621,1884406040,-1.061888,0.398208,0.074176,5.5825,-2.86125,4.26125,25.368002,-12.512001,21.408,eccentric,5,5.0,34065.0,403431.0,142895.0,13106.0,-134.0
2026-04-09 22:15:54.437335,299814,1884419696,1884421266,-1.061888,0.398208,0.074176,5.06625,-3.0975,3.5,25.368002,-12.512001,21.408,eccentric,5,5.0,34657.0,403431.0,143601.0,13416.0,-137.0
2026-04-09 22:15:54.439783,299815,1884428712,1884430174,-1.0736,0.3904,0.072224,5.53875,-2.695,2.9225,25.336,-12.904,22.584002,eccentric,5,5.0,34657.0,403431.0,143601.0,13416.0,-137.0
2026-04-09 22:15:54.442430,299816,1884437676,1884438928,-1.0736,0.3904,0.072224,6.30875,-2.1,2.485,25.336,-12.904,22.584002,eccentric,5,5.0,34657.0,403431.0,143601.0,13416.0,-137.0
2026-04-09 22:15:54.444922,299817,1884446610,1884447694,-1.071648,0.376736,0.072224,5.145,-2.16125,1.6275,25.736002,-12.880001,21.792002,eccentric,5,5.0,34657.0,403431.0,143601.0,13416.0,-137.0
2026-04-09 22:15:54.476354,299818,1884461087,1884462584,-1.071648,0.376736,0.072224,3.26375,-2.72125,1.04125,25.736002,-12.880001,21.792002,eccentric,5,5.0,34657.0,403431.0,143601.0,13416.0,-137.0
2026-04-09 22:15:54.479833,299819,1884470096,1884471283,-1.0736,0.349408,0.074176,3.17625,-3.7975,1.09375,25.864,-13.200001,22.464,eccentric,5,5.0,34657.0,403431.0,143601.0,13416.0,-137.0
2026-04-09 22:15:54.483958,299820,1884479086,1884479997,-1.0736,0.349408,0.074176,6.04625,-4.34,2.3625,25.864,-13.200001,22.464,eccentric,5,5.0,34657.0,403431.0,143601.0,13416.0,-137.0
2026-04-09 22:15:54.512546,299821,1884493651,1884494950,-1.085312,0.318176,0.07808,7.8925,-3.885,3.01,26.2,-13.280001,22.224,eccentric,5,5.0,34657.0,403431.0,143601.0,13416.0,-137.0
2026-04-09 22:15:54.517753,299822,1884502578,1884503658,-1.095072,0.347456,0.080032,8.47875,-3.7275,3.45625,26.312002,-13.336,22.368002,eccentric,5,5.0,34657.0,403431.0,143601.0,13416.0,-137.0
2026-04-09 22:15:54.518525,299823,1884511527,1884512352,-1.095072,0.347456,0.080032,8.5925,-2.7825,4.27875,26.312002,-13.336,22.368002,eccentric,5,5.0,34657.0,403431.0,143601.0,13416.0,-137.0
2026-04-09 22:15:54.547058,299834,1884520857,1884521232,-1.095072,0.347456,0.080032,7.34125,-1.8025,4.41875,26.312002,-13.336,22.368002,eccentric,5,5.0,35004.0,403431.0,143545.0,13265.0,-134.0
2026-04-09 22:15:54.548628,299835,1884535869,1884536315,-1.087264,0.327936,0.085888,5.215,-0.60375,5.38125,25.568,-12.392,23.272001,eccentric,5,5.0,35004.0,403431.0,143545.0,13265.0,-134.0
2026-04-09 22:15:54.552836,299836,1884545273,1884547098,-1.077504,0.316224,0.070272,4.90875,0.21875,6.09875,26.096,-13.136001,23.840002,eccentric,5,5.0,35004.0,403431.0,143545.0,13265.0,-134.0
2026-04-09 22:15:54.554425,299837,1884554268,1884555862,-1.077504,0.316224,0.070272,4.96125,0.63875,6.3525,26.096,-13.136001,23.840002,eccentric,5,5.0,35004.0,403431.0,143545.0,13265.0,-134.0
2026-04-09 22:15:54.587066,299838,1884563196,1884564644,-1.059936,0.304512,0.062464,5.01375,1.23375,6.685,25.800001,-13.368001,22.448002,eccentric,5,5.0,35004.0,403431.0,143545.0,13265.0,-134.0
2026-04-09 22:15:54.591572,299839,1884577702,1884579536,-1.059936,0.304512,0.062464,6.0375,1.715,6.2125,25.800001,-13.368001,22.448002,eccentric,5,5.0,35004.0,403431.0,143545.0,13265.0,-134.0
2026-04-09 22:15:54.593352,299840,1884586713,1884588241,-1.042368,0.318176,0.080032,6.58875,1.8025,5.78375,26.384,-13.488001,22.776001,eccentric,5,5.0,35004.0,403431.0,143545.0,13265.0,-134.0
2026-04-09 22:15:54.594900,299841,1884595652,1884596976,-1.042368,0.318176,0.080032,7.13125,2.31,5.17125,26.384,-13.488001,22.776001,eccentric,5,5.0,35004.0,403431.0,143545.0,13265.0,-134.0
2026-04-09 22:15:54.633464,299842,1884610138,1884611889,-1.048224,0.329888,0.099552,6.46625,3.2725,4.40125,25.792002,-13.792001,23.816002,eccentric,5,5.0,35004.0,403431.0,143545.0,13265.0,-134.0
2026-04-09 22:15:54.683599,299852,1884619146,1884620729,-1.048224,0.329888,0.099552,5.38125,3.29875,2.38875,25.792002,-13.792001,23.816002,eccentric,5,5.0,35042.0,403431.0,143410.0,13149.0,-129.0
2026-04-09 22:15:54.684680,299853,1884628103,1884629483,-1.028704,0.31232,0.095648,5.495,4.13875,0.7525,26.368002,-13.896001,22.984001,eccentric,5,5.0,35042.0,403431.0,143410.0,13149.0,-129.0
2026-04-09 22:15:54.686120,299854,1884642521,1884644370,-1.030656,0.304512,0.031232,4.87375,4.90875,-1.32125,26.368002,-14.040001,22.664001,eccentric,5,5.0,35042.0,403431.0,143410.0,13149.0,-129.0
2026-04-09 22:15:54.690326,299855,1884651473,1884653063,-1.030656,0.304512,0.031232,4.89125,5.38125,-2.54625,26.632002,-14.040001,22.664001,eccentric,5,5.0,35042.0,403431.0,143410.0,13149.0,-129.0
2026-04-09 22:15:54.692038,299856,1884660532,1884661812,-1.030656,0.304512,0.031232,6.43125,5.3375,-3.0275,26.632002,-14.040001,22.664001,eccentric,5,5.0,35042.0,403431.0,143410.0,13149.0,-129.0
2026-04-09 22:15:54.694471,299857,1884675059,1884676804,-1.04432,0.32208,0.066368,7.7,5.6875,-3.8325,24.976002,-13.536,23.04,eccentric,5,5.0,35042.0,403431.0,143410.0,13149.0,-129.0
2026-04-09 22:15:54.696081,299858,1884683998,1884685533,-1.016992,0.333792,0.124928,8.2775,5.6525,-4.99625,26.776001,-13.336,23.152,eccentric,5,5.0,35042.0,403431.0,143410.0,13149.0,-129.0
2026-04-09 22:15:54.700369,299859,1884693040,1884694255,-1.016992,0.333792,0.124928,7.3325,6.7725,-6.02,26.776001,-13.336,23.152,eccentric,5,5.0,35042.0,403431.0,143410.0,13149.0,-129.0
2026-04-09 22:15:54.701907,299860,1884702005,1884702965,-1.016992,0.333792,0.124928,3.7975,8.33,-7.21875,26.776001,-13.336,23.152,eccentric,5,5.0,35042.0,403431.0,143410.0,13149.0,-129.0
2026-04-09 22:15:54.732093,299861,1884716499,1884717924,-1.020896,0.31232,0.0976,-3.3075,10.43875,-8.995,26.224,-13.872001,22.480001,concentric,5,5.0,35042.0,403431.0,143410.0,13149.0,-129.0
2026-04-09 22:15:54.757876,299871,1884725426,1884726666,-1.05408,0.275232,0.037088,-6.335,11.68125,-10.12375,25.872002,-13.712001,22.784,concentric,5,5.0,34900.0,403431.0,143845.0,13471.0,-143.0
2026-04-09 22:15:54.761932,299872,1884734310,1884735357,-1.05408,0.275232,0.037088,-1.8025,13.0725,-8.74125,25.872002,-13.712001,22.784,concentric,5,5.0,34900.0,403431.0,143845.0,13471.0,-143.0
2026-04-09 22:15:54.763511,299873,1884748869,1884750336,-1.03456,0.343552,0.085888,1.60125,12.88,-6.93875,24.752,-13.704,24.416,concentric,5,5.0,34900.0,403431.0,143845.0,13471.0,-143.0
2026-04-09 22:15:54.764977,299874,1884757905,1884759078,-1.03456,0.343552,0.085888,3.68375,11.8125,-6.475,24.752,-13.704,24.416,concentric,5,5.0,34900.0,403431.0,143845.0,13471.0,-143.0
2026-04-09 22:15:54.768936,299875,1884766879,1884767777,-1.046272,0.345504,0.03904,-1.3125,12.17125,-7.9275,23.632002,-13.288001,24.072,concentric,5,5.0,34900.0,403431.0,143845.0,13471.0,-143.0
2026-04-09 22:15:54.797460,299876,1884781441,1884782745,-1.046272,0.345504,0.03904,-6.44875,11.4275,-9.8525,23.632002,-13.288001,24.072,concentric,5,5.0,34900.0,403431.0,143845.0,13471.0,-143.0
2026-04-09 22:15:54.801999,299877,1884790350,1884791441,-1.048224,0.3416,0.035136,-5.43375,11.01625,-10.9725,25.496,-13.56,19.984001,concentric,5,5.0,34900.0,403431.0,143845.0,13471.0,-143.0
2026-04-09 22:15:54.803638,299878,1884799252,1884800155,-1.048224,0.3416,0.035136,-0.98,11.61125,-12.67,25.496,-13.56,19.984001,concentric,5,5.0,34900.0,403431.0,143845.0,13471.0,-143.0
2026-04-09 22:15:54.834623,299879,1884813801,1884815081,-1.079456,0.3416,0.052704,2.45875,10.77125,-13.7725,25.384,-13.128,21.920002,concentric,5,5.0,34900.0,403431.0,143845.0,13471.0,-143.0
2026-04-09 22:15:54.867832,299890,1884822982,1884823909,-1.079456,0.372832,0.076128,2.87,9.65125,-15.21625,25.384,-13.128,21.920002,concentric,5,5.0,34464.0,403431.0,144144.0,13853.0,-139.0
2026-04-09 22:15:54.869603,299891,1884831925,1884832650,-1.061888,0.368928,0.076128,3.94625,9.17,-15.56625,25.712002,-12.76,23.192001,concentric,5,5.0,34464.0,403431.0,144144.0,13853.0,-139.0
2026-04-09 22:15:54.871240,299892,1884841245,1884843385,-1.061888,0.368928,0.076128,2.2575,9.292501,-16.2225,25.712002,-12.76,23.192001,concentric,5,5.0,34464.0,403431.0,144144.0,13853.0,-139.0
2026-04-09 22:15:54.875309,299893,1884855747,1884856243,-1.059936,0.386496,0.054656,-0.9625,10.955,-18.3925,24.824001,-13.168,23.304,concentric,5,5.0,34464.0,403431.0,144144.0,13853.0,-139.0
2026-04-09 22:15:54.877049,299894,1884865149,1884867049,-1.087264,0.37088,0.031232,-4.64625,12.1275,-21.09625,24.824001,-12.912001,22.552002,concentric,5,5.0,34464.0,403431.0,144144.0,13853.0,-139.0
2026-04-09 22:15:54.878940,299895,1884874051,1884875771,-1.087264,0.37088,0.031232,-4.83875,12.25,-22.3825,24.824001,-12.912001,22.552002,concentric,5,5.0,34464.0,403431.0,144144.0,13853.0,-139.0
2026-04-09 22:15:54.883944,299896,1884882991,1884884478,-1.087264,0.386496,0.033184,-2.84375,12.50375,-22.93375,24.824001,-12.912001,22.552002,concentric,5,5.0,34464.0,403431.0,144144.0,13853.0,-139.0
2026-04-09 22:15:54.954672,299897,1884897458,1884899358,-1.087264,0.374784,0.033184,-0.84,12.55625,-23.58125,25.384,-13.192,21.904001,concentric,5,5.0,34464.0,403431.0,144144.0,13853.0,-139.0
2026-04-09 22:15:54.959123,299898,1884906360,1884908090,-1.059936,0.38064,0.105408,-0.245,12.845,-24.08,24.792002,-12.696001,21.6,concentric,5,5.0,34464.0,403431.0,144144.0,13853.0,-139.0
2026-04-09 22:15:54.960840,299899,1884915279,1884916803,-1.059936,0.38064,0.105408,-0.84,14.875,-25.27875,24.792002,-12.696001,21.6,concentric,5,5.0,34464.0,403431.0,144144.0,13853.0,-139.0
2026-04-09 22:15:54.985866,299909,1884929826,1884931747,-1.11264,0.417728,0.040992,-2.63375,16.58125,-27.4925,25.024002,-12.552001,20.376001,concentric,5,5.0,34576.0,403431.0,144436.0,14075.0,-128.0
2026-04-09 22:15:54.987568,299910,1884938744,1884940444,-1.11264,0.417728,0.040992,-4.64625,19.18,-28.16625,25.024002,-12.552001,20.376001,concentric,5,5.0,34576.0,403431.0,144436.0,14075.0,-128.0
2026-04-09 22:15:54.991614,299911,1884947687,1884949112,-1.110688,0.388448,0.054656,-6.02,21.00875,-29.7325,24.68,-12.528001,20.096,concentric,5,5.0,34576.0,403431.0,144436.0,14075.0,-128.0
2026-04-09 22:15:54.993337,299912,1884962163,1884964039,-1.110688,0.388448,0.054656,-5.39,22.19,-31.7625,24.68,-12.528001,20.096,concentric,5,5.0,34576.0,403431.0,144436.0,14075.0,-128.0
2026-04-09 22:15:54.995044,299913,1884971117,1884972781,-1.081408,0.386496,0.0,-3.24625,22.23375,-33.11875,24.960001,-11.832001,19.312,concentric,5,5.0,34576.0,403431.0,144436.0,14075.0,-128.0
2026-04-09 22:15:54.999097,299914,1884980083,1884981534,-1.081408,0.386496,0.0,-4.26125,21.09625,-34.763752,24.960001,-11.832001,19.312,concentric,5,5.0,34576.0,403431.0,144436.0,14075.0,-128.0
2026-04-09 22:15:55.002392,299915,1884994603,1884996444,-1.104832,0.404064,0.001952,-4.69,19.73125,-35.46375,24.984001,-11.736001,19.808,concentric,5,5.0,34576.0,403431.0,144436.0,14075.0,-128.0
2026-04-09 22:15:55.007073,299916,1885003531,1885005120,-1.104832,0.41968,-0.003904,-2.84375,18.31375,-36.015,24.984001,-11.736001,19.808,concentric,5,5.0,34576.0,403431.0,144436.0,14075.0,-128.0
2026-04-09 22:15:55.012715,299917,1885012472,1885013849,-1.10288,0.406016,-0.003904,-1.3825,17.3775,-37.345,24.048,-11.904,20.976002,concentric,5,5.0,34576.0,403431.0,144436.0,14075.0,-128.0
2026-04-09 22:15:55.065049,299927,1885022020,1885022649,-1.10288,0.406016,-0.003904,0.63875,16.1,-38.28125,24.048,-11.904,20.976002,concentric,5,5.0,33753.0,403431.0,143701.0,13817.0,-138.0
2026-04-09 22:15:55.069099,299928,1885036869,1885037608,-1.075552,0.41968,0.052704,6.74625,15.3825,-39.92625,23.792002,-11.400001,19.024,concentric,5,5.0,33753.0,403431.0,143701.0,13817.0,-138.0
2026-04-09 22:15:55.070784,299929,1885046197,1885048395,-1.100928,0.437248,0.040992,9.45875,15.1375,-41.895,24.136002,-10.752001,18.744001,concentric,5,5.0,33753.0,403431.0,143701.0,13817.0,-138.0
2026-04-09 22:15:55.072414,299930,1885055206,1885057141,-1.100928,0.437248,0.040992,8.67125,15.015,-43.0675,24.136002,-10.752001,18.744001,concentric,5,5.0,33753.0,403431.0,143701.0,13817.0,-138.0
2026-04-09 22:15:55.076461,299931,1885064210,1885065903,-1.110688,0.427488,0.003904,4.2875,15.56625,-44.415,24.136002,-10.8,18.088001,concentric,5,5.0,33753.0,403431.0,143701.0,13817.0,-138.0
2026-04-09 22:15:55.080216,299932,1885078829,1885080914,-1.110688,0.427488,0.003904,3.47375,15.3125,-44.23125,23.568,-10.8,18.088001,concentric,5,5.0,33753.0,403431.0,143701.0,13817.0,-138.0
2026-04-09 22:15:55.108865,299933,1885087772,1885089717,-1.110688,0.45872,0.00976,5.67,14.62125,-44.84375,23.648,-10.704,18.36,concentric,5,5.0,33753.0,403431.0,143701.0,13817.0,-138.0
2026-04-09 22:15:55.113318,299934,1885096714,1885098437,-1.110688,0.45872,0.00976,6.83375,14.07875,-46.27875,23.648,-10.704,18.36,concentric,5,5.0,33753.0,403431.0,143701.0,13817.0,-138.0
2026-04-09 22:15:55.115797,299935,1885111192,1885113327,-1.098976,0.435296,0.06832,9.3275,13.81625,-47.635,23.416,-10.128,17.792002,concentric,5,5.0,33753.0,403431.0,143701.0,13817.0,-138.0
2026-04-09 22:15:55.147073,299946,1885120243,1885122093,-1.098976,0.435296,0.06832,8.19,13.93,-49.6825,23.416,-10.128,17.792002,concentric,5,5.0,33330.0,403431.0,143802.0,14009.0,-138.0
2026-04-09 22:15:55.149500,299947,1885129523,1885130959,-1.108736,0.41968,0.021472,1.96875,13.195,-49.0525,23.536001,-9.168,17.256,concentric,5,5.0,33330.0,403431.0,143802.0,14009.0,-138.0
2026-04-09 22:15:55.151087,299948,1885138602,1885139713,-1.108736,0.41968,0.021472,2.02125,11.698751,-46.78625,23.536001,-9.168,17.256,concentric,5,5.0,33330.0,403431.0,143802.0,14009.0,-138.0
2026-04-09 22:15:55.154461,299949,1885153163,1885154617,-1.11264,0.46848,0.0,2.2925,11.2,-46.41,22.648,-9.84,17.488,concentric,5,5.0,33330.0,403431.0,143802.0,14009.0,-138.0
2026-04-09 22:15:55.184687,299950,1885162099,1885163351,-1.11264,0.46848,0.0,1.32125,11.08625,-47.1275,22.648,-9.84,17.488,concentric,5,5.0,33330.0,403431.0,143802.0,14009.0,-138.0
2026-04-09 22:15:55.186976,299951,1885171014,1885172085,-1.114592,0.42944,0.025376,3.5175,11.515,-49.3675,22.984001,-9.376,16.736,concentric,5,5.0,33330.0,403431.0,143802.0,14009.0,-138.0
2026-04-09 22:15:55.191620,299952,1885185580,1885187000,-1.114592,0.417728,0.035136,5.7925,11.41875,-49.49875,22.816002,-9.64,17.064001,concentric,5,5.0,33330.0,403431.0,143802.0,14009.0,-138.0
2026-04-09 22:15:55.195252,299953,1885194497,1885195715,-1.114592,0.417728,0.035136,6.1775,10.815,-49.55125,22.816002,-9.64,17.064001,concentric,5,5.0,33330.0,403431.0,143802.0,14009.0,-138.0
2026-04-09 22:15:55.232254,299954,1885203549,1885204425,-1.114592,0.417728,0.035136,4.27,10.01,-48.475,22.816002,-9.64,17.064001,concentric,5,5.0,33330.0,403431.0,143802.0,14009.0,-138.0
2026-04-09 22:15:55.234511,299955,1885218098,1885219315,-1.100928,0.38064,-0.01952,0.2625,9.0825,-46.8475,22.52,-8.752001,19.088001,concentric,5,5.0,33330.0,403431.0,143802.0,14009.0,-138.0
2026-04-09 22:15:55.263228,299965,1885227178,1885228127,-1.104832,0.378688,-0.021472,-0.34125,7.5775,-44.59,21.720001,-8.688001,16.824001,concentric,5,5.0,33140.0,403431.0,143654.0,13960.0,-130.0
2026-04-09 22:15:55.265765,299966,1885236250,1885236849,-1.104832,0.378688,-0.021472,3.35125,6.16,-42.201252,21.720001,-8.688001,16.824001,concentric,5,5.0,33140.0,403431.0,143654.0,13960.0,-130.0
2026-04-09 22:15:55.267261,299967,1885245479,1885247665,-1.095072,0.411872,0.02928,8.12,5.24125,-40.76625,21.808,-8.584001,18.256,concentric,5,5.0,33140.0,403431.0,143654.0,13960.0,-130.0
2026-04-09 22:15:55.271657,299968,1885260084,1885260557,-1.095072,0.411872,0.02928,12.1625,5.43375,-39.7425,21.808,-8.584001,18.256,concentric,5,5.0,33140.0,403431.0,143654.0,13960.0,-130.0
2026-04-09 22:15:55.273211,299969,1885269442,1885271338,-1.067744,0.384544,0.08784,12.4775,7.4725,-39.90875,21.032001,-7.848001,17.408,concentric,5,5.0,33140.0,403431.0,143654.0,13960.0,-130.0
2026-04-09 22:15:55.280292,299970,1885278518,1885280093,-1.067744,0.384544,0.08784,6.18625,9.1525,-39.97875,21.032001,-7.848001,17.408,concentric,5,5.0,33140.0,403431.0,143654.0,13960.0,-130.0
2026-04-09 22:15:55.308749,299971,1885293046,1885295037,-1.081408,0.339648,-0.064416,-1.365,9.02125,-37.8175,21.024,-8.048,16.400002,concentric,5,5.0,33140.0,403431.0,143654.0,13960.0,-130.0
2026-04-09 22:15:55.313256,299972,1885301980,1885303738,-1.081408,0.339648,-0.064416,-3.885,8.6975,-35.0875,21.024,-8.048,16.400002,concentric,5,5.0,33140.0,403431.0,143654.0,13960.0,-130.0
2026-04-09 22:15:55.314761,299973,1885310899,1885312430,-1.085312,0.349408,-0.066368,0.9275,7.35,-33.1975,21.752,-8.064,16.416,concentric,5,5.0,33140.0,403431.0,143654.0,13960.0,-130.0
2026-04-09 22:15:55.322659,299974,1885319828,1885321123,-1.085312,0.349408,-0.066368,7.665,5.285,-31.36875,21.752,-8.064,16.416,concentric,5,5.0,33140.0,403431.0,143654.0,13960.0,-130.0
2026-04-09 22:15:55.345811,299984,1885334373,1885336084,-1.056032,0.406016,0.017568,13.895,3.26375,-31.63125,20.784,-8.392,16.096,concentric,5,5.0,32839.0,403431.0,143292.0,13779.0,-128.0
2026-04-09 22:15:55.347361,299985,1885343341,1885344826,-1.056032,0.406016,0.017568,13.440001,4.3925,-32.80375,20.784,-8.392,16.096,concentric,5,5.0,32839.0,403431.0,143292.0,13779.0,-128.0
2026-04-09 22:15:55.352688,299986,1885352384,1885353546,-1.042368,0.290848,0.062464,5.74,6.1775,-32.76,20.056002,-8.024,17.568,concentric,5,5.0,32839.0,403431.0,143292.0,13779.0,-128.0
2026-04-09 22:15:55.381193,299987,1885366884,1885368459,-1.048224,0.359168,-0.060512,0.245,7.1225,-29.8375,20.792002,-7.8,17.0,concentric,5,5.0,32839.0,403431.0,143292.0,13779.0,-128.0
2026-04-09 22:15:55.385741,299988,1885375836,1885377157,-1.048224,0.359168,-0.060512,-1.86375,7.83125,-27.2125,20.792002,-7.8,17.0,concentric,5,5.0,32839.0,403431.0,143292.0,13779.0,-128.0
2026-04-09 22:15:55.391465,299989,1885384824,1885385891,-1.048224,0.359168,-0.06832,-1.12,6.81625,-26.60875,20.792002,-7.8,17.0,concentric,5,5.0,32839.0,403431.0,143292.0,13779.0,-128.0
2026-04-09 22:15:55.422977,299990,1885399346,1885400749,-1.020896,0.281088,-0.06832,2.065,5.4425,-27.76375,20.864,-7.528,15.856001,concentric,5,5.0,32839.0,403431.0,143292.0,13779.0,-128.0
2026-04-09 22:15:55.424590,299991,1885408275,1885409449,-1.04432,0.339648,0.021472,5.20625,4.31375,-27.46625,20.656,-7.584001,15.816001,concentric,5,5.0,32839.0,403431.0,143292.0,13779.0,-128.0
2026-04-09 22:15:55.426116,299992,1885417229,1885418128,-1.04432,0.339648,0.021472,8.9425,2.765,-25.47125,20.656,-7.584001,15.816001,concentric,5,5.0,32839.0,403431.0,143292.0,13779.0,-128.0
2026-04-09 22:15:55.455333,300003,1885426301,1885426913,-1.003328,0.308416,0.011712,6.79,2.2225,-25.82125,20.512001,-7.400001,15.336,concentric,5,5.0,32557.0,403431.0,143923.0,14336.0,-130.0
2026-04-09 22:15:55.457106,300004,1885441217,1885441881,-1.003328,0.308416,0.011712,1.26875,3.42125,-25.75125,20.512001,-7.400001,15.336,concentric,5,5.0,32557.0,403431.0,143923.0,14336.0,-130.0
2026-04-09 22:15:55.458807,300005,1885450538,1885452733,-1.028704,0.25376,-0.072224,-5.29375,3.3425,-25.29625,20.424002,-7.688,15.664001,concentric,5,5.0,32557.0,403431.0,143923.0,14336.0,-130.0
2026-04-09 22:15:55.461170,300006,1885459484,1885461431,-1.028704,0.25376,-0.072224,-5.1275,2.87,-22.84625,20.424002,-7.688,15.664001,concentric,5,5.0,32557.0,403431.0,143923.0,14336.0,-130.0
2026-04-09 22:15:55.492176,300007,1885473993,1885474328,-1.042368,0.300608,-0.070272,0.56875,2.16125,-20.5275,20.288,-7.528,15.208001,concentric,5,5.0,32557.0,403431.0,143923.0,14336.0,-130.0
2026-04-09 22:15:55.496636,300008,1885483215,1885485094,-1.042368,0.300608,-0.070272,2.75625,-1.435,-20.1425,20.288,-7.528,15.208001,concentric,5,5.0,32557.0,403431.0,143923.0,14336.0,-130.0
2026-04-09 22:15:55.499248,300009,1885492133,1885493783,-0.954528,0.304512,-0.02928,5.01375,-3.89375,-21.105,20.072,-7.376,15.64,concentric,5,5.0,32557.0,403431.0,143923.0,14336.0,-130.0
2026-04-09 22:15:55.534734,300010,1885501050,1885502523,-0.954528,0.304512,-0.02928,5.80125,-3.955,-22.46125,20.072,-7.376,15.64,concentric,5,5.0,32557.0,403431.0,143923.0,14336.0,-130.0
2026-04-09 22:15:55.537018,300011,1885515525,1885517492,-0.987712,0.240096,0.027328,4.2,-2.765,-23.26625,19.2,-7.000001,16.192001,concentric,5,5.0,32557.0,403431.0,143923.0,14336.0,-130.0
2026-04-09 22:15:55.563936,300021,1885524983,1885526193,-0.987712,0.240096,0.027328,-1.91625,0.7525,-23.59875,19.2,-7.000001,16.192001,concentric,5,5.0,32550.0,403431.0,145026.0,15129.0,-125.0
2026-04-09 22:15:55.565082,300022,1885533965,1885534910,-0.964288,0.255712,-0.03904,-4.7775,3.4125,-22.39125,19.712002,-7.176,15.176001,concentric,5,5.0,32550.0,403431.0,145026.0,15129.0,-125.0
2026-04-09 22:15:55.567526,300023,1885548495,1885549884,-1.00528,0.275232,-0.08784,-6.37,3.66625,-23.94875,19.008001,-7.048,16.632,concentric,5,5.0,32550.0,403431.0,145026.0,15129.0,-125.0
2026-04-09 22:15:55.572436,300024,1885557456,1885558672,-1.00528,0.275232,-0.08784,-4.1475,2.8175,-25.147501,19.008001,-7.048,16.632,concentric,5,5.0,32550.0,403431.0,145026.0,15129.0,-125.0
2026-04-09 22:15:55.574868,300025,1885566436,1885567413,-0.993568,0.261568,-0.027328,1.54875,1.05875,-26.15375,18.504002,-6.792,16.880001,concentric,5,5.0,32550.0,403431.0,145026.0,15129.0,-125.0
2026-04-09 22:15:55.577353,300026,1885575348,1885576111,-0.993568,0.261568,-0.027328,3.10625,1.09375,-27.37875,18.504002,-6.792,16.880001,concentric,5,5.0,32550.0,403431.0,145026.0,15129.0,-125.0
2026-04-09 22:15:55.607528,300027,1885590364,1885591064,-0.974048,0.203008,0.066368,2.82625,2.94875,-27.7375,18.424002,-6.784,15.368001,concentric,5,5.0,32550.0,403431.0,145026.0,15129.0,-125.0
2026-04-09 22:15:55.611107,300028,1885599662,1885601810,-0.974048,0.203008,0.066368,-3.14125,5.705,-28.14,18.424002,-6.784,15.368001,concentric,5,5.0,32550.0,403431.0,145026.0,15129.0,-125.0
2026-04-09 22:15:55.613728,300029,1885608582,1885610534,-0.983808,0.177632,-0.103456,-11.515,7.11375,-26.32,19.104,-7.520001,14.840001,concentric,5,5.0,32550.0,403431.0,145026.0,15129.0,-125.0
2026-04-09 22:15:55.667342,300039,1885623545,1885626050,-0.983808,0.177632,-0.103456,-14.5775,6.405,-24.22875,19.104,-7.520001,14.840001,concentric,5,5.0,32472.0,403431.0,144706.0,14901.0,-127.0
2026-04-09 22:15:55.669832,300040,1885632561,1885634746,-1.018944,0.267424,-0.072224,-11.41,4.2175,-23.178751,19.392,-7.056,15.576001,concentric,5,5.0,32472.0,403431.0,144706.0,14901.0,-127.0
2026-04-09 22:15:55.672366,300041,1885641483,1885643435,-1.018944,0.267424,-0.072224,-5.7925,1.18125,-23.03875,19.392,-7.056,15.576001,concentric,5,5.0,32472.0,403431.0,144706.0,14901.0,-127.0
2026-04-09 22:15:55.674835,300042,1885650405,1885652124,-0.987712,0.140544,-0.007808,-3.675,-0.56,-25.06,19.032001,-7.32,14.888001,concentric,5,5.0,32472.0,403431.0,144706.0,14901.0,-127.0
2026-04-09 22:15:55.677353,300043,1885664908,1885667100,-0.987712,0.140544,-0.007808,-5.99375,-1.47,-25.97875,19.032001,-7.32,14.888001,concentric,5,5.0,32472.0,403431.0,144706.0,14901.0,-127.0
2026-04-09 22:15:55.679837,300044,1885673931,1885675868,-1.007232,0.148352,-0.035136,-6.7725,-0.25375,-22.72375,18.912,-7.08,14.264001,concentric,5,5.0,32472.0,403431.0,144706.0,14901.0,-127.0
2026-04-09 22:15:55.682394,300045,1885682869,1885684583,-1.007232,0.148352,-0.035136,-7.07,1.72375,-20.29125,18.912,-7.08,14.264001,concentric,5,5.0,32472.0,403431.0,144706.0,14901.0,-127.0
2026-04-09 22:15:55.718794,300046,1885697389,1885699528,-1.00528,0.160064,-0.003904,-8.61,2.14375,-20.4225,18.728,-6.624001,14.952001,concentric,5,5.0,32472.0,403431.0,144706.0,14901.0,-127.0
2026-04-09 22:15:55.722923,300047,1885706309,1885708211,-1.00528,0.240096,-0.031232,-8.00625,2.40625,-20.965,18.728,-6.624001,14.952001,concentric,5,5.0,32472.0,403431.0,144706.0,14901.0,-127.0
2026-04-09 22:15:55.725693,300048,1885715224,1885716917,-0.95648,0.240096,-0.031232,-4.29625,2.345,-22.81125,19.224,-6.816001,15.280001,concentric,5,5.0,32472.0,403431.0,144706.0,14901.0,-127.0
2026-04-09 22:15:55.757368,300059,1885729817,1885731860,-0.99552,0.105408,0.046848,-2.0125,3.77125,-25.5675,18.984001,-6.952,14.168,concentric,5,5.0,33377.0,403431.0,145501.0,15166.0,-136.0
2026-04-09 22:15:55.759854,300060,1885738800,1885740599,-0.99552,0.105408,0.046848,-4.9875,5.20625,-26.31125,18.984001,-6.952,14.168,concentric,5,5.0,33377.0,403431.0,145501.0,15166.0,-136.0
2026-04-09 22:15:55.762394,300061,1885747734,1885749358,-0.981856,0.091744,0.03904,-5.06625,8.82875,-25.27875,18.392,-6.864,14.632001,concentric,5,5.0,33377.0,403431.0,145501.0,15166.0,-136.0
2026-04-09 22:15:55.764838,300062,1885756716,1885758046,-0.981856,0.091744,0.03904,-7.6125,12.005,-22.4,18.392,-6.864,14.632001,concentric,5,5.0,33377.0,403431.0,145501.0,15166.0,-136.0
2026-04-09 22:15:55.771120,300063,1885771213,1885772947,-0.962336,0.130784,-0.124928,-10.2375,12.01375,-20.04625,18.424002,-6.904,15.128,concentric,5,5.0,33377.0,403431.0,145501.0,15166.0,-136.0
2026-04-09 22:15:55.827605,300064,1885780138,1885781643,-0.962336,0.130784,-0.124928,-8.35625,8.155,-21.428751,18.424002,-6.904,15.128,concentric,5,5.0,33377.0,403431.0,145501.0,15166.0,-136.0
2026-04-09 22:15:55.831144,300065,1885789143,1885790351,-0.997472,0.142496,0.033184,-4.3925,4.06,-23.19625,18.504002,-6.992,14.904,concentric,5,5.0,33377.0,403431.0,145501.0,15166.0,-136.0
2026-04-09 22:15:55.833638,300066,1885803618,1885805288,-0.997472,0.142496,0.033184,0.2275,1.995,-21.88375,18.504002,-6.992,14.904,concentric,5,5.0,33377.0,403431.0,145501.0,15166.0,-136.0
2026-04-09 22:15:55.836131,300067,1885812519,1885813971,-0.944768,0.03904,-0.0488,3.24625,1.74125,-19.87125,19.248001,-6.936,14.752001,concentric,5,5.0,33377.0,403431.0,145501.0,15166.0,-136.0
2026-04-09 22:15:55.838569,300068,1885821492,1885822662,-0.944768,0.03904,-0.0488,-0.105,2.0475,-20.51875,19.248001,-6.936,14.752001,concentric,5,5.0,33377.0,403431.0,145501.0,15166.0,-136.0
2026-04-09 22:15:55.863651,300078,1885835975,1885837591,-0.991616,0.10736,-0.03904,-0.2275,1.67125,-15.198751,18.712002,-6.424,14.64,concentric,5,5.0,34216.0,403431.0,143848.0,13703.0,-148.0
2026-04-09 22:15:55.866120,300079,1885844884,1885846337,-0.991616,0.10736,-0.03904,4.31375,-0.91875,-12.18,18.712002,-6.424,14.64,concentric,5,5.0,34216.0,403431.0,143848.0,13703.0,-148.0
2026-04-09 22:15:55.868599,300080,1885853995,1885855056,-0.989664,0.15616,0.025376,6.25625,-3.10625,-13.195,17.792002,-6.36,15.904,concentric,5,5.0,34216.0,403431.0,143848.0,13703.0,-148.0
2026-04-09 22:15:55.871158,300081,1885862947,1885863779,-0.989664,0.15616,0.025376,5.4775,-4.7075,-15.190001,17.792002,-6.36,15.904,concentric,5,5.0,34216.0,403431.0,143848.0,13703.0,-148.0
2026-04-09 22:15:55.877019,300082,1885878066,1885878749,-0.98576,0.064416,0.033184,3.45625,-5.24125,-15.8025,17.880001,-6.632,15.512001,concentric,5,5.0,34216.0,403431.0,143848.0,13703.0,-148.0
