pc_time,serial_num,sensor_ts,host_ts,ax,ay,az,gx,gy,gz,mx,my,mz,phase,rpe,weight_kg,ppg_a,ppg_b,ppg_c,ppg_d,ppg_e
2026-04-08 21:51:29.682593,260069,1609504261889427,1861856249,1.159488,0.103456,-0.144448,18.3925,4.48,5.39875,-25.760002,13.496,11.76,eccentric,4,3.0,21445.0,145989.0,233504.0,282960.0,265517.0
2026-04-08 21:51:29.687096,260070,1609504261898360,1861864959,1.06384,0.148352,-0.27328,20.30875,5.04875,5.11875,-25.672,13.248001,12.456,eccentric,4,3.0,21445.0,145989.0,233504.0,282960.0,265517.0
2026-04-08 21:51:29.689514,260071,1609504261912798,1861879806,1.06384,0.148352,-0.072224,21.2275,4.73375,5.83625,-25.672,13.248001,12.456,eccentric,4,3.0,21445.0,145989.0,233504.0,282960.0,265517.0
2026-04-08 21:51:29.691131,260072,1609504261921653,1861888473,1.159488,0.148352,-0.072224,15.715,4.24375,6.83375,-25.264002,12.944,13.256001,eccentric,4,3.0,21445.0,145989.0,233504.0,282960.0,265517.0
2026-04-08 21:51:29.722317,260073,1609504261936150,1861901309,1.13216,0.099552,-0.056608,9.7825,3.68375,7.175,-25.488,12.960001,13.384001,eccentric,4,3.0,21445.0,145989.0,233504.0,282960.0,265517.0
2026-04-08 21:51:29.724527,260074,1609504261945324,1861912021,1.13216,0.099552,-0.056608,7.49875,4.1125,6.64125,-25.488,12.960001,13.384001,eccentric,4,3.0,21445.0,145989.0,233504.0,282960.0,265517.0
2026-04-08 21:51:29.760344,260085,1609504261954684,1861920976,1.065792,0.076128,-0.124928,5.8275,3.78875,5.81,-24.744001,12.968,12.144001,eccentric,4,3.0,21063.0,145053.0,232861.0,282728.0,265449.0
2026-04-08 21:51:29.762080,260086,1609504261969240,1861935902,1.065792,0.076128,-0.124928,6.8425,3.675,5.73125,-24.744001,12.968,12.144001,eccentric,4,3.0,21063.0,145053.0,232861.0,282728.0,265449.0
2026-04-08 21:51:29.763606,260087,1609504261978178,1861944614,1.013088,0.134688,-0.11712,10.14125,4.2525,5.88,-25.2,12.832001,14.648001,eccentric,4,3.0,21063.0,145053.0,232861.0,282728.0,265449.0
2026-04-08 21:51:29.767924,260088,1609504261992680,1861959489,1.013088,0.134688,-0.11712,11.05125,3.73625,5.985,-25.2,12.832001,14.648001,eccentric,4,3.0,21063.0,145053.0,232861.0,282728.0,265449.0
2026-04-08 21:51:29.804239,260089,1609504262001620,1861968222,1.061888,0.128832,-0.160064,8.82875,2.87875,6.30875,-24.720001,12.912001,10.888001,eccentric,4,3.0,21063.0,145053.0,232861.0,282728.0,265449.0
2026-04-08 21:51:29.805890,260090,1609504262010530,1861976871,1.061888,0.128832,-0.160064,2.73,2.6425,7.07,-24.720001,12.912001,10.888001,eccentric,4,3.0,21063.0,145053.0,232861.0,282728.0,265449.0
2026-04-08 21:51:29.808339,260091,1609504262025001,1861991720,1.050176,0.115168,-0.056608,-6.0375,3.115,7.16625,-24.840002,13.016001,12.52,eccentric,4,3.0,21063.0,145053.0,232861.0,282728.0,265449.0
2026-04-08 21:51:29.809880,260092,1609504262033921,1862000468,0.997472,0.07808,-0.113216,-10.045,3.08875,6.93,-24.840002,13.072001,13.328001,eccentric,4,3.0,21063.0,145053.0,232861.0,282728.0,265449.0
2026-04-08 21:51:29.840983,260093,1609504262048430,1862015401,0.997472,0.07808,-0.113216,-7.8225,2.52,6.25625,-24.552002,13.072001,13.328001,eccentric,4,3.0,21063.0,145053.0,232861.0,282728.0,265449.0
2026-04-08 21:51:29.870643,260104,1609504262057518,1862024124,0.968192,0.064416,-0.20496,-2.625,2.49375,6.02,-24.184002,13.432001,13.856001,eccentric,4,3.0,20805.0,144557.0,232677.0,282744.0,265551.0
2026-04-08 21:51:29.872096,260105,1609504262072028,1862039024,0.968192,0.064416,-0.20496,-2.82625,2.03,6.3,-24.184002,13.432001,13.856001,eccentric,4,3.0,20805.0,144557.0,232677.0,282744.0,265551.0
2026-04-08 21:51:29.875333,260106,1609504262080924,1862047680,0.958432,0.142496,-0.062464,-5.2675,1.39125,6.72875,-24.152,13.376,12.992001,eccentric,4,3.0,20805.0,144557.0,232677.0,282744.0,265551.0
2026-04-08 21:51:29.877083,260107,1609504262090000,1862056416,0.958432,0.142496,-0.062464,-7.525,0.525,6.1775,-24.152,13.376,12.992001,eccentric,4,3.0,20805.0,144557.0,232677.0,282744.0,265551.0
2026-04-08 21:51:29.878616,260108,1609504262104513,1862071384,0.962336,0.121024,-0.040992,-10.98125,-0.06125,5.08375,-23.904001,13.304001,13.728001,eccentric,4,3.0,20805.0,144557.0,232677.0,282744.0,265551.0
2026-04-08 21:51:29.885205,260109,1609504262113438,1862080099,0.962336,0.121024,-0.040992,-13.58875,0.8575,4.2175,-23.904001,13.304001,13.728001,eccentric,4,3.0,20805.0,144557.0,232677.0,282744.0,265551.0
2026-04-08 21:51:29.917285,260110,1609504262127962,1862094954,0.8784,0.070272,-0.216672,-18.13,1.26875,2.44125,-24.240002,13.880001,11.376,eccentric,4,3.0,20805.0,144557.0,232677.0,282744.0,265551.0
2026-04-08 21:51:29.919539,260111,1609504262137004,1862103649,0.841312,0.06832,-0.179584,-19.9675,1.12,0.67375,-23.296001,13.312,12.456,eccentric,4,3.0,20805.0,144557.0,232677.0,282744.0,265551.0
2026-04-08 21:51:29.949820,260122,1609504262151464,1862118522,0.841312,0.06832,-0.179584,-19.915,0.98875,0.93625,-23.296001,13.312,12.456,eccentric,4,3.0,20798.0,144619.0,232695.0,282778.0,265599.0
2026-04-08 21:51:29.951198,260123,1609504262160452,1862127188,0.847168,0.115168,-0.220576,-17.31625,0.8225,4.06875,-23.52,13.696001,12.528001,eccentric,4,3.0,20798.0,144619.0,232695.0,282778.0,265599.0
2026-04-08 21:51:29.952773,260124,1609504262169440,1862135906,0.847168,0.115168,-0.220576,-17.08875,0.49875,4.0075,-23.52,13.696001,12.528001,eccentric,4,3.0,20798.0,144619.0,232695.0,282778.0,265599.0
2026-04-08 21:51:29.956412,260125,1609504262183959,1862150811,0.841312,0.144448,-0.115168,-17.54375,0.2275,2.54625,-23.192001,13.944,12.488001,eccentric,4,3.0,20798.0,144619.0,232695.0,282778.0,265599.0
2026-04-08 21:51:29.985075,260126,1609504262192882,1862159486,0.841312,0.144448,-0.115168,-16.765,0.86625,4.24375,-23.192001,13.944,12.488001,eccentric,4,3.0,20798.0,144619.0,232695.0,282778.0,265599.0
2026-04-08 21:51:29.989560,260127,1609504262207357,1862174360,0.813984,0.066368,-0.167872,-15.75,1.5225,6.1075,-23.312,13.872001,12.616,eccentric,4,3.0,20798.0,144619.0,232695.0,282778.0,265599.0
2026-04-08 21:51:29.991087,260128,1609504262216292,1862183084,0.825696,0.025376,-0.169824,-18.08625,0.385,6.72875,-22.84,14.144001,11.848001,eccentric,4,3.0,20798.0,144619.0,232695.0,282778.0,265599.0
2026-04-08 21:51:30.023511,260129,1609504262230819,1862195971,0.825696,0.025376,-0.169824,-22.70625,-0.4025,7.35875,-22.84,14.144001,11.848001,eccentric,4,3.0,20798.0,144619.0,232695.0,282778.0,265599.0
2026-04-08 21:51:30.029476,260130,1609504262239942,1862206703,0.841312,0.060512,-0.296704,-22.715,-0.9275,6.71125,-22.816002,14.344001,13.056001,eccentric,4,3.0,20798.0,144619.0,232695.0,282778.0,265599.0
2026-04-08 21:51:30.031319,260131,1609504262248848,1862215376,0.841312,0.060512,-0.296704,-21.56875,-1.40875,5.285,-22.816002,14.344001,13.056001,eccentric,4,3.0,20798.0,144619.0,232695.0,282778.0,265599.0
2026-04-08 21:51:30.056257,260142,1609504262263341,1862230269,0.786656,0.0976,-0.183488,-18.59375,-1.46125,4.27,-22.576,14.576001,12.056001,eccentric,4,3.0,21012.0,145252.0,233189.0,283058.0,265678.0
2026-04-08 21:51:30.060355,260143,1609504262272335,1862238971,0.786656,0.0976,-0.183488,-16.98375,-1.1025,4.1825,-22.576,14.576001,12.056001,eccentric,4,3.0,21012.0,145252.0,233189.0,283058.0,265678.0
2026-04-08 21:51:30.063043,260144,1609504262286908,1862253904,0.743712,0.052704,-0.18544,-16.345,-1.14625,4.22625,-22.912,14.320001,12.176001,eccentric,4,3.0,21012.0,145252.0,233189.0,283058.0,265678.0
2026-04-08 21:51:30.099713,260145,1609504262295889,1862262581,0.796416,0.066368,-0.105408,-15.5925,-1.9775,4.26125,-22.304,14.936001,12.064,eccentric,4,3.0,21012.0,145252.0,233189.0,283058.0,265678.0
2026-04-08 21:51:30.104129,260146,1609504262304846,1862271277,0.796416,0.066368,-0.105408,-21.56875,-3.5875,4.38375,-22.304,14.936001,12.064,eccentric,4,3.0,21012.0,145252.0,233189.0,283058.0,265678.0
2026-04-08 21:51:30.108424,260147,1609504262319363,1862286164,0.817888,0.08784,-0.201056,-27.965,-4.7075,2.8525,-22.296001,14.816001,11.728001,eccentric,4,3.0,21012.0,145252.0,233189.0,283058.0,265678.0
2026-04-08 21:51:30.112041,260148,1609504262328269,1862294813,0.817888,0.08784,-0.201056,-25.48875,-4.52375,2.05625,-22.296001,14.816001,11.728001,eccentric,4,3.0,21012.0,145252.0,233189.0,283058.0,265678.0
2026-04-08 21:51:30.114251,260149,1609504262342836,1862309704,0.77104,0.070272,-0.199104,-22.33875,-2.8,1.79375,-22.272001,14.928,11.864,eccentric,4,3.0,21012.0,145252.0,233189.0,283058.0,265678.0
2026-04-08 21:51:30.170352,260160,1609504262351752,1862318770,0.77104,0.070272,-0.199104,-20.8425,-2.765,1.61,-22.272001,14.928,11.864,eccentric,4,3.0,21070.0,145406.0,233303.0,283105.0,265701.0
2026-04-08 21:51:30.172093,260161,1609504262366284,1862331585,0.831552,0.042944,0.015616,-22.155,-2.9575,2.8525,-22.304,15.056001,11.536,eccentric,4,3.0,21070.0,145406.0,233303.0,283105.0,265701.0
2026-04-08 21:51:30.173666,260162,1609504262375593,1862342323,0.831552,0.042944,-0.163968,-25.69875,-3.4825,5.03125,-22.304,15.056001,11.536,eccentric,4,3.0,21070.0,145406.0,233303.0,283105.0,265701.0
2026-04-08 21:51:30.177882,260163,1609504262384523,1862351003,0.817888,0.05856,-0.163968,-23.7475,-5.34625,5.9325,-21.696001,15.632001,12.616,eccentric,4,3.0,21070.0,145406.0,233303.0,283105.0,265701.0
2026-04-08 21:51:30.179505,260164,1609504262399119,1862365920,0.876448,0.035136,-0.152256,-15.12875,-6.23875,5.705,-21.624,15.208001,11.368001,eccentric,4,3.0,21070.0,145406.0,233303.0,283105.0,265701.0
2026-04-08 21:51:30.181091,260165,1609504262408121,1862374607,0.876448,0.035136,-0.152256,-8.636251,-5.32875,4.99625,-21.624,15.208001,11.368001,eccentric,4,3.0,21070.0,145406.0,233303.0,283105.0,265701.0
2026-04-08 21:51:30.212226,260166,1609504262422610,1862389497,0.75152,0.064416,-0.148352,-5.46875,-4.43625,5.29375,-21.872002,15.6,11.856001,eccentric,4,3.0,21070.0,145406.0,233303.0,283105.0,265701.0
2026-04-08 21:51:30.214539,260167,1609504262431534,1862398144,0.75152,0.064416,-0.148352,-6.475,-3.70125,7.27125,-21.872002,15.6,11.856001,eccentric,4,3.0,21070.0,145406.0,233303.0,283105.0,265701.0
2026-04-08 21:51:30.219079,260168,1609504262446025,1862413016,0.84912,0.042944,0.00976,-12.60875,-3.43,7.97125,-21.328001,15.392001,10.992001,eccentric,4,3.0,21070.0,145406.0,233303.0,283105.0,265701.0
2026-04-08 21:51:30.249103,260179,1609504262455315,1862421788,0.84912,0.042944,0.00976,-23.54625,-4.90875,8.74125,-21.328001,15.392001,10.992001,eccentric,4,3.0,21390.0,146238.0,233772.0,283247.0,265709.0
2026-04-08 21:51:30.250868,260180,1609504262464421,1862430544,0.833504,0.050752,-0.035136,-24.955,-6.16,8.47875,-21.84,15.648001,11.048,eccentric,4,3.0,21390.0,146238.0,233772.0,283247.0,265709.0
2026-04-08 21:51:30.252388,260181,1609504262478944,1862445541,0.84912,0.005856,-0.150304,-16.52,-5.76625,7.385,-21.872002,15.912001,11.064,eccentric,4,3.0,21390.0,146238.0,233772.0,283247.0,265709.0
2026-04-08 21:51:30.257716,260182,1609504262487872,1862454233,0.84912,0.005856,-0.150304,-10.63125,-4.54125,5.45125,-21.872002,15.912001,11.064,eccentric,4,3.0,21390.0,146238.0,233772.0,283247.0,265709.0
2026-04-08 21:51:30.286318,260183,1609504262502308,1862469100,0.817888,0.062464,0.031232,-8.89875,-2.65125,2.555,-21.248001,15.352001,10.832001,eccentric,4,3.0,21390.0,146238.0,233772.0,283247.0,265709.0
2026-04-08 21:51:30.290781,260184,1609504262511206,1862477763,0.817888,0.062464,0.031232,-9.05625,-1.23375,4.2,-21.248001,15.352001,10.832001,eccentric,4,3.0,21390.0,146238.0,233772.0,283247.0,265709.0
2026-04-08 21:51:30.293190,260185,1609504262520130,1862486434,0.870592,0.05856,-0.0488,-13.965,-0.5425,7.18375,-21.264002,16.224,10.808001,eccentric,4,3.0,21390.0,146238.0,233772.0,283247.0,265709.0
2026-04-08 21:51:30.305389,260186,1609504262534603,1862501312,0.870592,0.05856,-0.0488,-17.82375,-0.23625,8.35625,-21.264002,16.224,10.808001,eccentric,4,3.0,21390.0,146238.0,233772.0,283247.0,265709.0
2026-04-08 21:51:30.333825,260187,1609504262543589,1862510064,0.884256,0.015616,-0.121024,-20.22125,-0.1925,8.00625,-21.376001,15.928,10.896001,eccentric,4,3.0,21390.0,146238.0,233772.0,283247.0,265709.0
2026-04-08 21:51:30.366148,260198,1609504262558331,1862525047,0.862784,0.023424,0.052704,-20.5275,-0.48125,8.4875,-21.000002,16.224,9.664001,eccentric,4,3.0,21522.0,146567.0,234045.0,283396.0,265775.0
2026-04-08 21:51:30.401037,260199,1609504262567297,1862533726,0.862784,0.023424,0.052704,-18.43625,-0.39375,9.10875,-21.000002,16.224,9.664001,eccentric,4,3.0,21522.0,146567.0,234045.0,283396.0,265775.0
2026-04-08 21:51:30.403223,260200,1609504262581900,1862548683,0.86864,0.00976,0.031232,-16.65125,1.12875,8.61,-20.888,16.640001,10.68,eccentric,4,3.0,21522.0,146567.0,234045.0,283396.0,265775.0
2026-04-08 21:51:30.407858,260201,1609504262590920,1862557375,0.86864,0.00976,0.031232,-15.4875,2.1175,7.86625,-20.888,16.640001,10.68,eccentric,4,3.0,21522.0,146567.0,234045.0,283396.0,265775.0
2026-04-08 21:51:30.409605,260202,1609504262599981,1862566127,0.862784,-0.001952,-0.066368,-14.0175,2.8875,7.58625,-21.184002,16.496,11.416,eccentric,4,3.0,21522.0,146567.0,234045.0,283396.0,265775.0
2026-04-08 21:51:30.412022,260203,1609504262614423,1862581019,0.862784,-0.001952,-0.066368,-12.32,3.185,6.46625,-21.184002,16.496,11.416,eccentric,4,3.0,21522.0,146567.0,234045.0,283396.0,265775.0
2026-04-08 21:51:30.413547,260204,1609504262623338,1862589691,0.909632,-0.007808,0.042944,-10.21125,3.52625,5.22375,-20.768002,16.52,10.76,eccentric,4,3.0,21522.0,146567.0,234045.0,283396.0,265775.0
2026-04-08 21:51:30.417831,260205,1609504262637822,1862604567,0.83936,0.021472,0.015616,-9.17,2.93125,3.70125,-20.768002,16.816,10.632001,eccentric,4,3.0,21522.0,146567.0,234045.0,283396.0,265775.0
2026-04-08 21:51:30.420272,260206,1609504262646854,1862613280,0.83936,0.021472,0.015616,-5.52125,3.94625,3.00125,-20.592001,16.816,10.632001,eccentric,4,3.0,21522.0,146567.0,234045.0,283396.0,265775.0
2026-04-08 21:51:30.448268,260217,1609504262656511,1862622675,0.83936,0.021472,0.015616,-0.8925,6.02,3.36,-20.592001,16.816,10.632001,eccentric,4,3.0,21178.0,145684.0,233560.0,283263.0,265792.0
2026-04-08 21:51:30.449845,260218,1609504262671210,1862637682,0.804224,0.033184,0.091744,0.95375,8.14625,4.12125,-20.496,16.376001,10.896001,eccentric,4,3.0,21178.0,145684.0,233560.0,283263.0,265792.0
2026-04-08 21:51:30.453917,260219,1609504262680159,1862646369,0.84912,0.005856,0.072224,2.37125,8.68875,4.655,-20.608002,16.552,11.576,eccentric,4,3.0,21178.0,145684.0,233560.0,283263.0,265792.0
2026-04-08 21:51:30.486337,260220,1609504262694632,1862661279,0.84912,0.005856,0.072224,4.31375,8.16375,5.17125,-20.608002,16.552,11.576,eccentric,4,3.0,21178.0,145684.0,233560.0,283263.0,265792.0
2026-04-08 21:51:30.489871,260221,1609504262703538,1862669944,0.788608,-0.015616,-0.132736,4.54125,7.34125,4.2875,-20.416,16.768002,10.872001,eccentric,4,3.0,21178.0,145684.0,233560.0,283263.0,265792.0
2026-04-08 21:51:30.492386,260222,1609504262712450,1862678673,0.788608,-0.015616,-0.132736,1.42625,7.2975,3.01,-20.416,16.768002,10.872001,eccentric,4,3.0,21178.0,145684.0,233560.0,283263.0,265792.0
2026-04-08 21:51:30.497402,260223,1609504262726991,1862693529,0.776896,0.005856,-0.132736,-0.58625,7.11375,1.91625,-20.36,16.928001,10.576,eccentric,4,3.0,21178.0,145684.0,233560.0,283263.0,265792.0
2026-04-08 21:51:30.503595,260224,1609504262735931,1862702239,0.776896,0.005856,-0.132736,-3.2725,7.88375,0.0875,-20.36,16.928001,10.576,eccentric,4,3.0,21178.0,145684.0,233560.0,283263.0,265792.0
2026-04-08 21:51:30.533852,260225,1609504262750400,1862717106,0.85888,0.0,0.085888,-7.8225,8.32125,-4.6025,-20.448002,16.800001,11.544001,eccentric,4,3.0,21178.0,145684.0,233560.0,283263.0,265792.0
2026-04-08 21:51:30.562362,260236,1609504262759579,1862725859,0.815936,-0.00976,-0.021472,-7.74375,9.10875,-4.57625,-20.192001,16.896,10.536,eccentric,4,3.0,20831.0,144924.0,233142.0,283138.0,265782.0
2026-04-08 21:51:30.564821,260237,1609504262774099,1862740798,0.815936,-0.00976,-0.021472,-12.3725,8.9075,-3.94625,-20.192001,16.896,10.536,eccentric,4,3.0,20831.0,144924.0,233142.0,283138.0,265782.0
2026-04-08 21:51:30.567374,260238,1609504262783131,1862749508,0.90768,-0.037088,-0.054656,-13.71125,9.1525,-4.71625,-20.720001,17.2,11.992001,eccentric,4,3.0,20831.0,144924.0,233142.0,283138.0,265782.0
2026-04-08 21:51:30.573615,260239,1609504262792151,1862758215,0.90768,-0.037088,-0.054656,-10.08875,9.12625,-6.86,-20.720001,17.2,11.992001,eccentric,4,3.0,20831.0,144924.0,233142.0,283138.0,265782.0
2026-04-08 21:51:30.576101,260240,1609504262806721,1862773096,0.843264,0.054656,-0.027328,-8.75,8.89,-8.44375,-20.416,16.792002,11.856001,eccentric,4,3.0,20831.0,144924.0,233142.0,283138.0,265782.0
2026-04-08 21:51:30.606288,260241,1609504262815661,1862781781,0.843264,0.054656,-0.027328,-10.01875,7.595,-9.3625,-20.416,16.792002,11.856001,eccentric,4,3.0,20831.0,144924.0,233142.0,283138.0,265782.0
2026-04-08 21:51:30.609804,260242,1609504262830136,1862796669,0.925248,0.035136,0.040992,-13.0025,6.41375,-9.56375,-20.104,16.936,11.856001,eccentric,4,3.0,20831.0,144924.0,233142.0,283138.0,265782.0
2026-04-08 21:51:30.618671,260243,1609504262839033,1862805331,0.974048,-0.001952,-0.023424,-15.9075,5.45125,-9.8525,-20.104,16.936,10.888001,eccentric,4,3.0,20831.0,144924.0,233142.0,283138.0,265782.0
2026-04-08 21:51:30.624839,260244,1609504262853503,1862820209,0.974048,-0.001952,-0.023424,-19.915,4.27875,-10.0625,-20.368,17.096,10.888001,eccentric,4,3.0,20831.0,144924.0,233142.0,283138.0,265782.0
2026-04-08 21:51:30.652288,260255,1609504262862439,1862828911,0.86864,0.03904,-0.042944,-20.23,2.86125,-9.073751,-20.408,16.984001,10.976001,eccentric,4,3.0,20892.0,145054.0,233125.0,283034.0,265667.0
2026-04-08 21:51:30.654858,260256,1609504262871371,1862837669,0.86864,0.03904,-0.042944,-13.62375,1.995,-6.615,-20.408,16.984001,10.976001,eccentric,4,3.0,20892.0,145054.0,233125.0,283034.0,265667.0
2026-04-08 21:51:30.657257,260257,1609504262885913,1862852584,0.876448,0.025376,-0.113216,-6.0025,1.2775,-4.8125,-20.52,17.208,11.152,eccentric,4,3.0,20892.0,145054.0,233125.0,283034.0,265667.0
2026-04-08 21:51:30.663551,260258,1609504262894839,1862861286,0.876448,0.025376,-0.113216,-2.45875,0.14875,-5.1625,-20.52,17.208,11.152,eccentric,4,3.0,20892.0,145054.0,233125.0,283034.0,265667.0
2026-04-08 21:51:30.700039,260259,1609504262909323,1862876191,0.882304,0.037088,-0.138592,-3.40375,-0.9975,-6.02,-20.048,16.864,11.168,concentric,4,3.0,20892.0,145054.0,233125.0,283034.0,265667.0
2026-04-08 21:51:30.703569,260260,1609504262918267,1862884851,0.882304,0.037088,-0.138592,-7.56875,-2.135,-5.74875,-20.048,16.864,11.168,concentric,4,3.0,20892.0,145054.0,233125.0,283034.0,265667.0
2026-04-08 21:51:30.706078,260261,1609504262932736,1862899741,0.864736,0.064416,-0.128832,-9.30125,-1.09375,-5.53875,-20.480001,17.160002,10.576,concentric,4,3.0,20892.0,145054.0,233125.0,283034.0,265667.0
2026-04-08 21:51:30.711124,260262,1609504262941641,1862908411,0.835456,0.005856,-0.183488,-6.265,-0.945,-6.04625,-20.640001,17.344002,12.040001,concentric,4,3.0,20892.0,145054.0,233125.0,283034.0,265667.0
2026-04-08 21:51:30.741268,260263,1609504262950560,1862917076,0.835456,0.005856,-0.183488,-2.1175,-0.37625,-5.285,-20.640001,17.344002,12.040001,concentric,4,3.0,20892.0,145054.0,233125.0,283034.0,265667.0
2026-04-08 21:51:30.769816,260274,1609504262965428,1862932451,0.86864,0.033184,-0.01952,1.47875,-0.74375,-2.38,-20.400002,16.92,10.400001,concentric,4,3.0,20850.0,144880.0,232967.0,282942.0,265630.0
2026-04-08 21:51:30.772317,260275,1609504262974343,1862941158,0.86864,0.033184,-0.01952,3.0275,-1.61875,-0.41125,-20.400002,16.92,10.400001,concentric,4,3.0,20850.0,144880.0,232967.0,282942.0,265630.0
2026-04-08 21:51:30.774815,260276,1609504262988835,1862954079,0.935008,0.054656,0.021472,4.69,-3.1325,-0.97125,-20.224,16.712,10.736,concentric,4,3.0,20850.0,144880.0,232967.0,282942.0,265630.0
2026-04-08 21:51:30.777431,260277,1609504262998131,1862964879,0.935008,0.054656,0.021472,3.35125,-4.4975,-3.35125,-20.224,16.712,10.736,concentric,4,3.0,20850.0,144880.0,232967.0,282942.0,265630.0
2026-04-08 21:51:30.779803,260278,1609504263007136,1862973611,0.923296,0.00976,-0.15616,2.45,-4.64625,-4.12125,-20.624,17.0,11.032001,concentric,4,3.0,20850.0,144880.0,232967.0,282942.0,265630.0
2026-04-08 21:51:30.810114,260279,1609504263021695,1862988567,0.90768,0.052704,0.003904,0.1925,-4.7775,-3.33375,-20.384,16.928001,11.232,concentric,4,3.0,20850.0,144880.0,232967.0,282942.0,265630.0
2026-04-08 21:51:30.813590,260280,1609504263030618,1862997222,0.90768,0.052704,0.003904,-3.73625,-5.99375,-2.87875,-20.384,16.928001,11.232,concentric,4,3.0,20850.0,144880.0,232967.0,282942.0,265630.0
2026-04-08 21:51:30.848863,260281,1609504263045170,1863012105,0.9272,-0.011712,-0.189344,-5.0575,-7.63875,-3.03625,-20.288,16.904001,10.624001,concentric,4,3.0,20850.0,144880.0,232967.0,282942.0,265630.0
2026-04-08 21:51:30.852365,260282,1609504263054079,1863020767,0.9272,-0.011712,-0.189344,-5.74875,-8.49625,-2.2575,-20.288,16.904001,10.624001,concentric,4,3.0,20850.0,144880.0,232967.0,282942.0,265630.0
2026-04-08 21:51:30.882298,260293,1609504263068615,1863035654,0.860832,0.054656,-0.076128,-4.97875,-8.86375,-3.10625,-20.504002,16.808,10.304001,concentric,4,3.0,20947.0,145242.0,233384.0,283241.0,265796.0
2026-04-08 21:51:30.884782,260294,1609504263077531,1863044293,0.860832,0.054656,-0.076128,-1.7675,-8.75875,-5.08375,-20.504002,16.808,10.304001,concentric,4,3.0,20947.0,145242.0,233384.0,283241.0,265796.0
2026-04-08 21:51:30.887282,260295,1609504263086472,1863052959,0.913536,0.001952,-0.15616,-0.9625,-9.292501,-5.59125,-20.720001,16.648,10.320001,concentric,4,3.0,20947.0,145242.0,233384.0,283241.0,265796.0
2026-04-08 21:51:30.889834,260296,1609504263101061,1863067895,0.91744,0.054656,-0.00976,-2.59875,-9.65125,-5.04,-21.112001,16.408,12.232,concentric,4,3.0,20947.0,145242.0,233384.0,283241.0,265796.0
2026-04-08 21:51:30.892298,260297,1609504263110002,1863076626,0.91744,0.054656,-0.00976,-2.8,-10.0975,-4.61125,-21.112001,16.408,12.232,concentric,4,3.0,20947.0,145242.0,233384.0,283241.0,265796.0
2026-04-08 21:51:30.894815,260298,1609504263124579,1863091533,0.948672,0.013664,-0.062464,-2.28375,-10.395,-5.29375,-21.032001,16.768002,11.944,concentric,4,3.0,20947.0,145242.0,233384.0,283241.0,265796.0
2026-04-08 21:51:30.903610,260299,1609504263133548,1863100222,0.948672,0.013664,-0.062464,-2.75625,-11.03375,-5.60875,-21.032001,16.768002,11.944,concentric,4,3.0,20947.0,145242.0,233384.0,283241.0,265796.0
2026-04-08 21:51:30.933746,260300,1609504263148073,1863115149,0.952576,0.037088,-0.013664,-4.6375,-11.19125,-4.69875,-20.832,17.08,9.352,concentric,4,3.0,20947.0,145242.0,233384.0,283241.0,265796.0
2026-04-08 21:51:30.962356,260311,1609504263157009,1863123781,0.952576,0.037088,-0.013664,-3.885,-11.445,-4.6375,-20.832,17.08,9.352,concentric,4,3.0,20913.0,145221.0,233461.0,283323.0,265873.0
2026-04-08 21:51:30.967396,260312,1609504263166015,1863132444,0.9272,0.013664,-0.054656,-1.60125,-10.92,-4.99625,-20.776001,17.0,10.216001,concentric,4,3.0,20913.0,145221.0,233461.0,283323.0,265873.0
2026-04-08 21:51:31.001302,260313,1609504263180595,1863147369,0.9272,0.013664,0.023424,-2.93125,-9.70375,-4.78625,-20.776001,17.0,10.216001,concentric,4,3.0,20913.0,145221.0,233461.0,283323.0,265873.0
2026-04-08 21:51:31.004840,260314,1609504263189642,1863156092,0.935008,0.056608,0.023424,-4.9,-9.31875,-4.29625,-21.192001,17.072,10.952001,concentric,4,3.0,20913.0,145221.0,233461.0,283323.0,265873.0
2026-04-08 21:51:31.007328,260315,1609504263204417,1863171029,0.845216,0.035136,-0.189344,-4.445,-8.74125,-3.745,-21.424002,16.92,10.8,concentric,4,3.0,20913.0,145221.0,233461.0,283323.0,265873.0
2026-04-08 21:51:31.009865,260316,1609504263213307,1863179679,0.845216,0.035136,-0.189344,-4.45375,-8.46125,-3.78875,-21.424002,16.92,10.8,concentric,4,3.0,20913.0,145221.0,233461.0,283323.0,265873.0
2026-04-08 21:51:31.012323,260317,1609504263222229,1863188340,0.856928,0.011712,-0.105408,-6.44875,-8.26,-4.87375,-21.496,16.84,9.384001,concentric,4,3.0,20913.0,145221.0,233461.0,283323.0,265873.0
2026-04-08 21:51:31.014778,260318,1609504263236649,1863203228,0.856928,0.011712,-0.105408,-7.14,-7.86625,-6.34375,-21.496,16.84,9.384001,concentric,4,3.0,20913.0,145221.0,233461.0,283323.0,265873.0
2026-04-08 21:51:31.017290,260319,1609504263245573,1863211971,0.83936,0.040992,0.037088,-8.295,-7.76125,-6.4575,-21.416,16.800001,9.76,concentric,4,3.0,20913.0,145221.0,233461.0,283323.0,265873.0
2026-04-08 21:51:31.073510,260330,1609504263260627,1863226931,0.83936,0.040992,0.037088,-8.925,-7.07,-6.71125,-21.416,16.800001,9.76,concentric,4,3.0,20920.0,145288.0,233524.0,283360.0,265895.0
2026-04-08 21:51:31.076053,260331,1609504263269620,1863235645,0.833504,0.025376,0.003904,-8.54875,-6.51875,-6.44875,-21.28,16.976002,7.920001,concentric,4,3.0,20920.0,145288.0,233524.0,283360.0,265895.0
2026-04-08 21:51:31.078538,260332,1609504263278545,1863244297,0.833504,0.025376,0.003904,-2.8525,-4.75125,-4.655,-21.28,16.976002,7.920001,concentric,4,3.0,20920.0,145288.0,233524.0,283360.0,265895.0
2026-04-08 21:51:31.080987,260333,1609504263293141,1863259232,0.788608,0.052704,-0.218624,3.6575,-3.49125,-4.2525,-21.552002,16.984001,9.696,concentric,4,3.0,20920.0,145288.0,233524.0,283360.0,265895.0
2026-04-08 21:51:31.083538,260334,1609504263302188,1863267963,0.84912,0.093696,-0.128832,0.16625,-3.7625,-10.675,-21.552002,16.632,13.208,concentric,4,3.0,20920.0,145288.0,233524.0,283360.0,265895.0
2026-04-08 21:51:31.086066,260335,1609504263316676,1863282850,0.84912,0.093696,-0.128832,-1.2425,-4.17375,-12.67875,-21.736002,16.632,13.208,concentric,4,3.0,20920.0,145288.0,233524.0,283360.0,265895.0
2026-04-08 21:51:31.119962,260336,1609504263325621,1863291543,0.866688,0.023424,-0.101504,-2.96625,-3.8325,-8.77625,-22.128,16.824001,11.480001,concentric,4,3.0,20920.0,145288.0,233524.0,283360.0,265895.0
2026-04-08 21:51:31.122347,260337,1609504263340083,1863306409,0.866688,0.023424,-0.101504,-4.97,-2.905,-5.355,-22.128,16.824001,11.480001,concentric,4,3.0,20920.0,145288.0,233524.0,283360.0,265895.0
2026-04-08 21:51:31.124850,260338,1609504263349074,1863315077,0.831552,0.001952,-0.072224,-2.1875,-1.72375,-0.35,-22.088001,16.976002,9.056001,concentric,4,3.0,20920.0,145288.0,233524.0,283360.0,265895.0
2026-04-08 21:51:31.152357,260349,1609504263358038,1863324143,0.831552,0.001952,-0.072224,-4.33125,-2.38,-1.75,-22.088001,16.976002,9.056001,concentric,4,3.0,20875.0,145248.0,233580.0,283448.0,265966.0
2026-04-08 21:51:31.154815,260350,1609504263372589,1863339042,0.798368,0.081984,0.00976,-5.31125,-3.59625,-6.9475,-21.848001,16.624,9.256001,concentric,4,3.0,20875.0,145248.0,233580.0,283448.0,265966.0
2026-04-08 21:51:31.157257,260351,1609504263381539,1863347726,0.798368,0.081984,0.00976,-3.91125,-4.31375,-9.26625,-21.848001,16.624,9.256001,concentric,4,3.0,20875.0,145248.0,233580.0,283448.0,265966.0
2026-04-08 21:51:31.187555,260352,1609504263396168,1863362624,0.806176,0.095648,-0.187392,-6.615,-4.6375,-7.8575,-21.800001,16.704,9.032001,concentric,4,3.0,20875.0,145248.0,233580.0,283448.0,265966.0
2026-04-08 21:51:31.191076,260353,1609504263405065,1863371311,0.847168,-0.013664,-0.08784,-11.78625,-3.745,-8.51375,-21.664001,17.176,9.008,concentric,4,3.0,20875.0,145248.0,233580.0,283448.0,265966.0
2026-04-08 21:51:31.193602,260354,1609504263419566,1863386172,0.847168,-0.013664,-0.08784,-19.62625,-3.85,-10.01875,-21.664001,17.176,9.008,concentric,4,3.0,20875.0,145248.0,233580.0,283448.0,265966.0
2026-04-08 21:51:31.198587,260355,1609504263428515,1863394839,0.817888,-0.052704,-0.189344,-21.2975,-4.24375,-10.465,-22.176,16.936,8.76,concentric,4,3.0,20875.0,145248.0,233580.0,283448.0,265966.0
2026-04-08 21:51:31.232369,260356,1609504263437466,1863403532,0.817888,-0.052704,-0.189344,-12.6175,-3.6575,-10.43,-22.176,16.936,8.76,concentric,4,3.0,20875.0,145248.0,233580.0,283448.0,265966.0
2026-04-08 21:51:31.236685,260357,1609504263451945,1863418385,0.804224,0.064416,-0.13664,-2.7475,-2.065,-12.59125,-22.44,16.640001,9.04,concentric,4,3.0,20875.0,145248.0,233580.0,283448.0,265966.0
2026-04-08 21:51:31.262509,260368,1609504263461331,1863427125,0.804224,0.064416,-0.13664,5.74875,-0.6825,-15.95125,-22.44,16.640001,9.04,concentric,4,3.0,21191.0,146079.0,234196.0,283721.0,266029.0
2026-04-08 21:51:31.265833,260369,1609504263476215,1863441999,0.81984,0.11712,-0.230336,7.4375,-0.385,-18.19125,-22.84,16.536001,10.872001,concentric,4,3.0,21191.0,146079.0,234196.0,283721.0,266029.0
2026-04-08 21:51:31.267375,260370,1609504263485254,1863450729,0.884256,0.105408,0.044896,0.98,-0.13125,-18.06875,-23.208,16.736,10.432,concentric,4,3.0,21191.0,146079.0,234196.0,283721.0,266029.0
2026-04-08 21:51:31.302941,260371,1609504263494467,1863461521,0.884256,0.105408,0.044896,-6.9475,-0.32375,-14.41125,-23.208,16.736,10.432,concentric,4,3.0,21191.0,146079.0,234196.0,283721.0,266029.0
2026-04-08 21:51:31.307724,260372,1609504263508971,1863474318,0.8784,0.03904,0.015616,-13.9475,-0.42,-10.4475,-23.064001,16.592001,10.664001,concentric,4,3.0,21191.0,146079.0,234196.0,283721.0,266029.0
2026-04-08 21:51:31.310553,260373,1609504263518395,1863485086,0.8784,0.03904,0.015616,-14.4725,-0.39375,-9.35375,-23.064001,16.592001,10.664001,concentric,4,3.0,21191.0,146079.0,234196.0,283721.0,266029.0
2026-04-08 21:51:31.310630,260374,1609504263532860,1863499929,0.864736,0.054656,-0.232288,-9.65125,-0.28,-11.261251,-23.272001,16.424002,9.064,concentric,4,3.0,21191.0,146079.0,234196.0,283721.0,266029.0
2026-04-08 21:51:31.313928,260375,1609504263541763,1863508640,0.864736,0.054656,-0.232288,-3.15875,1.4175,-13.55375,-23.272001,16.424002,9.064,concentric,4,3.0,21191.0,146079.0,234196.0,283721.0,266029.0
2026-04-08 21:51:31.342630,260376,1609504263550712,1863517337,0.870592,0.121024,0.00976,2.66875,3.325,-12.59125,-23.36,16.640001,7.752,concentric,4,3.0,21191.0,146079.0,234196.0,283721.0,266029.0
2026-04-08 21:51:31.371137,260387,1609504263565310,1863532260,0.794464,0.122976,-0.080032,5.52125,5.32875,-8.77625,-23.248001,16.416,9.408,concentric,4,3.0,21129.0,145983.0,234236.0,283811.0,266143.0
2026-04-08 21:51:31.375433,260388,1609504263574229,1863540955,0.794464,0.122976,-0.080032,4.83,5.32875,-5.15375,-23.248001,16.416,9.408,concentric,4,3.0,21129.0,145983.0,234236.0,283811.0,266143.0
2026-04-08 21:51:31.377080,260389,1609504263588719,1863555834,0.845216,0.105408,-0.066368,2.835,3.98125,-2.625,-23.384,16.36,9.0,concentric,4,3.0,21129.0,145983.0,234236.0,283811.0,266143.0
2026-04-08 21:51:31.378596,260390,1609504263597665,1863564535,0.845216,0.105408,-0.066368,2.47625,3.00125,-0.945,-23.384,16.36,9.0,concentric,4,3.0,21129.0,145983.0,234236.0,283811.0,266143.0
2026-04-08 21:51:31.383294,260391,1609504263612169,1863577389,0.862784,0.056608,-0.286944,3.9025,2.77375,-1.39125,-23.2,16.36,10.296001,concentric,4,3.0,21129.0,145983.0,234236.0,283811.0,266143.0
2026-04-08 21:51:31.411366,260392,1609504263621406,1863588166,0.862784,0.056608,-0.286944,0.72625,3.115,-3.42125,-23.2,16.36,10.296001,concentric,4,3.0,21129.0,145983.0,234236.0,283811.0,266143.0
2026-04-08 21:51:31.415766,260393,1609504263630343,1863596830,0.901824,0.07808,-0.080032,0.30625,3.99,-4.76875,-23.264002,16.328001,9.928,concentric,4,3.0,21129.0,145983.0,234236.0,283811.0,266143.0
2026-04-08 21:51:31.417401,260394,1609504263644820,1863611680,0.851072,0.076128,-0.035136,2.26625,5.13625,-4.66375,-23.544,16.392,8.632,concentric,4,3.0,21129.0,145983.0,234236.0,283811.0,266143.0
2026-04-08 21:51:31.426516,260395,1609504263653778,1863620326,0.851072,0.076128,-0.035136,-0.11375,5.4775,-7.0175,-23.544,16.392,8.632,concentric,4,3.0,21129.0,145983.0,234236.0,283811.0,266143.0
2026-04-08 21:51:31.452294,260406,1609504263668387,1863635359,0.911584,0.076128,0.007808,-3.40375,3.4825,-8.3825,-23.592001,16.16,9.504001,concentric,4,3.0,21007.0,145708.0,234239.0,283931.0,266276.0
2026-04-08 21:51:31.454818,260407,1609504263677383,1863644049,0.911584,0.076128,0.007808,-0.18375,2.26625,-5.1625,-23.592001,16.16,9.504001,concentric,4,3.0,21007.0,145708.0,234239.0,283931.0,266276.0
2026-04-08 21:51:31.461106,260408,1609504263686383,1863652759,0.856928,0.113216,-0.201056,-1.645,2.9225,-5.73125,-23.616001,16.640001,9.440001,concentric,4,3.0,21007.0,145708.0,234239.0,283931.0,266276.0
2026-04-08 21:51:31.491311,260409,1609504263700874,1863667691,0.856928,0.113216,-0.201056,-4.75125,3.38625,-8.72375,-23.616001,16.640001,9.440001,concentric,4,3.0,21007.0,145708.0,234239.0,283931.0,266276.0
2026-04-08 21:51:31.503762,260410,1609504263709790,1863676347,0.853024,0.083936,-0.25376,-8.9075,3.2025,-13.72,-23.712002,16.648,9.872001,concentric,4,3.0,21007.0,145708.0,234239.0,283931.0,266276.0
2026-04-08 21:51:31.506108,260411,1609504263724267,1863691216,0.853024,0.06832,0.031232,-6.685,3.22875,-10.36,-23.712002,16.648,9.872001,concentric,4,3.0,21007.0,145708.0,234239.0,283931.0,266276.0
2026-04-08 21:51:31.508607,260412,1609504263733178,1863699891,0.895968,0.074176,0.031232,-4.22625,2.89625,-4.78625,-24.184002,16.384,8.400001,concentric,4,3.0,21007.0,145708.0,234239.0,283931.0,266276.0
2026-04-08 21:51:31.538775,260413,1609504263747662,1863714768,0.817888,0.093696,-0.150304,-7.90125,2.49375,-5.95,-24.296001,16.472,10.136001,concentric,4,3.0,21007.0,145708.0,234239.0,283931.0,266276.0
2026-04-08 21:51:31.543111,260414,1609504263756612,1863723502,0.817888,0.093696,-0.150304,-4.4975,2.345,-6.99125,-24.296001,16.472,10.136001,concentric,4,3.0,21007.0,145708.0,234239.0,283931.0,266276.0
2026-04-08 21:51:31.601222,260425,1609504263765664,1863732552,0.895968,0.132736,-0.054656,-2.94,2.42375,-9.17875,-24.256,16.224,10.296001,concentric,4,3.0,20981.0,145710.0,234313.0,284023.0,266330.0
2026-04-08 21:51:31.604868,260426,1609504263780282,1863747420,0.895968,0.132736,-0.054656,-4.75125,2.00375,-13.29125,-24.256,16.224,10.296001,concentric,4,3.0,20981.0,145710.0,234313.0,284023.0,266330.0
2026-04-08 21:51:31.609792,260427,1609504263789451,1863756163,0.884256,0.081984,-0.193248,-5.6,2.47625,-13.475,-24.44,15.968,9.664001,concentric,4,3.0,20981.0,145710.0,234313.0,284023.0,266330.0
2026-04-08 21:51:31.612314,260428,1609504263803971,1863771125,0.884256,0.081984,-0.193248,-7.91875,2.205,-12.0225,-24.44,15.968,9.664001,concentric,4,3.0,20981.0,145710.0,234313.0,284023.0,266330.0
2026-04-08 21:51:31.614855,260429,1609504263812876,1863779879,0.882304,0.0976,-0.03904,-10.05375,1.25125,-12.25875,-24.648,16.456001,12.648001,concentric,4,3.0,20981.0,145710.0,234313.0,284023.0,266330.0
2026-04-08 21:51:31.617363,260430,1609504263821796,1863788567,0.882304,0.0976,-0.03904,-9.4325,-0.69125,-13.6325,-24.648,16.456001,12.648001,concentric,4,3.0,20981.0,145710.0,234313.0,284023.0,266330.0
2026-04-08 21:51:31.619792,260431,1609504263836279,1863803429,0.89792,0.06832,-0.255712,-1.77625,-0.5075,-10.29875,-24.720001,15.944001,8.832001,concentric,4,3.0,20981.0,145710.0,234313.0,284023.0,266330.0
2026-04-08 21:51:31.623392,260432,1609504263845255,1863812097,0.89792,0.16592,-0.083936,0.6825,-0.30625,-9.45,-24.720001,15.944001,8.832001,concentric,4,3.0,20981.0,145710.0,234313.0,284023.0,266330.0
2026-04-08 21:51:31.629475,260433,1609504263859756,1863824983,0.95648,0.16592,-0.083936,-1.23375,-0.79625,-13.011251,-25.2,16.216002,9.952001,concentric,4,3.0,20981.0,145710.0,234313.0,284023.0,266330.0
2026-04-08 21:51:31.654821,260444,1609504263869102,1863835816,0.98576,0.162016,-0.001952,-0.2975,0.16625,-13.3175,-25.088001,16.272001,9.56,concentric,4,3.0,20998.0,145694.0,234166.0,283838.0,266164.0
2026-04-08 21:51:31.657333,260445,1609504263883682,1863850751,0.98576,0.162016,-0.001952,-1.9425,0.28,-10.3425,-25.088001,16.272001,9.56,concentric,4,3.0,20998.0,145694.0,234166.0,283838.0,266164.0
2026-04-08 21:51:31.662338,260446,1609504263892583,1863859423,1.032608,0.091744,0.011712,-6.4925,-0.58625,-7.84,-25.448002,16.240002,10.632001,concentric,4,3.0,20998.0,145694.0,234166.0,283838.0,266164.0
2026-04-08 21:51:31.671114,260447,1609504263901580,1863868095,1.032608,0.091744,0.011712,-4.26125,-1.07625,-7.09625,-25.448002,16.240002,10.632001,concentric,4,3.0,20998.0,145694.0,234166.0,283838.0,266164.0
2026-04-08 21:51:31.702424,260448,1609504263916075,1863882954,0.974048,0.06832,-0.240096,0.56,-1.98625,-7.65625,-25.496,15.896001,9.776,concentric,4,3.0,20998.0,145694.0,234166.0,283838.0,266164.0
2026-04-08 21:51:31.704799,260449,1609504263924997,1863891647,0.974048,0.06832,-0.240096,3.96375,-3.08,-9.6775,-25.496,15.896001,9.776,concentric,4,3.0,20998.0,145694.0,234166.0,283838.0,266164.0
2026-04-08 21:51:31.708624,260450,1609504263939487,1863906503,1.042368,0.134688,0.011712,4.55,-3.4125,-12.4075,-25.728,15.824,9.064,concentric,4,3.0,20998.0,145694.0,234166.0,283838.0,266164.0
2026-04-08 21:51:31.738816,260451,1609504263948397,1863915195,1.018944,0.122976,-0.2928,5.705,-3.31625,-13.92125,-25.768002,15.64,8.864,concentric,4,3.0,20998.0,145694.0,234166.0,283838.0,266164.0
2026-04-08 21:51:31.767341,260462,1609504263963413,1863930136,1.018944,0.122976,-0.2928,7.81375,-2.4675,-14.2975,-25.768002,15.64,8.864,concentric,4,3.0,21262.0,146233.0,234326.0,283718.0,265997.0
2026-04-08 21:51:31.769865,260463,1609504263972423,1863938885,0.99552,0.154208,-0.15616,8.2775,-2.07375,-13.9475,-25.976002,15.584001,8.912001,concentric,4,3.0,21262.0,146233.0,234326.0,283718.0,265997.0
2026-04-08 21:51:31.772360,260464,1609504263981408,1863947607,0.99552,0.154208,-0.15616,10.1325,-1.19,-13.92125,-25.976002,15.584001,8.912001,concentric,4,3.0,21262.0,146233.0,234326.0,283718.0,265997.0
2026-04-08 21:51:31.774816,260465,1609504263995933,1863962505,1.003328,0.160064,-0.060512,9.4675,-1.225,-13.5275,-26.296001,15.288001,9.776,concentric,4,3.0,21262.0,146233.0,234326.0,283718.0,265997.0
2026-04-08 21:51:31.777368,260466,1609504264004862,1863971181,1.003328,0.160064,-0.060512,10.08,-1.925,-12.7225,-26.296001,15.288001,9.776,concentric,4,3.0,21262.0,146233.0,234326.0,283718.0,265997.0
2026-04-08 21:51:31.807497,260467,1609504264019426,1863986059,1.05408,0.154208,0.037088,13.62375,-1.30375,-11.73375,-26.36,15.136001,8.808001,concentric,4,3.0,21262.0,146233.0,234326.0,283718.0,265997.0
2026-04-08 21:51:31.811274,260468,1609504264028346,1863994722,1.057984,0.144448,-0.216672,15.00625,-0.95375,-11.55875,-26.088001,14.856001,8.832001,concentric,4,3.0,21262.0,146233.0,234326.0,283718.0,265997.0
2026-04-08 21:51:31.813661,260469,1609504264037254,1864003370,1.057984,0.144448,-0.216672,14.525,-0.77875,-9.33625,-26.088001,14.856001,8.832001,concentric,4,3.0,21262.0,146233.0,234326.0,283718.0,265997.0
2026-04-08 21:51:31.844817,260470,1609504264051845,1864018274,1.120448,0.113216,-0.220576,13.9825,-0.93625,-7.875,-26.608002,14.984001,10.216001,concentric,4,3.0,21262.0,146233.0,234326.0,283718.0,265997.0
2026-04-08 21:51:31.849312,260471,1609504264060796,1864027001,1.120448,0.113216,-0.220576,14.30625,-0.1225,-8.82,-26.608002,14.984001,10.216001,concentric,4,3.0,21262.0,146233.0,234326.0,283718.0,265997.0
2026-04-08 21:51:31.907282,260482,1609504264075278,1864041887,1.061888,0.11712,-0.128832,11.73375,0.7,-10.01,-26.432001,15.096001,9.320001,concentric,4,3.0,21530.0,146726.0,234489.0,283735.0,265973.0
2026-04-08 21:51:31.909809,260483,1609504264084204,1864050579,1.061888,0.11712,-0.128832,11.47125,2.17,-9.7825,-26.432001,15.096001,9.320001,concentric,4,3.0,21530.0,146726.0,234489.0,283735.0,265973.0
2026-04-08 21:51:31.912356,260484,1609504264098702,1864065548,1.016992,0.162016,-0.072224,12.32,1.82875,-8.1375,-26.392002,14.872001,9.496,concentric,4,3.0,21530.0,146726.0,234489.0,283735.0,265973.0
2026-04-08 21:51:31.914795,260485,1609504264107670,1864074301,1.016992,0.1952,-0.148352,14.51625,1.44375,-6.8075,-26.912,14.784,9.952001,concentric,4,3.0,21530.0,146726.0,234489.0,283735.0,265973.0
2026-04-08 21:51:31.917295,260486,1609504264116607,1864082961,1.016992,0.1952,-0.148352,15.198751,0.67375,-5.3375,-26.912,14.784,9.952001,concentric,4,3.0,21530.0,146726.0,234489.0,283735.0,265973.0
2026-04-08 21:51:31.919824,260487,1609504264131068,1864097814,1.134112,0.158112,-0.093696,13.615,0.72625,-3.92875,-26.664001,14.384001,9.872001,concentric,4,3.0,21530.0,146726.0,234489.0,283735.0,265973.0
2026-04-08 21:51:31.922344,260488,1609504264139996,1864106475,1.134112,0.158112,-0.093696,11.38375,0.41125,-2.56375,-26.664001,14.384001,9.872001,concentric,4,3.0,21530.0,146726.0,234489.0,283735.0,265973.0
2026-04-08 21:51:31.924832,260489,1609504264154554,1864121443,1.061888,0.144448,-0.08784,7.4725,0.3325,-1.37375,-26.680002,14.56,11.808001,concentric,4,3.0,21530.0,146726.0,234489.0,283735.0,265973.0
2026-04-08 21:51:31.959875,260500,1609504264163489,1864130577,1.061888,0.144448,-0.08784,7.32375,1.2425,-0.4375,-26.680002,14.56,11.808001,concentric,4,3.0,21287.0,145994.0,233891.0,283424.0,265849.0
2026-04-08 21:51:31.962305,260501,1609504264178121,1864143424,1.087264,0.148352,-0.003904,12.0575,3.2725,1.1725,-26.688002,14.608001,9.968,concentric,4,3.0,21287.0,145994.0,233891.0,283424.0,265849.0
2026-04-08 21:51:31.964761,260502,1609504264187440,1864154152,1.087264,0.191296,-0.134688,16.45875,4.29625,2.1525,-26.688002,14.608001,9.968,concentric,4,3.0,21287.0,145994.0,233891.0,283424.0,265849.0
2026-04-08 21:51:31.967354,260503,1609504264196393,1864162846,1.13216,0.191296,-0.134688,16.9225,3.47375,3.675,-26.872002,14.544001,10.072001,concentric,4,3.0,21287.0,145994.0,233891.0,283424.0,265849.0
2026-04-08 21:51:31.997518,260504,1609504264210878,1864177733,1.075552,0.187392,-0.242048,14.2975,3.12375,4.76875,-26.624,14.512001,10.792001,concentric,4,3.0,21287.0,145994.0,233891.0,283424.0,265849.0
2026-04-08 21:51:32.001106,260505,1609504264219798,1864186419,1.075552,0.187392,-0.242048,7.98875,3.56125,4.27875,-26.624,14.512001,10.792001,concentric,4,3.0,21287.0,145994.0,233891.0,283424.0,265849.0
2026-04-08 21:51:32.003580,260506,1609504264234289,1864201265,1.048224,0.148352,-0.05856,3.395,4.52375,4.54125,-26.560001,14.408001,10.672001,concentric,4,3.0,21287.0,145994.0,233891.0,283424.0,265849.0
2026-04-08 21:51:32.033888,260507,1609504264243214,1864209940,1.048224,0.148352,-0.05856,1.3475,4.89125,5.41625,-26.560001,14.408001,10.672001,concentric,4,3.0,21287.0,145994.0,233891.0,283424.0,265849.0
2026-04-08 21:51:32.037369,260508,1609504264252133,1864218708,1.10288,0.093696,-0.16592,1.8375,3.2375,6.72,-26.472002,14.456,10.280001,concentric,4,3.0,21287.0,145994.0,233891.0,283424.0,265849.0
