pc_time,serial_num,sensor_ts,host_ts,ax,ay,az,gx,gy,gz,mx,my,mz,phase,rpe,weight_kg,ppg_a,ppg_b,ppg_c,ppg_d,ppg_e
2026-04-08 21:51:09.537016,256285,1609504241750104,1841716513,1.108736,0.089792,-0.03904,-8.9425,-4.15625,4.34,-26.232,16.048,11.000001,eccentric,4,3.0,20554.0,143127.0,229742.0,280103.0,263474.0
2026-04-08 21:51:09.541648,256286,1609504241759050,1841725296,1.108736,0.089792,-0.03904,-9.59,-3.38625,8.44375,-26.232,16.048,11.000001,eccentric,4,3.0,20554.0,143127.0,229742.0,280103.0,263474.0
2026-04-08 21:51:09.542628,256287,1609504241773581,1841740294,1.126304,0.130784,-0.03904,-2.79125,-3.15875,11.64625,-25.728,15.568001,9.864,eccentric,4,3.0,20554.0,143127.0,229742.0,280103.0,263474.0
2026-04-08 21:51:09.574675,256288,1609504241782502,1841748972,1.079456,0.177632,-0.044896,1.3475,-2.6775,9.765,-25.984001,16.272001,11.360001,eccentric,4,3.0,20554.0,143127.0,229742.0,280103.0,263474.0
2026-04-08 21:51:09.579092,256289,1609504241796995,1841763820,1.079456,0.177632,-0.044896,-2.44125,-1.79375,0.37625,-25.984001,16.272001,11.360001,eccentric,4,3.0,20554.0,143127.0,229742.0,280103.0,263474.0
2026-04-08 21:51:09.580760,256290,1609504241805944,1841772476,1.032608,0.13664,-0.074176,-4.05125,-0.7525,1.00625,-25.664001,16.296001,9.824,eccentric,4,3.0,20554.0,143127.0,229742.0,280103.0,263474.0
2026-04-08 21:51:09.583120,256291,1609504241814872,1841781159,1.032608,0.13664,-0.074176,1.82,0.41125,13.055,-25.664001,16.296001,9.824,eccentric,4,3.0,20554.0,143127.0,229742.0,280103.0,263474.0
2026-04-08 21:51:09.615861,256292,1609504241829355,1841796028,1.009184,0.05856,-0.228384,-4.50625,-0.42,7.56,-25.824001,16.504002,9.888001,eccentric,4,3.0,20554.0,143127.0,229742.0,280103.0,263474.0
2026-04-08 21:51:09.618123,256293,1609504241838271,1841804682,1.009184,0.05856,-0.228384,-7.28,-0.5775,-2.0825,-25.824001,16.504002,9.888001,eccentric,4,3.0,20554.0,143127.0,229742.0,280103.0,263474.0
2026-04-08 21:51:09.644892,256304,1609504241852820,1841819688,1.130208,0.119072,-0.015616,5.7575,0.07,5.915,-25.688002,16.064001,9.616,eccentric,4,3.0,20760.0,143530.0,229896.0,280112.0,263445.0
2026-04-08 21:51:09.649410,256305,1609504241861759,1841828412,1.130208,0.119072,-0.062464,11.29625,0.2975,9.44125,-25.688002,16.064001,9.616,eccentric,4,3.0,20760.0,143530.0,229896.0,280112.0,263445.0
2026-04-08 21:51:09.651002,256306,1609504241876292,1841843345,1.126304,0.169824,-0.060512,6.3175,1.26875,2.275,-25.544,16.064001,9.144,eccentric,4,3.0,20760.0,143530.0,229896.0,280112.0,263445.0
2026-04-08 21:51:09.655162,256307,1609504241885290,1841852055,0.991616,0.179584,-0.1464,1.30375,2.66875,0.1925,-25.336,16.328001,11.488001,eccentric,4,3.0,20760.0,143530.0,229896.0,280112.0,263445.0
2026-04-08 21:51:09.683641,256308,1609504241894242,1841860725,0.991616,0.179584,-0.1464,-4.66375,4.12125,1.95125,-25.336,16.328001,11.488001,eccentric,4,3.0,20760.0,143530.0,229896.0,280112.0,263445.0
2026-04-08 21:51:09.687336,256309,1609504241908733,1841875606,1.0248,0.08784,-0.167872,-9.72125,4.34,3.675,-24.856,16.656,9.696,eccentric,4,3.0,20760.0,143530.0,229896.0,280112.0,263445.0
2026-04-08 21:51:09.689856,256310,1609504241917660,1841884266,1.0248,0.08784,-0.167872,-16.28375,4.40125,5.2675,-24.856,16.656,9.696,eccentric,4,3.0,20760.0,143530.0,229896.0,280112.0,263445.0
2026-04-08 21:51:09.721181,256311,1609504241932141,1841899196,1.03456,0.062464,-0.265472,-18.7425,4.725,9.19625,-24.696001,16.664001,9.904,eccentric,4,3.0,20760.0,143530.0,229896.0,280112.0,263445.0
2026-04-08 21:51:09.724744,256312,1609504241941059,1841907848,1.03456,0.062464,-0.265472,-19.7225,4.64625,9.9925,-24.696001,16.664001,9.904,eccentric,4,3.0,20760.0,143530.0,229896.0,280112.0,263445.0
2026-04-08 21:51:09.752233,256323,1609504241955578,1841920740,1.046272,0.037088,-0.267424,-13.69375,4.83,7.0525,-24.44,16.880001,9.264001,eccentric,4,3.0,20956.0,143876.0,229874.0,279979.0,263316.0
2026-04-08 21:51:09.790530,256324,1609504241964739,1841931542,0.94672,0.093696,-0.238144,-9.073751,5.03125,4.03375,-24.112001,16.912,12.016001,eccentric,4,3.0,20956.0,143876.0,229874.0,279979.0,263316.0
2026-04-08 21:51:09.793519,256325,1609504241973687,1841940322,0.94672,0.093696,-0.238144,-6.0375,6.3175,4.025,-24.112001,16.912,12.016001,eccentric,4,3.0,20956.0,143876.0,229874.0,279979.0,263316.0
2026-04-08 21:51:09.795984,256326,1609504241988192,1841955221,0.989664,0.12688,-0.033184,-4.9875,7.98875,8.16375,-23.696001,16.880001,10.76,eccentric,4,3.0,20956.0,143876.0,229874.0,279979.0,263316.0
2026-04-08 21:51:09.798523,256327,1609504241997158,1841963882,0.989664,0.12688,-0.033184,-7.20125,8.33875,13.22125,-23.696001,16.880001,10.76,eccentric,4,3.0,20956.0,143876.0,229874.0,279979.0,263316.0
2026-04-08 21:51:09.801009,256328,1609504242011628,1841978729,0.983808,0.103456,-0.210816,-13.0725,7.28,16.21375,-23.592001,17.024,9.76,eccentric,4,3.0,20956.0,143876.0,229874.0,279979.0,263316.0
2026-04-08 21:51:09.803491,256329,1609504242020538,1841987420,0.983808,0.103456,-0.210816,-18.235,5.7575,15.33875,-23.592001,17.024,9.76,eccentric,4,3.0,20956.0,143876.0,229874.0,279979.0,263316.0
2026-04-08 21:51:09.806017,256330,1609504242035008,1842000249,0.948672,-0.001952,-0.281088,-18.5325,5.18875,13.125,-23.416,17.648,9.728001,eccentric,4,3.0,20956.0,143876.0,229874.0,279979.0,263316.0
2026-04-08 21:51:09.836311,256331,1609504242044238,1842011008,0.923296,-0.021472,-0.167872,-22.68,5.32,11.480001,-22.896002,17.824001,9.04,eccentric,4,3.0,20956.0,143876.0,229874.0,279979.0,263316.0
2026-04-08 21:51:09.874920,256342,1609504242053275,1842019736,0.923296,-0.021472,-0.167872,-27.055,5.64375,11.41,-22.896002,17.824001,9.04,eccentric,4,3.0,21437.0,145142.0,230726.0,280458.0,263586.0
2026-04-08 21:51:09.877381,256343,1609504242067759,1842034589,0.925248,0.011712,-0.0488,-24.272501,6.43125,13.02,-22.832,17.872002,9.672001,eccentric,4,3.0,21437.0,145142.0,230726.0,280458.0,263586.0
2026-04-08 21:51:09.880727,256344,1609504242076695,1842043282,0.925248,0.011712,-0.0488,-15.30375,6.405,17.12375,-22.832,17.872002,9.672001,eccentric,4,3.0,21437.0,145142.0,230726.0,280458.0,263586.0
2026-04-08 21:51:09.883215,256345,1609504242091267,1842058143,0.8784,0.101504,0.011712,-8.81125,4.9175,16.96625,-22.880001,18.032001,10.904,eccentric,4,3.0,21437.0,145142.0,230726.0,280458.0,263586.0
2026-04-08 21:51:09.884807,256346,1609504242100306,1842066873,0.8784,0.101504,0.011712,-10.535,3.4475,6.62375,-22.880001,18.032001,10.904,eccentric,4,3.0,21437.0,145142.0,230726.0,280458.0,263586.0
2026-04-08 21:51:09.888889,256347,1609504242109221,1842075554,0.794464,0.011712,-0.230336,-8.6275,3.01875,5.075,-22.400002,17.776001,9.872001,eccentric,4,3.0,21437.0,145142.0,230726.0,280458.0,263586.0
2026-04-08 21:51:09.893908,256348,1609504242123690,1842090449,0.794464,0.074176,-0.163968,-13.69375,1.88125,11.24375,-22.400002,17.776001,9.872001,eccentric,4,3.0,21437.0,145142.0,230726.0,280458.0,263586.0
2026-04-08 21:51:09.922538,256349,1609504242132606,1842099135,0.767136,0.064416,-0.163968,-24.395,-0.7175,10.31625,-22.416,18.192001,11.304001,eccentric,4,3.0,21437.0,145142.0,230726.0,280458.0,263586.0
2026-04-08 21:51:09.958333,256360,1609504242147279,1842114594,0.84912,-0.021472,-0.201056,-24.21125,-1.435,4.7425,-21.856,18.592001,9.56,eccentric,4,3.0,21431.0,145246.0,231042.0,280814.0,263874.0
2026-04-08 21:51:09.959856,256361,1609504242156321,1842123258,0.84912,-0.021472,-0.201056,-19.15375,-1.3825,4.94375,-21.856,18.592001,9.56,eccentric,4,3.0,21431.0,145246.0,231042.0,280814.0,263874.0
2026-04-08 21:51:09.964178,256362,1609504242170881,1842136087,0.821792,0.042944,-0.201056,-17.08,-2.03875,8.30375,-21.328001,18.688002,9.360001,eccentric,4,3.0,21431.0,145246.0,231042.0,280814.0,263874.0
2026-04-08 21:51:09.965756,256363,1609504242180101,1842146844,0.821792,0.042944,-0.201056,-15.93375,-2.70375,8.6625,-21.328001,18.688002,9.360001,eccentric,4,3.0,21431.0,145246.0,231042.0,280814.0,263874.0
2026-04-08 21:51:09.967351,256364,1609504242189104,1842155533,0.767136,0.044896,0.060512,-12.11875,-2.63375,7.525,-21.816002,18.832,10.320001,eccentric,4,3.0,21431.0,145246.0,231042.0,280814.0,263874.0
2026-04-08 21:51:09.973912,256365,1609504242203620,1842170492,0.767136,0.044896,0.060512,-18.375,-1.98625,1.46125,-21.816002,18.832,10.320001,eccentric,4,3.0,21431.0,145246.0,231042.0,280814.0,263874.0
2026-04-08 21:51:10.002516,256366,1609504242212525,1842179189,0.774944,-0.001952,-0.052704,-24.59625,-1.79375,0.8925,-21.76,18.792002,9.544001,eccentric,4,3.0,21431.0,145246.0,231042.0,280814.0,263874.0
2026-04-08 21:51:10.007020,256367,1609504242227025,1842194041,0.80032,0.0488,-0.12688,-23.75625,-1.96875,4.92625,-21.592001,18.744001,8.904,eccentric,4,3.0,21431.0,145246.0,231042.0,280814.0,263874.0
2026-04-08 21:51:10.008600,256368,1609504242235934,1842202696,0.80032,0.0488,-0.12688,-20.475,-3.31625,5.78375,-21.592001,18.744001,8.904,eccentric,4,3.0,21431.0,145246.0,231042.0,280814.0,263874.0
2026-04-08 21:51:10.015136,256369,1609504242244864,1842211397,0.851072,0.05856,0.042944,-16.9925,-2.84375,2.98375,-21.592001,18.744001,9.656,eccentric,4,3.0,21431.0,145246.0,231042.0,280814.0,263874.0
2026-04-08 21:51:10.042823,256380,1609504242259378,1842226323,0.851072,0.05856,0.042944,-13.667501,-1.96875,3.045,-21.104,18.832,9.656,eccentric,4,3.0,21603.0,145740.0,231416.0,281028.0,263978.0
2026-04-08 21:51:10.044315,256381,1609504242268397,1842235003,0.720288,0.05856,0.023424,-15.77625,-1.1025,3.87625,-21.080002,18.832,10.344001,eccentric,4,3.0,21603.0,145740.0,231416.0,281028.0,263978.0
2026-04-08 21:51:10.090975,256382,1609504242282987,1842249918,0.720288,0.05856,0.023424,-14.11375,-0.06125,7.88375,-21.080002,18.832,10.344001,eccentric,4,3.0,21603.0,145740.0,231416.0,281028.0,263978.0
2026-04-08 21:51:10.095391,256383,1609504242291888,1842258620,0.808128,0.040992,0.007808,-13.78125,-1.3125,9.835,-20.672,19.104,12.256001,eccentric,4,3.0,21603.0,145740.0,231416.0,281028.0,263978.0
2026-04-08 21:51:10.097012,256384,1609504242306350,1842273452,0.929152,0.025376,-0.074176,-12.25,-2.31875,7.06125,-20.672,19.320002,7.992001,eccentric,4,3.0,21603.0,145740.0,231416.0,281028.0,263978.0
2026-04-08 21:51:10.098746,256385,1609504242315355,1842282116,0.929152,0.025376,-0.074176,-19.76625,-4.0775,0.5425,-20.672,19.320002,7.992001,eccentric,4,3.0,21603.0,145740.0,231416.0,281028.0,263978.0
2026-04-08 21:51:10.102678,256386,1609504242324288,1842290847,0.929152,0.025376,-0.074176,-23.0475,-3.31625,1.715,-20.672,19.320002,7.992001,eccentric,4,3.0,21603.0,145740.0,231416.0,281028.0,263978.0
2026-04-08 21:51:10.109525,256387,1609504242338778,1842305744,0.899872,0.031232,-0.03904,-24.66625,-0.77,5.1975,-20.856,19.392,8.440001,eccentric,4,3.0,21603.0,145740.0,231416.0,281028.0,263978.0
2026-04-08 21:51:10.167404,256398,1609504242347727,1842314477,0.782752,-0.033184,-0.02928,-25.73375,1.435,4.34875,-20.728,19.648,8.76,eccentric,4,3.0,21789.0,146061.0,231563.0,281135.0,264015.0
2026-04-08 21:51:10.180363,256399,1609504242362678,1842329351,0.782752,-0.033184,-0.02928,-19.495,3.92875,6.92125,-20.728,19.648,8.76,eccentric,4,3.0,21789.0,146061.0,231563.0,281135.0,264015.0
2026-04-08 21:51:10.183119,256400,1609504242371612,1842338032,0.817888,-0.011712,0.011712,-20.1075,3.7975,6.71125,-20.336,19.264002,8.408,eccentric,4,3.0,21789.0,146061.0,231563.0,281135.0,264015.0
2026-04-08 21:51:10.183602,256401,1609504242380601,1842346743,0.817888,-0.011712,0.011712,-16.51125,3.14125,5.285,-20.336,19.264002,8.408,eccentric,4,3.0,21789.0,146061.0,231563.0,281135.0,264015.0
2026-04-08 21:51:10.188331,256402,1609504242395076,1842361676,0.880352,0.040992,0.03904,-7.84,4.24375,6.1075,-20.480001,19.592001,9.232,eccentric,4,3.0,21789.0,146061.0,231563.0,281135.0,264015.0
2026-04-08 21:51:10.191957,256403,1609504242404032,1842370343,0.880352,0.040992,0.03904,-4.82125,4.655,6.3875,-20.480001,19.592001,9.232,eccentric,4,3.0,21789.0,146061.0,231563.0,281135.0,264015.0
2026-04-08 21:51:10.192579,256404,1609504242418502,1842385256,0.89792,0.037088,0.033184,-1.39125,5.80125,6.27375,-20.272001,19.696001,11.360001,eccentric,4,3.0,21789.0,146061.0,231563.0,281135.0,264015.0
2026-04-08 21:51:10.196462,256405,1609504242427559,1842393963,0.763232,0.003904,0.091744,-1.855,6.58,3.9725,-20.104,19.448002,8.984,eccentric,4,3.0,21789.0,146061.0,231563.0,281135.0,264015.0
2026-04-08 21:51:10.227433,256406,1609504242442051,1842408866,0.763232,0.003904,0.091744,-5.36375,7.2275,3.7975,-20.104,19.448002,8.984,eccentric,4,3.0,21789.0,146061.0,231563.0,281135.0,264015.0
2026-04-08 21:51:10.256962,256417,1609504242451079,1842417579,0.860832,-0.044896,-0.042944,-6.3,7.97125,5.67,-19.880001,19.544,8.696,eccentric,4,3.0,21425.0,145073.0,230832.0,280738.0,263852.0
2026-04-08 21:51:10.258508,256418,1609504242460062,1842426284,0.860832,-0.044896,-0.042944,-7.14875,7.20125,6.02875,-19.880001,19.544,8.696,eccentric,4,3.0,21425.0,145073.0,230832.0,280738.0,263852.0
2026-04-08 21:51:10.262884,256419,1609504242474676,1842441296,0.931104,-0.007808,-0.031232,-2.3625,6.99125,5.32875,-19.808,19.552,8.912001,eccentric,4,3.0,21425.0,145073.0,230832.0,280738.0,263852.0
2026-04-08 21:51:10.265264,256420,1609504242483628,1842449975,0.931104,-0.007808,-0.031232,9.40625,8.74125,4.66375,-19.808,19.552,8.912001,eccentric,4,3.0,21425.0,145073.0,230832.0,280738.0,263852.0
2026-04-08 21:51:10.270270,256421,1609504242498127,1842464924,0.788608,0.00976,-0.035136,16.0125,10.2025,3.29,-19.560001,19.352001,8.84,eccentric,4,3.0,21425.0,145073.0,230832.0,280738.0,263852.0
2026-04-08 21:51:10.297608,256422,1609504242507194,1842473665,0.728096,0.003904,-0.013664,15.2775,11.36625,3.1325,-19.640001,19.408,9.776,eccentric,4,3.0,21425.0,145073.0,230832.0,280738.0,263852.0
2026-04-08 21:51:10.302057,256423,1609504242521673,1842488525,0.728096,0.003904,-0.013664,11.48875,11.10375,5.04875,-19.640001,19.408,9.776,eccentric,4,3.0,21425.0,145073.0,230832.0,280738.0,263852.0
2026-04-08 21:51:10.303561,256424,1609504242530566,1842497264,0.944768,-0.031232,0.072224,6.195,10.45625,5.6525,-19.28,19.656,9.656,eccentric,4,3.0,21425.0,145073.0,230832.0,280738.0,263852.0
2026-04-08 21:51:10.310228,256425,1609504242539460,1842505937,0.944768,-0.031232,0.072224,-0.35875,9.91375,3.28125,-19.28,19.656,9.656,eccentric,4,3.0,21425.0,145073.0,230832.0,280738.0,263852.0
2026-04-08 21:51:10.425416,256436,1609504242554106,1842520912,0.905728,-0.05856,-0.154208,-6.1425,10.3425,0.72625,-19.272001,19.44,10.0,eccentric,4,3.0,21234.0,144577.0,230414.0,280476.0,263694.0
2026-04-08 21:51:10.429259,256437,1609504242563005,1842529553,0.905728,-0.05856,-0.154208,-5.87125,12.4775,0.16625,-19.272001,19.44,10.0,eccentric,4,3.0,21234.0,144577.0,230414.0,280476.0,263694.0
2026-04-08 21:51:10.433306,256438,1609504242577473,1842544407,0.85888,-0.02928,0.0976,-5.4075,13.51875,0.27125,-19.152,19.480001,9.328,eccentric,4,3.0,21234.0,144577.0,230414.0,280476.0,263694.0
2026-04-08 21:51:10.435985,256439,1609504242586419,1842553053,0.85888,-0.02928,0.0976,-6.4925,13.72,-0.49875,-19.152,19.480001,9.328,eccentric,4,3.0,21234.0,144577.0,230414.0,280476.0,263694.0
2026-04-08 21:51:10.436051,256440,1609504242600944,1842567914,0.894016,-0.044896,0.001952,-7.4725,13.97375,-0.0525,-19.152,19.976002,11.8,eccentric,4,3.0,21234.0,144577.0,230414.0,280476.0,263694.0
2026-04-08 21:51:10.436955,256441,1609504242609856,1842576580,0.866688,0.033184,-0.074176,-12.0925,13.22125,0.8925,-19.104,19.728,9.552,eccentric,4,3.0,21234.0,144577.0,230414.0,280476.0,263694.0
2026-04-08 21:51:10.438495,256442,1609504242618799,1842585271,0.866688,0.033184,-0.074176,-14.65625,12.81875,0.525,-19.104,19.728,9.552,eccentric,4,3.0,21234.0,144577.0,230414.0,280476.0,263694.0
2026-04-08 21:51:10.445304,256443,1609504242633287,1842600195,0.944768,-0.02928,-0.052704,-13.011251,12.5125,-1.82875,-19.264002,20.112001,10.552,eccentric,4,3.0,21234.0,144577.0,230414.0,280476.0,263694.0
2026-04-08 21:51:10.447917,256444,1609504242642200,1842608891,0.944768,-0.02928,-0.052704,-12.2325,12.6875,-2.9575,-19.264002,20.112001,10.552,eccentric,4,3.0,21234.0,144577.0,230414.0,280476.0,263694.0
2026-04-08 21:51:10.476112,256455,1609504242656793,1842623893,0.835456,-0.021472,-0.179584,-14.455,12.53,-2.72125,-18.880001,19.768002,9.72,eccentric,4,3.0,21230.0,144573.0,230403.0,280442.0,263676.0
2026-04-08 21:51:10.479548,256456,1609504242665780,1842632675,0.835456,-0.021472,-0.179584,-17.57,11.34875,-1.81125,-18.880001,19.768002,9.72,eccentric,4,3.0,21230.0,144573.0,230403.0,280442.0,263676.0
2026-04-08 21:51:10.481067,256457,1609504242680357,1842645538,0.89792,0.0,-0.027328,-20.34375,10.01,0.60375,-19.176,20.032001,10.624001,eccentric,4,3.0,21230.0,144573.0,230403.0,280442.0,263676.0
2026-04-08 21:51:10.485325,256458,1609504242689584,1842656342,0.919392,-0.011712,-0.021472,-22.68,7.7,1.855,-19.232,20.272001,11.616,eccentric,4,3.0,21230.0,144573.0,230403.0,280442.0,263676.0
2026-04-08 21:51:10.487085,256459,1609504242698581,1842665058,0.919392,-0.011712,-0.021472,-23.66,5.81875,0.8225,-19.232,20.272001,11.616,eccentric,4,3.0,21230.0,144573.0,230403.0,280442.0,263676.0
2026-04-08 21:51:10.488588,256460,1609504242713080,1842679973,0.841312,-0.042944,-0.18544,-21.2975,4.9525,-0.11375,-19.184,20.528002,10.216001,eccentric,4,3.0,21230.0,144573.0,230403.0,280442.0,263676.0
2026-04-08 21:51:10.492697,256461,1609504242722041,1842688719,0.841312,-0.042944,-0.18544,-17.01875,4.03375,-1.33875,-19.184,20.528002,10.216001,eccentric,4,3.0,21230.0,144573.0,230403.0,280442.0,263676.0
2026-04-08 21:51:10.521408,256462,1609504242736553,1842703579,0.899872,-0.035136,-0.06832,-14.18375,2.835,-2.93125,-18.960001,20.408,10.128,eccentric,4,3.0,21230.0,144573.0,230403.0,280442.0,263676.0
2026-04-08 21:51:10.525869,256463,1609504242745485,1842712232,0.899872,-0.035136,-0.06832,-12.69625,1.3825,-3.33375,-18.960001,20.408,10.128,eccentric,4,3.0,21230.0,144573.0,230403.0,280442.0,263676.0
2026-04-08 21:51:10.555816,256475,1609504242754540,1842720969,0.851072,-0.015616,-0.183488,-14.70875,-0.665,-3.71875,-19.104,20.048,8.784,eccentric,4,3.0,21131.0,144460.0,230524.0,280620.0,263841.0
2026-04-08 21:51:10.557287,256476,1609504242769073,1842735897,0.813984,0.005856,-0.115168,-16.72125,-1.9075,-4.22625,-18.936,20.064001,8.528001,eccentric,4,3.0,21131.0,144460.0,230524.0,280620.0,263841.0
2026-04-08 21:51:10.561584,256477,1609504242778076,1842744620,0.813984,0.005856,-0.115168,-15.9775,-3.325,-5.18,-18.936,20.064001,8.528001,eccentric,4,3.0,21131.0,144460.0,230524.0,280620.0,263841.0
2026-04-08 21:51:10.564062,256478,1609504242792601,1842759495,0.886208,-0.031232,-0.056608,-12.60875,-3.43,-6.09,-19.112001,20.176,9.512,eccentric,4,3.0,21131.0,144460.0,230524.0,280620.0,263841.0
2026-04-08 21:51:10.592571,256479,1609504242801516,1842768171,0.886208,-0.031232,-0.056608,-8.68,-3.535,-6.5625,-19.112001,20.176,9.512,eccentric,4,3.0,21131.0,144460.0,230524.0,280620.0,263841.0
2026-04-08 21:51:10.597029,256480,1609504242815974,1842783060,0.876448,0.033184,-0.033184,-5.53,-3.71875,-5.78375,-19.12,20.376001,8.856,eccentric,4,3.0,21131.0,144460.0,230524.0,280620.0,263841.0
2026-04-08 21:51:10.598621,256481,1609504242824871,1842791724,0.876448,0.033184,-0.033184,-5.76625,-5.87125,-5.59125,-19.12,20.376001,8.856,eccentric,4,3.0,21131.0,144460.0,230524.0,280620.0,263841.0
2026-04-08 21:51:10.603945,256482,1609504242833763,1842800390,0.894016,0.015616,-0.033184,-7.84875,-6.7725,-6.02875,-19.320002,20.368,8.744,eccentric,4,3.0,21131.0,144460.0,230524.0,280620.0,263841.0
2026-04-08 21:51:10.632550,256483,1609504242848271,1842815254,0.894016,0.015616,0.03904,-8.46125,-7.04375,-6.405,-19.320002,20.368,8.744,eccentric,4,3.0,21131.0,144460.0,230524.0,280620.0,263841.0
2026-04-08 21:51:10.693860,256493,1609504242857284,1842823998,0.872544,-0.025376,0.03904,-10.0275,-7.23625,-6.67625,-19.328001,20.512001,8.56,eccentric,4,3.0,21042.0,144172.0,230296.0,280474.0,263787.0
2026-04-08 21:51:10.699553,256494,1609504242871774,1842838846,0.856928,-0.0488,-0.13664,-8.61,-7.23625,-6.9825,-19.336,20.672,8.192,eccentric,4,3.0,21042.0,144172.0,230296.0,280474.0,263787.0
2026-04-08 21:51:10.701111,256495,1609504242880709,1842847591,0.856928,-0.0488,-0.13664,-3.87625,-8.23375,-6.50125,-19.336,20.672,8.192,eccentric,4,3.0,21042.0,144172.0,230296.0,280474.0,263787.0
2026-04-08 21:51:10.705351,256496,1609504242895220,1842860442,0.890112,0.023424,-0.138592,1.4175,-9.61625,-6.7725,-19.408,20.312,7.912,eccentric,4,3.0,21042.0,144172.0,230296.0,280474.0,263787.0
2026-04-08 21:51:10.707072,256497,1609504242904418,1842871171,0.890112,0.023424,-0.138592,3.71,-11.01625,-8.00625,-19.408,20.312,7.912,eccentric,4,3.0,21042.0,144172.0,230296.0,280474.0,263787.0
2026-04-08 21:51:10.708705,256498,1609504242913334,1842879821,0.989664,-0.01952,-0.007808,4.27,-11.47125,-9.21375,-19.672,20.296001,8.464001,eccentric,4,3.0,21042.0,144172.0,230296.0,280474.0,263787.0
2026-04-08 21:51:10.712863,256499,1609504242927816,1842894666,0.989664,-0.01952,-0.007808,4.20875,-11.480001,-8.21625,-19.672,20.296001,8.464001,eccentric,4,3.0,21042.0,144172.0,230296.0,280474.0,263787.0
2026-04-08 21:51:10.715353,256500,1609504242936761,1842903380,0.856928,0.003904,0.0,2.96625,-11.33125,-5.95875,-19.672,20.0,6.992,eccentric,4,3.0,21042.0,144172.0,230296.0,280474.0,263787.0
2026-04-08 21:51:10.748657,256512,1609504242951562,1842918744,0.960384,-0.054656,0.007808,2.37125,-12.18,-4.62,-20.064001,20.064001,8.048,concentric,4,3.0,20784.0,143525.0,229870.0,280314.0,263824.0
2026-04-08 21:51:10.751333,256513,1609504242960644,1842927429,0.960384,-0.054656,0.007808,1.37375,-12.8625,-5.4425,-20.064001,20.064001,8.048,concentric,4,3.0,20784.0,143525.0,229870.0,280314.0,263824.0
2026-04-08 21:51:10.751828,256514,1609504242969668,1842936149,0.88816,0.031232,-0.064416,1.79375,-12.08375,-6.74625,-20.064001,20.072,8.648001,concentric,4,3.0,20784.0,143525.0,229870.0,280314.0,263824.0
2026-04-08 21:51:10.755066,256515,1609504242984158,1842951009,0.88816,0.031232,-0.064416,0.665,-11.15625,-6.93875,-20.072,20.072,8.648001,concentric,4,3.0,20784.0,143525.0,229870.0,280314.0,263824.0
2026-04-08 21:51:10.783808,256516,1609504242993099,1842959710,0.882304,0.046848,-0.17568,-2.21375,-10.5175,-7.16625,-19.856,20.128,9.064,concentric,4,3.0,20784.0,143525.0,229870.0,280314.0,263824.0
2026-04-08 21:51:10.787476,256517,1609504243007602,1842974589,0.882304,0.046848,-0.17568,-1.14625,-9.03,-6.405,-19.856,20.128,9.064,concentric,4,3.0,20784.0,143525.0,229870.0,280314.0,263824.0
2026-04-08 21:51:10.790704,256518,1609504243016528,1842983244,0.905728,0.011712,-0.0976,-0.2275,-7.81375,-2.52875,-19.952002,19.816002,9.088,concentric,4,3.0,20784.0,143525.0,229870.0,280314.0,263824.0
2026-04-08 21:51:10.822209,256519,1609504243031020,1842998110,0.843264,-0.025376,-0.046848,-4.64625,-6.58875,0.525,-19.824001,20.272001,5.960001,concentric,4,3.0,20784.0,143525.0,229870.0,280314.0,263824.0
2026-04-08 21:51:10.826599,256520,1609504243040021,1843006839,0.843264,-0.025376,-0.046848,-10.77125,-5.76625,-1.79375,-19.824001,20.272001,5.960001,concentric,4,3.0,20784.0,143525.0,229870.0,280314.0,263824.0
2026-04-08 21:51:10.828509,256521,1609504243048966,1843015504,0.843264,-0.025376,-0.046848,-7.6825,-4.75125,1.5575,-19.824001,20.272001,5.960001,concentric,4,3.0,20784.0,143525.0,229870.0,280314.0,263824.0
2026-04-08 21:51:10.856107,256532,1609504243063459,1843030503,0.894016,0.017568,0.08784,-8.70625,-4.515,1.56625,-20.224,20.2,7.976,concentric,4,3.0,20726.0,143498.0,230046.0,280470.0,263955.0
2026-04-08 21:51:10.860738,256533,1609504243072478,1843039234,0.88816,-0.031232,-0.193248,-9.10875,-3.70125,-3.045,-19.800001,19.912,7.752,concentric,4,3.0,20726.0,143498.0,230046.0,280470.0,263955.0
2026-04-08 21:51:10.862280,256534,1609504243087015,1843054173,0.88816,-0.031232,-0.193248,-4.235,-2.8175,-3.43,-19.800001,19.912,7.752,concentric,4,3.0,20726.0,143498.0,230046.0,280470.0,263955.0
2026-04-08 21:51:10.866373,256535,1609504243096025,1843062851,0.892064,0.01952,-0.015616,-4.7075,-2.45875,-3.70125,-20.216002,20.216002,7.64,concentric,4,3.0,20726.0,143498.0,230046.0,280470.0,263955.0
2026-04-08 21:51:10.894923,256536,1609504243110492,1843075674,0.86864,0.01952,-0.003904,-5.985,-1.58375,-4.90875,-20.216002,20.216002,9.440001,concentric,4,3.0,20726.0,143498.0,230046.0,280470.0,263955.0
2026-04-08 21:51:10.898552,256537,1609504243119740,1843086416,0.86864,0.01952,-0.003904,-3.43,-1.18125,-4.47125,-20.168001,20.104,9.440001,concentric,4,3.0,20726.0,143498.0,230046.0,280470.0,263955.0
2026-04-08 21:51:10.902840,256538,1609504243128691,1843095084,0.86864,0.01952,-0.003904,1.37375,-1.365,-3.80625,-20.168001,20.104,9.440001,concentric,4,3.0,20726.0,143498.0,230046.0,280470.0,263955.0
2026-04-08 21:51:10.931153,256539,1609504243143175,1843110054,0.874496,0.040992,-0.080032,-0.02625,-2.23125,-6.23,-20.392,20.192001,7.544,concentric,4,3.0,20726.0,143498.0,230046.0,280470.0,263955.0
2026-04-08 21:51:10.999587,256550,1609504243152089,1843118781,0.915488,-0.001952,-0.208864,4.7425,-2.8,-6.76375,-20.536001,19.960001,5.648,concentric,4,3.0,20732.0,143554.0,230162.0,280555.0,263984.0
2026-04-08 21:51:11.001229,256551,1609504243166861,1843133634,0.915488,-0.001952,-0.208864,0.28,-4.59375,-11.75125,-20.536001,19.960001,5.648,concentric,4,3.0,20732.0,143554.0,230162.0,280555.0,263984.0
2026-04-08 21:51:11.005323,256552,1609504243175821,1843142350,0.882304,-0.017568,-0.121024,1.21625,-4.8475,-9.33625,-20.560001,20.072,8.728001,concentric,4,3.0,20732.0,143554.0,230162.0,280555.0,263984.0
2026-04-08 21:51:11.008736,256553,1609504243184751,1843151092,0.882304,-0.017568,-0.121024,5.18,-4.7775,-2.625,-20.560001,20.072,8.728001,concentric,4,3.0,20732.0,143554.0,230162.0,280555.0,263984.0
2026-04-08 21:51:11.012830,256554,1609504243199242,1843166001,0.876448,-0.005856,-0.050752,3.57,-5.13625,-3.9725,-20.552,19.728,7.84,concentric,4,3.0,20732.0,143554.0,230162.0,280555.0,263984.0
2026-04-08 21:51:11.014543,256555,1609504243208174,1843174677,0.876448,-0.005856,-0.050752,3.92,-5.60875,-9.073751,-20.552,19.728,7.84,concentric,4,3.0,20732.0,143554.0,230162.0,280555.0,263984.0
2026-04-08 21:51:11.016074,256556,1609504243222657,1843189511,0.870592,0.025376,-0.220576,7.09625,-6.58,-9.77375,-20.392,19.704,7.552001,concentric,4,3.0,20732.0,143554.0,230162.0,280555.0,263984.0
2026-04-08 21:51:11.020317,256557,1609504243231577,1843198206,0.925248,0.062464,-0.111264,2.31,-8.09375,-8.8025,-20.712002,20.064001,7.784,concentric,4,3.0,20732.0,143554.0,230162.0,280555.0,263984.0
2026-04-08 21:51:11.022100,256558,1609504243246057,1843213080,0.925248,0.062464,-0.111264,-4.83,-7.7175,-9.73875,-20.712002,20.064001,7.784,concentric,4,3.0,20732.0,143554.0,230162.0,280555.0,263984.0
2026-04-08 21:51:11.053263,256569,1609504243255134,1843221791,0.950624,0.001952,0.093696,-5.6525,-6.51875,-9.82625,-20.752,19.928001,7.128,concentric,4,3.0,20635.0,143439.0,230325.0,280803.0,264193.0
2026-04-08 21:51:11.054860,256570,1609504243264162,1843230482,0.950624,0.001952,0.093696,-4.90875,-4.89125,-8.8025,-20.752,19.928001,7.128,concentric,4,3.0,20635.0,143439.0,230325.0,280803.0,264193.0
2026-04-08 21:51:11.059134,256571,1609504243278708,1843245385,0.796416,0.00976,-0.101504,-3.605,-3.71,-5.215,-20.856,20.096,6.112001,concentric,4,3.0,20635.0,143439.0,230325.0,280803.0,264193.0
2026-04-08 21:51:11.061526,256572,1609504243287660,1843254100,0.796416,0.00976,-0.101504,-3.73625,-4.1125,-2.17,-20.856,20.096,6.112001,concentric,4,3.0,20635.0,143439.0,230325.0,280803.0,264193.0
2026-04-08 21:51:11.090043,256573,1609504243302228,1843268997,0.81984,0.040992,0.001952,-3.77125,-6.4925,-1.155,-20.880001,19.584002,8.208,concentric,4,3.0,20635.0,143439.0,230325.0,280803.0,264193.0
2026-04-08 21:51:11.093628,256574,1609504243311142,1843277658,0.81984,0.040992,0.001952,-3.96375,-8.05,-2.40625,-20.880001,19.584002,8.208,concentric,4,3.0,20635.0,143439.0,230325.0,280803.0,264193.0
2026-04-08 21:51:11.096144,256575,1609504243320157,1843286304,0.90768,-0.015616,-0.027328,-5.57375,-8.636251,-3.70125,-21.272001,19.936,5.4,concentric,4,3.0,20635.0,143439.0,230325.0,280803.0,264193.0
2026-04-08 21:51:11.127301,256576,1609504243334664,1843301250,0.821792,-0.015616,-0.13664,-8.6625,-7.90125,-4.4275,-21.216002,19.944,8.296001,concentric,4,3.0,20635.0,143439.0,230325.0,280803.0,264193.0
2026-04-08 21:51:11.131761,256577,1609504243343591,1843309939,0.821792,-0.015616,-0.13664,-5.845,-6.3175,-5.3025,-21.216002,19.944,8.296001,concentric,4,3.0,20635.0,143439.0,230325.0,280803.0,264193.0
2026-04-08 21:51:11.157456,256588,1609504243358214,1843325060,0.8296,0.031232,0.054656,2.02125,-4.2525,-5.95,-21.136002,19.736,7.136,concentric,4,3.0,20338.0,142869.0,230181.0,280878.0,264358.0
2026-04-08 21:51:11.161593,256589,1609504243367163,1843333720,0.8296,0.031232,0.054656,8.5575,-4.01625,-5.8275,-21.136002,19.736,7.136,concentric,4,3.0,20338.0,142869.0,230181.0,280878.0,264358.0
2026-04-08 21:51:11.163318,256590,1609504243381762,1843348671,0.901824,0.044896,-0.12688,12.915,-6.65,-4.585,-21.312,19.480001,7.256001,concentric,4,3.0,20338.0,142869.0,230181.0,280878.0,264358.0
2026-04-08 21:51:11.165728,256591,1609504243390718,1843357372,0.901824,0.044896,-0.12688,15.0675,-8.47875,-3.36875,-21.312,19.480001,7.256001,concentric,4,3.0,20338.0,142869.0,230181.0,280878.0,264358.0
2026-04-08 21:51:11.167366,256592,1609504243399683,1843366124,0.8784,-0.017568,-0.21472,15.21625,-8.3825,-3.6575,-21.208,19.464,7.400001,concentric,4,3.0,20338.0,142869.0,230181.0,280878.0,264358.0
2026-04-08 21:51:11.198783,256593,1609504243414176,1843381005,0.935008,-0.03904,-0.035136,10.78,-7.90125,-5.18875,-21.192001,19.432001,7.984,concentric,4,3.0,20338.0,142869.0,230181.0,280878.0,264358.0
2026-04-08 21:51:11.202693,256594,1609504243423081,1843389658,0.935008,-0.03904,-0.035136,3.35125,-7.1925,-5.145,-21.192001,19.432001,7.984,concentric,4,3.0,20338.0,142869.0,230181.0,280878.0,264358.0
2026-04-08 21:51:11.208928,256595,1609504243437513,1843404527,0.812032,0.037088,-0.11712,7.77875,-6.20375,-3.395,-21.232,19.240002,7.256001,concentric,4,3.0,20338.0,142869.0,230181.0,280878.0,264358.0
2026-04-08 21:51:11.237541,256596,1609504243446436,1843413204,0.812032,0.037088,-0.11712,16.23125,-5.9675,-3.99875,-21.232,19.240002,7.256001,concentric,4,3.0,20338.0,142869.0,230181.0,280878.0,264358.0
2026-04-08 21:51:11.304010,256607,1609504243460939,1843426124,0.786656,0.044896,-0.162016,19.7925,-6.44875,-5.215,-21.952002,19.648,7.56,concentric,4,3.0,20119.0,142311.0,229698.0,280687.0,264287.0
2026-04-08 21:51:11.304828,256608,1609504243470212,1843436910,0.786656,0.044896,-0.162016,20.18625,-6.90375,-4.78625,-21.952002,19.648,7.56,concentric,4,3.0,20119.0,142311.0,229698.0,280687.0,264287.0
2026-04-08 21:51:11.310280,256609,1609504243479141,1843445591,0.856928,0.011712,0.0488,16.16125,-7.28875,-3.91125,-21.560001,19.136002,7.192,concentric,4,3.0,20119.0,142311.0,229698.0,280687.0,264287.0
2026-04-08 21:51:11.313306,256610,1609504243493674,1843460484,0.864736,0.031232,-0.152256,8.65375,-7.77875,-5.69625,-21.784,19.088001,7.176,concentric,4,3.0,20119.0,142311.0,229698.0,280687.0,264287.0
2026-04-08 21:51:11.313374,256611,1609504243502589,1843469192,0.864736,0.031232,-0.152256,3.0275,-8.54875,-9.42375,-21.784,19.088001,7.176,concentric,4,3.0,20119.0,142311.0,229698.0,280687.0,264287.0
2026-04-08 21:51:11.316566,256612,1609504243517092,1843484051,0.979904,0.011712,-0.179584,6.895,-8.70625,-7.7875,-21.920002,19.080002,7.400001,concentric,4,3.0,20119.0,142311.0,229698.0,280687.0,264287.0
2026-04-08 21:51:11.318325,256613,1609504243525985,1843492710,0.979904,0.011712,-0.179584,8.60125,-7.8925,-7.53375,-21.920002,19.080002,7.400001,concentric,4,3.0,20119.0,142311.0,229698.0,280687.0,264287.0
2026-04-08 21:51:11.319831,256614,1609504243540581,1843507538,0.872544,0.035136,0.080032,7.70875,-6.69375,-11.795,-22.160002,18.952002,7.912,concentric,4,3.0,20119.0,142311.0,229698.0,280687.0,264287.0
2026-04-08 21:51:11.323879,256615,1609504243549502,1843516220,0.872544,0.035136,0.080032,4.62,-4.82125,-16.0825,-22.160002,18.952002,7.912,concentric,4,3.0,20119.0,142311.0,229698.0,280687.0,264287.0
2026-04-08 21:51:11.351612,256626,1609504243558647,1843525055,0.856928,0.046848,0.050752,8.51375,-3.89375,-8.225,-22.256,18.808,8.552,concentric,4,3.0,20046.0,142142.0,229563.0,280590.0,264232.0
2026-04-08 21:51:11.353245,256627,1609504243573306,1843539937,0.856928,0.062464,-0.042944,6.16875,-4.8475,-3.745,-22.256,18.808,8.552,concentric,4,3.0,20046.0,142142.0,229563.0,280590.0,264232.0
2026-04-08 21:51:11.354883,256628,1609504243582287,1843548687,0.880352,0.076128,-0.042944,2.1,-6.27375,-8.25125,-22.288,19.304,6.088,concentric,4,3.0,20046.0,142142.0,229563.0,280590.0,264232.0
2026-04-08 21:51:11.387586,256629,1609504243596805,1843563569,0.84912,0.083936,-0.277184,0.2975,-6.195,-12.6525,-22.784,19.008001,8.088,concentric,4,3.0,20046.0,142142.0,229563.0,280590.0,264232.0
2026-04-08 21:51:11.390679,256630,1609504243605703,1843572223,0.84912,0.083936,-0.277184,-1.70625,-5.55625,-16.0475,-22.784,19.008001,8.088,concentric,4,3.0,20046.0,142142.0,229563.0,280590.0,264232.0
2026-04-08 21:51:11.392838,256631,1609504243614610,1843580863,0.837408,0.060512,-0.056608,-3.955,-5.18,-20.50125,-22.432001,18.512001,7.832,concentric,4,3.0,20046.0,142142.0,229563.0,280590.0,264232.0
2026-04-08 21:51:11.398975,256632,1609504243629172,1843595785,0.837408,0.060512,-0.056608,-2.5375,-4.1825,-18.9175,-22.432001,18.512001,7.832,concentric,4,3.0,20046.0,142142.0,229563.0,280590.0,264232.0
2026-04-08 21:51:11.427561,256633,1609504243638154,1843604466,0.851072,0.070272,-0.189344,-0.21875,-3.5525,-13.83375,-23.032001,18.208,7.904,concentric,4,3.0,20046.0,142142.0,229563.0,280590.0,264232.0
2026-04-08 21:51:11.432088,256634,1609504243652615,1843619330,0.851072,0.070272,-0.189344,-5.64375,-3.29,-15.1725,-23.032001,18.208,7.904,concentric,4,3.0,20046.0,142142.0,229563.0,280590.0,264232.0
2026-04-08 21:51:11.460373,256645,1609504243661550,1843628018,0.954528,0.0976,0.003904,-9.45,-2.94,-17.710001,-23.384,18.328001,5.792,concentric,4,3.0,20223.0,142666.0,230000.0,280738.0,264240.0
2026-04-08 21:51:11.462290,256646,1609504243676085,1843642958,0.884256,0.066368,-0.13664,-8.47875,-3.605,-17.31625,-22.976002,18.304,7.368001,concentric,4,3.0,20223.0,142666.0,230000.0,280738.0,264240.0
2026-04-08 21:51:11.463591,256647,1609504243685048,1843651702,0.884256,0.066368,-0.13664,-9.26625,-3.26375,-16.14375,-22.976002,18.304,7.368001,concentric,4,3.0,20223.0,142666.0,230000.0,280738.0,264240.0
2026-04-08 21:51:11.468582,256648,1609504243693982,1843660408,0.884256,0.027328,-0.206912,-11.025,-2.77375,-15.39125,-22.976002,18.304,7.368001,concentric,4,3.0,20223.0,142666.0,230000.0,280738.0,264240.0
2026-04-08 21:51:11.496304,256649,1609504243708498,1843675330,0.9272,0.027328,-0.206912,-9.205,-3.07125,-15.11125,-23.448002,18.2,6.520001,concentric,4,3.0,20223.0,142666.0,230000.0,280738.0,264240.0
2026-04-08 21:51:11.500768,256650,1609504243717384,1843683985,0.935008,0.023424,-0.22448,-4.69,-3.22875,-16.178751,-23.328001,18.848001,7.016,concentric,4,3.0,20223.0,142666.0,230000.0,280738.0,264240.0
2026-04-08 21:51:11.502374,256651,1609504243731852,1843698835,0.935008,0.023424,-0.22448,-2.45875,-2.79125,-15.89,-23.328001,18.848001,7.016,concentric,4,3.0,20223.0,142666.0,230000.0,280738.0,264240.0
2026-04-08 21:51:11.511494,256652,1609504243740821,1843707529,0.860832,0.081984,-0.181536,-2.54625,-2.0125,-14.84,-23.720001,18.224,6.728,concentric,4,3.0,20223.0,142666.0,230000.0,280738.0,264240.0
2026-04-08 21:51:11.604460,256663,1609504243755723,1843722905,0.968192,0.046848,-0.085888,-0.95375,-1.575,-14.70875,-24.304,18.248001,7.256001,concentric,4,3.0,20263.0,142742.0,230039.0,280720.0,264180.0
2026-04-08 21:51:11.606038,256664,1609504243764726,1843731584,0.968192,0.046848,-0.085888,2.44125,-0.21875,-14.77,-24.304,18.248001,7.256001,concentric,4,3.0,20263.0,142742.0,230039.0,280720.0,264180.0
2026-04-08 21:51:11.608550,256665,1609504243773596,1843740270,0.968192,0.046848,-0.085888,4.0075,0.8225,-13.8075,-24.304,18.248001,7.256001,concentric,4,3.0,20263.0,142742.0,230039.0,280720.0,264180.0
2026-04-08 21:51:11.612032,256666,1609504243788109,1843755193,0.886208,0.119072,-0.13664,4.2,1.645,-12.8975,-23.920002,17.888,6.768,concentric,4,3.0,20263.0,142742.0,230039.0,280720.0,264180.0
2026-04-08 21:51:11.613542,256667,1609504243797085,1843763895,0.89792,0.140544,-0.093696,4.34,2.65125,-11.83875,-23.896002,18.304,8.312,concentric,4,3.0,20263.0,142742.0,230039.0,280720.0,264180.0
2026-04-08 21:51:11.649677,256668,1609504243811598,1843778744,0.89792,0.140544,-0.093696,6.41375,3.84125,-10.77125,-23.896002,18.304,8.312,concentric,4,3.0,20263.0,142742.0,230039.0,280720.0,264180.0
2026-04-08 21:51:11.654138,256669,1609504243820509,1843787434,0.933056,0.085888,-0.226432,4.55,5.1275,-9.94,-24.368002,17.696001,7.496,concentric,4,3.0,20263.0,142742.0,230039.0,280720.0,264180.0
2026-04-08 21:51:11.655827,256670,1609504243835028,1843800268,0.933056,0.095648,-0.134688,1.56625,6.06375,-8.0325,-24.368002,17.696001,9.544001,concentric,4,3.0,20263.0,142742.0,230039.0,280720.0,264180.0
2026-04-08 21:51:11.657453,256671,1609504243844296,1843811130,0.94672,0.095648,-0.134688,1.7675,6.81625,-5.73125,-24.296001,18.144001,8.280001,concentric,4,3.0,20263.0,142742.0,230039.0,280720.0,264180.0
2026-04-08 21:51:11.661364,256672,1609504243853228,1843819810,0.94672,0.095648,-0.134688,2.0475,6.74625,-6.0025,-24.296001,18.144001,8.280001,concentric,4,3.0,20263.0,142742.0,230039.0,280720.0,264180.0
2026-04-08 21:51:11.689060,256683,1609504243867709,1843834718,0.974048,0.062464,-0.13664,1.435,6.545,-6.83375,-24.824001,17.888,8.192,concentric,4,3.0,20449.0,143445.0,230913.0,281334.0,264508.0
2026-04-08 21:51:11.690808,256684,1609504243876613,1843843368,1.003328,0.060512,-0.20496,-1.26,6.25625,-9.19625,-24.52,17.704,5.472,concentric,4,3.0,20449.0,143445.0,230913.0,281334.0,264508.0
2026-04-08 21:51:11.692465,256685,1609504243891099,1843858253,1.003328,0.060512,-0.20496,-1.11125,6.335,-5.8625,-24.52,17.704,5.472,concentric,4,3.0,20449.0,143445.0,230913.0,281334.0,264508.0
2026-04-08 21:51:11.696641,256686,1609504243900095,1843866932,0.997472,0.10736,0.023424,-1.47875,7.105,-7.39375,-24.984001,17.616001,8.192,concentric,4,3.0,20449.0,143445.0,230913.0,281334.0,264508.0
2026-04-08 21:51:11.698343,256687,1609504243909047,1843875667,0.997472,0.10736,0.023424,3.84125,8.75875,-10.9025,-24.984001,17.616001,8.192,concentric,4,3.0,20449.0,143445.0,230913.0,281334.0,264508.0
2026-04-08 21:51:11.699841,256688,1609504243923581,1843890556,0.882304,0.113216,-0.12688,9.292501,9.09125,-7.30625,-24.448002,17.76,8.84,concentric,4,3.0,20449.0,143445.0,230913.0,281334.0,264508.0
2026-04-08 21:51:11.703919,256689,1609504243932549,1843899312,0.882304,0.113216,-0.12688,9.68625,8.98625,-5.39,-24.448002,17.76,8.84,concentric,4,3.0,20449.0,143445.0,230913.0,281334.0,264508.0
2026-04-08 21:51:11.732483,256690,1609504243946995,1843912159,0.919392,0.066368,-0.220576,8.4875,7.14,-8.86375,-24.584002,17.808,8.768001,concentric,4,3.0,20449.0,143445.0,230913.0,281334.0,264508.0
2026-04-08 21:51:11.764596,256701,1609504243956149,1843922938,0.98576,0.035136,-0.277184,13.7025,5.88875,-9.35375,-24.584002,17.68,5.992,concentric,4,3.0,20463.0,143510.0,231043.0,281416.0,264556.0
2026-04-08 21:51:11.766101,256702,1609504243965414,1843931570,0.98576,0.035136,-0.277184,16.44125,5.52125,-7.18375,-24.584002,17.68,5.992,concentric,4,3.0,20463.0,143510.0,231043.0,281416.0,264556.0
2026-04-08 21:51:11.770318,256703,1609504243979898,1843946505,0.989664,0.080032,-0.08784,15.3825,6.67625,-7.63,-24.728,16.960001,8.360001,concentric,4,3.0,20463.0,143510.0,231043.0,281416.0,264556.0
2026-04-08 21:51:11.772080,256704,1609504243988946,1843955221,0.989664,0.080032,-0.08784,14.2975,7.385,-10.5875,-24.728,16.960001,8.360001,concentric,4,3.0,20463.0,143510.0,231043.0,281416.0,264556.0
2026-04-08 21:51:11.774372,256705,1609504244003649,1843970156,0.831552,0.122976,-0.228384,16.24875,7.91,-10.3425,-24.848001,17.072,10.688001,concentric,4,3.0,20463.0,143510.0,231043.0,281416.0,264556.0
2026-04-08 21:51:11.783944,256706,1609504244012616,1843978847,0.831552,0.122976,-0.228384,15.44375,6.93,-8.77625,-24.848001,17.072,10.688001,concentric,4,3.0,20463.0,143510.0,231043.0,281416.0,264556.0
2026-04-08 21:51:11.812529,256707,1609504244027119,1843993787,0.903776,0.124928,-0.271328,11.585,4.83,-8.56625,-25.088001,17.184,8.664001,concentric,4,3.0,20463.0,143510.0,231043.0,281416.0,264556.0
2026-04-08 21:51:11.817016,256708,1609504244036038,1844002470,0.903776,0.124928,-0.12688,9.14375,4.0775,-9.03875,-25.088001,17.184,8.664001,concentric,4,3.0,20463.0,143510.0,231043.0,281416.0,264556.0
2026-04-08 21:51:11.818594,256709,1609504244044958,1844011130,0.915488,0.11712,-0.12688,9.02125,5.15375,-8.68875,-24.832,16.896,8.104,concentric,4,3.0,20463.0,143510.0,231043.0,281416.0,264556.0
2026-04-08 21:51:11.850817,256720,1609504244060015,1844026569,0.968192,0.076128,-0.240096,8.14625,5.9675,-8.295,-25.104002,16.712,8.688001,concentric,4,3.0,20231.0,142831.0,230513.0,281152.0,264478.0
2026-04-08 21:51:11.852379,256721,1609504244069028,1844035276,0.968192,0.076128,-0.240096,7.0525,5.67,-7.8575,-25.104002,16.712,8.688001,concentric,4,3.0,20231.0,142831.0,230513.0,281152.0,264478.0
2026-04-08 21:51:11.856409,256722,1609504244083576,1844050195,1.042368,0.091744,-0.03904,9.1875,4.43625,-7.00875,-25.256,17.152,10.344001,concentric,4,3.0,20231.0,142831.0,230513.0,281152.0,264478.0
2026-04-08 21:51:11.890955,256723,1609504244092523,1844058872,1.042368,0.091744,-0.03904,7.97125,3.75375,-5.3375,-25.256,17.152,10.344001,concentric,4,3.0,20231.0,142831.0,230513.0,281152.0,264478.0
2026-04-08 21:51:11.893209,256724,1609504244101524,1844067523,0.999424,0.12688,-0.035136,3.14125,3.78,-3.5525,-25.176,16.704,9.192,concentric,4,3.0,20231.0,142831.0,230513.0,281152.0,264478.0
2026-04-08 21:51:11.897922,256725,1609504244116007,1844082441,0.999424,0.12688,-0.035136,3.33375,5.04875,-2.10875,-25.176,16.704,9.192,concentric,4,3.0,20231.0,142831.0,230513.0,281152.0,264478.0
2026-04-08 21:51:11.900303,256726,1609504244124935,1844091102,0.968192,0.066368,-0.216672,10.10625,4.8125,-1.58375,-25.256,16.928001,11.56,concentric,4,3.0,20231.0,142831.0,230513.0,281152.0,264478.0
2026-04-08 21:51:11.928723,256727,1609504244139442,1844106021,1.00528,0.10736,-0.23424,17.0275,4.4275,-2.77375,-25.616001,16.712,10.160001,concentric,4,3.0,20231.0,142831.0,230513.0,281152.0,264478.0
2026-04-08 21:51:11.933386,256728,1609504244148362,1844114689,1.00528,0.10736,-0.23424,17.03625,3.66625,-3.68375,-25.616001,16.712,10.160001,concentric,4,3.0,20231.0,142831.0,230513.0,281152.0,264478.0
2026-04-08 21:51:11.962354,256739,1609504244162938,1844129606,1.011136,0.119072,-0.187392,15.00625,3.64875,-3.00125,-25.136002,16.272001,9.664001,concentric,4,3.0,20170.0,142645.0,230351.0,281010.0,264406.0
2026-04-08 21:51:11.966593,256740,1609504244171899,1844138359,1.011136,0.119072,-0.187392,12.76625,3.815,-0.90125,-25.136002,16.272001,9.664001,concentric,4,3.0,20170.0,142645.0,230351.0,281010.0,264406.0
2026-04-08 21:51:11.968317,256741,1609504244180872,1844147071,0.989664,0.080032,-0.066368,7.72625,3.84125,0.49,-25.152,16.52,9.448001,concentric,4,3.0,20170.0,142645.0,230351.0,281010.0,264406.0
2026-04-08 21:51:11.969829,256742,1609504244195424,1844161946,0.989664,0.080032,-0.066368,3.64,3.12375,1.09375,-25.152,16.52,9.448001,concentric,4,3.0,20170.0,142645.0,230351.0,281010.0,264406.0
2026-04-08 21:51:11.975212,256743,1609504244204393,1844170663,0.98576,0.040992,-0.228384,5.78375,2.87875,0.9975,-24.992,16.376001,9.576,concentric,4,3.0,20170.0,142645.0,230351.0,281010.0,264406.0
2026-04-08 21:51:12.003756,256744,1609504244218873,1844185559,1.091168,0.08784,-0.163968,9.730001,2.6075,-1.44375,-25.696001,16.344,9.536,concentric,4,3.0,20170.0,142645.0,230351.0,281010.0,264406.0
2026-04-08 21:51:12.008125,256745,1609504244227784,1844194245,1.091168,0.08784,-0.163968,16.79125,1.61875,-5.4425,-25.696001,16.344,9.536,concentric,4,3.0,20170.0,142645.0,230351.0,281010.0,264406.0
2026-04-08 21:51:12.011912,256746,1609504244242232,1844209087,1.0736,0.150304,-0.042944,23.835001,1.40875,-6.41375,-25.144001,16.480001,9.824,concentric,4,3.0,20170.0,142645.0,230351.0,281010.0,264406.0
2026-04-08 21:51:12.042954,256747,1609504244251168,1844217760,1.0736,0.150304,-0.042944,21.0,2.24875,-5.6,-25.144001,16.480001,9.824,concentric,4,3.0,20170.0,142645.0,230351.0,281010.0,264406.0
2026-04-08 21:51:12.075802,256758,1609504244260254,1844226495,0.948672,0.158112,-0.119072,14.49,2.38,-3.92875,-25.064001,16.36,10.008,concentric,4,3.0,20196.0,142663.0,230296.0,280888.0,264246.0
