pc_time,serial_num,sensor_ts,host_ts,ax,ay,az,gx,gy,gz,mx,my,mz,phase,rpe,weight_kg,ppg_a,ppg_b,ppg_c,ppg_d,ppg_e
2026-04-08 21:51:12.081768,256759,1609504244274760,1844241407,0.948672,0.158112,-0.119072,8.1375,2.00375,-2.2925,-25.064001,16.36,10.008,eccentric,4,3.0,20196.0,142663.0,230296.0,280888.0,264246.0
2026-04-08 21:51:12.083319,256760,1609504244283712,1844250119,0.98576,0.121024,-0.130784,1.6975,1.26875,-0.86625,-25.408,16.328001,9.832001,eccentric,4,3.0,20196.0,142663.0,230296.0,280888.0,264246.0
2026-04-08 21:51:12.084849,256761,1609504244298275,1844265023,0.96624,0.089792,-0.218624,-1.33,0.63,0.79625,-25.408,15.952001,10.544001,eccentric,4,3.0,20196.0,142663.0,230296.0,280888.0,264246.0
2026-04-08 21:51:12.088902,256762,1609504244307243,1844273797,0.96624,0.089792,-0.218624,2.03875,0.7175,-0.0875,-25.336,15.952001,10.544001,eccentric,4,3.0,20196.0,142663.0,230296.0,280888.0,264246.0
2026-04-08 21:51:12.092668,256763,1609504244321756,1844288725,0.94672,0.105408,-0.132736,7.9625,1.39125,-1.68875,-25.368002,16.264,11.440001,eccentric,4,3.0,20196.0,142663.0,230296.0,280888.0,264246.0
2026-04-08 21:51:12.122230,256764,1609504244330664,1844297404,0.94672,0.105408,-0.132736,10.0975,1.435,-2.17875,-25.368002,16.264,11.440001,eccentric,4,3.0,20196.0,142663.0,230296.0,280888.0,264246.0
2026-04-08 21:51:12.126627,256765,1609504244339657,1844306090,0.935008,0.138592,-0.20496,10.22875,1.3475,-1.645,-25.2,15.888001,11.864,eccentric,4,3.0,20196.0,142663.0,230296.0,280888.0,264246.0
2026-04-08 21:51:12.130125,256766,1609504244354134,1844320958,0.935008,0.138592,-0.20496,13.965,0.805,-0.88375,-25.2,15.888001,11.864,eccentric,4,3.0,20196.0,142663.0,230296.0,280888.0,264246.0
2026-04-08 21:51:12.159369,256777,1609504244363312,1844330155,1.042368,0.15616,-0.103456,16.2575,-0.595,-1.93375,-25.088001,15.984001,10.264001,eccentric,4,3.0,20251.0,142702.0,230147.0,280692.0,264113.0
2026-04-08 21:51:12.192340,256778,1609504244377844,1844343001,1.042368,0.15616,-0.103456,12.76625,-2.02125,-1.91625,-25.088001,15.984001,10.264001,eccentric,4,3.0,20251.0,142702.0,230147.0,280692.0,264113.0
2026-04-08 21:51:12.194414,256779,1609504244387146,1844353792,1.075552,0.169824,-0.121024,11.69,-3.00125,-0.7525,-25.760002,16.08,13.68,eccentric,4,3.0,20251.0,142702.0,230147.0,280692.0,264113.0
2026-04-08 21:51:12.199030,256780,1609504244396157,1844362467,1.075552,0.169824,-0.121024,10.15,-2.9925,-0.97125,-25.760002,16.08,13.68,eccentric,4,3.0,20251.0,142702.0,230147.0,280692.0,264113.0
2026-04-08 21:51:12.200773,256781,1609504244410621,1844377369,1.022848,0.103456,-0.238144,6.11625,-1.96875,-0.70875,-25.552002,16.016,12.392,eccentric,4,3.0,20251.0,142702.0,230147.0,280692.0,264113.0
2026-04-08 21:51:12.202323,256782,1609504244419511,1844386021,1.061888,0.089792,-0.220576,3.6575,-1.8025,1.11125,-25.544,16.144001,9.544001,eccentric,4,3.0,20251.0,142702.0,230147.0,280692.0,264113.0
2026-04-08 21:51:12.206401,256783,1609504244433982,1844400876,1.061888,0.089792,-0.220576,6.6675,-2.21375,2.6775,-25.544,16.144001,9.544001,eccentric,4,3.0,20251.0,142702.0,230147.0,280692.0,264113.0
2026-04-08 21:51:12.235026,256784,1609504244442938,1844409576,1.149728,0.132736,-0.06832,10.5175,-1.84625,2.33625,-25.264002,15.616001,11.616,eccentric,4,3.0,20251.0,142702.0,230147.0,280692.0,264113.0
2026-04-08 21:51:12.269017,256795,1609504244457452,1844424539,1.149728,0.132736,-0.06832,12.32875,-1.4525,2.135,-25.264002,15.616001,11.616,eccentric,4,3.0,20255.0,142590.0,229883.0,280439.0,263909.0
2026-04-08 21:51:12.272120,256796,1609504244466421,1844433269,1.091168,0.134688,-0.265472,11.7425,-1.44375,2.835,-25.128,15.992001,12.064,eccentric,4,3.0,20255.0,142590.0,229883.0,280439.0,263909.0
2026-04-08 21:51:12.273106,256797,1609504244475354,1844441969,1.091168,0.134688,-0.265472,9.59,-1.4175,4.31375,-25.128,15.992001,12.064,eccentric,4,3.0,20255.0,142590.0,229883.0,280439.0,263909.0
2026-04-08 21:51:12.276591,256798,1609504244489861,1844456886,1.077504,0.152256,-0.046848,6.8075,-1.68,5.57375,-25.048,15.472001,11.392,eccentric,4,3.0,20255.0,142590.0,229883.0,280439.0,263909.0
2026-04-08 21:51:12.279125,256799,1609504244498788,1844465577,1.077504,0.152256,-0.046848,3.50875,-2.23125,6.4575,-25.048,15.472001,11.392,eccentric,4,3.0,20255.0,142590.0,229883.0,280439.0,263909.0
2026-04-08 21:51:12.283123,256800,1609504244513310,1844480410,1.145824,0.072224,0.00976,2.9575,-2.0475,6.5975,-24.992,16.04,11.8,eccentric,4,3.0,20255.0,142590.0,229883.0,280439.0,263909.0
2026-04-08 21:51:12.314650,256801,1609504244522232,1844489127,1.038464,0.109312,-0.115168,6.3,-0.945,6.9125,-25.04,15.808001,10.792001,eccentric,4,3.0,20255.0,142590.0,229883.0,280439.0,263909.0
2026-04-08 21:51:12.329161,256802,1609504244536723,1844501924,1.038464,0.109312,-0.115168,9.24,-0.60375,6.55375,-25.04,15.808001,10.792001,eccentric,4,3.0,20255.0,142590.0,229883.0,280439.0,263909.0
2026-04-08 21:51:12.330736,256803,1609504244545933,1844512643,1.057984,0.132736,-0.163968,11.10375,-1.04125,6.265,-24.392002,15.792001,10.8,eccentric,4,3.0,20255.0,142590.0,229883.0,280439.0,263909.0
2026-04-08 21:51:12.332329,256804,1609504244554870,1844521310,1.057984,0.132736,-0.163968,10.98125,-0.9275,7.6825,-24.392002,15.792001,10.8,eccentric,4,3.0,20255.0,142590.0,229883.0,280439.0,263909.0
2026-04-08 21:51:12.371552,256815,1609504244569424,1844536323,1.028704,0.124928,-0.150304,9.23125,-0.51625,8.86375,-24.392002,15.992001,10.904,eccentric,4,3.0,20185.0,142276.0,229510.0,280190.0,263786.0
2026-04-08 21:51:12.373258,256816,1609504244578411,1844545027,1.028704,0.124928,-0.150304,4.655,0.34125,9.292501,-24.392002,15.992001,10.904,eccentric,4,3.0,20185.0,142276.0,229510.0,280190.0,263786.0
2026-04-08 21:51:12.374832,256817,1609504244592993,1844559941,1.056032,0.064416,-0.203008,2.3975,0.42875,10.26375,-24.184002,15.920001,9.04,eccentric,4,3.0,20185.0,142276.0,229510.0,280190.0,263786.0
2026-04-08 21:51:12.379079,256818,1609504244601902,1844568646,1.095072,0.066368,-0.070272,0.91875,0.90125,11.34875,-24.184002,16.400002,11.152,eccentric,4,3.0,20185.0,142276.0,229510.0,280190.0,263786.0
2026-04-08 21:51:12.381525,256819,1609504244610843,1844577345,1.095072,0.066368,-0.070272,-2.065,0.735,11.71625,-24.184002,16.400002,11.152,eccentric,4,3.0,20185.0,142276.0,229510.0,280190.0,263786.0
2026-04-08 21:51:12.410044,256820,1609504244625408,1844592232,0.970144,0.122976,-0.199104,-1.925,1.6975,11.935,-23.840002,16.424002,11.480001,eccentric,4,3.0,20185.0,142276.0,229510.0,280190.0,263786.0
2026-04-08 21:51:12.414450,256821,1609504244634325,1844600894,0.970144,0.122976,-0.199104,0.21,2.6775,12.90625,-23.840002,16.424002,11.480001,eccentric,4,3.0,20185.0,142276.0,229510.0,280190.0,263786.0
2026-04-08 21:51:12.420174,256822,1609504244648816,1844615740,0.979904,0.113216,-0.167872,1.49625,3.29,14.41125,-23.152,16.352001,11.056001,eccentric,4,3.0,20185.0,142276.0,229510.0,280190.0,263786.0
2026-04-08 21:51:12.448964,256823,1609504244657754,1844624423,0.979904,0.113216,-0.167872,-0.9625,2.905,15.56625,-23.152,16.352001,11.056001,eccentric,4,3.0,20185.0,142276.0,229510.0,280190.0,263786.0
2026-04-08 21:51:12.512583,256834,1609504244672247,1844639295,1.03456,0.076128,-0.074176,-7.8925,2.56375,16.3275,-23.208,16.424002,12.280001,eccentric,4,3.0,20298.0,142629.0,229827.0,280360.0,263856.0
2026-04-08 21:51:12.516624,256835,1609504244681187,1844647942,0.942816,0.054656,-0.103456,-14.13125,2.84375,15.5575,-23.432001,16.512001,10.080001,eccentric,4,3.0,20298.0,142629.0,229827.0,280360.0,263856.0
2026-04-08 21:51:12.518319,256836,1609504244690092,1844656608,0.942816,0.054656,-0.103456,-16.835001,3.24625,14.5075,-23.432001,16.512001,10.080001,eccentric,4,3.0,20298.0,142629.0,229827.0,280360.0,263856.0
2026-04-08 21:51:12.520623,256837,1609504244704598,1844671500,0.882304,0.046848,-0.193248,-17.94625,3.815,14.16625,-22.960001,16.960001,10.976001,eccentric,4,3.0,20298.0,142629.0,229827.0,280360.0,263856.0
2026-04-08 21:51:12.528329,256838,1609504244713594,1844680191,0.882304,0.046848,-0.193248,-14.6475,4.0775,14.62125,-22.960001,16.960001,10.976001,eccentric,4,3.0,20298.0,142629.0,229827.0,280360.0,263856.0
2026-04-08 21:51:12.529832,256839,1609504244728073,1844695042,0.958432,0.08784,-0.17568,-7.525,4.41875,15.015,-22.6,16.776001,11.232,eccentric,4,3.0,20298.0,142629.0,229827.0,280360.0,263856.0
2026-04-08 21:51:12.534113,256840,1609504244737000,1844703796,0.958432,0.08784,-0.17568,-1.60125,4.26125,15.5575,-22.6,16.776001,11.232,eccentric,4,3.0,20298.0,142629.0,229827.0,280360.0,263856.0
2026-04-08 21:51:12.535842,256841,1609504244751497,1844716691,0.940864,0.066368,-0.132736,-0.46375,4.34875,14.46375,-22.392,16.968,12.528001,eccentric,4,3.0,20298.0,142629.0,229827.0,280360.0,263856.0
2026-04-08 21:51:12.564058,256852,1609504244760972,1844727476,0.940864,0.066368,0.054656,-9.89625,3.6225,13.74625,-22.392,16.968,12.528001,eccentric,4,3.0,20404.0,143044.0,230253.0,280723.0,264095.0
2026-04-08 21:51:12.565803,256853,1609504244769950,1844736216,0.923296,0.044896,0.052704,-21.42,3.36,13.58,-21.84,17.624,9.528001,eccentric,4,3.0,20404.0,143044.0,230253.0,280723.0,264095.0
2026-04-08 21:51:12.567375,256854,1609504244784466,1844751238,0.841312,0.001952,-0.197152,-26.7925,3.85875,13.53625,-21.984001,17.848001,12.56,eccentric,4,3.0,20404.0,143044.0,230253.0,280723.0,264095.0
2026-04-08 21:51:12.571475,256855,1609504244793399,1844759957,0.841312,0.001952,-0.197152,-23.17,4.095,13.1775,-21.984001,17.848001,12.56,eccentric,4,3.0,20404.0,143044.0,230253.0,280723.0,264095.0
2026-04-08 21:51:12.599977,256856,1609504244807909,1844774906,0.909632,0.050752,0.025376,-14.49,4.03375,12.985,-21.800001,17.472,12.120001,eccentric,4,3.0,20404.0,143044.0,230253.0,280723.0,264095.0
2026-04-08 21:51:12.604520,256857,1609504244816881,1844783563,0.909632,0.050752,0.025376,-6.53625,4.4625,12.6175,-21.800001,17.472,12.120001,eccentric,4,3.0,20404.0,143044.0,230253.0,280723.0,264095.0
2026-04-08 21:51:12.606054,256858,1609504244825816,1844792232,0.802272,0.066368,-0.07808,-4.095,5.1275,11.85625,-21.256,18.0,10.752001,eccentric,4,3.0,20404.0,143044.0,230253.0,280723.0,264095.0
2026-04-08 21:51:12.610211,256859,1609504244840287,1844807162,0.802272,0.066368,-0.07808,-10.4475,5.73125,11.40125,-21.256,18.0,10.752001,eccentric,4,3.0,20404.0,143044.0,230253.0,280723.0,264095.0
2026-04-08 21:51:12.638810,256860,1609504244849253,1844815838,0.813984,0.00976,-0.138592,-14.4725,6.51875,11.41875,-21.112001,18.12,13.152,eccentric,4,3.0,20404.0,143044.0,230253.0,280723.0,264095.0
2026-04-08 21:51:12.670120,256871,1609504244864185,1844830853,0.763232,0.015616,-0.081984,-13.79,7.37625,11.45375,-20.656,18.152,10.240001,eccentric,4,3.0,20577.0,143580.0,230713.0,281011.0,264210.0
2026-04-08 21:51:12.673070,256872,1609504244873159,1844839497,0.763232,0.015616,-0.081984,-14.98875,8.33,10.59625,-20.656,18.152,10.240001,eccentric,4,3.0,20577.0,143580.0,230713.0,281011.0,264210.0
2026-04-08 21:51:12.674283,256873,1609504244887675,1844854455,0.813984,-0.015616,0.10736,-15.5575,9.16125,9.45875,-20.704,18.04,10.712001,eccentric,4,3.0,20577.0,143580.0,230713.0,281011.0,264210.0
2026-04-08 21:51:12.675895,256874,1609504244896774,1844863164,0.813984,-0.015616,0.10736,-16.695,9.52,7.07,-20.704,18.04,10.712001,eccentric,4,3.0,20577.0,143580.0,230713.0,281011.0,264210.0
2026-04-08 21:51:12.677606,256875,1609504244905826,1844871846,0.755424,-0.007808,-0.162016,-19.355,9.625,3.885,-20.592001,18.400002,10.632001,eccentric,4,3.0,20577.0,143580.0,230713.0,281011.0,264210.0
2026-04-08 21:51:12.708483,256876,1609504244920284,1844886730,0.755424,-0.007808,-0.162016,-18.71625,9.75625,1.9075,-20.592001,18.400002,10.632001,eccentric,4,3.0,20577.0,143580.0,230713.0,281011.0,264210.0
2026-04-08 21:51:12.712896,256877,1609504244929187,1844895350,0.808128,-0.013664,-0.076128,-14.60375,10.01875,2.54625,-20.296001,18.344002,11.368001,eccentric,4,3.0,20577.0,143580.0,230713.0,281011.0,264210.0
2026-04-08 21:51:12.714411,256878,1609504244943644,1844910234,0.880352,0.021472,0.003904,-10.96375,10.64,2.54625,-20.152,18.432001,13.088,eccentric,4,3.0,20577.0,143580.0,230713.0,281011.0,264210.0
2026-04-08 21:51:12.744669,256879,1609504244952574,1844918904,0.880352,0.021472,0.003904,-12.74,10.8675,2.65125,-20.152,18.432001,13.088,eccentric,4,3.0,20577.0,143580.0,230713.0,281011.0,264210.0
2026-04-08 21:51:12.806599,256890,1609504244967155,1844933845,0.815936,0.040992,-0.056608,-15.636251,11.042501,2.10875,-19.84,18.624,10.712001,eccentric,4,3.0,21267.0,145343.0,231846.0,281586.0,264444.0
2026-04-08 21:51:12.808287,256891,1609504244976123,1844942530,0.815936,0.040992,-0.056608,-17.36,11.24375,2.49375,-19.84,18.624,10.712001,eccentric,4,3.0,21267.0,145343.0,231846.0,281586.0,264444.0
2026-04-08 21:51:12.809968,256892,1609504244985066,1844951236,0.772992,-0.021472,-0.083936,-19.9325,11.9875,3.45625,-19.464,19.048,10.624001,eccentric,4,3.0,21267.0,145343.0,231846.0,281586.0,264444.0
2026-04-08 21:51:12.814100,256893,1609504244999592,1844966146,0.772992,-0.021472,-0.083936,-22.47,13.06375,4.5325,-19.464,19.048,10.624001,eccentric,4,3.0,21267.0,145343.0,231846.0,281586.0,264444.0
2026-04-08 21:51:12.815816,256894,1609504245008498,1844974798,0.835456,-0.054656,0.0488,-22.1025,13.53625,7.8575,-19.312,19.104,10.536,eccentric,4,3.0,21267.0,145343.0,231846.0,281586.0,264444.0
2026-04-08 21:51:12.817494,256895,1609504245022941,1844989639,0.804224,-0.007808,-0.060512,-23.54625,13.46625,8.42625,-19.312,19.104,10.480001,eccentric,4,3.0,21267.0,145343.0,231846.0,281586.0,264444.0
2026-04-08 21:51:12.821572,256896,1609504245031915,1844998497,0.804224,-0.007808,-0.060512,-27.973751,13.448751,3.42125,-19.432001,19.144001,10.480001,eccentric,4,3.0,21267.0,145343.0,231846.0,281586.0,264444.0
2026-04-08 21:51:12.823598,256897,1609504245040881,1845007198,0.804224,-0.007808,-0.060512,-24.185,14.28,3.70125,-19.432001,19.144001,10.480001,eccentric,4,3.0,21267.0,145343.0,231846.0,281586.0,264444.0
2026-04-08 21:51:12.824847,256898,1609504245055376,1845022084,0.847168,0.02928,0.062464,-18.27,15.1725,5.11,-19.0,19.248001,11.936001,eccentric,4,3.0,21267.0,145343.0,231846.0,281586.0,264444.0
2026-04-08 21:51:12.854889,256909,1609504245064584,1845030794,0.737856,-0.003904,-0.080032,-12.55625,16.10875,7.665,-19.080002,19.624,11.440001,eccentric,4,3.0,21077.0,144779.0,231522.0,281531.0,264534.0
2026-04-08 21:51:12.861612,256910,1609504245079206,1845045774,0.737856,-0.003904,-0.080032,-11.69,16.03,8.3475,-19.080002,19.624,11.440001,eccentric,4,3.0,21077.0,144779.0,231522.0,281531.0,264534.0
2026-04-08 21:51:12.864054,256911,1609504245088220,1845054469,0.817888,-0.0488,-0.027328,-17.885,14.665,5.81,-18.344002,19.776001,11.528001,eccentric,4,3.0,21077.0,144779.0,231522.0,281531.0,264534.0
2026-04-08 21:51:12.892470,256912,1609504245102718,1845069351,0.817888,-0.0488,-0.027328,-26.59125,13.055,2.5025,-18.344002,19.776001,11.528001,eccentric,4,3.0,21077.0,144779.0,231522.0,281531.0,264534.0
2026-04-08 21:51:12.932073,256913,1609504245111632,1845077995,0.851072,-0.076128,-0.093696,-28.7,12.32,3.08,-18.44,20.072,10.016001,eccentric,4,3.0,21077.0,144779.0,231522.0,281531.0,264534.0
2026-04-08 21:51:12.935805,256914,1609504245120539,1845086655,0.851072,-0.076128,-0.093696,-25.235,12.25,3.7975,-18.44,20.072,10.016001,eccentric,4,3.0,21077.0,144779.0,231522.0,281531.0,264534.0
2026-04-08 21:51:12.937420,256915,1609504245135009,1845101642,0.739808,-0.054656,-0.013664,-20.02,12.6175,2.54625,-18.312,20.0,10.536,eccentric,4,3.0,21077.0,144779.0,231522.0,281531.0,264534.0
2026-04-08 21:51:12.940793,256916,1609504245143945,1845110315,0.743712,-0.074176,-0.154208,-14.72625,13.0025,0.84875,-18.312,20.064001,10.416,eccentric,4,3.0,21077.0,144779.0,231522.0,281531.0,264534.0
2026-04-08 21:51:12.943297,256917,1609504245158437,1845125177,0.743712,-0.074176,-0.154208,-11.585,12.62625,0.35875,-18.248001,20.064001,10.416,eccentric,4,3.0,21077.0,144779.0,231522.0,281531.0,264534.0
2026-04-08 21:51:12.971551,256928,1609504245167467,1845133828,0.884256,-0.001952,-0.021472,-15.846251,11.3225,-1.89,-18.288,20.176,10.480001,eccentric,4,3.0,21199.0,145140.0,231726.0,281525.0,264442.0
2026-04-08 21:51:12.973258,256929,1609504245181969,1845148787,0.884256,-0.001952,-0.021472,-21.28,8.79375,-3.4125,-18.288,20.176,10.480001,eccentric,4,3.0,21199.0,145140.0,231726.0,281525.0,264442.0
2026-04-08 21:51:12.974893,256930,1609504245190888,1845157490,0.856928,-0.054656,-0.13664,-23.87875,8.35625,-3.6925,-18.208,20.464,11.888001,eccentric,4,3.0,21199.0,145140.0,231726.0,281525.0,264442.0
2026-04-08 21:51:12.978875,256931,1609504245199807,1845166197,0.856928,-0.054656,-0.13664,-20.37,7.98875,-1.67125,-18.208,20.464,11.888001,eccentric,4,3.0,21199.0,145140.0,231726.0,281525.0,264442.0
2026-04-08 21:51:12.985514,256932,1609504245214375,1845181090,0.720288,-0.0488,-0.124928,-15.35625,7.51625,2.47625,-18.168001,20.312,11.424001,eccentric,4,3.0,21199.0,145140.0,231726.0,281525.0,264442.0
2026-04-08 21:51:13.013681,256933,1609504245223367,1845189823,0.720288,-0.0488,-0.124928,-11.06,5.5825,5.0575,-18.168001,20.312,11.424001,eccentric,4,3.0,21199.0,145140.0,231726.0,281525.0,264442.0
2026-04-08 21:51:13.018173,256934,1609504245237862,1845204687,0.765184,-0.037088,-0.003904,-14.34125,3.4125,0.91,-18.480001,20.224,12.304001,eccentric,4,3.0,21199.0,145140.0,231726.0,281525.0,264442.0
2026-04-08 21:51:13.019717,256935,1609504245246811,1845213351,0.8296,-0.00976,-0.128832,-16.12625,1.6275,-0.20125,-17.992,20.568,9.824,eccentric,4,3.0,21199.0,145140.0,231726.0,281525.0,264442.0
2026-04-08 21:51:13.109997,256946,1609504245261309,1845228581,0.8296,-0.00976,-0.128832,-18.29625,-0.3325,2.0125,-17.992,20.568,9.824,eccentric,4,3.0,21214.0,145194.0,231780.0,281561.0,264497.0
2026-04-08 21:51:13.114107,256947,1609504245270280,1845237271,0.776896,-0.02928,-0.070272,-18.33125,-0.6125,1.79375,-17.904001,20.480001,10.208,eccentric,4,3.0,21214.0,145194.0,231780.0,281561.0,264497.0
2026-04-08 21:51:13.115797,256948,1609504245279203,1845245921,0.776896,-0.02928,-0.070272,-13.667501,-0.1925,-0.7525,-17.904001,20.480001,10.208,eccentric,4,3.0,21214.0,145194.0,231780.0,281561.0,264497.0
2026-04-08 21:51:13.117500,256949,1609504245293676,1845260772,0.735904,-0.054656,0.044896,-13.1075,-0.58625,-1.67125,-18.072,20.800001,9.856001,eccentric,4,3.0,21214.0,145194.0,231780.0,281561.0,264497.0
2026-04-08 21:51:13.121552,256950,1609504245302610,1845269481,0.735904,-0.054656,0.044896,-12.32875,-2.1875,0.35,-18.072,20.800001,9.856001,eccentric,4,3.0,21214.0,145194.0,231780.0,281561.0,264497.0
2026-04-08 21:51:13.123248,256951,1609504245317080,1845282275,0.796416,-0.054656,-0.171776,-9.59,-4.1825,2.135,-17.904001,21.088001,10.856001,eccentric,4,3.0,21214.0,145194.0,231780.0,281561.0,264497.0
2026-04-08 21:51:13.124948,256952,1609504245326312,1845293009,0.884256,-0.02928,-0.105408,-9.2575,-5.7575,0.34125,-17.832,20.608002,10.184,eccentric,4,3.0,21214.0,145194.0,231780.0,281561.0,264497.0
2026-04-08 21:51:13.129089,256953,1609504245335266,1845301698,0.884256,-0.02928,-0.105408,-9.65125,-6.86875,-2.80875,-17.832,20.608002,10.184,eccentric,4,3.0,21214.0,145194.0,231780.0,281561.0,264497.0
2026-04-08 21:51:13.130830,256954,1609504245349792,1845316631,0.833504,-0.05856,-0.128832,-7.4375,-7.42,-5.76625,-18.264,20.624,9.768001,eccentric,4,3.0,21214.0,145194.0,231780.0,281561.0,264497.0
2026-04-08 21:51:13.132461,256955,1609504245358752,1845325362,0.833504,-0.05856,-0.128832,-6.4575,-7.8225,-7.77,-18.264,20.624,9.768001,eccentric,4,3.0,21214.0,145194.0,231780.0,281561.0,264497.0
2026-04-08 21:51:13.162010,256966,1609504245373342,1845340335,0.825696,-0.040992,-0.060512,-4.725,-7.28875,-7.9625,-18.0,20.568,9.624001,eccentric,4,3.0,20963.0,144516.0,231404.0,281441.0,264471.0
2026-04-08 21:51:13.167892,256967,1609504245382309,1845349030,0.825696,-0.040992,-0.060512,-2.17875,-8.2075,-8.12,-18.0,20.568,9.624001,eccentric,4,3.0,20963.0,144516.0,231404.0,281441.0,264471.0
2026-04-08 21:51:13.169442,256968,1609504245396992,1845363966,0.905728,-0.021472,-0.158112,-0.98,-10.815,-7.175,-18.128,20.648,9.384001,eccentric,4,3.0,20963.0,144516.0,231404.0,281441.0,264471.0
2026-04-08 21:51:13.176447,256969,1609504245405934,1845372673,0.915488,-0.027328,-0.050752,1.47,-12.2325,-6.60625,-18.528002,20.776001,10.776001,eccentric,4,3.0,20963.0,144516.0,231404.0,281441.0,264471.0
2026-04-08 21:51:13.205145,256970,1609504245414855,1845381337,0.915488,-0.027328,-0.050752,2.5025,-14.58625,-8.015,-18.528002,20.776001,10.776001,eccentric,4,3.0,20963.0,144516.0,231404.0,281441.0,264471.0
2026-04-08 21:51:13.209553,256971,1609504245429342,1845396184,0.845216,-0.074176,-0.152256,2.1175,-16.065,-9.9575,-18.504002,20.400002,9.536,eccentric,4,3.0,20963.0,144516.0,231404.0,281441.0,264471.0
2026-04-08 21:51:13.211032,256972,1609504245438260,1845404830,0.845216,-0.074176,-0.152256,3.59625,-16.2925,-11.4275,-18.504002,20.400002,9.536,eccentric,4,3.0,20963.0,144516.0,231404.0,281441.0,264471.0
2026-04-08 21:51:13.242187,256973,1609504245452765,1845419733,0.886208,-0.023424,0.0,6.92125,-16.0125,-11.445,-18.92,20.216002,9.280001,eccentric,4,3.0,20963.0,144516.0,231404.0,281441.0,264471.0
2026-04-08 21:51:13.245025,256974,1609504245461665,1845428421,0.886208,-0.023424,0.0,11.87375,-16.625,-11.1125,-18.92,20.216002,9.280001,eccentric,4,3.0,20963.0,144516.0,231404.0,281441.0,264471.0
2026-04-08 21:51:13.274756,256985,1609504245476165,1845443296,0.974048,-0.011712,0.044896,14.55125,-16.9925,-11.75125,-18.720001,20.056002,9.544001,concentric,4,3.0,20824.0,144196.0,231190.0,281315.0,264444.0
2026-04-08 21:51:13.277305,256986,1609504245485226,1845451979,0.974048,-0.011712,0.044896,16.82625,-16.8525,-10.73625,-18.720001,20.056002,9.544001,concentric,4,3.0,20824.0,144196.0,231190.0,281315.0,264444.0
2026-04-08 21:51:13.279795,256987,1609504245494204,1845460692,0.862784,0.011712,-0.066368,19.80125,-17.08,-10.01,-19.096,19.800001,10.352,concentric,4,3.0,20824.0,144196.0,231190.0,281315.0,264444.0
2026-04-08 21:51:13.282310,256988,1609504245508705,1845475623,0.874496,-0.011712,-0.103456,19.38125,-17.85875,-10.12375,-19.504002,19.856,11.352,concentric,4,3.0,20824.0,144196.0,231190.0,281315.0,264444.0
2026-04-08 21:51:13.286057,256989,1609504245517665,1845484319,0.874496,-0.011712,-0.103456,17.17625,-19.17125,-10.42125,-19.504002,19.856,11.352,concentric,4,3.0,20824.0,144196.0,231190.0,281315.0,264444.0
2026-04-08 21:51:13.316343,256990,1609504245532175,1845499186,0.948672,-0.037088,-0.150304,15.225,-18.97,-11.3225,-19.752,19.776001,9.416,concentric,4,3.0,20824.0,144196.0,231190.0,281315.0,264444.0
2026-04-08 21:51:13.319832,256991,1609504245541078,1845507833,0.948672,-0.037088,-0.150304,9.86125,-18.50625,-13.09875,-19.752,19.776001,9.416,concentric,4,3.0,20824.0,144196.0,231190.0,281315.0,264444.0
2026-04-08 21:51:13.324811,256992,1609504245555563,1845522712,0.997472,-0.035136,-0.001952,4.76,-17.61375,-17.0275,-19.832,19.472,9.472,concentric,4,3.0,20824.0,144196.0,231190.0,281315.0,264444.0
2026-04-08 21:51:13.356076,257003,1609504245564470,1845531421,0.997472,-0.035136,-0.001952,7.805,-16.555,-14.42,-19.832,19.472,9.472,concentric,4,3.0,20497.0,143334.0,230625.0,281116.0,264436.0
2026-04-08 21:51:13.390340,257004,1609504245574000,1845540202,0.894016,0.015616,0.042944,10.9725,-16.4325,-9.98375,-19.800001,19.12,9.352,concentric,4,3.0,20497.0,143334.0,230625.0,281116.0,264436.0
2026-04-08 21:51:13.393872,257005,1609504245588503,1845555171,0.929152,-0.021472,-0.03904,8.365,-16.28375,-12.81,-20.504002,19.216002,9.72,concentric,4,3.0,20497.0,143334.0,230625.0,281116.0,264436.0
2026-04-08 21:51:13.396037,257006,1609504245597422,1845563848,0.929152,-0.021472,-0.03904,6.37875,-15.70625,-14.27125,-20.504002,19.216002,9.72,concentric,4,3.0,20497.0,143334.0,230625.0,281116.0,264436.0
2026-04-08 21:51:13.398526,257007,1609504245611903,1845578721,0.954528,0.083936,0.013664,3.885,-15.60125,-11.17375,-20.264002,19.144001,9.200001,concentric,4,3.0,20497.0,143334.0,230625.0,281116.0,264436.0
2026-04-08 21:51:13.401061,257008,1609504245620814,1845587433,0.954528,0.083936,0.013664,-2.89625,-15.9075,-10.185,-20.264002,19.144001,9.200001,concentric,4,3.0,20497.0,143334.0,230625.0,281116.0,264436.0
2026-04-08 21:51:13.403569,257009,1609504245629722,1845596096,0.983808,0.031232,-0.035136,-10.50875,-15.70625,-11.1825,-20.336,19.344002,9.04,concentric,4,3.0,20497.0,143334.0,230625.0,281116.0,264436.0
2026-04-08 21:51:13.436386,257010,1609504245644162,1845610976,0.983808,0.031232,-0.035136,-14.63875,-13.97375,-10.24625,-20.336,19.344002,9.04,concentric,4,3.0,20497.0,143334.0,230625.0,281116.0,264436.0
2026-04-08 21:51:13.439870,257011,1609504245653054,1845619623,0.876448,-0.001952,-0.081984,-16.94,-12.1625,-7.56,-20.376001,18.976002,8.656,concentric,4,3.0,20497.0,143334.0,230625.0,281116.0,264436.0
2026-04-08 21:51:13.473515,257022,1609504245667730,1845632958,0.880352,0.007808,-0.093696,-18.41875,-11.12125,-6.0025,-20.696001,19.256,8.84,concentric,4,3.0,20359.0,143027.0,230437.0,281033.0,264387.0
2026-04-08 21:51:13.476174,257023,1609504245677000,1845643737,0.880352,0.007808,-0.093696,-18.27875,-11.8125,-5.32,-20.696001,19.256,8.84,concentric,4,3.0,20359.0,143027.0,230437.0,281033.0,264387.0
2026-04-08 21:51:13.478732,257024,1609504245691602,1845658684,0.870592,-0.003904,-0.183488,-17.3075,-12.4075,-5.53,-20.792002,18.888,8.256001,concentric,4,3.0,20359.0,143027.0,230437.0,281033.0,264387.0
2026-04-08 21:51:13.481071,257025,1609504245700523,1845667360,0.870592,-0.003904,-0.183488,-15.81125,-12.48625,-7.27125,-20.792002,18.888,8.256001,concentric,4,3.0,20359.0,143027.0,230437.0,281033.0,264387.0
2026-04-08 21:51:13.483537,257026,1609504245709472,1845676122,0.83936,-0.027328,-0.179584,-12.573751,-11.22625,-9.0825,-21.240002,19.192001,12.040001,concentric,4,3.0,20359.0,143027.0,230437.0,281033.0,264387.0
2026-04-08 21:51:13.513833,257027,1609504245724026,1845691025,0.83936,-0.027328,-0.179584,-10.3075,-10.03625,-11.0775,-21.240002,19.192001,12.040001,concentric,4,3.0,20359.0,143027.0,230437.0,281033.0,264387.0
2026-04-08 21:51:13.517296,257028,1609504245732921,1845699669,0.892064,-0.056608,-0.074176,-6.16,-10.21125,-11.62,-20.816002,19.576,8.024,concentric,4,3.0,20359.0,143027.0,230437.0,281033.0,264387.0
2026-04-08 21:51:13.519809,257029,1609504245747396,1845714504,0.892064,-0.056608,0.013664,1.07625,-9.5725,-9.05625,-20.816002,19.576,8.024,concentric,4,3.0,20359.0,143027.0,230437.0,281033.0,264387.0
2026-04-08 21:51:13.526052,257030,1609504245756418,1845723219,0.899872,0.033184,0.013664,10.75375,-8.33,-5.64375,-21.04,18.976002,7.04,concentric,4,3.0,20359.0,143027.0,230437.0,281033.0,264387.0
2026-04-08 21:51:13.582308,257041,1609504245765333,1845731894,0.899872,0.033184,0.013664,11.445,-8.4,-12.03125,-21.04,18.976002,7.04,concentric,4,3.0,20366.0,143119.0,230643.0,281165.0,264449.0
2026-04-08 21:51:13.584795,257042,1609504245780277,1845746849,0.847168,0.081984,-0.189344,6.32625,-9.2575,-20.53625,-21.104,19.032001,8.288,concentric,4,3.0,20366.0,143119.0,230643.0,281165.0,264449.0
2026-04-08 21:51:13.587253,257043,1609504245789187,1845755529,0.864736,0.042944,-0.210816,6.90375,-9.625,-18.82125,-21.400002,18.672,8.584001,concentric,4,3.0,20366.0,143119.0,230643.0,281165.0,264449.0
2026-04-08 21:51:13.589776,257044,1609504245803680,1845770437,0.864736,0.042944,-0.210816,6.95625,-9.35375,-12.11875,-21.400002,18.672,8.584001,concentric,4,3.0,20366.0,143119.0,230643.0,281165.0,264449.0
2026-04-08 21:51:13.592288,257045,1609504245812646,1845779156,0.823744,0.023424,-0.0976,4.82125,-8.88125,-8.785,-21.448002,18.736,8.888001,concentric,4,3.0,20366.0,143119.0,230643.0,281165.0,264449.0
2026-04-08 21:51:13.594769,257046,1609504245827379,1845794074,0.823744,0.023424,-0.0976,3.325,-8.05875,-8.225,-21.448002,18.736,8.888001,concentric,4,3.0,20366.0,143119.0,230643.0,281165.0,264449.0
2026-04-08 21:51:13.624961,257047,1609504245836319,1845802756,0.882304,0.007808,-0.101504,5.5825,-7.7,-8.98625,-21.776001,18.92,9.216001,concentric,4,3.0,20366.0,143119.0,230643.0,281165.0,264449.0
2026-04-08 21:51:13.629807,257048,1609504245845248,1845811411,0.882304,0.007808,-0.101504,3.78,-9.073751,-12.97625,-21.776001,18.92,9.216001,concentric,4,3.0,20366.0,143119.0,230643.0,281165.0,264449.0
2026-04-08 21:51:13.633307,257049,1609504245859712,1845826273,0.895968,0.035136,-0.160064,1.6275,-9.73875,-12.95875,-21.984001,18.512001,7.8,concentric,4,3.0,20366.0,143119.0,230643.0,281165.0,264449.0
2026-04-08 21:51:13.692559,257060,1609504245868740,1845835127,0.851072,0.035136,-0.119072,1.5575,-9.730001,-10.745,-21.984001,16.464,8.344001,concentric,4,3.0,20313.0,142998.0,230581.0,281192.0,264482.0
2026-04-08 21:51:13.696029,257061,1609504245883316,1845850148,0.851072,0.035136,-0.119072,3.43,-9.05625,-8.645,-21.808,18.36,8.344001,concentric,4,3.0,20313.0,142998.0,230581.0,281192.0,264482.0
2026-04-08 21:51:13.701031,257062,1609504245892341,1845858872,0.884256,-0.013664,-0.099552,5.10125,-9.695,-9.275,-21.968,18.616001,7.8,concentric,4,3.0,20313.0,142998.0,230581.0,281192.0,264482.0
2026-04-08 21:51:13.703569,257063,1609504245901274,1845867560,0.884256,-0.013664,-0.099552,3.66625,-10.78875,-9.00375,-21.968,18.616001,7.8,concentric,4,3.0,20313.0,142998.0,230581.0,281192.0,264482.0
2026-04-08 21:51:13.706015,257064,1609504245915721,1845882428,0.913536,0.017568,-0.085888,0.44625,-12.0925,-7.30625,-22.232,18.264,6.84,concentric,4,3.0,20313.0,142998.0,230581.0,281192.0,264482.0
2026-04-08 21:51:13.709977,257065,1609504245924604,1845891069,0.913536,0.017568,-0.085888,0.56875,-13.18625,-7.48125,-22.232,18.264,6.84,concentric,4,3.0,20313.0,142998.0,230581.0,281192.0,264482.0
2026-04-08 21:51:13.714728,257066,1609504245939290,1845905997,0.919392,0.013664,-0.07808,3.4475,-13.5275,-7.35875,-22.104002,18.296001,7.496,concentric,4,3.0,20313.0,142998.0,230581.0,281192.0,264482.0
2026-04-08 21:51:13.717277,257067,1609504245948264,1845914681,0.919392,0.013664,-0.07808,4.2,-14.16625,-7.7525,-22.104002,18.296001,7.496,concentric,4,3.0,20313.0,142998.0,230581.0,281192.0,264482.0
2026-04-08 21:51:13.747554,257068,1609504245962697,1845929539,0.85888,0.007808,-0.27328,3.31625,-13.825,-8.2775,-22.392,18.52,7.584001,concentric,4,3.0,20313.0,142998.0,230581.0,281192.0,264482.0
2026-04-08 21:51:13.776111,257079,1609504245971707,1845938564,0.843264,0.037088,-0.152256,5.6,-13.60625,-8.25125,-22.328001,18.304,7.528,concentric,4,3.0,20106.0,142568.0,230387.0,281174.0,264529.0
2026-04-08 21:51:13.778512,257080,1609504245980622,1845947265,0.843264,0.037088,-0.152256,9.68625,-13.5975,-8.1725,-22.328001,18.304,7.528,concentric,4,3.0,20106.0,142568.0,230387.0,281174.0,264529.0
2026-04-08 21:51:13.781054,257081,1609504245995186,1845962201,0.921344,0.027328,-0.083936,12.4425,-13.4575,-8.65375,-22.736002,18.096,8.248,concentric,4,3.0,20106.0,142568.0,230387.0,281174.0,264529.0
2026-04-08 21:51:13.783513,257082,1609504246004100,1845970873,0.921344,0.027328,-0.083936,8.25125,-12.5475,-9.35375,-22.736002,18.096,8.248,concentric,4,3.0,20106.0,142568.0,230387.0,281174.0,264529.0
2026-04-08 21:51:13.789178,257083,1609504246018642,1845985742,0.925248,0.060512,-0.316224,2.6075,-11.87375,-9.33625,-22.656,17.392,8.496,concentric,4,3.0,20106.0,142568.0,230387.0,281174.0,264529.0
2026-04-08 21:51:13.817581,257084,1609504246027598,1845994448,0.925248,0.060512,-0.316224,5.285,-10.87625,-8.39125,-22.656,17.392,8.496,concentric,4,3.0,20106.0,142568.0,230387.0,281174.0,264529.0
2026-04-08 21:51:13.821151,257085,1609504246042069,1846007277,0.872544,0.093696,-0.191296,13.04625,-10.5,-6.895,-22.912,17.800001,7.008,concentric,4,3.0,20106.0,142568.0,230387.0,281174.0,264529.0
2026-04-08 21:51:13.826085,257086,1609504246051247,1846018003,0.837408,0.0976,0.007808,17.535,-9.485,-3.535,-23.088001,17.640001,7.2,concentric,4,3.0,20106.0,142568.0,230387.0,281174.0,264529.0
2026-04-08 21:51:13.829760,257087,1609504246060181,1846026676,0.837408,0.0976,0.007808,15.636251,-9.52,-0.34125,-23.088001,17.640001,7.2,concentric,4,3.0,20106.0,142568.0,230387.0,281174.0,264529.0
2026-04-08 21:51:13.859802,257098,1609504246074836,1846041684,0.88816,0.066368,-0.162016,7.90125,-10.22,1.30375,-23.392,17.552,7.224001,concentric,4,3.0,19899.0,142014.0,229968.0,280978.0,264437.0
2026-04-08 21:51:13.862871,257099,1609504246083844,1846050427,0.88816,0.066368,-0.162016,4.6375,-10.03625,-0.09625,-23.392,17.552,7.224001,concentric,4,3.0,19899.0,142014.0,229968.0,280978.0,264437.0
2026-04-08 21:51:13.868162,257100,1609504246098378,1846065340,0.890112,0.044896,-0.105408,0.42875,-9.96625,-2.59875,-22.928001,17.400002,7.16,concentric,4,3.0,19899.0,142014.0,229968.0,280978.0,264437.0
2026-04-08 21:51:13.897572,257101,1609504246107309,1846074034,0.890112,0.044896,-0.105408,1.155,-10.28125,2.1,-22.928001,17.400002,7.16,concentric,4,3.0,19899.0,142014.0,229968.0,280978.0,264437.0
2026-04-08 21:51:13.901078,257102,1609504246121794,1846088937,0.792512,0.03904,-0.245952,-1.0675,-10.28125,-3.0625,-23.392,17.584002,7.192,concentric,4,3.0,19899.0,142014.0,229968.0,280978.0,264437.0
2026-04-08 21:51:13.903573,257103,1609504246130689,1846097595,0.845216,-0.005856,-0.244,1.3825,-8.4525,-11.6025,-23.392,17.768002,8.312,concentric,4,3.0,19899.0,142014.0,229968.0,280978.0,264437.0
2026-04-08 21:51:13.908581,257104,1609504246139719,1846106259,0.845216,-0.005856,-0.244,14.735,-8.19,-4.7775,-23.160002,17.768002,8.312,concentric,4,3.0,19899.0,142014.0,229968.0,280978.0,264437.0
2026-04-08 21:51:13.938714,257105,1609504246154221,1846121126,0.792512,0.070272,-0.238144,16.63375,-9.17,-0.9625,-23.184002,17.696001,8.152,concentric,4,3.0,19899.0,142014.0,229968.0,280978.0,264437.0
2026-04-08 21:51:13.943250,257106,1609504246163155,1846129767,0.792512,0.070272,-0.238144,21.49,-9.205,1.26875,-23.184002,17.696001,8.152,concentric,4,3.0,19899.0,142014.0,229968.0,280978.0,264437.0
2026-04-08 21:51:14.004842,257117,1609504246177685,1846144692,0.784704,0.060512,-0.257664,21.02625,-8.33875,-1.68,-23.632002,17.136002,7.232,concentric,4,3.0,19807.0,141819.0,229820.0,280925.0,264445.0
2026-04-08 21:51:14.007337,257118,1609504246186691,1846153436,0.784704,0.060512,-0.257664,15.47875,-8.75875,-5.20625,-23.632002,17.136002,7.232,concentric,4,3.0,19807.0,141819.0,229820.0,280925.0,264445.0
2026-04-08 21:51:14.014894,257119,1609504246195639,1846162117,0.872544,0.054656,-0.310368,7.18375,-9.45,-6.55375,-23.76,17.6,8.048,concentric,4,3.0,19807.0,141819.0,229820.0,280925.0,264445.0
2026-04-08 21:51:14.017379,257120,1609504246210146,1846176992,0.872544,0.054656,-0.310368,0.32375,-10.325,-6.4575,-23.76,17.6,8.048,concentric,4,3.0,19807.0,141819.0,229820.0,280925.0,264445.0
2026-04-08 21:51:14.019992,257121,1609504246219077,1846185640,0.944768,0.0976,-0.160064,-2.89625,-8.95125,-2.9225,-23.912,17.512001,7.32,concentric,4,3.0,19807.0,141819.0,229820.0,280925.0,264445.0
2026-04-08 21:51:14.024023,257122,1609504246233603,1846200567,0.782752,0.066368,-0.105408,-5.215,-6.09,-5.39875,-23.576,17.184,7.12,concentric,4,3.0,19807.0,141819.0,229820.0,280925.0,264445.0
2026-04-08 21:51:14.024831,257123,1609504246242625,1846209256,0.782752,0.066368,-0.105408,-3.08875,-3.89375,-6.5975,-23.576,17.184,7.12,concentric,4,3.0,19807.0,141819.0,229820.0,280925.0,264445.0
2026-04-08 21:51:14.029562,257124,1609504246257203,1846224127,0.808128,0.08784,-0.074176,-0.5075,-2.8875,1.98625,-23.888,17.424002,7.136,concentric,4,3.0,19807.0,141819.0,229820.0,280925.0,264445.0
2026-04-08 21:51:14.057541,257125,1609504246266173,1846232830,0.808128,0.08784,-0.074176,-6.09,-2.5375,5.36375,-23.888,17.424002,7.136,concentric,4,3.0,19807.0,141819.0,229820.0,280925.0,264445.0
2026-04-08 21:51:14.086058,257136,1609504246275121,1846241526,0.847168,0.080032,-0.26352,-11.2175,-1.8025,-0.42875,-24.216002,17.568,7.352,concentric,4,3.0,19810.0,141837.0,229835.0,280943.0,264457.0
2026-04-08 21:51:14.088555,257137,1609504246289644,1846256401,0.847168,0.080032,-0.26352,-14.2625,-1.04125,-8.16375,-24.216002,17.568,7.352,concentric,4,3.0,19810.0,141837.0,229835.0,280943.0,264457.0
2026-04-08 21:51:14.090996,257138,1609504246298586,1846265166,0.960384,0.064416,-0.099552,-9.89625,-0.27125,-1.96875,-24.208002,17.584002,6.68,concentric,4,3.0,19810.0,141837.0,229835.0,280943.0,264457.0
2026-04-08 21:51:14.093543,257139,1609504246313149,1846280193,0.862784,0.064416,-0.10736,-11.92625,0.95375,0.58625,-24.232,17.960001,6.024,concentric,4,3.0,19810.0,141837.0,229835.0,280943.0,264457.0
2026-04-08 21:51:14.096036,257140,1609504246322076,1846288930,0.862784,0.064416,-0.10736,-17.36875,3.815,-4.27875,-24.232,17.960001,6.024,concentric,4,3.0,19810.0,141837.0,229835.0,280943.0,264457.0
2026-04-08 21:51:14.126261,257141,1609504246336563,1846301756,0.86864,0.089792,-0.031232,-18.7425,4.99625,-6.22125,-24.160002,18.056002,7.8,concentric,4,3.0,19810.0,141837.0,229835.0,280943.0,264457.0
2026-04-08 21:51:14.129873,257142,1609504246345725,1846312510,0.86864,0.089792,-0.031232,-14.8575,4.57625,-3.59625,-24.160002,18.056002,7.8,concentric,4,3.0,19810.0,141837.0,229835.0,280943.0,264457.0
2026-04-08 21:51:14.132274,257143,1609504246354632,1846321173,0.93696,0.083936,-0.187392,-15.0675,3.71875,-4.165,-24.400002,18.104,6.536,concentric,4,3.0,19810.0,141837.0,229835.0,280943.0,264457.0
2026-04-08 21:51:14.159805,257154,1609504246369368,1846336559,0.93696,0.083936,-0.187392,-18.5675,3.61375,-7.6475,-24.400002,18.104,6.536,concentric,4,3.0,20007.0,142264.0,230081.0,280926.0,264348.0
2026-04-08 21:51:14.162293,257155,1609504246378410,1846345250,0.976,0.10736,-0.042944,-21.04375,4.68125,-8.54,-24.44,17.592001,6.528,concentric,4,3.0,20007.0,142264.0,230081.0,280926.0,264348.0
2026-04-08 21:51:14.164761,257156,1609504246392897,1846358102,1.007232,0.109312,-0.023424,-18.13875,7.06125,-7.665,-24.328001,17.960001,6.064,concentric,4,3.0,20007.0,142264.0,230081.0,280926.0,264348.0
2026-04-08 21:51:14.194940,257157,1609504246402139,1846368850,1.007232,0.109312,-0.023424,-14.6475,9.4325,-7.77875,-24.328001,17.960001,6.064,concentric,4,3.0,20007.0,142264.0,230081.0,280926.0,264348.0
2026-04-08 21:51:14.198588,257158,1609504246411069,1846377554,1.007232,0.109312,-0.023424,-10.42125,9.7475,-10.0625,-24.328001,17.960001,6.064,concentric,4,3.0,20007.0,142264.0,230081.0,280926.0,264348.0
2026-04-08 21:51:14.203586,257159,1609504246425542,1846392438,0.962336,0.111264,-0.177632,-1.58375,10.43875,-12.355001,-24.480001,18.216002,6.872,concentric,4,3.0,20007.0,142264.0,230081.0,280926.0,264348.0
2026-04-08 21:51:14.206030,257160,1609504246434419,1846401083,0.964288,0.089792,-0.081984,3.3425,11.48875,-14.0875,-24.512001,17.848001,6.68,concentric,4,3.0,20007.0,142264.0,230081.0,280926.0,264348.0
2026-04-08 21:51:14.236301,257161,1609504246448906,1846415958,0.964288,0.089792,-0.081984,-0.72625,11.59375,-14.23625,-24.512001,17.848001,6.68,concentric,4,3.0,20007.0,142264.0,230081.0,280926.0,264348.0
2026-04-08 21:51:14.239891,257162,1609504246457835,1846424638,0.931104,0.064416,-0.286944,-5.92375,11.40125,-12.705,-24.640001,17.800001,6.736001,concentric,4,3.0,20007.0,142264.0,230081.0,280926.0,264348.0
2026-04-08 21:51:14.307338,257173,1609504246472842,1846439503,0.86864,0.089792,-0.251808,-4.34875,11.90875,-13.09,-24.640001,17.800001,4.792,concentric,4,3.0,20383.0,143239.0,230665.0,281157.0,264394.0
2026-04-08 21:51:14.309863,257174,1609504246481833,1846448268,0.85888,0.089792,-0.251808,0.5075,12.04,-11.99625,-24.960001,17.728,4.792,concentric,4,3.0,20383.0,143239.0,230665.0,281157.0,264394.0
2026-04-08 21:51:14.312333,257175,1609504246490765,1846457001,0.85888,0.089792,-0.251808,5.24125,11.9,-9.345,-24.960001,17.728,4.792,concentric,4,3.0,20383.0,143239.0,230665.0,281157.0,264394.0
2026-04-08 21:51:14.314791,257176,1609504246505308,1846471916,0.942816,0.05856,-0.228384,1.925,11.90875,-14.16625,-25.256,17.664001,7.736001,concentric,4,3.0,20383.0,143239.0,230665.0,281157.0,264394.0
2026-04-08 21:51:14.317289,257177,1609504246514216,1846480580,0.98576,0.091744,-0.11712,2.2225,11.83875,-14.39375,-25.176,17.720001,7.32,concentric,4,3.0,20383.0,143239.0,230665.0,281157.0,264394.0
2026-04-08 21:51:14.319793,257178,1609504246528725,1846495442,0.98576,0.091744,-0.11712,7.2625,12.31125,-11.305,-25.176,17.720001,7.32,concentric,4,3.0,20383.0,143239.0,230665.0,281157.0,264394.0
2026-04-08 21:51:14.322287,257179,1609504246537680,1846504125,0.847168,0.128832,-0.267424,3.56125,12.32875,-15.2075,-25.576002,17.480001,8.288,concentric,4,3.0,20383.0,143239.0,230665.0,281157.0,264394.0
2026-04-08 21:51:14.324917,257180,1609504246546697,1846512936,0.847168,0.128832,-0.267424,1.39125,12.792501,-16.73,-25.576002,17.480001,8.288,concentric,4,3.0,20383.0,143239.0,230665.0,281157.0,264394.0
2026-04-08 21:51:14.329858,257181,1609504246561268,1846527878,0.950624,0.11712,-0.095648,-0.385,12.495,-12.90625,-25.904001,17.536001,8.576,concentric,4,3.0,20383.0,143239.0,230665.0,281157.0,264394.0
2026-04-08 21:51:14.388552,257192,1609504246570437,1846536664,0.950624,0.11712,-0.095648,-4.13875,11.71625,-11.62,-25.904001,17.536001,8.576,concentric,4,3.0,20445.0,143499.0,231088.0,281514.0,264603.0
2026-04-08 21:51:14.391028,257193,1609504246584947,1846551552,0.977952,0.02928,-0.167872,-5.8975,11.34875,-10.8675,-25.12,17.304,7.520001,concentric,4,3.0,20445.0,143499.0,231088.0,281514.0,264603.0
2026-04-08 21:51:14.393537,257194,1609504246593852,1846560228,0.856928,0.064416,-0.216672,-7.16625,11.43625,-10.10625,-25.44,17.152,7.072001,concentric,4,3.0,20445.0,143499.0,231088.0,281514.0,264603.0
2026-04-08 21:51:14.396053,257195,1609504246608359,1846575148,0.856928,0.064416,-0.216672,-0.79625,11.36625,-10.5,-25.44,17.152,7.072001,concentric,4,3.0,20445.0,143499.0,231088.0,281514.0,264603.0
2026-04-08 21:51:14.398568,257196,1609504246617307,1846583916,0.925248,0.076128,-0.25376,7.14875,11.4625,-12.0575,-25.792002,17.152,8.064,concentric,4,3.0,20445.0,143499.0,231088.0,281514.0,264603.0
2026-04-08 21:51:14.401005,257197,1609504246626249,1846592572,0.925248,0.076128,-0.25376,9.05625,10.56125,-12.53,-25.792002,17.152,8.064,concentric,4,3.0,20445.0,143499.0,231088.0,281514.0,264603.0
2026-04-08 21:51:14.431817,257198,1609504246640723,1846607471,0.892064,0.148352,-0.183488,8.89,9.40625,-10.96375,-25.768002,17.12,5.696,concentric,4,3.0,20445.0,143499.0,231088.0,281514.0,264603.0
2026-04-08 21:51:14.434754,257199,1609504246649657,1846616143,0.892064,0.148352,-0.183488,6.57125,8.995,-9.65125,-25.768002,17.12,5.696,concentric,4,3.0,20445.0,143499.0,231088.0,281514.0,264603.0
2026-04-08 21:51:14.437322,257200,1609504246664095,1846630986,0.960384,0.085888,-0.083936,0.735,9.345,-10.99,-25.984001,16.992,8.096001,concentric,4,3.0,20445.0,143499.0,231088.0,281514.0,264603.0
2026-04-08 21:51:14.473656,257211,1609504246673167,1846640205,0.960384,0.085888,-0.083936,-2.14375,10.01,-13.22125,-25.984001,16.992,8.096001,concentric,4,3.0,20330.0,143184.0,230989.0,281508.0,264653.0
2026-04-08 21:51:14.476078,257212,1609504246687712,1846653035,0.960384,0.037088,-0.249856,-7.81375,9.2575,-11.78625,-26.128002,17.096,9.304001,concentric,4,3.0,20330.0,143184.0,230989.0,281508.0,264653.0
2026-04-08 21:51:14.478575,257213,1609504246697123,1846663796,1.00528,0.101504,-0.070272,-9.975,9.33625,-7.805,-26.080002,16.832,8.504001,concentric,4,3.0,20330.0,143184.0,230989.0,281508.0,264653.0
2026-04-08 21:51:14.481032,257214,1609504246706155,1846672532,1.00528,0.101504,-0.070272,-6.2475,8.7325,-7.16625,-26.080002,16.832,8.504001,concentric,4,3.0,20330.0,143184.0,230989.0,281508.0,264653.0
2026-04-08 21:51:14.511606,257215,1609504246720650,1846687427,0.913536,0.111264,-0.042944,-3.49125,9.073751,-8.9075,-26.008001,16.968,8.984,concentric,4,3.0,20330.0,143184.0,230989.0,281508.0,264653.0
2026-04-08 21:51:14.514720,257216,1609504246729567,1846696106,0.913536,0.111264,-0.042944,-7.875,9.17875,-9.292501,-26.008001,16.968,8.984,concentric,4,3.0,20330.0,143184.0,230989.0,281508.0,264653.0
2026-04-08 21:51:14.517246,257217,1609504246743998,1846710949,0.913536,0.066368,-0.076128,-9.24875,8.575,-9.16125,-26.2,16.848001,8.256001,concentric,4,3.0,20330.0,143184.0,230989.0,281508.0,264653.0
2026-04-08 21:51:14.521027,257218,1609504246752931,1846719641,0.913536,0.066368,-0.076128,-7.23625,8.2425,-10.21125,-26.2,16.848001,8.256001,concentric,4,3.0,20330.0,143184.0,230989.0,281508.0,264653.0
2026-04-08 21:51:14.552200,257219,1609504246761856,1846728338,1.057984,0.085888,-0.046848,-5.1275,7.13125,-10.56125,-26.248001,16.824001,8.168,concentric,4,3.0,20330.0,143184.0,230989.0,281508.0,264653.0
2026-04-08 21:51:14.619088,257230,1609504246776443,1846743268,1.042368,0.132736,-0.054656,-0.5075,6.685,-11.01625,-26.088001,16.16,10.304001,concentric,4,3.0,20425.0,143487.0,231212.0,281565.0,264609.0
2026-04-08 21:51:14.620758,257231,1609504246785348,1846751920,1.042368,0.132736,-0.054656,-1.30375,6.57125,-15.435,-26.088001,16.16,10.304001,concentric,4,3.0,20425.0,143487.0,231212.0,281565.0,264609.0
2026-04-08 21:51:14.622345,257232,1609504246799857,1846766849,0.91744,0.101504,-0.122976,-6.405,7.27125,-14.65625,-26.368002,16.704,8.328,concentric,4,3.0,20425.0,143487.0,231212.0,281565.0,264609.0
2026-04-08 21:51:14.626581,257233,1609504246808791,1846775500,0.91744,0.101504,-0.122976,0.9625,7.7175,-1.82,-26.368002,16.704,8.328,concentric,4,3.0,20425.0,143487.0,231212.0,281565.0,264609.0
2026-04-08 21:51:14.628266,257234,1609504246823276,1846790345,0.972096,0.072224,-0.037088,-0.175,6.65875,-0.69125,-26.480001,16.384,8.528001,concentric,4,3.0,20425.0,143487.0,231212.0,281565.0,264609.0
2026-04-08 21:51:14.629932,257235,1609504246832187,1846798992,0.972096,0.072224,-0.037088,2.17875,6.36125,-6.6325,-26.480001,16.384,8.528001,concentric,4,3.0,20425.0,143487.0,231212.0,281565.0,264609.0
2026-04-08 21:51:14.634091,257236,1609504246841141,1846807687,0.993568,0.091744,-0.187392,6.37875,5.25,-8.68875,-26.488,16.256,8.56,concentric,4,3.0,20425.0,143487.0,231212.0,281565.0,264609.0
2026-04-08 21:51:14.636060,257237,1609504246855715,1846822605,1.0248,0.121024,-0.265472,11.45375,4.13875,-6.22125,-26.664001,16.464,10.008,concentric,4,3.0,20425.0,143487.0,231212.0,281565.0,264609.0
2026-04-08 21:51:14.637551,257238,1609504246864701,1846831300,1.0248,0.121024,-0.265472,7.4725,4.36625,-8.89,-26.664001,16.464,10.008,concentric,4,3.0,20425.0,143487.0,231212.0,281565.0,264609.0
2026-04-08 21:51:14.665804,257249,1609504246879271,1846846283,0.991616,0.115168,-0.103456,4.24375,4.57625,-11.165,-26.368002,16.088001,8.688001,concentric,4,3.0,20801.0,144382.0,231701.0,281634.0,264522.0
2026-04-08 21:51:14.668967,257250,1609504246888315,1846854978,0.991616,0.115168,-0.103456,7.74375,4.515,-6.79875,-26.368002,16.088001,8.688001,concentric,4,3.0,20801.0,144382.0,231701.0,281634.0,264522.0
2026-04-08 21:51:14.673126,257251,1609504246902856,1846869895,1.018944,0.15616,0.025376,7.4725,3.045,-4.3575,-26.648,16.192001,12.088,concentric,4,3.0,20801.0,144382.0,231701.0,281634.0,264522.0
2026-04-08 21:51:14.701309,257252,1609504246911831,1846878588,1.018944,0.15616,0.025376,5.635,2.38,-5.5125,-26.648,16.192001,12.088,concentric,4,3.0,20801.0,144382.0,231701.0,281634.0,264522.0
2026-04-08 21:51:14.705790,257253,1609504246920829,1846887252,1.1224,0.177632,-0.232288,9.30125,2.63375,-5.74875,-26.808,16.648,9.432,concentric,4,3.0,20801.0,144382.0,231701.0,281634.0,264522.0
2026-04-08 21:51:14.707341,257254,1609504246935325,1846902112,1.1224,0.177632,-0.199104,11.480001,2.765,-4.375,-26.808,16.648,9.432,concentric,4,3.0,20801.0,144382.0,231701.0,281634.0,264522.0
2026-04-08 21:51:14.713999,257255,1609504246944250,1846910799,1.120448,0.222528,-0.199104,6.755,3.77125,-3.465,-26.712002,15.984001,9.744,concentric,4,3.0,20801.0,144382.0,231701.0,281634.0,264522.0
2026-04-08 21:51:14.742501,257256,1609504246958720,1846925671,1.114592,0.132736,-0.013664,0.42875,4.935,-2.96625,-27.016,16.232,9.52,concentric,4,3.0,20801.0,144382.0,231701.0,281634.0,264522.0
2026-04-08 21:51:14.748489,257257,1609504246967676,1846934333,1.114592,0.132736,-0.013664,-3.08,5.7575,-1.39125,-27.016,16.232,9.52,concentric,4,3.0,20801.0,144382.0,231701.0,281634.0,264522.0
2026-04-08 21:51:14.777069,257268,1609504246982237,1846949315,1.10288,0.1464,-0.03904,-2.79125,5.53875,0.4375,-26.752,15.952001,9.336,concentric,4,3.0,21516.0,145949.0,232585.0,281965.0,264578.0
2026-04-08 21:51:14.778604,257269,1609504246991165,1846957999,1.10288,0.1464,-0.03904,1.2425,5.24125,0.84,-26.752,15.952001,9.336,concentric,4,3.0,21516.0,145949.0,232585.0,281965.0,264578.0
2026-04-08 21:51:14.781070,257270,1609504247000160,1846966717,1.163392,0.179584,-0.017568,10.5875,5.39,-0.00875,-26.064001,16.12,9.6,concentric,4,3.0,21516.0,145949.0,232585.0,281965.0,264578.0
2026-04-08 21:51:14.784337,257271,1609504247014652,1846981617,1.163392,0.179584,-0.017568,18.31375,5.74,-1.3825,-26.064001,16.12,9.6,concentric,4,3.0,21516.0,145949.0,232585.0,281965.0,264578.0
2026-04-08 21:51:14.814682,257272,1609504247023575,1846990325,1.165344,0.167872,-0.121024,19.85375,5.73125,-2.3275,-26.696001,16.072,10.096001,concentric,4,3.0,21516.0,145949.0,232585.0,281965.0,264578.0
2026-04-08 21:51:14.816963,257273,1609504247038059,1847005158,1.10288,0.160064,-0.240096,19.495,5.1275,-1.785,-26.320002,15.832001,10.168,concentric,4,3.0,21516.0,145949.0,232585.0,281965.0,264578.0
2026-04-08 21:51:14.821567,257274,1609504247046979,1847013830,1.10288,0.160064,-0.240096,18.99625,5.32875,-0.00875,-26.320002,15.832001,10.168,concentric,4,3.0,21516.0,145949.0,232585.0,281965.0,264578.0
2026-04-08 21:51:14.828638,257275,1609504247055906,1847022492,1.10288,0.160064,-0.240096,20.72875,6.04625,1.9075,-26.320002,15.832001,10.168,concentric,4,3.0,21516.0,145949.0,232585.0,281965.0,264578.0
