pc_time,serial_num,sensor_ts,host_ts,ax,ay,az,gx,gy,gz,mx,my,mz,phase,rpe,weight_kg,ppg_a,ppg_b,ppg_c,ppg_d,ppg_e
2026-04-07 18:04:49.012437,397906,2159356226,2159357886,-1.22,0.060512,-0.003904,-7.105,2.96625,-12.87125,40.632004,-5.376,60.688004,eccentric,6,3.0,22818.0,314812.0,280540.0,325818.0,287165.0
2026-04-07 18:04:49.014366,397907,2159370694,2159372757,-1.22,0.060512,-0.003904,-7.735,3.61375,-10.64,40.632004,-5.376,60.688004,eccentric,6,3.0,22818.0,314812.0,280540.0,325818.0,287165.0
2026-04-07 18:04:49.041427,397917,2159379692,2159381452,-1.216096,0.085888,0.0,-7.21875,4.08625,-8.23375,40.984,-4.44,57.440002,eccentric,6,3.0,22866.0,315279.0,280900.0,326210.0,287521.0
2026-04-07 18:04:49.043174,397918,2159388654,2159390201,-1.216096,0.085888,0.0,-5.95,4.48,-6.34375,40.984,-4.44,57.440002,eccentric,6,3.0,22866.0,315279.0,280900.0,326210.0,287521.0
2026-04-07 18:04:49.047628,397919,2159397578,2159398964,-1.198528,0.122976,0.015616,-6.6325,4.9525,-4.0775,40.552002,-4.296,58.936005,eccentric,6,3.0,22866.0,315279.0,280900.0,326210.0,287521.0
2026-04-07 18:04:49.047971,397920,2159412240,2159413938,-1.198528,0.122976,-0.005856,-8.3125,5.0225,-1.18125,40.552002,-4.296,58.936005,eccentric,6,3.0,22866.0,315279.0,280900.0,326210.0,287521.0
2026-04-07 18:04:49.053810,397921,2159421205,2159422670,-1.163392,0.130784,-0.005856,-9.3625,4.85625,0.77875,40.552002,-4.2,58.792004,eccentric,6,3.0,22866.0,315279.0,280900.0,326210.0,287521.0
2026-04-07 18:04:49.082515,397922,2159430133,2159431358,-1.163392,0.130784,-0.005856,-9.5725,5.66125,2.19625,40.552002,-4.2,58.792004,eccentric,6,3.0,22866.0,315279.0,280900.0,326210.0,287521.0
2026-04-07 18:04:49.086785,397923,2159444603,2159446302,-1.138016,0.138592,-0.017568,-8.25125,5.355,2.68625,40.792004,-4.296,59.448,eccentric,6,3.0,22866.0,315279.0,280900.0,326210.0,287521.0
2026-04-07 18:04:49.092219,397924,2159453503,2159454979,-1.091168,0.144448,-0.031232,-6.055,4.96125,2.7125,40.072002,-4.12,59.872,eccentric,6,3.0,22866.0,315279.0,280900.0,326210.0,287521.0
2026-04-07 18:04:49.094701,397925,2159462472,2159463671,-1.091168,0.144448,-0.031232,-4.3225,5.565,2.30125,40.072002,-4.12,59.872,eccentric,6,3.0,22866.0,315279.0,280900.0,326210.0,287521.0
2026-04-07 18:04:49.205353,397936,2159477634,2159478781,-1.061888,0.142496,-0.0488,-3.7625,6.08125,1.2075,40.480003,-3.48,58.608,eccentric,6,3.0,22856.0,314271.0,279601.0,324317.0,285798.0
2026-04-07 18:04:49.221544,397937,2159486534,2159487499,-1.061888,0.142496,-0.0488,-3.325,6.23875,0.0525,40.480003,-3.48,58.608,eccentric,6,3.0,22856.0,314271.0,279601.0,324317.0,285798.0
2026-04-07 18:04:49.223189,397938,2159495446,2159496199,-1.020896,0.140544,-0.037088,-2.8,6.58875,-0.455,40.280003,-3.856,58.256004,eccentric,6,3.0,22856.0,314271.0,279601.0,324317.0,285798.0
2026-04-07 18:04:49.224731,397939,2159504777,2159506971,-1.020896,0.140544,-0.037088,-2.415,7.1225,-1.47,40.280003,-3.856,58.256004,eccentric,6,3.0,22856.0,314271.0,279601.0,324317.0,285798.0
2026-04-07 18:04:49.229050,397940,2159519398,2159519827,-0.99552,0.130784,-0.017568,-3.22,6.895,-1.47,39.960003,-3.344,59.888004,eccentric,6,3.0,22856.0,314271.0,279601.0,324317.0,285798.0
2026-04-07 18:04:49.230655,397941,2159529013,2159530702,-0.99552,0.130784,-0.017568,-5.03125,6.475,-1.085,39.960003,-3.344,59.888004,eccentric,6,3.0,22856.0,314271.0,279601.0,324317.0,285798.0
2026-04-07 18:04:49.232224,397942,2159537943,2159539390,-0.968192,0.111264,-0.005856,-7.25375,6.04625,-0.88375,41.008003,-2.888,57.680004,eccentric,6,3.0,22856.0,314271.0,279601.0,324317.0,285798.0
2026-04-07 18:04:49.236511,397943,2159546867,2159548078,-0.968192,0.111264,-0.005856,-9.6775,5.11,-0.14,41.008003,-2.888,57.680004,eccentric,6,3.0,22856.0,314271.0,279601.0,324317.0,285798.0
2026-04-07 18:04:49.238188,397944,2159561382,2159562953,-0.925248,0.08784,-0.005856,-10.7275,3.82375,1.26,40.632004,-2.92,57.872,eccentric,6,3.0,22856.0,314271.0,279601.0,324317.0,285798.0
2026-04-07 18:04:49.239727,397945,2159570318,2159571642,-0.925248,0.08784,-0.005856,-10.185,2.21375,2.8175,40.632004,-2.92,57.872,eccentric,6,3.0,22856.0,314271.0,279601.0,324317.0,285798.0
2026-04-07 18:04:49.266468,397955,2159579339,2159580346,-0.886208,0.0488,-0.037088,-8.9075,0.98875,4.10375,40.176003,-2.832,57.120003,eccentric,6,3.0,22612.0,311920.0,277411.0,321692.0,283530.0
2026-04-07 18:04:49.268203,397956,2159593862,2159595269,-0.864736,0.083936,-0.054656,-7.76125,0.30625,4.655,40.08,-2.928,57.160004,eccentric,6,3.0,22612.0,311920.0,277411.0,321692.0,283530.0
2026-04-07 18:04:49.269703,397957,2159602998,2159604041,-0.864736,0.083936,-0.054656,-6.65875,-0.34125,5.6525,40.08,-2.928,57.160004,eccentric,6,3.0,22612.0,311920.0,277411.0,321692.0,283530.0
2026-04-07 18:04:49.273930,397958,2159611955,2159612764,-0.864736,0.083936,-0.054656,-5.18,-1.46125,6.13375,40.08,-2.928,57.160004,eccentric,6,3.0,22612.0,311920.0,277411.0,321692.0,283530.0
2026-04-07 18:04:49.275611,397959,2159626563,2159627692,-0.860832,0.124928,-0.042944,-5.03125,-1.56625,6.51875,40.304,-2.888,54.304,eccentric,6,3.0,22612.0,311920.0,277411.0,321692.0,283530.0
2026-04-07 18:04:49.277185,397960,2159635684,2159636457,-0.835456,0.1464,-0.00976,-6.2825,-1.91625,6.7375,39.904003,-2.864,58.024002,eccentric,6,3.0,22612.0,311920.0,277411.0,321692.0,283530.0
2026-04-07 18:04:49.281274,397961,2159645200,2159647277,-0.835456,0.1464,-0.00976,-8.77625,-1.925,6.65875,39.904003,-2.864,58.024002,eccentric,6,3.0,22612.0,311920.0,277411.0,321692.0,283530.0
2026-04-07 18:04:49.286461,397962,2159654155,2159656016,-0.823744,0.148352,0.015616,-10.5,-1.8375,5.92375,39.864002,-2.64,58.448,eccentric,6,3.0,22612.0,311920.0,277411.0,321692.0,283530.0
2026-04-07 18:04:49.318411,397963,2159668682,2159670941,-0.823744,0.148352,0.015616,-11.48875,-2.00375,4.85625,39.864002,-2.64,58.448,eccentric,6,3.0,22612.0,311920.0,277411.0,321692.0,283530.0
2026-04-07 18:04:49.345198,397973,2159678150,2159679830,-0.831552,0.132736,0.007808,-12.04,-1.46125,3.2725,40.52,-2.168,56.656002,eccentric,6,3.0,22487.0,310469.0,275928.0,319810.0,281789.0
2026-04-07 18:04:49.346908,397974,2159687163,2159688561,-0.831552,0.132736,0.007808,-11.445,-0.72625,1.02375,40.52,-2.168,56.656002,eccentric,6,3.0,22487.0,310469.0,275928.0,319810.0,281789.0
2026-04-07 18:04:49.348663,397975,2159696110,2159697263,-0.808128,0.134688,0.015616,-10.21125,0.81375,-1.49625,39.488003,-2.16,56.904003,eccentric,6,3.0,22487.0,310469.0,275928.0,319810.0,281789.0
2026-04-07 18:04:49.352661,397976,2159710753,2159712293,-0.808128,0.134688,0.015616,-8.68875,1.82875,-4.235,39.488003,-2.16,56.904003,eccentric,6,3.0,22487.0,310469.0,275928.0,319810.0,281789.0
2026-04-07 18:04:49.354260,397977,2159719688,2159721037,-0.815936,0.16592,0.025376,-7.56,3.255,-6.57125,39.768,-2.176,56.592003,eccentric,6,3.0,22487.0,310469.0,275928.0,319810.0,281789.0
2026-04-07 18:04:49.366979,397978,2159728655,2159729745,-0.815936,0.16592,0.025376,-7.7525,5.52125,-8.89,39.768,-2.176,56.592003,eccentric,6,3.0,22487.0,310469.0,275928.0,319810.0,281789.0
2026-04-07 18:04:49.393622,397979,2159743247,2159744737,-0.815936,0.183488,0.03904,-8.88125,8.7325,-10.61375,39.816,-1.528,56.616,eccentric,6,3.0,22487.0,310469.0,275928.0,319810.0,281789.0
2026-04-07 18:04:49.397363,397980,2159752314,2159753442,-0.815936,0.183488,0.03904,-11.8475,11.19125,-12.145,39.816,-1.528,56.616,eccentric,6,3.0,22487.0,310469.0,275928.0,319810.0,281789.0
2026-04-07 18:04:49.401531,397981,2159761295,2159762127,-0.808128,0.171776,0.044896,-15.35625,12.94125,-12.59125,40.160004,-1.688,56.016003,eccentric,6,3.0,22487.0,310469.0,275928.0,319810.0,281789.0
2026-04-07 18:04:49.403196,397982,2159770219,2159770819,-0.808128,0.171776,0.044896,-19.55625,14.77,-13.41375,40.160004,-1.688,56.016003,eccentric,6,3.0,22487.0,310469.0,275928.0,319810.0,281789.0
2026-04-07 18:04:49.435180,397993,2159785176,2159785828,-0.833504,0.138592,0.0488,-24.15875,16.40625,-13.7375,39.256,-1.656,58.056004,eccentric,6,3.0,22286.0,308667.0,274371.0,318115.0,280350.0
2026-04-07 18:04:49.436885,397994,2159794434,2159796670,-0.847168,0.091744,0.01952,-25.83875,16.905,-13.5625,39.256,-0.408,54.688004,eccentric,6,3.0,22286.0,308667.0,274371.0,318115.0,280350.0
2026-04-07 18:04:49.438772,397995,2159803484,2159805383,-0.847168,0.091744,0.01952,-22.95125,16.31875,-13.0025,40.168003,-0.408,54.688004,eccentric,6,3.0,22286.0,308667.0,274371.0,318115.0,280350.0
2026-04-07 18:04:49.480933,397996,2159818024,2159820300,-0.841312,0.089792,-0.017568,-17.3425,15.155,-12.11875,40.56,0.024,55.016003,eccentric,6,3.0,22286.0,308667.0,274371.0,318115.0,280350.0
2026-04-07 18:04:49.485211,397997,2159826953,2159828984,-0.841312,0.089792,-0.017568,-12.495,13.755,-10.98125,40.56,0.024,55.016003,eccentric,6,3.0,22286.0,308667.0,274371.0,318115.0,280350.0
2026-04-07 18:04:49.486936,397998,2159835870,2159837700,-0.835456,0.101504,-0.021472,-10.0625,13.58,-9.275,40.512,-0.552,55.408,eccentric,6,3.0,22286.0,308667.0,274371.0,318115.0,280350.0
2026-04-07 18:04:49.488472,397999,2159844780,2159846402,-0.835456,0.101504,-0.021472,-9.6075,12.08375,-7.62125,40.512,-0.552,55.408,eccentric,6,3.0,22286.0,308667.0,274371.0,318115.0,280350.0
2026-04-07 18:04:49.492535,398000,2159859270,2159861300,-0.827648,0.095648,-0.031232,-11.0775,10.71,-5.3025,40.104,-0.392,55.192,eccentric,6,3.0,22286.0,308667.0,274371.0,318115.0,280350.0
2026-04-07 18:04:49.521063,398001,2159868235,2159870035,-0.827648,0.095648,-0.031232,-12.705,9.23125,-1.23375,40.104,-0.392,55.192,eccentric,6,3.0,22286.0,308667.0,274371.0,318115.0,280350.0
2026-04-07 18:04:49.548974,398011,2159877505,2159878875,-0.825696,0.115168,-0.00976,-13.46625,8.5225,2.555,40.120003,-0.272,54.952003,eccentric,6,3.0,22297.0,309293.0,275196.0,319320.0,281551.0
2026-04-07 18:04:49.550652,398012,2159892079,2159893771,-0.825696,0.115168,-0.00976,-10.8325,7.53375,6.69375,40.120003,-0.272,54.952003,eccentric,6,3.0,22297.0,309293.0,275196.0,319320.0,281551.0
2026-04-07 18:04:49.552330,398013,2159901056,2159902469,-0.864736,0.124928,0.0976,-3.5175,6.755,11.0775,40.648003,-0.072,54.936,eccentric,6,3.0,22297.0,309293.0,275196.0,319320.0,281551.0
2026-04-07 18:04:49.556506,398014,2159910036,2159911246,-0.864736,0.124928,0.0976,6.90375,3.78,13.93,40.648003,-0.072,54.936,eccentric,6,3.0,22297.0,309293.0,275196.0,319320.0,281551.0
2026-04-07 18:04:49.557983,398015,2159924672,2159926229,-0.870592,0.13664,0.249856,21.90125,-0.5775,16.87,39.696003,-1.184,56.072002,eccentric,6,3.0,22297.0,309293.0,275196.0,319320.0,281551.0
2026-04-07 18:04:49.565035,398016,2159933684,2159935025,-0.870592,0.13664,0.249856,36.26,-4.87375,18.2175,39.696003,-1.184,56.072002,eccentric,6,3.0,22297.0,309293.0,275196.0,319320.0,281551.0
2026-04-07 18:04:49.574085,398017,2159942631,2159943746,-0.987712,0.179584,0.281088,45.52625,-7.875,18.7075,39.448,-2.168,56.896004,eccentric,6,3.0,22297.0,309293.0,275196.0,319320.0,281551.0
2026-04-07 18:04:49.607109,398018,2159951601,2159952437,-0.987712,0.179584,0.281088,52.3425,-9.87875,17.47375,39.448,-2.168,56.896004,eccentric,6,3.0,22297.0,309293.0,275196.0,319320.0,281551.0
2026-04-07 18:04:49.610180,398019,2159966149,2159967380,-1.056032,0.16592,0.294752,55.09,-11.5325,14.42875,40.640003,-2.232,55.512,eccentric,6,3.0,22297.0,309293.0,275196.0,319320.0,281551.0
2026-04-07 18:04:49.611829,398020,2159975018,2159976097,-1.118496,0.093696,0.325984,52.61375,-12.0225,8.40875,40.640003,-2.232,55.512,eccentric,6,3.0,22297.0,309293.0,275196.0,319320.0,281551.0
2026-04-07 18:04:49.641672,398030,2159983992,2159984802,-1.116544,0.093696,0.325984,44.93125,-12.18875,0.7175,41.096,-2.424,55.576004,eccentric,6,3.0,23621.0,320764.0,285103.0,330629.0,291369.0
2026-04-07 18:04:49.647753,398031,2159998522,2159999770,-1.13216,0.005856,0.339648,34.1775,-12.67875,-6.895,40.048,-2.768,56.000004,eccentric,6,3.0,23621.0,320764.0,285103.0,330629.0,291369.0
2026-04-07 18:04:49.649405,398032,2160007451,2160008551,-1.13216,0.005856,0.339648,20.97375,-12.075,-13.7375,40.048,-2.768,56.000004,eccentric,6,3.0,23621.0,320764.0,285103.0,330629.0,291369.0
2026-04-07 18:04:49.650985,398033,2160016383,2160017282,-1.120448,0.013664,0.247904,9.45,-11.9875,-18.305,40.008003,-2.312,56.376003,eccentric,6,3.0,23621.0,320764.0,285103.0,330629.0,291369.0
2026-04-07 18:04:49.681995,398034,2160030890,2160032340,-1.120448,0.013664,0.247904,1.61875,-12.2675,-19.92375,40.008003,-2.312,56.376003,eccentric,6,3.0,23621.0,320764.0,285103.0,330629.0,291369.0
2026-04-07 18:04:49.686467,398035,2160039801,2160041033,-1.120448,0.109312,0.06832,-2.96625,-11.865,-18.47125,39.752003,-2.336,56.272003,eccentric,6,3.0,23621.0,320764.0,285103.0,330629.0,291369.0
2026-04-07 18:04:49.688380,398036,2160048695,2160049752,-1.120448,0.109312,0.06832,-7.6475,-11.78625,-15.11125,39.752003,-2.336,56.272003,eccentric,6,3.0,23621.0,320764.0,285103.0,330629.0,291369.0
2026-04-07 18:04:49.695099,398037,2160063201,2160064639,-1.069696,0.162016,-0.095648,-13.16875,-11.27875,-10.43,39.52,-2.208,56.736004,eccentric,6,3.0,23621.0,320764.0,285103.0,330629.0,291369.0
2026-04-07 18:04:49.723682,398038,2160072136,2160073335,-1.069696,0.162016,-0.095648,-19.04,-10.9725,-5.46,39.52,-2.208,56.736004,eccentric,6,3.0,23621.0,320764.0,285103.0,330629.0,291369.0
2026-04-07 18:04:49.786900,398049,2160081244,2160082076,-1.046272,0.183488,-0.158112,-23.625,-10.6575,-1.60125,39.128002,-1.808,56.72,eccentric,6,3.0,23168.0,316961.0,281869.0,326860.0,287962.0
2026-04-07 18:04:49.791434,398050,2160090159,2160090775,-1.046272,0.183488,-0.158112,-24.6575,-9.205,1.35625,39.128002,-1.808,56.72,eccentric,6,3.0,23168.0,316961.0,281869.0,326860.0,287962.0
2026-04-07 18:04:49.793084,398051,2160104943,2160105682,-1.0248,0.210816,-0.101504,-20.88625,-8.86375,3.49125,39.096,-1.664,56.088,eccentric,6,3.0,23168.0,316961.0,281869.0,326860.0,287962.0
2026-04-07 18:04:49.794717,398052,2160114305,2160116515,-1.0248,0.210816,-0.101504,-15.715,-9.8,4.64625,39.096,-1.664,56.088,eccentric,6,3.0,23168.0,316961.0,281869.0,326860.0,287962.0
2026-04-07 18:04:49.798941,398053,2160123249,2160125220,-1.007232,0.222528,-0.021472,-10.17625,-10.3075,5.495,39.544003,-1.512,58.104004,eccentric,6,3.0,23168.0,316961.0,281869.0,326860.0,287962.0
2026-04-07 18:04:49.800641,398054,2160137746,2160138074,-0.983808,0.226432,0.03904,-5.565,-10.8325,5.06625,39.0,-1.56,56.664,eccentric,6,3.0,23168.0,316961.0,281869.0,326860.0,287962.0
2026-04-07 18:04:49.802355,398055,2160146908,2160148833,-0.983808,0.226432,0.03904,-1.1725,-10.745,4.0775,39.0,-1.56,56.664,eccentric,6,3.0,23168.0,316961.0,281869.0,326860.0,287962.0
2026-04-07 18:04:49.806470,398056,2160155794,2160157508,-0.968192,0.244,0.070272,4.47125,-11.29625,2.4325,39.0,-1.56,56.664,eccentric,6,3.0,23168.0,316961.0,281869.0,326860.0,287962.0
2026-04-07 18:04:49.808165,398057,2160164722,2160166239,-0.964288,0.244,0.070272,9.52875,-11.0775,3.15,38.600002,-2.176,57.000004,eccentric,6,3.0,23168.0,316961.0,281869.0,326860.0,287962.0
2026-04-07 18:04:49.832399,398067,2160179810,2160181280,-0.972096,0.220576,0.056608,13.34375,-10.0625,1.715,38.592003,-1.8,57.832005,eccentric,6,3.0,22430.0,311304.0,277397.0,322249.0,284133.0
2026-04-07 18:04:49.836413,398068,2160188856,2160189981,-0.972096,0.220576,0.056608,16.03875,-8.575,-0.16625,38.592003,-1.8,57.832005,eccentric,6,3.0,22430.0,311304.0,277397.0,322249.0,284133.0
2026-04-07 18:04:49.837946,398069,2160197874,2160198762,-0.991616,0.208864,0.015616,15.8725,-6.83375,-0.70875,38.896004,-2.224,59.648003,eccentric,6,3.0,22430.0,311304.0,277397.0,322249.0,284133.0
2026-04-07 18:04:49.845195,398070,2160212374,2160213766,-0.991616,0.208864,0.015616,15.4875,-4.89125,-2.065,38.896004,-2.224,59.648003,eccentric,6,3.0,22430.0,311304.0,277397.0,322249.0,284133.0
2026-04-07 18:04:49.852573,398071,2160221300,2160222481,-1.026752,0.193248,0.0,13.58875,-2.73875,-2.7475,38.688004,-2.568,57.664,eccentric,6,3.0,22430.0,311304.0,277397.0,322249.0,284133.0
2026-04-07 18:04:49.881115,398072,2160230234,2160231189,-1.026752,0.193248,0.0,11.92625,-0.65625,-4.165,38.688004,-2.568,57.664,eccentric,6,3.0,22430.0,311304.0,277397.0,322249.0,284133.0
2026-04-07 18:04:49.885544,398073,2160239168,2160239875,-1.020896,0.167872,0.042944,10.63125,1.2425,-5.775,38.008003,-2.216,56.816,eccentric,6,3.0,22430.0,311304.0,277397.0,322249.0,284133.0
2026-04-07 18:04:49.887052,398074,2160254056,2160254839,-1.020896,0.167872,0.042944,9.49375,3.3425,-7.1925,38.008003,-2.216,56.816,eccentric,6,3.0,22430.0,311304.0,277397.0,322249.0,284133.0
2026-04-07 18:04:49.893750,398075,2160262969,2160263547,-1.04432,0.15616,0.083936,7.385,4.97875,-7.735,38.832,-1.592,56.512,eccentric,6,3.0,22430.0,311304.0,277397.0,322249.0,284133.0
2026-04-07 18:04:49.922783,398076,2160272234,2160274336,-1.04432,0.15616,0.083936,4.7425,6.23875,-7.46375,38.832,-1.592,56.512,eccentric,6,3.0,22430.0,311304.0,277397.0,322249.0,284133.0
2026-04-07 18:04:49.954173,398086,2160287051,2160289270,-1.056032,0.13664,0.109312,1.32125,7.28,-7.84,39.120003,-1.848,56.848003,eccentric,6,3.0,22383.0,310744.0,276959.0,321896.0,283983.0
2026-04-07 18:04:49.958089,398087,2160295956,2160297949,-1.056032,0.13664,0.124928,-2.625,7.56875,-8.23375,39.120003,-1.848,56.848003,eccentric,6,3.0,22383.0,310744.0,276959.0,321896.0,283983.0
2026-04-07 18:04:49.959622,398088,2160304923,2160306661,-1.075552,0.10736,0.124928,-6.5975,7.90125,-8.21625,38.88,-2.136,54.144,eccentric,6,3.0,22383.0,310744.0,276959.0,321896.0,283983.0
2026-04-07 18:04:49.963986,398089,2160313851,2160315399,-1.075552,0.10736,0.124928,-8.68875,7.5075,-8.42625,38.88,-2.136,54.144,eccentric,6,3.0,22383.0,310744.0,276959.0,321896.0,283983.0
2026-04-07 18:04:49.965640,398090,2160328373,2160330307,-1.091168,0.093696,0.11712,-9.2225,7.00875,-8.82875,38.912003,-1.696,56.680004,eccentric,6,3.0,22383.0,310744.0,276959.0,321896.0,283983.0
2026-04-07 18:04:49.967603,398091,2160337389,2160339057,-1.085312,0.11712,0.101504,-7.56,5.95875,-8.28625,38.296,-2.384,59.456,eccentric,6,3.0,22383.0,310744.0,276959.0,321896.0,283983.0
2026-04-07 18:04:49.998270,398092,2160346342,2160347763,-1.085312,0.11712,0.101504,-5.635,5.53875,-8.16375,38.296,-2.384,59.456,eccentric,6,3.0,22383.0,310744.0,276959.0,321896.0,283983.0
2026-04-07 18:04:50.000539,398093,2160360813,2160362652,-1.052128,0.152256,0.080032,-4.38375,4.48875,-7.3325,38.376003,-2.096,56.528004,eccentric,6,3.0,22383.0,310744.0,276959.0,321896.0,283983.0
2026-04-07 18:04:50.005523,398094,2160369863,2160371360,-1.052128,0.152256,0.080032,-3.9725,3.815,-6.6675,38.376003,-2.096,56.528004,eccentric,6,3.0,22383.0,310744.0,276959.0,321896.0,283983.0
2026-04-07 18:04:50.036920,398105,2160379223,2160380283,-1.036512,0.169824,0.070272,-3.17625,4.22625,-5.64375,38.176003,-1.384,56.472004,eccentric,6,3.0,22381.0,310695.0,276882.0,321743.0,283849.0
2026-04-07 18:04:50.038485,398106,2160388245,2160389093,-1.036512,0.169824,0.070272,-3.14125,4.15625,-5.17125,38.176003,-1.384,56.472004,eccentric,6,3.0,22381.0,310695.0,276882.0,321743.0,283849.0
2026-04-07 18:04:50.042694,398107,2160402810,2160404010,-1.038464,0.169824,0.072224,-3.82375,3.5175,-5.04875,39.248,-1.384,55.960003,eccentric,6,3.0,22381.0,310695.0,276882.0,321743.0,283849.0
2026-04-07 18:04:50.045163,398108,2160411750,2160412715,-1.038464,0.169824,0.072224,-4.025,3.87625,-5.03125,39.248,-1.384,55.960003,eccentric,6,3.0,22381.0,310695.0,276882.0,321743.0,283849.0
2026-04-07 18:04:50.083363,398109,2160422004,2160423954,-1.042368,0.169824,0.072224,-3.28125,4.50625,-5.6,38.992,-1.248,56.280003,eccentric,6,3.0,22381.0,310695.0,276882.0,321743.0,283849.0
2026-04-07 18:04:50.085694,398110,2160431036,2160432675,-1.042368,0.169824,0.072224,-2.7125,4.8475,-6.85125,38.992,-1.248,56.280003,eccentric,6,3.0,22381.0,310695.0,276882.0,321743.0,283849.0
2026-04-07 18:04:50.090434,398111,2160445588,2160447561,-1.050176,0.171776,0.070272,-1.6975,6.195,-7.7875,37.968002,-1.72,56.672,eccentric,6,3.0,22381.0,310695.0,276882.0,321743.0,283849.0
2026-04-07 18:04:50.092677,398112,2160454516,2160456256,-1.050176,0.171776,0.070272,-0.60375,6.93875,-9.1175,37.968002,-1.72,56.672,eccentric,6,3.0,22381.0,310695.0,276882.0,321743.0,283849.0
2026-04-07 18:04:50.094271,398113,2160463474,2160464970,-1.032608,0.163968,0.072224,-0.76125,8.16375,-10.63125,38.328003,-1.472,57.000004,eccentric,6,3.0,22381.0,310695.0,276882.0,321743.0,283849.0
2026-04-07 18:04:50.155608,398123,2160478094,2160479971,-1.030656,0.152256,0.074176,-1.365,10.21125,-11.865,37.648003,-2.024,59.456,eccentric,6,3.0,22335.0,310255.0,276507.0,321315.0,283507.0
2026-04-07 18:04:50.157177,398124,2160487056,2160488740,-1.030656,0.152256,0.074176,-1.82,11.235,-12.845,37.648003,-2.024,59.456,eccentric,6,3.0,22335.0,310255.0,276507.0,321315.0,283507.0
2026-04-07 18:04:50.161678,398125,2160495999,2160497447,-1.030656,0.152256,0.074176,-1.715,12.6525,-12.95875,37.648003,-2.024,59.456,eccentric,6,3.0,22335.0,310255.0,276507.0,321315.0,283507.0
2026-04-07 18:04:50.163177,398126,2160510770,2160512419,-1.042368,0.142496,0.050752,-0.1925,13.04625,-12.792501,38.768,-1.816,56.24,eccentric,6,3.0,22335.0,310255.0,276507.0,321315.0,283507.0
2026-04-07 18:04:50.165536,398127,2160519825,2160521133,-1.050176,0.142496,0.035136,0.735,13.46625,-12.88,38.296,-1.768,56.320004,eccentric,6,3.0,22335.0,310255.0,276507.0,321315.0,283507.0
2026-04-07 18:04:50.168748,398128,2160528806,2160529852,-1.050176,0.142496,0.035136,2.135,14.542501,-13.55375,38.296,-1.768,56.320004,eccentric,6,3.0,22335.0,310255.0,276507.0,321315.0,283507.0
2026-04-07 18:04:50.186546,398129,2160537818,2160538616,-1.042368,0.144448,0.033184,2.49375,15.68,-13.965,38.296,-1.264,56.712,eccentric,6,3.0,22335.0,310255.0,276507.0,321315.0,283507.0
2026-04-07 18:04:50.189148,398130,2160552348,2160553601,-1.042368,0.144448,0.033184,2.8875,16.0475,-14.0875,38.480003,-1.264,56.712,eccentric,6,3.0,22335.0,310255.0,276507.0,321315.0,283507.0
2026-04-07 18:04:50.195098,398131,2160561244,2160562349,-1.020896,0.134688,0.040992,4.025,16.835001,-13.5275,38.944,-1.016,56.088,eccentric,6,3.0,22335.0,310255.0,276507.0,321315.0,283507.0
2026-04-07 18:04:50.201318,398132,2160570254,2160571041,-1.020896,0.134688,0.040992,5.57375,17.61375,-12.94125,38.944,-1.016,56.088,eccentric,6,3.0,22335.0,310255.0,276507.0,321315.0,283507.0
2026-04-07 18:04:50.258189,398142,2160584977,2160586046,-1.016992,0.140544,0.044896,6.58875,18.90875,-12.792501,38.856003,-1.296,58.096004,eccentric,6,3.0,22308.0,309936.0,276160.0,320886.0,283082.0
2026-04-07 18:04:50.259738,398143,2160593888,2160594752,-1.016992,0.140544,0.044896,7.0875,19.78375,-12.71375,38.856003,-1.296,58.096004,eccentric,6,3.0,22308.0,309936.0,276160.0,320886.0,283082.0
2026-04-07 18:04:50.263945,398144,2160602832,2160603458,-0.99552,0.134688,0.050752,6.76375,20.772501,-12.7225,39.480003,-1.472,55.992004,eccentric,6,3.0,22308.0,309936.0,276160.0,320886.0,283082.0
2026-04-07 18:04:50.265665,398145,2160612193,2160614278,-0.99552,0.134688,0.050752,6.545,21.93625,-12.73125,39.480003,-1.472,55.992004,eccentric,6,3.0,22308.0,309936.0,276160.0,320886.0,283082.0
2026-04-07 18:04:50.267168,398146,2160626797,2160627146,-0.98576,0.12688,0.046848,5.27625,22.54875,-12.67875,39.08,-1.92,57.944004,eccentric,6,3.0,22308.0,309936.0,276160.0,320886.0,283082.0
2026-04-07 18:04:50.271291,398147,2160636033,2160637965,-0.98576,0.12688,0.046848,4.45375,23.12625,-13.15125,39.08,-1.92,57.944004,eccentric,6,3.0,22308.0,309936.0,276160.0,320886.0,283082.0
2026-04-07 18:04:50.277559,398148,2160644982,2160646692,-0.958432,0.122976,0.031232,3.5875,24.3425,-13.83375,40.136,-1.008,55.336002,eccentric,6,3.0,22308.0,309936.0,276160.0,320886.0,283082.0
2026-04-07 18:04:50.310751,398149,2160659482,2160661597,-0.968192,0.134688,0.031232,2.07375,25.655,-14.30625,40.592003,-1.432,58.048004,eccentric,6,3.0,22308.0,309936.0,276160.0,320886.0,283082.0
2026-04-07 18:04:50.315189,398150,2160668538,2160670306,-0.968192,0.134688,0.031232,-0.21875,26.76625,-15.645,40.592003,-1.432,58.048004,eccentric,6,3.0,22308.0,309936.0,276160.0,320886.0,283082.0
2026-04-07 18:04:50.316944,398151,2160677551,2160679055,-0.968192,0.134688,0.031232,-3.26375,28.27125,-16.5025,40.592003,-1.432,58.048004,eccentric,6,3.0,22308.0,309936.0,276160.0,320886.0,283082.0
2026-04-07 18:04:50.382107,398162,2160686554,2160687805,-0.98576,0.144448,0.037088,-7.4725,28.4725,-16.8875,40.152,-1.624,55.256004,eccentric,6,3.0,22121.0,308486.0,274921.0,319579.0,281968.0
2026-04-07 18:04:50.384372,398163,2160701187,2160702806,-1.016992,0.132736,0.023424,-11.64625,28.4025,-17.3075,40.136,-1.16,55.944004,eccentric,6,3.0,22121.0,308486.0,274921.0,319579.0,281968.0
2026-04-07 18:04:50.388990,398164,2160710209,2160711530,-1.016992,0.132736,0.023424,-15.4,28.97125,-18.06875,40.136,-1.16,55.944004,eccentric,6,3.0,22121.0,308486.0,274921.0,319579.0,281968.0
2026-04-07 18:04:50.390596,398165,2160719137,2160720271,-1.022848,0.121024,0.0,-18.0775,28.95375,-18.05125,40.512,-0.672,54.208004,eccentric,6,3.0,22121.0,308486.0,274921.0,319579.0,281968.0
2026-04-07 18:04:50.392205,398166,2160733625,2160735154,-1.022848,0.121024,0.0,-18.50625,27.79875,-18.025,40.512,-0.672,54.208004,eccentric,6,3.0,22121.0,308486.0,274921.0,319579.0,281968.0
2026-04-07 18:04:50.396683,398167,2160742584,2160743875,-1.050176,0.128832,0.001952,-17.7625,26.50375,-18.05125,40.68,-0.016,54.600002,eccentric,6,3.0,22121.0,308486.0,274921.0,319579.0,281968.0
2026-04-07 18:04:50.402553,398168,2160751505,2160752594,-1.050176,0.128832,0.001952,-17.75375,25.445,-17.85875,40.68,-0.016,54.600002,eccentric,6,3.0,22121.0,308486.0,274921.0,319579.0,281968.0
2026-04-07 18:04:50.419002,398169,2160766033,2160767483,-1.046272,0.105408,0.037088,-17.08,23.44125,-17.54375,40.368,-0.344,54.928,eccentric,6,3.0,22121.0,308486.0,274921.0,319579.0,281968.0
2026-04-07 18:04:50.420709,398170,2160774990,2160776231,-1.046272,0.105408,0.037088,-16.415,20.4575,-17.12375,40.368,-0.344,54.928,eccentric,6,3.0,22121.0,308486.0,274921.0,319579.0,281968.0
2026-04-07 18:04:50.452239,398180,2160784463,2160785067,-1.059936,0.08784,0.085888,-14.46375,18.34,-16.37125,40.368,-0.12,56.024002,eccentric,6,3.0,22137.0,308590.0,275101.0,319834.0,282251.0
2026-04-07 18:04:50.456484,398181,2160793737,2160795836,-1.059936,0.08784,0.085888,-11.165,15.785,-15.26,40.368,-0.12,56.024002,eccentric,6,3.0,22137.0,308590.0,275101.0,319834.0,282251.0
2026-04-07 18:04:50.458142,398182,2160808253,2160808718,-1.065792,0.089792,0.128832,-7.1925,12.45125,-14.2625,41.096,0.464,55.032,eccentric,6,3.0,22137.0,308590.0,275101.0,319834.0,282251.0
2026-04-07 18:04:50.459683,398183,2160817860,2160819513,-1.065792,0.089792,0.128832,-3.0975,9.26625,-12.97625,41.096,0.464,55.032,eccentric,6,3.0,22137.0,308590.0,275101.0,319834.0,282251.0
2026-04-07 18:04:50.498307,398184,2160826856,2160828256,-1.08336,0.121024,0.081984,0.51625,6.20375,-12.1275,41.264004,0.496,54.048004,eccentric,6,3.0,22137.0,308590.0,275101.0,319834.0,282251.0
2026-04-07 18:04:50.500566,398185,2160835818,2160836958,-1.08336,0.121024,0.081984,2.835,4.3575,-12.25,41.264004,0.496,54.048004,eccentric,6,3.0,22137.0,308590.0,275101.0,319834.0,282251.0
2026-04-07 18:04:50.505177,398186,2160850371,2160851868,-1.032608,0.144448,0.072224,1.75875,2.79125,-12.5475,40.992,0.736,55.120003,eccentric,6,3.0,22137.0,308590.0,275101.0,319834.0,282251.0
2026-04-07 18:04:50.506936,398187,2160859299,2160860599,-1.01504,0.132736,0.070272,-0.27125,1.72375,-11.87375,40.992,1.048,53.872,eccentric,6,3.0,22137.0,308590.0,275101.0,319834.0,282251.0
2026-04-07 18:04:50.508453,398188,2160868228,2160869307,-1.01504,0.132736,0.070272,-1.00625,0.9625,-10.5525,41.120003,1.048,53.872,eccentric,6,3.0,22137.0,308590.0,275101.0,319834.0,282251.0
2026-04-07 18:04:50.541438,398198,2160883140,2160884444,-0.99552,0.124928,0.025376,-2.24,0.2975,-8.93375,40.976,0.792,54.704002,eccentric,6,3.0,22430.0,311027.0,276990.0,321761.0,283779.0
2026-04-07 18:04:50.543117,398199,2160892203,2160893292,-0.99552,0.124928,0.025376,-2.30125,-0.4375,-7.9625,40.976,0.792,54.704002,eccentric,6,3.0,22430.0,311027.0,276990.0,321761.0,283779.0
2026-04-07 18:04:50.544709,398200,2160901146,2160902077,-0.991616,0.140544,-0.03904,-0.88375,-0.735,-7.46375,40.960003,0.48,54.832,eccentric,6,3.0,22430.0,311027.0,276990.0,321761.0,283779.0
2026-04-07 18:04:50.549682,398201,2160910083,2160910795,-0.991616,0.140544,-0.03904,1.37375,-0.56875,-6.74625,40.960003,0.48,54.832,eccentric,6,3.0,22430.0,311027.0,276990.0,321761.0,283779.0
2026-04-07 18:04:50.577389,398202,2160924975,2160925716,-0.96624,0.152256,-0.044896,1.5225,0.035,-6.34375,40.648003,0.152,55.336002,eccentric,6,3.0,22430.0,311027.0,276990.0,321761.0,283779.0
2026-04-07 18:04:50.581791,398203,2160934303,2160936511,-0.96624,0.152256,-0.044896,-1.98625,1.39125,-5.87125,40.648003,0.152,55.336002,eccentric,6,3.0,22430.0,311027.0,276990.0,321761.0,283779.0
2026-04-07 18:04:50.588989,398204,2160943200,2160945189,-0.94672,0.113216,-0.025376,-7.30625,2.63375,-5.88875,40.976,0.536,54.408,eccentric,6,3.0,22430.0,311027.0,276990.0,321761.0,283779.0
2026-04-07 18:04:50.591381,398205,2160957707,2160958057,-0.94672,0.113216,-0.025376,-12.64375,2.835,-5.6,40.976,0.536,54.408,eccentric,6,3.0,22430.0,311027.0,276990.0,321761.0,283779.0
2026-04-07 18:04:50.619873,398206,2160966946,2160968822,-0.964288,0.095648,-0.025376,-14.30625,3.19375,-5.62625,39.256,-0.168,58.496002,eccentric,6,3.0,22430.0,311027.0,276990.0,321761.0,283779.0
2026-04-07 18:04:50.623595,398207,2160975894,2160977525,-0.964288,0.095648,-0.025376,-13.93875,4.445,-5.11,39.256,-0.168,58.496002,eccentric,6,3.0,22430.0,311027.0,276990.0,321761.0,283779.0
2026-04-07 18:04:50.687431,398218,2160985306,2160986251,-1.00528,0.115168,-0.040992,-13.2825,4.8475,-4.9875,41.416,1.208,54.096,concentric,6,3.0,22111.0,308393.0,274854.0,319488.0,281836.0
2026-04-07 18:04:50.700263,398219,2160999985,2161000786,-1.03456,0.158112,-0.035136,-10.99,4.9525,-5.25,41.416,1.152,53.792004,concentric,6,3.0,22111.0,308393.0,274854.0,319488.0,281836.0
2026-04-07 18:04:50.701890,398220,2161009435,2161011638,-1.03456,0.158112,-0.035136,-8.21625,5.53875,-5.32875,41.768,1.152,53.792004,concentric,6,3.0,22111.0,308393.0,274854.0,319488.0,281836.0
2026-04-07 18:04:50.703515,398221,2161018376,2161020423,-1.03456,0.158112,-0.035136,-8.14625,6.7025,-5.97625,41.768,1.152,53.792004,concentric,6,3.0,22111.0,308393.0,274854.0,319488.0,281836.0
2026-04-07 18:04:50.707736,398222,2161027392,2161029163,-1.00528,0.16592,0.025376,-9.0475,8.21625,-6.88625,41.336002,1.032,55.552002,concentric,6,3.0,22111.0,308393.0,274854.0,319488.0,281836.0
2026-04-07 18:04:50.710189,398223,2161041897,2161044052,-0.979904,0.15616,0.05856,-11.59375,8.82,-7.735,41.112003,1.632,53.648003,concentric,6,3.0,22111.0,308393.0,274854.0,319488.0,281836.0
2026-04-07 18:04:50.714333,398224,2161050818,2161052738,-0.979904,0.15616,0.05856,-15.33,9.7825,-8.49625,41.112003,1.632,53.648003,concentric,6,3.0,22111.0,308393.0,274854.0,319488.0,281836.0
2026-04-07 18:04:50.716838,398225,2161059736,2161061466,-0.979904,0.11712,0.025376,-20.09,11.445,-8.79375,41.112003,1.632,53.648003,concentric,6,3.0,22111.0,308393.0,274854.0,319488.0,281836.0
2026-04-07 18:04:50.719361,398226,2161074196,2161076356,-1.022848,0.11712,0.025376,-20.685,12.60875,-9.24,40.88,1.328,53.576004,concentric,6,3.0,22111.0,308393.0,274854.0,319488.0,281836.0
2026-04-07 18:04:50.748990,398236,2161083228,2161085528,-1.149728,0.142496,0.025376,-19.3725,14.20125,-9.52,41.344,1.72,54.896004,concentric,6,3.0,22258.0,309522.0,275742.0,320348.0,282645.0
2026-04-07 18:04:50.750663,398237,2161092295,2161094313,-1.149728,0.142496,0.025376,-17.7275,16.12625,-11.305,41.344,1.72,54.896004,concentric,6,3.0,22258.0,309522.0,275742.0,320348.0,282645.0
2026-04-07 18:04:50.752222,398238,2161106831,2161107185,-1.143872,0.148352,0.040992,-12.285,17.255,-12.24125,40.992,1.56,54.032,concentric,6,3.0,22258.0,309522.0,275742.0,320348.0,282645.0
2026-04-07 18:04:50.756520,398239,2161116247,2161117990,-1.143872,0.148352,0.040992,-12.2675,16.178751,-10.70125,40.992,1.56,54.032,concentric,6,3.0,22258.0,309522.0,275742.0,320348.0,282645.0
2026-04-07 18:04:50.758863,398240,2161125182,2161126720,-1.0736,0.140544,0.06832,-15.2075,15.1375,-9.1875,41.304,2.072,54.528004,concentric,6,3.0,22258.0,309522.0,275742.0,320348.0,282645.0
2026-04-07 18:04:50.765050,398241,2161134185,2161135439,-1.0736,0.140544,0.06832,-19.52125,14.7,-8.435,41.304,2.072,54.528004,concentric,6,3.0,22258.0,309522.0,275742.0,320348.0,282645.0
2026-04-07 18:04:50.793528,398242,2161148699,2161150491,-1.065792,0.103456,0.056608,-24.64875,12.88875,-6.86875,41.888,3.192,54.984,concentric,6,3.0,22258.0,309522.0,275742.0,320348.0,282645.0
2026-04-07 18:04:50.798084,398243,2161157622,2161159210,-1.065792,0.103456,0.056608,-26.59125,10.91125,-6.37875,41.888,3.192,54.984,concentric,6,3.0,22258.0,309522.0,275742.0,320348.0,282645.0
2026-04-07 18:04:50.799635,398244,2161166537,2161167924,-1.106784,0.089792,0.001952,-27.16875,9.35375,-5.845,41.912003,2.6,52.88,concentric,6,3.0,22258.0,309522.0,275742.0,320348.0,282645.0
2026-04-07 18:04:50.829937,398245,2161181034,2161182814,-1.14192,0.152256,-0.0976,-28.2625,7.53375,-6.44,42.064003,2.888,54.064003,concentric,6,3.0,22258.0,309522.0,275742.0,320348.0,282645.0
2026-04-07 18:04:50.863182,398255,2161190085,2161191644,-1.14192,0.152256,-0.0976,-28.9975,5.74,-7.27125,42.064003,2.888,54.064003,concentric,6,3.0,22358.0,309652.0,275631.0,319949.0,282280.0
2026-04-07 18:04:50.864659,398256,2161198999,2161200358,-1.14192,0.152256,-0.0976,-29.0325,5.11,-7.77,42.064003,2.888,54.064003,concentric,6,3.0,22358.0,309652.0,275631.0,319949.0,282280.0
2026-04-07 18:04:50.868935,398257,2161213540,2161215286,-1.116544,0.173728,-0.111264,-32.34,3.56125,-7.49875,42.104004,3.176,52.776,concentric,6,3.0,22358.0,309652.0,275631.0,319949.0,282280.0
2026-04-07 18:04:50.870593,398258,2161222497,2161224047,-1.077504,0.111264,-0.085888,-38.08,2.8525,-6.4225,42.312,3.648,52.008003,concentric,6,3.0,22358.0,309652.0,275631.0,319949.0,282280.0
2026-04-07 18:04:50.872213,398259,2161231503,2161232763,-1.077504,0.111264,-0.085888,-43.82875,2.42375,-5.17125,42.312,3.648,52.008003,concentric,6,3.0,22358.0,309652.0,275631.0,319949.0,282280.0
2026-04-07 18:04:50.876248,398260,2161240434,2161241513,-1.077504,0.080032,0.031232,-45.5525,2.86125,-3.64,42.312,3.648,52.008003,concentric,6,3.0,22358.0,309652.0,275631.0,319949.0,282280.0
2026-04-07 18:04:50.904885,398261,2161254950,2161256424,-1.067744,0.07808,0.031232,-45.1675,1.98625,-2.66875,41.920002,4.312,52.776,concentric,6,3.0,22358.0,309652.0,275631.0,319949.0,282280.0
2026-04-07 18:04:50.909363,398262,2161263919,2161265137,-1.077504,0.050752,0.025376,-45.68375,0.83125,-1.015,42.296,4.24,52.4,concentric,6,3.0,22358.0,309652.0,275631.0,319949.0,282280.0
2026-04-07 18:04:50.910845,398263,2161272802,2161273864,-1.077504,0.050752,0.025376,-42.7525,-0.58625,1.18125,42.296,4.24,52.4,concentric,6,3.0,22358.0,309652.0,275631.0,319949.0,282280.0
2026-04-07 18:04:50.939485,398274,2161287820,2161288744,-1.071648,0.0976,0.011712,-36.11125,-1.96,2.3275,42.52,5.288,52.464,concentric,6,3.0,22551.0,311168.0,276831.0,321183.0,283261.0
2026-04-07 18:04:50.941157,398275,2161296930,2161297546,-1.071648,0.0976,0.011712,-27.335001,-2.8875,2.80875,42.52,5.288,52.464,concentric,6,3.0,22551.0,311168.0,276831.0,321183.0,283261.0
2026-04-07 18:04:50.945285,398276,2161306277,2161308415,-1.052128,0.132736,-0.033184,-22.77625,-2.975,1.95125,41.752003,4.752,53.272003,concentric,6,3.0,22551.0,311168.0,276831.0,321183.0,283261.0
2026-04-07 18:04:50.948250,398277,2161315282,2161317168,-1.052128,0.132736,-0.033184,-22.8025,-3.78,1.18125,41.752003,4.752,53.272003,concentric,6,3.0,22551.0,311168.0,276831.0,321183.0,283261.0
2026-04-07 18:04:50.983329,398278,2161329839,2161332100,-1.057984,0.163968,-0.05856,-25.47125,-3.94625,0.595,41.736004,4.96,53.512,concentric,6,3.0,22551.0,311168.0,276831.0,321183.0,283261.0
2026-04-07 18:04:50.984724,398279,2161338791,2161340791,-1.057984,0.163968,-0.05856,-28.5775,-3.71,0.6825,41.736004,4.96,53.512,concentric,6,3.0,22551.0,311168.0,276831.0,321183.0,283261.0
2026-04-07 18:04:50.989317,398280,2161347707,2161349464,-1.05408,0.1464,-0.06832,-32.33125,-4.20875,2.40625,42.120003,5.136,52.456,concentric,6,3.0,22551.0,311168.0,276831.0,321183.0,283261.0
2026-04-07 18:04:50.993848,398281,2161362261,2161364395,-1.050176,0.085888,-0.056608,-36.5925,-4.19125,3.87625,42.272003,5.448,53.656002,concentric,6,3.0,22551.0,311168.0,276831.0,321183.0,283261.0
2026-04-07 18:04:51.025167,398282,2161371197,2161373099,-1.050176,0.085888,-0.056608,-40.48625,-5.01375,4.38375,42.272003,5.448,53.656002,concentric,6,3.0,22551.0,311168.0,276831.0,321183.0,283261.0
2026-04-07 18:04:51.026990,398283,2161380196,2161381798,-1.050176,0.085888,-0.056608,-42.16625,-5.31125,5.03125,42.272003,5.448,53.656002,concentric,6,3.0,22551.0,311168.0,276831.0,321183.0,283261.0
2026-04-07 18:04:51.051009,398293,2161394812,2161396747,-1.04432,0.05856,-0.023424,-41.2125,-5.41625,6.23,41.744003,5.64,51.384003,concentric,6,3.0,22468.0,310093.0,275736.0,319718.0,281903.0
2026-04-07 18:04:51.055171,398294,2161403758,2161405454,-1.042368,0.070272,0.007808,-37.72125,-6.6675,6.86875,42.2,5.648,51.816,concentric,6,3.0,22468.0,310093.0,275736.0,319718.0,281903.0
2026-04-07 18:04:51.056886,398295,2161412902,2161414184,-1.042368,0.070272,0.007808,-34.46625,-7.595,7.42,42.2,5.648,51.816,concentric,6,3.0,22468.0,310093.0,275736.0,319718.0,281903.0
2026-04-07 18:04:51.058782,398296,2161421909,2161422973,-1.050176,0.109312,0.025376,-30.817501,-8.575,8.23375,42.456,6.024,52.312004,concentric,6,3.0,22468.0,310093.0,275736.0,319718.0,281903.0
2026-04-07 18:04:51.089636,398297,2161436413,2161437897,-1.050176,0.109312,0.025376,-28.00875,-9.19625,9.38,42.456,6.024,52.312004,concentric,6,3.0,22468.0,310093.0,275736.0,319718.0,281903.0
2026-04-07 18:04:51.091820,398298,2161445332,2161446583,-1.098976,0.142496,0.031232,-26.60875,-9.135,9.65125,42.152,6.288,52.992004,concentric,6,3.0,22468.0,310093.0,275736.0,319718.0,281903.0
2026-04-07 18:04:51.096407,398299,2161454251,2161455354,-1.098976,0.142496,0.031232,-24.66625,-10.26375,8.995,42.152,6.288,52.992004,concentric,6,3.0,22468.0,310093.0,275736.0,319718.0,281903.0
2026-04-07 18:04:51.100069,398300,2161468758,2161470232,-1.1224,0.144448,0.01952,-21.0175,-11.36625,8.295,42.104004,6.432,52.256004,concentric,6,3.0,22468.0,310093.0,275736.0,319718.0,281903.0
2026-04-07 18:04:51.128571,398301,2161477684,2161478975,-1.1224,0.144448,0.01952,-14.00875,-12.18,7.175,42.104004,6.432,52.256004,concentric,6,3.0,22468.0,310093.0,275736.0,319718.0,281903.0
2026-04-07 18:04:51.155645,398311,2161487164,2161487822,-1.11264,0.189344,0.01952,-6.3525,-12.50375,4.9175,41.600002,6.024,52.176003,concentric,6,3.0,22564.0,310465.0,275813.0,319586.0,281756.0
2026-04-07 18:04:51.157271,398312,2161496493,2161498669,-1.11264,0.189344,0.01952,-1.155,-12.94125,3.26375,41.600002,6.024,52.176003,concentric,6,3.0,22564.0,310465.0,275813.0,319586.0,281756.0
2026-04-07 18:04:51.161411,398313,2161511022,2161511569,-1.106784,0.193248,0.025376,0.0,-12.5475,1.575,41.912003,6.432,52.056004,concentric,6,3.0,22564.0,310465.0,275813.0,319586.0,281756.0
2026-04-07 18:04:51.163170,398314,2161520589,2161522400,-1.106784,0.193248,0.025376,-2.28375,-10.87625,0.90125,41.912003,6.432,52.056004,concentric,6,3.0,22564.0,310465.0,275813.0,319586.0,281756.0
2026-04-07 18:04:51.164707,398315,2161529603,2161531152,-1.095072,0.154208,0.035136,-6.74625,-11.2,1.085,41.144,6.088,52.784004,concentric,6,3.0,22564.0,310465.0,275813.0,319586.0,281756.0
2026-04-07 18:04:51.195716,398316,2161544170,2161546060,-1.087264,0.081984,0.023424,-13.30875,-10.885,1.6975,41.320004,6.232,53.936,concentric,6,3.0,22564.0,310465.0,275813.0,319586.0,281756.0
2026-04-07 18:04:51.198029,398317,2161553135,2161554800,-1.087264,0.081984,0.023424,-17.78,-10.49125,2.8175,41.320004,6.232,53.936,concentric,6,3.0,22564.0,310465.0,275813.0,319586.0,281756.0
2026-04-07 18:04:51.202738,398318,2161562079,2161563487,-1.087264,0.062464,0.011712,-17.94625,-10.5175,4.13875,41.320004,6.232,53.936,concentric,6,3.0,22564.0,310465.0,275813.0,319586.0,281756.0
2026-04-07 18:04:51.205144,398319,2161570999,2161572167,-1.085312,0.062464,0.011712,-13.4925,-11.61125,5.52125,41.784,6.416,53.504,concentric,6,3.0,22564.0,310465.0,275813.0,319586.0,281756.0
2026-04-07 18:04:51.293541,398330,2161585924,2161587066,-1.0736,0.089792,0.005856,-7.07875,-11.75125,6.37,41.448,6.24,53.408,concentric,6,3.0,22577.0,310520.0,275818.0,319537.0,281673.0
2026-04-07 18:04:51.301456,398331,2161594986,2161595786,-1.0736,0.089792,0.005856,-0.8925,-12.792501,7.83125,41.448,6.24,53.408,concentric,6,3.0,22577.0,310520.0,275818.0,319537.0,281673.0
2026-04-07 18:04:51.303126,398332,2161603900,2161604507,-1.01504,0.140544,0.001952,3.5875,-14.25375,8.67125,41.192,6.512,53.064003,concentric,6,3.0,22577.0,310520.0,275818.0,319537.0,281673.0
2026-04-07 18:04:51.304684,398333,2161618780,2161619442,-1.01504,0.140544,0.001952,5.88875,-14.7175,9.80875,41.192,6.512,53.064003,concentric,6,3.0,22577.0,310520.0,275818.0,319537.0,281673.0
2026-04-07 18:04:51.309077,398334,2161628063,2161630262,-0.997472,0.150304,0.040992,6.01125,-14.28,10.6225,41.424004,5.568,53.640003,concentric,6,3.0,22577.0,310520.0,275818.0,319537.0,281673.0
2026-04-07 18:04:51.310616,398335,2161637015,2161638941,-0.997472,0.150304,0.040992,2.51125,-13.86875,11.10375,41.424004,5.568,53.640003,concentric,6,3.0,22577.0,310520.0,275818.0,319537.0,281673.0
2026-04-07 18:04:51.312196,398336,2161645930,2161647610,-1.04432,0.142496,0.046848,1.14625,-13.02,11.38375,41.68,5.736,53.480003,concentric,6,3.0,22577.0,310520.0,275818.0,319537.0,281673.0
2026-04-07 18:04:51.316505,398337,2161660424,2161662563,-1.04432,0.142496,0.046848,3.22875,-13.7725,11.2,41.68,5.736,53.480003,concentric,6,3.0,22577.0,310520.0,275818.0,319537.0,281673.0
2026-04-07 18:04:51.318123,398338,2161669385,2161671292,-0.993568,0.1464,0.052704,4.655,-13.43125,11.095,41.208,5.496,54.984,concentric,6,3.0,22577.0,310520.0,275818.0,319537.0,281673.0
2026-04-07 18:04:51.319682,398339,2161678334,2161680061,-0.993568,0.1464,0.052704,4.935,-12.355001,9.6075,41.208,5.496,54.984,concentric,6,3.0,22577.0,310520.0,275818.0,319537.0,281673.0
2026-04-07 18:04:51.345650,398349,2161693063,2161695151,-1.007232,0.152256,0.062464,4.34,-10.84125,7.63,41.168003,5.744,53.512,concentric,6,3.0,22612.0,310921.0,276181.0,320015.0,282022.0
2026-04-07 18:04:51.347233,398350,2161702156,2161703866,-1.007232,0.152256,0.062464,4.97,-10.12375,5.95875,41.168003,5.744,53.512,concentric,6,3.0,22612.0,310921.0,276181.0,320015.0,282022.0
2026-04-07 18:04:51.351383,398351,2161711162,2161712643,-0.99552,0.150304,0.072224,5.18,-9.6425,4.20875,41.096,5.248,53.728004,concentric,6,3.0,22612.0,310921.0,276181.0,320015.0,282022.0
2026-04-07 18:04:51.352985,398352,2161720105,2161721367,-0.99552,0.150304,0.072224,5.7225,-9.00375,2.7475,41.096,5.248,53.728004,concentric,6,3.0,22612.0,310921.0,276181.0,320015.0,282022.0
2026-04-07 18:04:51.383258,398353,2161734599,2161736325,-1.022848,0.150304,0.05856,7.09625,-8.44375,1.2075,41.68,5.544,53.816,concentric,6,3.0,22612.0,310921.0,276181.0,320015.0,282022.0
2026-04-07 18:04:51.387713,398354,2161743512,2161745010,-0.979904,0.171776,0.064416,8.09375,-7.41125,-0.11375,41.128002,5.64,54.464,concentric,6,3.0,22612.0,310921.0,276181.0,320015.0,282022.0
2026-04-07 18:04:51.389340,398355,2161752458,2161753706,-0.979904,0.171776,0.064416,7.93625,-6.88625,-0.91,41.128002,5.64,54.464,concentric,6,3.0,22612.0,310921.0,276181.0,320015.0,282022.0
2026-04-07 18:04:51.419837,398356,2161766949,2161768651,-0.98576,0.230336,0.081984,6.27375,-5.4775,-1.02375,40.328003,5.328,55.416004,concentric,6,3.0,22612.0,310921.0,276181.0,320015.0,282022.0
2026-04-07 18:04:51.432706,398357,2161775851,2161777336,-0.98576,0.230336,0.081984,-0.1225,-2.38,-1.35625,40.328003,5.328,55.416004,concentric,6,3.0,22612.0,310921.0,276181.0,320015.0,282022.0
2026-04-07 18:04:51.434210,398358,2161784758,2161786046,-1.059936,0.232288,0.091744,-13.16875,1.0325,-1.68,40.944,5.68,54.440002,concentric,6,3.0,22612.0,310921.0,276181.0,320015.0,282022.0
2026-04-07 18:04:51.467744,398368,2161799404,2161801024,-1.059936,0.232288,0.091744,-31.35125,4.235,-2.73875,40.944,5.68,54.440002,concentric,6,3.0,22707.0,311996.0,277113.0,321112.0,282917.0
2026-04-07 18:04:51.469334,398369,2161808337,2161809710,-1.095072,0.074176,0.02928,-47.15375,5.985,-4.165,41.472,6.128,54.24,concentric,6,3.0,22707.0,311996.0,277113.0,321112.0,282917.0
2026-04-07 18:04:51.470929,398370,2161817270,2161818464,-1.095072,0.074176,0.02928,-53.38375,6.83375,-4.36625,41.472,6.128,54.24,concentric,6,3.0,22707.0,311996.0,277113.0,321112.0,282917.0
2026-04-07 18:04:51.475189,398371,2161831813,2161833427,-1.069696,-0.021472,0.060512,-45.6925,5.2675,-4.3225,41.088,6.12,54.72,concentric,6,3.0,22707.0,311996.0,277113.0,321112.0,282917.0
2026-04-07 18:04:51.476757,398372,2161840871,2161842172,-1.069696,-0.021472,0.060512,-28.0175,2.8525,-4.62,41.088,6.12,54.72,concentric,6,3.0,22707.0,311996.0,277113.0,321112.0,282917.0
2026-04-07 18:04:51.481296,398373,2161849854,2161850892,-1.065792,0.093696,0.0976,-6.79875,0.63875,-4.795,41.168003,6.064,55.184002,concentric,6,3.0,22707.0,311996.0,277113.0,321112.0,282917.0
2026-04-07 18:04:51.515613,398374,2161858758,2161859571,-1.065792,0.093696,0.0976,8.4525,0.8575,-6.79,41.168003,6.064,55.184002,concentric,6,3.0,22707.0,311996.0,277113.0,321112.0,282917.0
2026-04-07 18:04:51.520158,398375,2161873229,2161874522,-1.097024,0.240096,0.10736,9.45,1.82875,-9.17875,41.816,6.304,53.944004,concentric,6,3.0,22707.0,311996.0,277113.0,321112.0,282917.0
2026-04-07 18:04:51.521878,398376,2161882146,2161883218,-1.097024,0.240096,0.10736,-0.60375,2.66875,-10.9375,41.816,6.304,53.944004,concentric,6,3.0,22707.0,311996.0,277113.0,321112.0,282917.0
2026-04-07 18:04:51.546158,398386,2161891154,2161892009,-1.081408,0.232288,0.06832,-15.225,4.26125,-11.73375,40.888,6.608,54.736004,concentric,6,3.0,22599.0,311405.0,276897.0,321068.0,282956.0
2026-04-07 18:04:51.549221,398387,2161905701,2161906943,-1.095072,0.167872,0.044896,-27.37,6.1075,-11.2,41.760002,6.864,53.688004,concentric,6,3.0,22599.0,311405.0,276897.0,321068.0,282956.0
2026-04-07 18:04:51.585748,398388,2161914631,2161915666,-1.095072,0.167872,0.044896,-33.18,6.755,-11.2175,41.760002,6.864,53.688004,concentric,6,3.0,22599.0,311405.0,276897.0,321068.0,282956.0
2026-04-07 18:04:51.588108,398389,2161923554,2161924359,-1.095072,0.103456,0.00976,-32.69,6.78125,-11.92625,41.760002,6.864,53.688004,concentric,6,3.0,22599.0,311405.0,276897.0,321068.0,282956.0
2026-04-07 18:04:51.592737,398390,2161938020,2161939244,-1.095072,0.103456,0.00976,-27.86875,6.65,-12.81,41.608,6.784,53.432003,concentric,6,3.0,22599.0,311405.0,276897.0,321068.0,282956.0
2026-04-07 18:04:51.594362,398391,2161946896,2161947993,-1.089216,0.105408,0.031232,-21.9975,6.50125,-14.18375,41.56,7.616,53.728004,concentric,6,3.0,22599.0,311405.0,276897.0,321068.0,282956.0
2026-04-07 18:04:51.595977,398392,2161955792,2161956705,-1.089216,0.105408,0.031232,-19.565,7.25375,-15.575,41.56,7.616,53.728004,concentric,6,3.0,22599.0,311405.0,276897.0,321068.0,282956.0
2026-04-07 18:04:51.601257,398393,2161970289,2161971622,-1.114592,0.121024,0.037088,-20.055,6.37875,-15.9775,41.344,7.896,53.616,concentric,6,3.0,22599.0,311405.0,276897.0,321068.0,282956.0
2026-04-07 18:04:51.632905,398394,2161979192,2161980322,-1.114592,0.121024,0.037088,-21.41125,4.97875,-15.785,41.344,7.896,53.616,concentric,6,3.0,22599.0,311405.0,276897.0,321068.0,282956.0
2026-04-07 18:04:51.660967,398405,2161988115,2161988979,-1.10288,0.11712,0.033184,-21.77,4.99625,-14.46375,41.464,7.888001,53.464,concentric,6,3.0,22825.0,314173.0,279679.0,324618.0,286120.0
2026-04-07 18:04:51.665203,398406,2161997072,2161997704,-1.10288,0.11712,0.033184,-19.53,4.8825,-13.335,41.464,7.888001,53.464,concentric,6,3.0,22825.0,314173.0,279679.0,324618.0,286120.0
2026-04-07 18:04:51.666875,398407,2162011883,2162012630,-1.098976,0.128832,0.044896,-17.24625,4.96125,-12.94125,41.160004,8.336,53.4,concentric,6,3.0,22825.0,314173.0,279679.0,324618.0,286120.0
2026-04-07 18:04:51.668526,398408,2162021338,2162023441,-1.098976,0.128832,0.044896,-15.33,5.1625,-13.5625,41.160004,8.336,53.4,concentric,6,3.0,22825.0,314173.0,279679.0,324618.0,286120.0
2026-04-07 18:04:51.672514,398409,2162030300,2162032599,-1.085312,0.148352,0.091744,-13.8425,5.88875,-14.3675,41.608,8.552,53.264004,concentric,6,3.0,22825.0,314173.0,279679.0,324618.0,286120.0
2026-04-07 18:04:51.676240,398410,2162044801,2162045588,-1.098976,0.138592,0.074176,-14.04375,6.22125,-14.37625,41.56,8.536,53.544003,concentric,6,3.0,22825.0,314173.0,279679.0,324618.0,286120.0
2026-04-07 18:04:51.704877,398411,2162054408,2162056442,-1.098976,0.138592,0.074176,-14.3675,5.2325,-14.4375,41.56,8.536,53.544003,concentric,6,3.0,22825.0,314173.0,279679.0,324618.0,286120.0
2026-04-07 18:04:51.709346,398412,2162063354,2162065139,-1.098976,0.138592,0.074176,-13.658751,5.22375,-13.886251,41.56,8.536,53.544003,concentric,6,3.0,22825.0,314173.0,279679.0,324618.0,286120.0
2026-04-07 18:04:51.710848,398413,2162072308,2162073831,-1.08336,0.130784,0.05856,-11.165,5.425,-13.3,41.144,8.872001,51.976,concentric,6,3.0,22825.0,314173.0,279679.0,324618.0,286120.0
2026-04-07 18:04:51.741515,398423,2162086842,2162088848,-1.06384,0.115168,0.054656,-7.07875,4.89125,-13.230001,41.528004,9.016001,53.352,concentric,6,3.0,23195.0,318180.0,283469.0,329186.0,290065.0
2026-04-07 18:04:51.777300,398424,2162095767,2162097591,-1.06384,0.115168,0.054656,-4.935,5.36375,-12.90625,41.528004,9.016001,53.352,concentric,6,3.0,23195.0,318180.0,283469.0,329186.0,290065.0
2026-04-07 18:04:51.787785,398425,2162104957,2162106367,-1.077504,0.101504,0.056608,-4.2525,5.45125,-12.60875,40.872,8.832001,54.04,concentric,6,3.0,23195.0,318180.0,283469.0,329186.0,290065.0
2026-04-07 18:04:51.789319,398426,2162119542,2162121303,-1.077504,0.101504,0.056608,-3.325,6.475,-13.230001,40.872,8.832001,54.04,concentric,6,3.0,23195.0,318180.0,283469.0,329186.0,290065.0
2026-04-07 18:04:51.790887,398427,2162128455,2162129982,-1.11264,0.109312,0.074176,-0.735,7.805,-13.64125,41.088,8.648001,53.56,concentric,6,3.0,23195.0,318180.0,283469.0,329186.0,290065.0
2026-04-07 18:04:51.795242,398428,2162137382,2162138712,-1.11264,0.109312,0.074176,2.80875,8.05875,-14.27125,41.088,8.648001,53.56,concentric,6,3.0,23195.0,318180.0,283469.0,329186.0,290065.0
2026-04-07 18:04:51.796842,398429,2162146336,2162147443,-1.118496,0.132736,0.070272,5.46875,6.76375,-14.980001,41.152,8.76,53.280003,concentric,6,3.0,23195.0,318180.0,283469.0,329186.0,290065.0
2026-04-07 18:04:51.798447,398430,2162160853,2162162364,-1.118496,0.132736,0.070272,8.12,5.7925,-15.54,41.152,8.76,53.280003,concentric,6,3.0,23195.0,318180.0,283469.0,329186.0,290065.0
2026-04-07 18:04:51.802524,398431,2162169862,2162171079,-1.09312,0.154208,0.06832,10.8325,4.2525,-16.23125,41.088,9.032001,54.304,concentric,6,3.0,23195.0,318180.0,283469.0,329186.0,290065.0
2026-04-07 18:04:51.831050,398432,2162178829,2162179794,-1.09312,0.154208,0.06832,14.7875,3.0625,-17.4475,41.088,9.032001,54.304,concentric,6,3.0,23195.0,318180.0,283469.0,329186.0,290065.0
2026-04-07 18:04:51.897012,398442,2162193496,2162194762,-1.091168,0.173728,0.052704,16.24875,2.16125,-17.57875,41.328003,8.88,53.568,concentric,6,3.0,22972.0,315897.0,281397.0,326669.0,287802.0
2026-04-07 18:04:51.899558,398443,2162202461,2162203511,-1.091168,0.173728,0.052704,15.645,0.93625,-16.80875,41.328003,8.88,53.568,concentric,6,3.0,22972.0,315897.0,281397.0,326669.0,287802.0
2026-04-07 18:04:51.902016,398444,2162211406,2162212256,-1.081408,0.160064,0.052704,15.95125,0.46375,-15.8725,41.328003,8.928,54.072002,concentric,6,3.0,22972.0,315897.0,281397.0,326669.0,287802.0
2026-04-07 18:04:51.905538,398445,2162225913,2162227181,-1.065792,0.160064,0.111264,14.6475,1.11125,-15.98625,40.928,8.592,54.072002,concentric,6,3.0,22972.0,315897.0,281397.0,326669.0,287802.0
2026-04-07 18:04:51.907073,398446,2162234838,2162235897,-1.065792,0.160064,0.111264,12.10125,1.9425,-15.93375,40.928,8.592,54.072002,concentric,6,3.0,22972.0,315897.0,281397.0,326669.0,287802.0
2026-04-07 18:04:51.911356,398447,2162243729,2162244595,-1.065792,0.160064,0.111264,9.35375,3.115,-16.26625,40.928,8.592,54.072002,concentric,6,3.0,22972.0,315897.0,281397.0,326669.0,287802.0
2026-04-07 18:04:51.913102,398448,2162252707,2162253295,-1.059936,0.128832,0.0976,7.8225,4.33125,-14.9975,41.152,8.792001,53.608,concentric,6,3.0,22972.0,315897.0,281397.0,326669.0,287802.0
2026-04-07 18:04:51.914678,398449,2162267581,2162268251,-1.059936,0.105408,0.113216,6.6325,5.3025,-13.67625,40.912003,8.656,54.344,concentric,6,3.0,22972.0,315897.0,281397.0,326669.0,287802.0
2026-04-07 18:04:51.917143,398450,2162276861,2162279080,-1.059936,0.105408,0.113216,5.64375,6.23875,-11.92625,40.912003,8.656,54.344,concentric,6,3.0,22972.0,315897.0,281397.0,326669.0,287802.0
2026-04-07 18:04:51.919540,398451,2162285807,2162287846,-1.065792,0.085888,0.066368,7.14875,7.28,-11.12125,41.000004,8.6,54.136,concentric,6,3.0,22972.0,315897.0,281397.0,326669.0,287802.0
2026-04-07 18:04:51.948153,398462,2162300478,2162302787,-1.065792,0.085888,0.066368,9.14375,8.2075,-9.8875,41.000004,8.6,54.136,concentric,6,3.0,22759.0,314091.0,279908.0,325026.0,286386.0
2026-04-07 18:04:51.949676,398463,2162309604,2162311581,-1.067744,0.103456,0.046848,13.37,8.91625,-8.12875,41.608,7.992001,54.512,concentric,6,3.0,22759.0,314091.0,279908.0,325026.0,286386.0
2026-04-07 18:04:51.953873,398464,2162318704,2162320385,-1.067744,0.103456,0.046848,17.43,9.8175,-8.05875,41.608,7.992001,54.512,concentric,6,3.0,22759.0,314091.0,279908.0,325026.0,286386.0
2026-04-07 18:04:51.959239,398465,2162327700,2162329095,-1.05408,0.105408,0.050752,18.83,10.61375,-7.83125,41.68,8.024,54.312004,concentric,6,3.0,22759.0,314091.0,279908.0,325026.0,286386.0
2026-04-07 18:04:51.988528,398466,2162342213,2162343968,-1.05408,0.105408,0.050752,20.88625,10.91125,-7.9625,41.68,8.024,54.312004,concentric,6,3.0,22759.0,314091.0,279908.0,325026.0,286386.0
2026-04-07 18:04:51.992227,398467,2162351146,2162352698,-1.046272,0.105408,0.060512,24.6225,11.29625,-8.12875,41.376003,7.256001,54.624004,concentric,6,3.0,22759.0,314091.0,279908.0,325026.0,286386.0
2026-04-07 18:04:51.994652,398468,2162360108,2162361412,-1.046272,0.105408,0.060512,28.11375,12.2675,-8.14625,41.376003,7.256001,54.624004,concentric,6,3.0,22759.0,314091.0,279908.0,325026.0,286386.0
2026-04-07 18:04:52.027642,398469,2162374622,2162376321,-1.040416,0.154208,0.093696,33.71375,12.74875,-7.49,41.776,7.488,54.440002,concentric,6,3.0,22759.0,314091.0,279908.0,325026.0,286386.0
2026-04-07 18:04:52.031971,398470,2162383551,2162385024,-1.040416,0.154208,0.093696,35.63,13.265,-7.28875,41.776,7.488,54.440002,concentric,6,3.0,22759.0,314091.0,279908.0,325026.0,286386.0
2026-04-07 18:04:52.059631,398480,2162392954,2162393757,-1.08336,0.21472,0.07808,31.7625,14.30625,-7.44625,41.904003,7.312,54.936,concentric,6,3.0,23088.0,317204.0,282710.0,328297.0,289144.0
2026-04-07 18:04:52.063947,398481,2162402447,2162404604,-1.08336,0.21472,0.07808,22.8025,14.84,-6.4925,41.904003,7.312,54.936,concentric,6,3.0,23088.0,317204.0,282710.0,328297.0,289144.0
2026-04-07 18:04:52.065619,398482,2162417012,2162417503,-1.069696,0.20496,0.074176,12.4075,16.0125,-5.1275,41.352,7.064,56.048004,concentric,6,3.0,23088.0,317204.0,282710.0,328297.0,289144.0
2026-04-07 18:04:52.069874,398483,2162426568,2162428285,-1.124352,0.121024,0.10736,6.15125,17.47375,-5.6525,41.84,6.744,56.224003,concentric,6,3.0,23088.0,317204.0,282710.0,328297.0,289144.0
2026-04-07 18:04:52.069956,398484,2162435518,2162436980,-1.124352,0.121024,0.10736,8.58375,18.59375,-6.335,41.84,6.744,56.224003,concentric,6,3.0,23088.0,317204.0,282710.0,328297.0,289144.0
2026-04-07 18:04:52.075097,398485,2162444624,2162445727,-1.124352,0.121024,0.10736,18.12125,18.29625,-7.20125,41.84,6.744,56.224003,concentric,6,3.0,23088.0,317204.0,282710.0,328297.0,289144.0
2026-04-07 18:04:52.103638,398486,2162459123,2162460646,-1.118496,0.121024,0.080032,26.69625,17.07125,-8.77625,42.168003,6.864,57.624004,concentric,6,3.0,23088.0,317204.0,282710.0,328297.0,289144.0
2026-04-07 18:04:52.108206,398487,2162468094,2162469328,-1.173152,0.072224,0.119072,19.01375,15.435,-9.45875,43.000004,7.408001,54.680004,concentric,6,3.0,23088.0,317204.0,282710.0,328297.0,289144.0
2026-04-07 18:04:52.109677,398488,2162476984,2162478073,-1.173152,0.072224,0.119072,0.93625,17.5525,-9.485,43.000004,7.408001,54.680004,concentric,6,3.0,23088.0,317204.0,282710.0,328297.0,289144.0
2026-04-07 18:04:52.206970,398498,2162491909,2162493224,-1.143872,0.00976,0.183488,16.4325,18.0075,-11.68125,42.2,6.312,55.696003,concentric,6,3.0,23643.0,321642.0,286274.0,332152.0,292326.0
2026-04-07 18:04:52.208596,398499,2162500997,2162502033,-1.143872,0.00976,0.183488,37.826252,14.8225,-12.04875,42.2,6.312,55.696003,concentric,6,3.0,23643.0,321642.0,286274.0,332152.0,292326.0
2026-04-07 18:04:52.212679,398500,2162509945,2162510717,-1.202432,0.15616,0.20496,57.12,13.475,-13.97375,42.144,5.296001,55.104004,concentric,6,3.0,23643.0,321642.0,286274.0,332152.0,292326.0
2026-04-07 18:04:52.215433,398501,2162519288,2162521463,-1.202432,0.15616,0.20496,61.8975,14.323751,-16.84375,42.144,5.296001,55.104004,concentric,6,3.0,23643.0,321642.0,286274.0,332152.0,292326.0
2026-04-07 18:04:52.219395,398502,2162533965,2162534322,-1.266848,0.208864,0.20496,62.53625,16.35375,-17.115,42.696003,5.024,54.848003,concentric,6,3.0,23643.0,321642.0,286274.0,332152.0,292326.0
2026-04-07 18:04:52.220908,398503,2162543324,2162545098,-1.266848,0.208864,0.20496,58.42375,16.7825,-17.87625,42.696003,5.024,54.848003,concentric,6,3.0,23643.0,321642.0,286274.0,332152.0,292326.0
2026-04-07 18:04:52.225143,398504,2162552260,2162553787,-1.339072,0.20496,0.169824,55.825,16.2575,-19.022501,42.36,4.552,55.504,concentric,6,3.0,23643.0,321642.0,286274.0,332152.0,292326.0
2026-04-07 18:04:52.226957,398505,2162566812,2162568693,-1.428864,0.142496,0.113216,52.66625,15.74125,-20.88625,42.36,4.056,55.680004,concentric,6,3.0,23643.0,321642.0,286274.0,332152.0,292326.0
2026-04-07 18:04:52.229325,398506,2162575859,2162577403,-1.428864,0.142496,0.113216,53.1825,14.35875,-22.58375,42.856003,4.056,55.680004,concentric,6,3.0,23643.0,321642.0,286274.0,332152.0,292326.0
2026-04-07 18:04:52.231647,398507,2162584904,2162586132,-1.428864,0.142496,0.113216,54.46,11.10375,-24.50875,42.856003,4.056,55.680004,concentric,6,3.0,23643.0,321642.0,286274.0,332152.0,292326.0
2026-04-07 18:04:52.258536,398518,2162594396,2162594910,-1.477664,0.13664,0.046848,57.72375,9.1,-24.6575,42.408,4.168,55.872,concentric,6,3.0,23602.0,321475.0,286174.0,332098.0,292309.0
2026-04-07 18:04:52.261890,398519,2162609412,2162609832,-1.452288,0.15616,0.081984,58.14375,6.895,-24.7975,43.08,3.928,56.176003,concentric,6,3.0,23602.0,321475.0,286174.0,332098.0,292309.0
2026-04-07 18:04:52.263529,398520,2162619049,2162620675,-1.452288,0.15616,0.081984,51.975,5.705,-23.5025,43.08,3.928,56.176003,concentric,6,3.0,23602.0,321475.0,286174.0,332098.0,292309.0
2026-04-07 18:04:52.265933,398521,2162627977,2162629390,-1.464,0.085888,0.089792,42.9275,4.0075,-20.43125,42.24,3.824,56.296,concentric,6,3.0,23602.0,321475.0,286174.0,332098.0,292309.0
2026-04-07 18:04:52.268425,398522,2162636915,2162638112,-1.464,0.085888,0.089792,36.155,0.93625,-16.0475,42.24,3.824,56.296,concentric,6,3.0,23602.0,321475.0,286174.0,332098.0,292309.0
2026-04-07 18:04:52.299512,398523,2162651399,2162653016,-1.510848,-0.003904,0.148352,33.6525,-1.1025,-10.31625,42.112003,3.472,56.464005,concentric,6,3.0,23602.0,321475.0,286174.0,332098.0,292309.0
2026-04-07 18:04:52.301867,398524,2162660325,2162661706,-1.510848,-0.003904,0.148352,35.32375,-4.22625,-5.495,42.112003,3.472,56.464005,concentric,6,3.0,23602.0,321475.0,286174.0,332098.0,292309.0
2026-04-07 18:04:52.306426,398525,2162669220,2162670384,-1.460096,0.02928,0.130784,40.8625,-7.56,-1.715,42.312,2.92,57.048004,concentric,6,3.0,23602.0,321475.0,286174.0,332098.0,292309.0
2026-04-07 18:04:52.334887,398526,2162683754,2162685339,-1.460096,0.02928,0.130784,50.53125,-10.15,1.155,42.312,2.92,57.048004,concentric,6,3.0,23602.0,321475.0,286174.0,332098.0,292309.0
2026-04-07 18:04:52.362783,398536,2162692974,2162694321,-1.401536,0.160064,0.093696,60.655,-11.725,2.84375,42.176003,2.016,58.320004,concentric,6,3.0,23872.0,324974.0,289658.0,336539.0,296157.0
