pc_time,serial_num,sensor_ts,host_ts,ax,ay,az,gx,gy,gz,mx,my,mz,phase,rpe,weight_kg,ppg_a,ppg_b,ppg_c,ppg_d,ppg_e
2026-04-07 17:55:57.790693,299986,1628147497,1628149043,-1.223904,0.128832,0.093696,-8.54,7.53375,4.22625,43.912003,4.12,55.968002,eccentric,3,3.0,22952.0,326769.0,295594.0,345983.0,303568.0
2026-04-07 17:55:57.792551,299987,1628156653,1628157995,-1.223904,0.128832,0.093696,-9.3625,7.37625,4.9525,43.912003,4.12,55.968002,eccentric,3,3.0,22952.0,326769.0,295594.0,345983.0,303568.0
2026-04-07 17:55:57.793935,299988,1628165586,1628166730,-1.221952,0.113216,0.070272,-10.85,6.16,5.0925,43.184002,3.856,56.016003,eccentric,3,3.0,22952.0,326769.0,295594.0,345983.0,303568.0
2026-04-07 17:55:57.797997,299989,1628174496,1628175449,-1.221952,0.113216,0.070272,-10.68375,6.1075,5.20625,43.184002,3.856,56.016003,eccentric,3,3.0,22952.0,326769.0,295594.0,345983.0,303568.0
2026-04-07 17:55:57.826501,299990,1628189053,1628190408,-1.208288,0.109312,0.046848,-9.8175,6.965,4.34875,43.68,4.184,55.456,eccentric,3,3.0,22952.0,326769.0,295594.0,345983.0,303568.0
2026-04-07 17:55:57.831055,299991,1628197959,1628199161,-1.208288,0.109312,0.046848,-9.730001,7.5775,2.5725,43.68,4.184,55.456,eccentric,3,3.0,22952.0,326769.0,295594.0,345983.0,303568.0
2026-04-07 17:55:57.832527,299992,1628206816,1628207905,-1.198528,0.12688,0.0488,-9.42375,7.7525,1.0675,44.552002,4.248,54.616,eccentric,3,3.0,22952.0,326769.0,295594.0,345983.0,303568.0
2026-04-07 17:55:57.837259,299993,1628221359,1628222787,-1.198528,0.12688,0.0488,-8.3825,8.19,-0.0525,44.552002,4.248,54.616,eccentric,3,3.0,22952.0,326769.0,295594.0,345983.0,303568.0
2026-04-07 17:55:57.867665,299994,1628230307,1628231514,-1.175104,0.1464,0.072224,-7.32375,7.49,-0.0525,43.2,4.16,55.912003,eccentric,3,3.0,22952.0,326769.0,295594.0,345983.0,303568.0
2026-04-07 17:55:57.869749,299995,1628239197,1628240293,-1.175104,0.1464,0.072224,-7.98875,6.67625,0.98875,43.2,4.16,55.912003,eccentric,3,3.0,22952.0,326769.0,295594.0,345983.0,303568.0
2026-04-07 17:55:57.899331,300005,1628253875,1628255263,-1.173152,0.103456,0.06832,-10.167501,6.965,1.14625,43.712,5.256,54.728004,eccentric,3,3.0,22662.0,324536.0,293764.0,343978.0,301768.0
2026-04-07 17:55:57.901143,300006,1628262873,1628264004,-1.173152,0.103456,0.06832,-12.3025,6.37,1.33875,43.712,5.256,54.728004,eccentric,3,3.0,22662.0,324536.0,293764.0,343978.0,301768.0
2026-04-07 17:55:57.902702,300007,1628271836,1628272705,-1.167296,0.080032,0.062464,-11.5675,5.52125,1.63625,43.224003,4.64,56.384003,eccentric,3,3.0,22662.0,324536.0,293764.0,343978.0,301768.0
2026-04-07 17:55:57.906784,300008,1628280777,1628281411,-1.167296,0.080032,0.062464,-7.90125,3.96375,1.32125,43.224003,4.64,56.384003,eccentric,3,3.0,22662.0,324536.0,293764.0,343978.0,301768.0
2026-04-07 17:55:57.913041,300009,1628295598,1628296348,-1.14192,0.08784,0.037088,-3.395,3.28125,0.48125,42.824,4.656,56.480003,eccentric,3,3.0,22662.0,324536.0,293764.0,343978.0,301768.0
2026-04-07 17:55:57.941688,300010,1628304970,1628307167,-1.13216,0.119072,0.050752,-0.7,3.28125,0.875,42.824,4.656,53.776,eccentric,3,3.0,22662.0,324536.0,293764.0,343978.0,301768.0
2026-04-07 17:55:57.946128,300011,1628313883,1628315865,-1.13216,0.119072,0.050752,-0.105,3.9025,1.19875,43.992,5.504,53.776,eccentric,3,3.0,22662.0,324536.0,293764.0,343978.0,301768.0
2026-04-07 17:55:57.947521,300012,1628328347,1628328713,-1.134112,0.12688,0.060512,-2.19625,4.6025,1.5925,43.592003,5.520001,53.976,eccentric,3,3.0,22662.0,324536.0,293764.0,343978.0,301768.0
2026-04-07 17:55:57.956500,300013,1628337581,1628339513,-1.134112,0.12688,0.060512,-5.3725,3.885,2.205,43.592003,5.520001,53.976,eccentric,3,3.0,22662.0,324536.0,293764.0,343978.0,301768.0
2026-04-07 17:55:58.025634,300024,1628346674,1628348306,-1.147776,0.113216,0.054656,-6.545,3.4125,1.98625,43.872,5.752,52.848003,eccentric,3,3.0,22328.0,321575.0,291313.0,341209.0,299290.0
2026-04-07 17:55:58.027324,300025,1628355881,1628357064,-1.147776,0.113216,0.054656,-5.565,2.8875,1.0675,43.872,5.752,52.848003,eccentric,3,3.0,22328.0,321575.0,291313.0,341209.0,299290.0
2026-04-07 17:55:58.028889,300026,1628370349,1628372004,-1.124352,0.140544,0.074176,-3.6925,2.6425,0.13125,43.872,5.296001,53.664,eccentric,3,3.0,22328.0,321575.0,291313.0,341209.0,299290.0
2026-04-07 17:55:58.033552,300027,1628379284,1628380787,-1.124352,0.140544,0.074176,-2.31,3.0275,-1.26,43.872,5.296001,53.664,eccentric,3,3.0,22328.0,321575.0,291313.0,341209.0,299290.0
2026-04-07 17:55:58.034835,300028,1628388200,1628389482,-1.110688,0.160064,0.07808,-1.63625,3.92875,-2.12625,43.648003,5.088,53.584003,eccentric,3,3.0,22328.0,321575.0,291313.0,341209.0,299290.0
2026-04-07 17:55:58.038106,300029,1628402657,1628404412,-1.110688,0.160064,0.07808,-2.47625,4.8125,-2.0125,43.648003,5.088,53.584003,eccentric,3,3.0,22328.0,321575.0,291313.0,341209.0,299290.0
2026-04-07 17:55:58.040644,300030,1628411567,1628413128,-1.089216,0.152256,0.06832,-4.97,5.075,-2.275,43.784,5.736,53.320004,eccentric,3,3.0,22328.0,321575.0,291313.0,341209.0,299290.0
2026-04-07 17:55:58.042226,300031,1628420570,1628421820,-1.089216,0.152256,0.06832,-7.735,5.8625,-2.8525,43.784,5.736,53.320004,eccentric,3,3.0,22328.0,321575.0,291313.0,341209.0,299290.0
2026-04-07 17:55:58.074365,300032,1628435061,1628436780,-1.09312,0.115168,0.037088,-9.38,6.74625,-3.54375,43.248,6.104,54.104004,eccentric,3,3.0,22328.0,321575.0,291313.0,341209.0,299290.0
2026-04-07 17:55:58.097771,300042,1628443968,1628445468,-1.09312,0.115168,0.037088,-8.98625,7.41125,-3.87625,43.248,6.104,54.104004,eccentric,3,3.0,22323.0,321500.0,291292.0,341174.0,299191.0
2026-04-07 17:55:58.101951,300043,1628452945,1628454185,-1.069696,0.083936,0.021472,-6.8075,6.86875,-4.34875,43.304,6.688,52.672,eccentric,3,3.0,22323.0,321500.0,291292.0,341174.0,299191.0
2026-04-07 17:55:58.103540,300044,1628461907,1628462942,-1.069696,0.083936,0.021472,-2.61625,7.25375,-4.095,43.304,6.688,52.672,eccentric,3,3.0,22323.0,321500.0,291292.0,341174.0,299191.0
2026-04-07 17:55:58.106013,300045,1628476407,1628477862,-1.048224,0.08784,0.027328,2.28375,6.965,-3.3775,43.152,6.088,52.2,eccentric,3,3.0,22323.0,321500.0,291292.0,341174.0,299191.0
2026-04-07 17:55:58.107542,300046,1628485390,1628486552,-1.048224,0.08784,0.035136,7.0,6.5975,-3.22,43.152,6.088,52.2,eccentric,3,3.0,22323.0,321500.0,291292.0,341174.0,299191.0
2026-04-07 17:55:58.111754,300047,1628494346,1628495290,-1.026752,0.109312,0.035136,9.72125,5.775,-2.56375,43.448,5.672,54.312004,eccentric,3,3.0,22323.0,321500.0,291292.0,341174.0,299191.0
2026-04-07 17:55:58.143715,300048,1628508854,1628510221,-1.007232,0.109312,0.037088,12.04,4.8125,-1.96,43.496002,5.92,52.704002,eccentric,3,3.0,22323.0,321500.0,291292.0,341174.0,299191.0
2026-04-07 17:55:58.145243,300049,1628517748,1628518894,-1.007232,0.109312,0.037088,13.25625,4.48,-1.33875,43.496002,5.92,52.704002,eccentric,3,3.0,22323.0,321500.0,291292.0,341174.0,299191.0
2026-04-07 17:55:58.148802,300050,1628526686,1628527583,-0.99552,0.115168,0.025376,14.77,3.9025,-0.805,42.736004,5.896,52.016003,eccentric,3,3.0,22323.0,321500.0,291292.0,341174.0,299191.0
2026-04-07 17:55:58.156691,300051,1628541197,1628542506,-0.99552,0.115168,0.025376,15.8375,4.24375,-0.4725,42.736004,5.896,52.016003,eccentric,3,3.0,22323.0,321500.0,291292.0,341174.0,299191.0
2026-04-07 17:55:58.183888,300061,1628550259,1628551261,-0.977952,0.111264,0.015616,16.1,3.8675,-0.48125,42.928,5.488,53.336002,eccentric,3,3.0,22751.0,324668.0,293551.0,343404.0,301083.0
2026-04-07 17:55:58.188158,300062,1628559269,1628560043,-0.977952,0.111264,0.015616,16.17,4.83,-0.51625,42.928,5.488,53.336002,eccentric,3,3.0,22751.0,324668.0,293551.0,343404.0,301083.0
2026-04-07 17:55:58.189715,300063,1628568683,1628570849,-0.962336,0.119072,0.03904,16.6775,5.215,-0.42,42.904003,5.616,54.000004,eccentric,3,3.0,22751.0,324668.0,293551.0,343404.0,301083.0
2026-04-07 17:55:58.219974,300064,1628583218,1628583698,-0.962336,0.119072,0.03904,18.40125,5.34625,-0.74375,42.904003,5.616,54.000004,eccentric,3,3.0,22751.0,324668.0,293551.0,343404.0,301083.0
2026-04-07 17:55:58.224445,300065,1628592577,1628594469,-0.940864,0.13664,0.046848,19.7925,4.78625,-0.84875,42.792004,5.416,51.800003,eccentric,3,3.0,22751.0,324668.0,293551.0,343404.0,301083.0
2026-04-07 17:55:58.226028,300066,1628601480,1628603156,-0.940864,0.13664,0.046848,19.01375,4.55875,-0.5075,42.792004,5.416,51.800003,eccentric,3,3.0,22751.0,324668.0,293551.0,343404.0,301083.0
2026-04-07 17:55:58.256229,300067,1628615995,1628618032,-0.933056,0.158112,0.052704,15.98625,4.68125,0.27125,43.208,5.24,51.952003,eccentric,3,3.0,22751.0,324668.0,293551.0,343404.0,301083.0
2026-04-07 17:55:58.264403,300068,1628624953,1628626790,-0.933056,0.158112,0.052704,10.885,4.34875,1.16375,43.208,5.24,51.952003,eccentric,3,3.0,22751.0,324668.0,293551.0,343404.0,301083.0
2026-04-07 17:55:58.266060,300069,1628633869,1628635496,-0.933056,0.109312,0.03904,4.76,4.725,2.065,42.952003,5.216,51.160004,eccentric,3,3.0,22751.0,324668.0,293551.0,343404.0,301083.0
2026-04-07 17:55:58.267639,300070,1628642813,1628644214,-0.933056,0.109312,0.03904,1.2775,4.06875,3.255,42.952003,5.216,51.160004,eccentric,3,3.0,22751.0,324668.0,293551.0,343404.0,301083.0
2026-04-07 17:55:58.296138,300081,1628657601,1628659154,-0.91744,0.066368,0.011712,0.105,3.2025,4.10375,43.024002,5.4,51.160004,eccentric,3,3.0,23007.0,326697.0,295165.0,345153.0,302569.0
2026-04-07 17:55:58.297647,300082,1628666543,1628667941,-0.91744,0.05856,0.0,0.98875,2.205,4.865,43.024002,5.4,49.336002,eccentric,3,3.0,23007.0,326697.0,295165.0,345153.0,302569.0
2026-04-07 17:55:58.301805,300083,1628675555,1628676658,-0.91744,0.05856,0.0,3.15,1.11125,6.67625,43.04,5.072,49.336002,eccentric,3,3.0,23007.0,326697.0,295165.0,345153.0,302569.0
2026-04-07 17:55:58.306830,300084,1628690086,1628691637,-0.938912,0.081984,-0.013664,4.54125,0.16625,7.81375,42.904003,5.12,52.304,eccentric,3,3.0,23007.0,326697.0,295165.0,345153.0,302569.0
2026-04-07 17:55:58.344897,300085,1628698986,1628700384,-0.938912,0.081984,-0.013664,5.81875,-0.44625,9.1175,42.904003,5.12,52.304,eccentric,3,3.0,23007.0,326697.0,295165.0,345153.0,302569.0
2026-04-07 17:55:58.349002,300086,1628707939,1628709071,-0.977952,0.0976,-0.013664,6.79875,-0.07,9.65125,43.272003,5.4,50.304,eccentric,3,3.0,23007.0,326697.0,295165.0,345153.0,302569.0
2026-04-07 17:55:58.349664,300087,1628722543,1628723991,-0.977952,0.0976,-0.013664,8.67125,0.20125,9.87,43.272003,5.4,50.304,eccentric,3,3.0,23007.0,326697.0,295165.0,345153.0,302569.0
2026-04-07 17:55:58.351415,300088,1628731560,1628732692,-0.91744,0.091744,0.025376,11.87375,-0.67375,9.6775,44.128002,5.312,50.392002,eccentric,3,3.0,23007.0,326697.0,295165.0,345153.0,302569.0
2026-04-07 17:55:58.379615,300089,1628740517,1628741391,-0.91744,0.091744,0.025376,16.09125,-1.33875,10.01,44.128002,5.312,50.392002,eccentric,3,3.0,23007.0,326697.0,295165.0,345153.0,302569.0
2026-04-07 17:55:58.403697,300099,1628749923,1628752178,-0.86864,0.076128,0.066368,20.62375,-2.91375,10.66625,43.072002,4.48,51.224003,eccentric,3,3.0,23311.0,329230.0,297261.0,347527.0,304690.0
2026-04-07 17:55:58.405182,300100,1628764506,1628765074,-0.86864,0.076128,0.066368,24.7625,-4.48875,12.01375,43.072002,4.48,51.224003,eccentric,3,3.0,23311.0,329230.0,297261.0,347527.0,304690.0
2026-04-07 17:55:58.409601,300101,1628773803,1628775848,-0.825696,0.064416,0.044896,25.92625,-6.4575,14.27125,42.688004,4.344,51.264004,eccentric,3,3.0,23311.0,329230.0,297261.0,347527.0,304690.0
2026-04-07 17:55:58.411239,300102,1628782824,1628784567,-0.825696,0.064416,0.044896,23.42375,-7.91875,16.56375,42.688004,4.344,51.264004,eccentric,3,3.0,23311.0,329230.0,297261.0,347527.0,304690.0
2026-04-07 17:55:58.412808,300103,1628791839,1628793267,-0.767136,0.037088,0.011712,21.09625,-8.98625,17.77125,42.688004,3.736,52.664,eccentric,3,3.0,23311.0,329230.0,297261.0,347527.0,304690.0
2026-04-07 17:55:58.443636,300104,1628806393,1628808323,-0.767136,0.037088,0.011712,18.69875,-8.84625,18.78625,42.688004,3.736,52.664,eccentric,3,3.0,23311.0,329230.0,297261.0,347527.0,304690.0
2026-04-07 17:55:58.448162,300105,1628815312,1628817039,-0.757376,0.060512,-0.003904,17.99875,-8.16375,19.0925,43.24,3.752,53.656002,eccentric,3,3.0,23311.0,329230.0,297261.0,347527.0,304690.0
2026-04-07 17:55:58.449785,300106,1628824235,1628825726,-0.757376,0.060512,-0.003904,18.08625,-6.76375,18.92625,43.24,3.752,53.656002,eccentric,3,3.0,23311.0,329230.0,297261.0,347527.0,304690.0
2026-04-07 17:55:58.455965,300107,1628838795,1628840704,-0.772992,0.130784,-0.013664,18.4975,-5.97625,18.48875,42.768,3.24,51.520004,eccentric,3,3.0,23311.0,329230.0,297261.0,347527.0,304690.0
2026-04-07 17:55:58.485693,300117,1628848274,1628849878,-0.77104,0.179584,0.017568,16.905,-4.8125,16.616251,42.36,2.376,53.08,eccentric,3,3.0,22900.0,325830.0,294340.0,344136.0,301417.0
2026-04-07 17:55:58.487355,300118,1628857290,1628858668,-0.77104,0.179584,0.017568,14.34125,-3.4475,15.1725,42.36,2.376,53.08,eccentric,3,3.0,22900.0,325830.0,294340.0,344136.0,301417.0
2026-04-07 17:55:58.488841,300119,1628871784,1628873656,-0.788608,0.173728,0.054656,11.68125,-2.415,13.5975,43.552002,3.312,51.264004,eccentric,3,3.0,22900.0,325830.0,294340.0,344136.0,301417.0
2026-04-07 17:55:58.520088,300120,1628880758,1628882437,-0.788608,0.173728,0.054656,10.68375,-1.61,10.4475,43.552002,3.312,51.264004,eccentric,3,3.0,22900.0,325830.0,294340.0,344136.0,301417.0
2026-04-07 17:55:58.524564,300121,1628889805,1628891144,-0.813984,0.148352,0.07808,11.68125,-1.435,7.77,42.672,2.664,51.688004,eccentric,3,3.0,22900.0,325830.0,294340.0,344136.0,301417.0
2026-04-07 17:55:58.527836,300122,1628898730,1628899847,-0.813984,0.148352,0.07808,15.54,-1.68875,5.24125,42.672,2.664,51.688004,eccentric,3,3.0,22900.0,325830.0,294340.0,344136.0,301417.0
2026-04-07 17:55:58.535697,300123,1628913214,1628914827,-0.821792,0.124928,0.064416,21.11375,-2.05625,3.01875,43.312,2.12,51.36,eccentric,3,3.0,22900.0,325830.0,294340.0,344136.0,301417.0
2026-04-07 17:55:58.537282,300124,1628922262,1628923534,-0.821792,0.124928,0.064416,24.33375,-2.31875,1.04125,43.312,2.12,51.36,eccentric,3,3.0,22900.0,325830.0,294340.0,344136.0,301417.0
2026-04-07 17:55:58.569552,300125,1628931216,1628932273,-0.821792,0.115168,0.046848,26.39875,-1.33875,-0.8925,42.736004,2.416,51.784004,eccentric,3,3.0,22900.0,325830.0,294340.0,344136.0,301417.0
2026-04-07 17:55:58.571355,300126,1628945686,1628947159,-0.821792,0.115168,0.046848,29.4175,-0.28875,-2.87875,42.736004,2.416,51.784004,eccentric,3,3.0,22900.0,325830.0,294340.0,344136.0,301417.0
2026-04-07 17:55:58.598577,300137,1628954701,1628955912,-0.835456,0.12688,0.035136,31.9025,1.63625,-5.11,43.000004,2.312,51.920002,eccentric,3,3.0,22936.0,326211.0,294528.0,344329.0,301445.0
2026-04-07 17:55:58.600268,300138,1628963582,1628964703,-0.835456,0.12688,0.035136,34.2825,3.57,-6.0375,43.000004,2.312,51.920002,eccentric,3,3.0,22936.0,326211.0,294528.0,344329.0,301445.0
2026-04-07 17:55:58.604375,300139,1628978140,1628979681,-0.91744,0.179584,0.080032,33.6,6.0725,-6.79875,42.664,1.712,52.992004,eccentric,3,3.0,22936.0,326211.0,294528.0,344329.0,301445.0
2026-04-07 17:55:58.605916,300140,1628987144,1628988385,-0.91744,0.179584,0.080032,27.65,8.2075,-8.26875,42.664,1.712,52.992004,eccentric,3,3.0,22936.0,326211.0,294528.0,344329.0,301445.0
2026-04-07 17:55:58.614237,300141,1628996021,1628997142,-1.016992,0.220576,0.183488,17.0625,9.625,-9.94,42.72,1.64,52.584003,eccentric,3,3.0,22936.0,326211.0,294528.0,344329.0,301445.0
2026-04-07 17:55:58.651202,300142,1629004907,1629005855,-1.016992,0.220576,0.183488,3.5175,9.38875,-11.1125,42.72,1.64,52.584003,eccentric,3,3.0,22936.0,326211.0,294528.0,344329.0,301445.0
2026-04-07 17:55:58.655627,300143,1629019427,1629020797,-1.08336,0.21472,0.28304,-10.395,9.37125,-14.16625,43.120003,2.192,51.912003,eccentric,3,3.0,22936.0,326211.0,294528.0,344329.0,301445.0
2026-04-07 17:55:58.657480,300144,1629028319,1629029494,-1.136064,0.220576,0.2928,-22.12,8.56625,-16.905,43.120003,2.488,49.024002,eccentric,3,3.0,22936.0,326211.0,294528.0,344329.0,301445.0
2026-04-07 17:55:58.658969,300145,1629037222,1629038189,-1.136064,0.220576,0.2928,-30.52875,7.34125,-16.47625,43.288002,2.488,49.024002,eccentric,3,3.0,22936.0,326211.0,294528.0,344329.0,301445.0
2026-04-07 17:55:58.685649,300155,1629052070,1629053165,-1.143872,0.199104,0.193248,-35.55125,5.94125,-18.08625,42.872,3.008,52.160004,eccentric,3,3.0,23140.0,327260.0,295280.0,345049.0,302212.0
2026-04-07 17:55:58.687373,300156,1629061023,1629061876,-1.143872,0.199104,0.193248,-37.3975,5.1975,-17.0975,42.872,3.008,52.160004,eccentric,3,3.0,23140.0,327260.0,295280.0,345049.0,302212.0
2026-04-07 17:55:58.688934,300157,1629070550,1629072684,-1.100928,0.183488,0.089792,-38.19375,4.66375,-14.67375,43.120003,3.224,52.280003,eccentric,3,3.0,23140.0,327260.0,295280.0,345049.0,302212.0
2026-04-07 17:55:58.719990,300158,1629079484,1629081386,-1.100928,0.183488,0.089792,-40.1275,5.55625,-12.88875,43.120003,3.224,52.280003,eccentric,3,3.0,23140.0,327260.0,295280.0,345049.0,302212.0
2026-04-07 17:55:58.722241,300159,1629093970,1629094317,-1.046272,0.122976,0.015616,-41.86,6.39625,-12.9325,43.104004,3.464,50.72,eccentric,3,3.0,23140.0,327260.0,295280.0,345049.0,302212.0
2026-04-07 17:55:58.726897,300160,1629103198,1629105096,-1.046272,0.122976,0.015616,-43.6975,7.81375,-10.33375,43.104004,3.464,50.72,eccentric,3,3.0,23140.0,327260.0,295280.0,345049.0,302212.0
2026-04-07 17:55:58.728490,300161,1629112119,1629113782,-1.01504,0.070272,-0.001952,-43.9425,8.60125,-8.9775,43.52,4.024,50.392002,eccentric,3,3.0,23140.0,327260.0,295280.0,345049.0,302212.0
2026-04-07 17:55:58.758745,300162,1629126597,1629128690,-1.01504,0.070272,-0.001952,-41.5975,9.1,-7.63875,43.52,4.024,50.392002,eccentric,3,3.0,23140.0,327260.0,295280.0,345049.0,302212.0
2026-04-07 17:55:58.760281,300163,1629135508,1629137438,-1.016992,0.0488,0.062464,-36.7675,9.38,-5.6,42.872,4.144,50.088,eccentric,3,3.0,23140.0,327260.0,295280.0,345049.0,302212.0
2026-04-07 17:55:58.765678,300164,1629144399,1629146125,-1.016992,0.0488,0.062464,-28.6825,8.35625,-4.68125,42.872,4.144,50.088,eccentric,3,3.0,23140.0,327260.0,295280.0,345049.0,302212.0
2026-04-07 17:55:58.788833,300174,1629159005,1629161086,-0.979904,0.076128,0.121024,-18.69,6.32625,-3.15,43.664,4.16,50.112003,eccentric,3,3.0,22991.0,326267.0,294485.0,344170.0,301431.0
2026-04-07 17:55:58.793156,300175,1629167949,1629169787,-0.979904,0.076128,0.121024,-7.44625,3.98125,-1.33,43.664,4.16,50.112003,eccentric,3,3.0,22991.0,326267.0,294485.0,344170.0,301431.0
2026-04-07 17:55:58.794696,300176,1629176897,1629178482,-0.96624,0.109312,0.169824,4.89125,1.86375,-0.9275,43.480003,4.36,50.584003,eccentric,3,3.0,22991.0,326267.0,294485.0,344170.0,301431.0
2026-04-07 17:55:58.824902,300177,1629191444,1629193393,-0.997472,0.17568,0.160064,17.0625,-0.28875,0.5425,43.976,3.48,50.440002,eccentric,3,3.0,22991.0,326267.0,294485.0,344170.0,301431.0
2026-04-07 17:55:58.829464,300178,1629200384,1629202116,-0.997472,0.17568,0.160064,27.65,-1.25125,0.90125,43.976,3.48,50.440002,eccentric,3,3.0,22991.0,326267.0,294485.0,344170.0,301431.0
2026-04-07 17:55:58.831067,300179,1629209280,1629210827,-1.011136,0.238144,0.132736,34.71125,-2.28375,-0.16625,41.928,3.328,50.128002,eccentric,3,3.0,22991.0,326267.0,294485.0,344170.0,301431.0
2026-04-07 17:55:58.833036,300180,1629218200,1629219562,-1.011136,0.238144,0.132736,39.01625,-2.02125,-1.93375,42.960003,3.328,50.128002,eccentric,3,3.0,22991.0,326267.0,294485.0,344170.0,301431.0
2026-04-07 17:55:58.862799,300181,1629232695,1629234497,-1.040416,0.23424,0.101504,41.74625,0.14875,-4.61125,43.432003,3.056,52.144,eccentric,3,3.0,22991.0,326267.0,294485.0,344170.0,301431.0
2026-04-07 17:55:58.867416,300182,1629241598,1629243180,-1.040416,0.23424,0.101504,43.98625,2.4675,-8.56625,43.432003,3.056,52.144,eccentric,3,3.0,22991.0,326267.0,294485.0,344170.0,301431.0
2026-04-07 17:55:58.901333,300193,1629250714,1629252068,-1.057984,0.242048,0.052704,47.2675,4.22625,-11.7775,43.352,3.056,52.216003,eccentric,3,3.0,23558.0,330896.0,298312.0,348613.0,305496.0
2026-04-07 17:55:58.904504,300194,1629265258,1629267046,-1.057984,0.242048,0.052704,50.19875,6.6325,-16.28375,43.352,3.056,52.216003,eccentric,3,3.0,23558.0,330896.0,298312.0,348613.0,305496.0
2026-04-07 17:55:58.906131,300195,1629274244,1629275777,-1.052128,0.257664,0.050752,48.36125,9.3975,-19.88,42.656002,2.416,51.856003,eccentric,3,3.0,23558.0,330896.0,298312.0,348613.0,305496.0
2026-04-07 17:55:58.907680,300196,1629283209,1629284523,-1.052128,0.257664,0.050752,42.70875,13.0375,-23.80875,42.656002,2.416,51.856003,eccentric,3,3.0,23558.0,330896.0,298312.0,348613.0,305496.0
2026-04-07 17:55:58.914273,300197,1629297735,1629299498,-1.05408,0.183488,0.054656,35.945,15.86375,-25.64625,43.032,2.592,52.352,eccentric,3,3.0,23558.0,330896.0,298312.0,348613.0,305496.0
2026-04-07 17:55:58.942823,300198,1629306655,1629308199,-1.05408,0.183488,0.054656,31.272501,17.78875,-26.2675,43.032,2.592,52.352,eccentric,3,3.0,23558.0,330896.0,298312.0,348613.0,305496.0
2026-04-07 17:55:58.946423,300199,1629315571,1629316883,-1.052128,0.132736,0.060512,29.12875,17.57,-26.5825,43.904003,3.064,51.512,eccentric,3,3.0,23558.0,330896.0,298312.0,348613.0,305496.0
2026-04-07 17:55:58.948883,300200,1629324529,1629325591,-1.052128,0.132736,0.060512,27.83375,17.52625,-26.66125,43.904003,3.064,51.512,eccentric,3,3.0,23558.0,330896.0,298312.0,348613.0,305496.0
2026-04-07 17:55:58.953914,300201,1629339050,1629340488,-1.071648,0.124928,0.03904,25.76,17.57,-25.73375,43.392002,2.648,51.768,eccentric,3,3.0,23558.0,330896.0,298312.0,348613.0,305496.0
2026-04-07 17:55:58.985055,300202,1629348021,1629349210,-1.071648,0.124928,0.03904,22.61,17.85,-23.82625,43.392002,2.648,51.768,eccentric,3,3.0,23558.0,330896.0,298312.0,348613.0,305496.0
2026-04-07 17:55:59.011922,300212,1629356930,1629357969,-1.095072,0.124928,0.015616,17.4825,17.99,-22.47,43.72,2.704,52.36,eccentric,3,3.0,23758.0,332596.0,299829.0,350387.0,307090.0
2026-04-07 17:55:59.013694,300213,1629371422,1629372851,-1.0736,0.08784,0.017568,11.445,17.70125,-20.991251,43.552002,3.144,51.128002,eccentric,3,3.0,23758.0,332596.0,299829.0,350387.0,307090.0
2026-04-07 17:55:59.015129,300214,1629380397,1629381683,-1.0736,0.08784,0.017568,8.39125,17.22,-19.3725,43.552002,3.144,51.128002,eccentric,3,3.0,23758.0,332596.0,299829.0,350387.0,307090.0
2026-04-07 17:55:59.019424,300215,1629389341,1629390409,-1.0736,0.08784,0.01952,7.18375,15.995,-17.255,43.552002,3.144,51.128002,eccentric,3,3.0,23758.0,332596.0,299829.0,350387.0,307090.0
2026-04-07 17:55:59.020887,300216,1629403867,1629405361,-1.085312,0.095648,0.01952,7.07875,14.525,-16.38,42.744003,2.408,53.728004,eccentric,3,3.0,23758.0,332596.0,299829.0,350387.0,307090.0
2026-04-07 17:55:59.053271,300217,1629412815,1629414071,-1.104832,0.144448,0.007808,7.72625,12.71375,-15.9075,42.464,2.448,52.608,eccentric,3,3.0,23758.0,332596.0,299829.0,350387.0,307090.0
2026-04-07 17:55:59.054905,300218,1629421718,1629422794,-1.104832,0.144448,0.007808,9.31,10.9025,-14.595,42.464,2.448,52.608,eccentric,3,3.0,23758.0,332596.0,299829.0,350387.0,307090.0
2026-04-07 17:55:59.059786,300219,1629436185,1629437669,-1.100928,0.187392,-0.01952,11.042501,9.975,-13.62375,43.064003,3.312,50.888004,eccentric,3,3.0,23758.0,332596.0,299829.0,350387.0,307090.0
2026-04-07 17:55:59.063404,300220,1629445091,1629446350,-1.100928,0.187392,-0.01952,11.698751,9.5725,-12.775,43.064003,3.312,50.888004,eccentric,3,3.0,23758.0,332596.0,299829.0,350387.0,307090.0
2026-04-07 17:55:59.094574,300230,1629454241,1629455255,-1.065792,0.183488,0.001952,10.2725,9.82625,-13.685,44.296,3.048,50.504,eccentric,3,3.0,23751.0,333114.0,300529.0,351341.0,307995.0
2026-04-07 17:55:59.096039,300231,1629463298,1629464048,-1.065792,0.183488,0.001952,9.66,9.52,-16.14375,44.296,3.048,50.504,eccentric,3,3.0,23751.0,333114.0,300529.0,351341.0,307995.0
2026-04-07 17:55:59.097592,300232,1629478233,1629478978,-1.059936,0.183488,0.015616,9.19625,8.79375,-15.6975,43.592003,3.072,51.072002,eccentric,3,3.0,23751.0,333114.0,300529.0,351341.0,307995.0
2026-04-07 17:55:59.105525,300233,1629487595,1629489767,-1.059936,0.183488,0.015616,10.63125,8.0675,-16.345,43.592003,3.072,51.072002,eccentric,3,3.0,23751.0,333114.0,300529.0,351341.0,307995.0
2026-04-07 17:55:59.134102,300234,1629496523,1629498457,-1.046272,0.152256,0.017568,13.658751,7.32375,-16.52875,42.936,2.576,52.288002,eccentric,3,3.0,23751.0,333114.0,300529.0,351341.0,307995.0
2026-04-07 17:55:59.139388,300235,1629510993,1629511310,-1.01504,0.167872,0.001952,16.31,6.41375,-16.79125,43.816,2.888,50.784004,eccentric,3,3.0,23751.0,333114.0,300529.0,351341.0,307995.0
2026-04-07 17:55:59.141107,300236,1629520258,1629522074,-1.01504,0.167872,0.001952,17.3775,5.565,-17.10625,43.816,2.888,50.784004,eccentric,3,3.0,23751.0,333114.0,300529.0,351341.0,307995.0
2026-04-07 17:55:59.146893,300237,1629529170,1629530808,-1.01504,0.167872,0.001952,16.21375,5.7575,-17.6225,43.816,2.888,50.784004,eccentric,3,3.0,23751.0,333114.0,300529.0,351341.0,307995.0
2026-04-07 17:55:59.175398,300238,1629538180,1629539524,-1.003328,0.177632,-0.001952,14.3675,6.37,-17.605,43.088,2.736,52.344,eccentric,3,3.0,23751.0,333114.0,300529.0,351341.0,307995.0
2026-04-07 17:55:59.204874,300249,1629553102,1629554468,-0.989664,0.177632,0.00976,12.85375,6.81625,-17.33375,43.464,2.352,51.384003,eccentric,3,3.0,23621.0,332474.0,300183.0,351035.0,307669.0
2026-04-07 17:55:59.206530,300250,1629562095,1629563241,-0.989664,0.177632,0.00976,12.24125,7.69125,-17.535,43.464,2.352,51.384003,eccentric,3,3.0,23621.0,332474.0,300183.0,351035.0,307669.0
2026-04-07 17:55:59.213255,300251,1629571034,1629571935,-0.99552,0.163968,0.033184,10.24625,7.83125,-18.06,42.928,2.504,54.760002,eccentric,3,3.0,23621.0,332474.0,300183.0,351035.0,307669.0
2026-04-07 17:55:59.213314,300252,1629585701,1629586793,-0.99552,0.163968,0.033184,9.9225,8.09375,-17.64,42.928,2.504,54.760002,eccentric,3,3.0,23621.0,332474.0,300183.0,351035.0,307669.0
2026-04-07 17:55:59.214741,300253,1629594618,1629595547,-1.013088,0.160064,0.054656,10.92,7.74375,-16.415,43.632004,2.84,52.304,eccentric,3,3.0,23621.0,332474.0,300183.0,351035.0,307669.0
2026-04-07 17:55:59.222990,300254,1629603654,1629604264,-1.013088,0.160064,0.054656,12.915,6.51,-14.945,43.632004,2.84,52.304,eccentric,3,3.0,23621.0,332474.0,300183.0,351035.0,307669.0
2026-04-07 17:55:59.247830,300255,1629612927,1629615034,-1.03456,0.142496,0.070272,14.44625,5.74,-14.25375,43.856003,2.656,51.496002,eccentric,3,3.0,23621.0,332474.0,300183.0,351035.0,307669.0
2026-04-07 17:55:59.251914,300256,1629627443,1629627865,-1.03456,0.142496,0.070272,16.8875,4.94375,-13.02875,43.856003,2.656,51.496002,eccentric,3,3.0,23621.0,332474.0,300183.0,351035.0,307669.0
2026-04-07 17:55:59.254666,300257,1629636720,1629638639,-1.038464,0.138592,0.066368,21.428751,3.5525,-12.08375,43.552002,2.488,51.72,eccentric,3,3.0,23621.0,332474.0,300183.0,351035.0,307669.0
2026-04-07 17:55:59.260865,300258,1629645666,1629647374,-1.038464,0.138592,0.066368,26.3025,2.51125,-11.7075,43.552002,2.488,51.72,eccentric,3,3.0,23621.0,332474.0,300183.0,351035.0,307669.0
2026-04-07 17:55:59.312431,300268,1629655171,1629656373,-1.048224,0.208864,0.0488,29.81125,0.9625,-11.4625,43.04,2.12,53.056004,eccentric,3,3.0,23537.0,331866.0,299746.0,350615.0,307266.0
2026-04-07 17:55:59.313585,300269,1629669689,1629671279,-1.048224,0.208864,0.0488,30.2225,0.90125,-9.72125,43.04,2.12,53.056004,eccentric,3,3.0,23537.0,331866.0,299746.0,350615.0,307266.0
2026-04-07 17:55:59.315431,300270,1629678624,1629679962,-1.040416,0.216672,0.040992,27.48375,1.54875,-9.98375,43.232002,2.44,51.760002,eccentric,3,3.0,23537.0,331866.0,299746.0,350615.0,307266.0
2026-04-07 17:55:59.319493,300271,1629687582,1629688754,-1.040416,0.216672,0.040992,24.07125,1.1725,-8.9775,43.232002,2.44,51.760002,eccentric,3,3.0,23537.0,331866.0,299746.0,350615.0,307266.0
2026-04-07 17:55:59.320907,300272,1629702160,1629703674,-1.03456,0.187392,0.015616,20.23875,1.82,-6.69375,43.600002,1.864,51.832,eccentric,3,3.0,23537.0,331866.0,299746.0,350615.0,307266.0
2026-04-07 17:55:59.328090,300273,1629711192,1629712394,-1.03456,0.150304,0.003904,17.78,1.995,-6.76375,43.600002,1.864,51.832,eccentric,3,3.0,23537.0,331866.0,299746.0,350615.0,307266.0
2026-04-07 17:55:59.359843,300274,1629720237,1629721096,-1.040416,0.150304,0.003904,16.94875,2.77375,-5.705,43.496002,2.592,52.984,eccentric,3,3.0,23537.0,331866.0,299746.0,350615.0,307266.0
2026-04-07 17:55:59.364354,300275,1629734746,1629736006,-1.03456,0.122976,0.0,17.85875,2.96625,-4.96125,43.56,1.416,51.952003,eccentric,3,3.0,23537.0,331866.0,299746.0,350615.0,307266.0
2026-04-07 17:55:59.366097,300276,1629743670,1629744736,-1.03456,0.122976,0.0,19.83625,2.59875,-4.655,43.56,1.416,51.952003,eccentric,3,3.0,23537.0,331866.0,299746.0,350615.0,307266.0
2026-04-07 17:55:59.390300,300286,1629752671,1629753457,-1.03456,0.144448,0.00976,22.02375,2.82625,-3.115,43.352,1.832,51.256004,eccentric,3,3.0,23447.0,331364.0,299400.0,350271.0,306950.0
2026-04-07 17:55:59.394413,300287,1629762158,1629764328,-1.03456,0.144448,0.00976,24.28125,2.61625,-2.38875,43.352,1.832,51.256004,eccentric,3,3.0,23447.0,331364.0,299400.0,350271.0,306950.0
2026-04-07 17:55:59.396009,300288,1629776667,1629777200,-1.0248,0.17568,0.015616,25.305,2.485,-1.7675,43.848003,1.456,53.424004,eccentric,3,3.0,23447.0,331364.0,299400.0,350271.0,306950.0
2026-04-07 17:55:59.403027,300289,1629786075,1629787970,-1.0248,0.17568,0.015616,23.4675,2.7125,-0.7525,43.848003,1.456,53.424004,eccentric,3,3.0,23447.0,331364.0,299400.0,350271.0,306950.0
2026-04-07 17:55:59.431494,300290,1629795003,1629796735,-1.032608,0.171776,0.023424,20.02,2.38,0.35,43.4,0.768,53.504,concentric,3,3.0,23447.0,331364.0,299400.0,350271.0,306950.0
2026-04-07 17:55:59.436081,300291,1629803924,1629805418,-1.032608,0.171776,0.023424,15.86375,2.65125,1.5575,43.4,0.768,53.504,concentric,3,3.0,23447.0,331364.0,299400.0,350271.0,306950.0
2026-04-07 17:55:59.439325,300292,1629818441,1629820367,-1.050176,0.1464,0.00976,13.7025,2.47625,2.07375,43.656002,1.312,52.064003,concentric,3,3.0,23447.0,331364.0,299400.0,350271.0,306950.0
2026-04-07 17:55:59.444245,300293,1629827358,1629829099,-1.050176,0.1464,0.00976,11.7775,2.4675,1.96,43.656002,1.312,52.064003,concentric,3,3.0,23447.0,331364.0,299400.0,350271.0,306950.0
2026-04-07 17:55:59.472872,300294,1629836365,1629837849,-1.040416,0.115168,0.00976,9.37125,2.1175,1.46125,43.696003,0.464,52.224003,concentric,3,3.0,23447.0,331364.0,299400.0,350271.0,306950.0
2026-04-07 17:55:59.476636,300295,1629850840,1629852722,-1.040416,0.115168,0.00976,7.49875,2.345,-0.1575,43.696003,0.464,52.224003,concentric,3,3.0,23447.0,331364.0,299400.0,350271.0,306950.0
2026-04-07 17:55:59.504895,300306,1629859838,1629861444,-1.05408,0.113216,0.023424,4.34,2.23125,-1.75,43.504,1.0,52.248,concentric,3,3.0,23362.0,330582.0,298739.0,349514.0,306264.0
2026-04-07 17:55:59.506485,300307,1629868801,1629870243,-1.05408,0.113216,0.023424,1.98625,2.33625,-3.29875,43.504,1.0,52.248,concentric,3,3.0,23362.0,330582.0,298739.0,349514.0,306264.0
2026-04-07 17:55:59.510631,300308,1629883441,1629885187,-1.046272,0.111264,0.02928,-2.12625,2.94875,-4.38375,43.752003,0.6,52.672,concentric,3,3.0,23362.0,330582.0,298739.0,349514.0,306264.0
2026-04-07 17:55:59.514079,300309,1629892426,1629893951,-1.030656,0.109312,0.011712,-7.13125,2.73875,-5.075,43.864002,1.088,52.128002,concentric,3,3.0,23362.0,330582.0,298739.0,349514.0,306264.0
2026-04-07 17:55:59.518076,300310,1629901357,1629902662,-1.030656,0.109312,0.011712,-12.1975,2.98375,-6.60625,43.864002,1.088,52.128002,concentric,3,3.0,23362.0,330582.0,298739.0,349514.0,306264.0
2026-04-07 17:55:59.546629,300311,1629915842,1629917580,-1.042368,0.109312,0.0,-17.35125,3.40375,-6.20375,43.528004,1.504,53.248,concentric,3,3.0,23362.0,330582.0,298739.0,349514.0,306264.0
2026-04-07 17:55:59.551259,300312,1629924772,1629926355,-1.042368,0.109312,0.0,-21.7525,3.36875,-3.2725,43.528004,1.504,53.248,concentric,3,3.0,23362.0,330582.0,298739.0,349514.0,306264.0
2026-04-07 17:55:59.552933,300313,1629933685,1629935054,-1.030656,0.121024,0.003904,-22.93375,4.33125,-4.57625,43.784,1.544,51.912003,concentric,3,3.0,23362.0,330582.0,298739.0,349514.0,306264.0
2026-04-07 17:55:59.559337,300314,1629942630,1629943754,-1.030656,0.121024,0.003904,-23.56375,4.1125,-3.6925,43.784,1.544,51.912003,concentric,3,3.0,23362.0,330582.0,298739.0,349514.0,306264.0
2026-04-07 17:55:59.611383,300324,1629957382,1629958702,-1.061888,0.162016,0.003904,-24.57875,3.85875,-2.0825,43.72,1.224,51.968002,concentric,3,3.0,23032.0,327648.0,296219.0,346603.0,303639.0
2026-04-07 17:55:59.615600,300325,1629966319,1629967407,-1.061888,0.162016,0.003904,-24.928751,4.12125,-1.77625,43.72,1.224,51.968002,concentric,3,3.0,23032.0,327648.0,296219.0,346603.0,303639.0
2026-04-07 17:55:59.617473,300326,1629975206,1629976086,-1.050176,0.169824,0.021472,-25.75125,4.10375,-1.68875,43.608,1.472,51.960003,concentric,3,3.0,23032.0,327648.0,296219.0,346603.0,303639.0
2026-04-07 17:55:59.621217,300327,1629989733,1629991012,-1.050176,0.169824,0.021472,-26.52125,4.1475,-0.55125,43.608,1.472,51.960003,concentric,3,3.0,23032.0,327648.0,296219.0,346603.0,303639.0
2026-04-07 17:55:59.621457,300328,1629998720,1629999742,-1.046272,0.154208,0.027328,-26.39,3.73625,-1.12,44.136,1.808,51.896004,concentric,3,3.0,23032.0,327648.0,296219.0,346603.0,303639.0
2026-04-07 17:55:59.625565,300329,1630007627,1630008459,-1.046272,0.154208,0.027328,-26.39,4.1825,-1.05,44.136,1.808,51.896004,concentric,3,3.0,23032.0,327648.0,296219.0,346603.0,303639.0
2026-04-07 17:55:59.654035,300330,1630022122,1630023358,-1.038464,0.148352,0.042944,-26.22375,3.675,-1.6275,43.944,1.768,51.824,concentric,3,3.0,23032.0,327648.0,296219.0,346603.0,303639.0
2026-04-07 17:55:59.661938,300331,1630031025,1630032094,-1.038464,0.148352,0.042944,-25.61125,3.94625,-0.91875,43.944,1.768,51.824,concentric,3,3.0,23032.0,327648.0,296219.0,346603.0,303639.0
2026-04-07 17:55:59.663648,300332,1630039924,1630040763,-1.052128,0.1464,0.037088,-24.92,4.05125,-1.2425,43.976,2.152,51.448,concentric,3,3.0,23032.0,327648.0,296219.0,346603.0,303639.0
2026-04-07 17:55:59.665362,300333,1630048880,1630049560,-1.052128,0.1464,0.037088,-25.34,3.66625,-1.05,43.976,2.152,51.448,concentric,3,3.0,23032.0,327648.0,296219.0,346603.0,303639.0
2026-04-07 17:55:59.696216,300343,1630063793,1630064567,-1.061888,0.13664,0.0488,-25.655,3.255,-0.98,43.840004,2.168,52.776,concentric,3,3.0,22549.0,323616.0,292953.0,342998.0,300388.0
2026-04-07 17:55:59.702718,300344,1630073308,1630075386,-1.08336,0.128832,0.0488,-23.94,2.5375,-2.10875,43.488003,2.184,54.88,concentric,3,3.0,22549.0,323616.0,292953.0,342998.0,300388.0
2026-04-07 17:55:59.702795,300345,1630082233,1630084097,-1.08336,0.128832,0.0488,-21.83125,1.785,-1.8025,43.488003,2.184,54.88,concentric,3,3.0,22549.0,323616.0,292953.0,342998.0,300388.0
2026-04-07 17:55:59.735019,300346,1630096723,1630097084,-1.09312,0.13664,0.037088,-19.59125,0.58625,-1.3825,44.104004,2.08,51.24,concentric,3,3.0,22549.0,323616.0,292953.0,342998.0,300388.0
2026-04-07 17:55:59.737222,300347,1630105961,1630107867,-1.09312,0.13664,0.037088,-16.1525,-0.665,-1.4525,44.104004,2.08,51.24,concentric,3,3.0,22549.0,323616.0,292953.0,342998.0,300388.0
2026-04-07 17:55:59.741870,300348,1630114846,1630116539,-1.095072,0.140544,0.040992,-12.66125,-1.70625,-1.04125,43.648003,3.184,51.456,concentric,3,3.0,22549.0,323616.0,292953.0,342998.0,300388.0
2026-04-07 17:55:59.743468,300349,1630123766,1630125213,-1.095072,0.140544,0.040992,-11.3925,-2.31875,-1.14625,43.648003,3.184,51.456,concentric,3,3.0,22549.0,323616.0,292953.0,342998.0,300388.0
2026-04-07 17:55:59.773744,300350,1630138265,1630140201,-1.079456,0.154208,0.062464,-9.3625,-3.14125,-0.4375,44.272003,2.544,51.408,concentric,3,3.0,22549.0,323616.0,292953.0,342998.0,300388.0
2026-04-07 17:55:59.775952,300351,1630147165,1630148896,-1.079456,0.154208,0.062464,-7.60375,-3.57875,-0.3325,44.272003,2.544,51.408,concentric,3,3.0,22549.0,323616.0,292953.0,342998.0,300388.0
2026-04-07 17:55:59.804872,300362,1630156181,1630157623,-1.065792,0.163968,0.091744,-6.95625,-4.31375,-0.98875,44.280003,2.304,51.672,concentric,3,3.0,22714.0,324847.0,293911.0,343949.0,301345.0
2026-04-07 17:55:59.806402,300363,1630170710,1630172595,-1.065792,0.163968,0.091744,-7.49,-4.2525,-0.1925,44.280003,2.304,51.672,concentric,3,3.0,22714.0,324847.0,293911.0,343949.0,301345.0
2026-04-07 17:55:59.810659,300364,1630179724,1630181304,-1.069696,0.152256,0.089792,-9.58125,-4.97,-0.2275,43.672,2.56,53.328003,concentric,3,3.0,22714.0,324847.0,293911.0,343949.0,301345.0
2026-04-07 17:55:59.812238,300365,1630188725,1630190036,-1.069696,0.152256,0.089792,-11.655,-5.22375,0.14875,43.672,2.56,53.328003,concentric,3,3.0,22714.0,324847.0,293911.0,343949.0,301345.0
2026-04-07 17:55:59.819273,300366,1630203227,1630205016,-1.065792,0.128832,0.072224,-13.0375,-5.88,0.6125,44.408,3.192,53.816,concentric,3,3.0,22714.0,324847.0,293911.0,343949.0,301345.0
2026-04-07 17:55:59.847754,300367,1630212172,1630213730,-1.065792,0.128832,0.072224,-12.005,-5.9325,1.00625,44.408,3.192,53.816,concentric,3,3.0,22714.0,324847.0,293911.0,343949.0,301345.0
2026-04-07 17:55:59.852331,300368,1630221161,1630222424,-1.067744,0.132736,0.056608,-8.89,-6.2825,-0.0175,43.848003,2.912,53.000004,concentric,3,3.0,22714.0,324847.0,293911.0,343949.0,301345.0
2026-04-07 17:55:59.853813,300369,1630230068,1630231146,-1.067744,0.132736,0.056608,-5.90625,-6.78125,-0.9975,43.848003,2.912,53.000004,concentric,3,3.0,22714.0,324847.0,293911.0,343949.0,301345.0
2026-04-07 17:55:59.864507,300370,1630244678,1630246122,-1.048224,0.15616,0.056608,-3.68375,-7.175,-1.7325,43.808002,2.504,51.728,concentric,3,3.0,22714.0,324847.0,293911.0,343949.0,301345.0
2026-04-07 17:55:59.890015,300371,1630253617,1630254830,-1.048224,0.154208,0.066368,-2.8525,-6.5625,-2.68625,43.808002,2.504,51.728,concentric,3,3.0,22714.0,324847.0,293911.0,343949.0,301345.0
2026-04-07 17:55:59.922643,300381,1630262675,1630263601,-1.059936,0.154208,0.066368,-2.82625,-6.7375,-2.73,43.936,3.064,51.840004,concentric,3,3.0,23304.0,329371.0,297390.0,347703.0,304663.0
2026-04-07 17:55:59.926853,300382,1630277183,1630278490,-1.067744,0.134688,0.060512,-3.0625,-7.14875,-3.15875,43.976,3.232,52.056004,concentric,3,3.0,23304.0,329371.0,297390.0,347703.0,304663.0
2026-04-07 17:55:59.928559,300383,1630286226,1630287216,-1.067744,0.134688,0.060512,-5.17125,-6.23875,-3.64875,43.976,3.232,52.056004,concentric,3,3.0,23304.0,329371.0,297390.0,347703.0,304663.0
2026-04-07 17:55:59.930198,300384,1630295226,1630296022,-1.06384,0.10736,0.052704,-8.4525,-5.04875,-3.91125,43.176003,2.864,52.824,concentric,3,3.0,23304.0,329371.0,297390.0,347703.0,304663.0
2026-04-07 17:55:59.934497,300385,1630304821,1630306829,-1.06384,0.10736,0.052704,-10.64875,-4.03375,-5.38125,43.176003,2.864,52.824,concentric,3,3.0,23304.0,329371.0,297390.0,347703.0,304663.0
2026-04-07 17:55:59.936276,300386,1630319342,1630319714,-1.069696,0.119072,0.042944,-12.04,-3.36875,-6.18625,43.52,3.2,52.800003,concentric,3,3.0,23304.0,329371.0,297390.0,347703.0,304663.0
2026-04-07 17:55:59.966304,300387,1630328624,1630330504,-1.069696,0.119072,0.042944,-11.4625,-2.75625,-6.50125,43.52,3.2,52.800003,concentric,3,3.0,23304.0,329371.0,297390.0,347703.0,304663.0
2026-04-07 17:55:59.970653,300388,1630337538,1630339193,-1.067744,0.1464,0.046848,-10.255,-2.51125,-7.315,43.480003,3.376,51.832,concentric,3,3.0,23304.0,329371.0,297390.0,347703.0,304663.0
2026-04-07 17:55:59.972379,300389,1630352003,1630354090,-1.067744,0.1464,0.046848,-8.8725,-1.93375,-6.8775,43.480003,3.376,51.832,concentric,3,3.0,23304.0,329371.0,297390.0,347703.0,304663.0
2026-04-07 17:55:59.996283,300399,1630361043,1630362902,-1.067744,0.16592,0.054656,-8.417501,-2.17875,-6.79,43.584003,3.208,52.232002,concentric,3,3.0,23290.0,329087.0,297121.0,347315.0,304254.0
2026-04-07 17:56:00.000618,300400,1630370040,1630371739,-1.067744,0.16592,0.054656,-8.93375,-2.09125,-6.37,43.584003,3.208,52.232002,concentric,3,3.0,23290.0,329087.0,297121.0,347315.0,304254.0
2026-04-07 17:56:00.002211,300401,1630384562,1630386739,-1.08336,0.154208,0.054656,-9.9925,-1.5225,-6.02,43.696003,3.176,52.304,concentric,3,3.0,23290.0,329087.0,297121.0,347315.0,304254.0
2026-04-07 17:56:00.013037,300402,1630393514,1630395456,-1.08336,0.154208,0.054656,-10.605001,-1.30375,-6.265,43.696003,3.176,52.304,concentric,3,3.0,23290.0,329087.0,297121.0,347315.0,304254.0
2026-04-07 17:56:00.041565,300403,1630402571,1630404197,-1.0736,0.13664,0.060512,-10.2375,-1.225,-6.29125,43.696003,3.68,50.136,concentric,3,3.0,23290.0,329087.0,297121.0,347315.0,304254.0
2026-04-07 17:56:00.046175,300404,1630411503,1630412911,-1.0736,0.13664,0.060512,-8.77625,-0.77875,-6.7725,43.696003,3.68,50.136,concentric,3,3.0,23290.0,329087.0,297121.0,347315.0,304254.0
2026-04-07 17:56:00.048387,300405,1630426009,1630427825,-1.0736,0.132736,0.062464,-6.86875,-0.62125,-7.51625,43.776,3.736,52.248,concentric,3,3.0,23290.0,329087.0,297121.0,347315.0,304254.0
2026-04-07 17:56:00.051801,300406,1630434909,1630436548,-1.06384,0.140544,0.072224,-4.8825,-0.70875,-7.91875,43.216003,3.328,53.768,concentric,3,3.0,23290.0,329087.0,297121.0,347315.0,304254.0
2026-04-07 17:56:00.080725,300407,1630443853,1630445278,-1.06384,0.140544,0.072224,-3.43875,-0.63,-7.46375,43.216003,3.328,53.768,concentric,3,3.0,23290.0,329087.0,297121.0,347315.0,304254.0
2026-04-07 17:56:00.115157,300418,1630458630,1630460264,-1.057984,0.140544,0.066368,-2.24,-0.84,-6.72,43.704002,3.688,52.184002,concentric,3,3.0,23166.0,328072.0,296275.0,346357.0,303376.0
2026-04-07 17:56:00.116782,300419,1630467612,1630469012,-1.057984,0.140544,0.066368,-1.6625,-0.56875,-7.5075,43.704002,3.688,52.184002,concentric,3,3.0,23166.0,328072.0,296275.0,346357.0,303376.0
2026-04-07 17:56:00.124449,300420,1630476567,1630477736,-1.050176,0.138592,0.0488,-1.7325,-1.1375,-7.105,42.104004,3.68,56.088,concentric,3,3.0,23166.0,328072.0,296275.0,346357.0,303376.0
2026-04-07 17:56:00.126092,300421,1630491197,1630492665,-1.050176,0.138592,0.0488,-2.5025,-1.7675,-6.2125,42.104004,3.68,56.088,concentric,3,3.0,23166.0,328072.0,296275.0,346357.0,303376.0
2026-04-07 17:56:00.128600,300422,1630500232,1630501376,-1.057984,0.124928,0.037088,-3.22875,-1.8725,-6.20375,42.856003,3.512,54.824,concentric,3,3.0,23166.0,328072.0,296275.0,346357.0,303376.0
2026-04-07 17:56:00.131039,300423,1630509227,1630510117,-1.057984,0.124928,0.037088,-3.82375,-1.89875,-5.8275,42.856003,3.512,54.824,concentric,3,3.0,23166.0,328072.0,296275.0,346357.0,303376.0
2026-04-07 17:56:00.132500,300424,1630518202,1630518864,-1.0736,0.12688,0.040992,-4.03375,-1.61875,-5.87125,42.208,3.248,53.696003,concentric,3,3.0,23166.0,328072.0,296275.0,346357.0,303376.0
2026-04-07 17:56:00.163704,300425,1630533125,1630533792,-1.0736,0.12688,0.040992,-2.2225,-0.18375,-6.22125,42.208,3.248,53.696003,concentric,3,3.0,23166.0,328072.0,296275.0,346357.0,303376.0
2026-04-07 17:56:00.165969,300426,1630542390,1630544559,-1.046272,0.13664,0.064416,-0.39375,-0.84875,-6.43125,43.048,3.648,52.424004,concentric,3,3.0,23166.0,328072.0,296275.0,346357.0,303376.0
2026-04-07 17:56:00.180863,300427,1630551328,1630553240,-1.046272,0.13664,0.064416,2.1875,-1.1725,-6.895,43.048,3.648,52.424004,concentric,3,3.0,23166.0,328072.0,296275.0,346357.0,303376.0
2026-04-07 17:56:00.227085,300437,1630560607,1630562052,-1.038464,0.148352,0.085888,3.54375,-1.09375,-7.1925,43.192,4.152,53.016003,concentric,3,3.0,23376.0,329870.0,297769.0,348038.0,304907.0
2026-04-07 17:56:00.231047,300438,1630575159,1630577037,-1.038464,0.13664,0.07808,4.8125,-1.47875,-6.81625,43.192,4.152,53.016003,concentric,3,3.0,23376.0,329870.0,297769.0,348038.0,304907.0
2026-04-07 17:56:00.232558,300439,1630584093,1630585759,-1.061888,0.13664,0.07808,4.9875,-2.1175,-6.195,43.024002,3.504,52.024002,concentric,3,3.0,23376.0,329870.0,297769.0,348038.0,304907.0
2026-04-07 17:56:00.236898,300440,1630593043,1630594490,-1.061888,0.13664,0.07808,4.27875,-2.1175,-5.92375,43.024002,3.504,52.024002,concentric,3,3.0,23376.0,329870.0,297769.0,348038.0,304907.0
2026-04-07 17:56:00.238535,300441,1630607682,1630609470,-1.061888,0.119072,0.064416,4.75125,-1.21625,-6.51875,42.864002,3.928,54.680004,concentric,3,3.0,23376.0,329870.0,297769.0,348038.0,304907.0
2026-04-07 17:56:00.240184,300442,1630616690,1630618193,-1.08336,0.142496,0.064416,5.88875,-0.25375,-6.92125,42.944,3.4,52.184002,concentric,3,3.0,23376.0,329870.0,297769.0,348038.0,304907.0
2026-04-07 17:56:00.244233,300443,1630625627,1630626915,-1.08336,0.142496,0.064416,6.67625,0.69125,-7.8225,42.944,3.4,52.184002,concentric,3,3.0,23376.0,329870.0,297769.0,348038.0,304907.0
2026-04-07 17:56:00.279987,300444,1630640168,1630641836,-1.05408,0.160064,0.115168,7.53375,0.9625,-8.23375,42.776,3.496,54.696003,concentric,3,3.0,23376.0,329870.0,297769.0,348038.0,304907.0
2026-04-07 17:56:00.284420,300445,1630649102,1630650616,-1.05408,0.160064,0.115168,6.72875,0.735,-7.77875,42.776,3.496,54.696003,concentric,3,3.0,23376.0,329870.0,297769.0,348038.0,304907.0
2026-04-07 17:56:00.312355,300455,1630658535,1630659382,-1.067744,0.160064,0.124928,6.34375,0.035,-7.14,43.136,3.632,53.440002,concentric,3,3.0,23761.0,332817.0,300056.0,350617.0,307087.0
2026-04-07 17:56:00.313914,300456,1630668051,1630670168,-1.067744,0.160064,0.124928,5.6875,-0.79625,-5.4775,43.136,3.632,53.440002,concentric,3,3.0,23761.0,332817.0,300056.0,350617.0,307087.0
2026-04-07 17:56:00.316310,300457,1630682755,1630683118,-1.06384,0.124928,0.122976,3.56125,-1.75875,-4.48875,42.68,3.664,53.064003,concentric,3,3.0,23761.0,332817.0,300056.0,350617.0,307087.0
2026-04-07 17:56:00.318877,300458,1630692007,1630693947,-1.06384,0.124928,0.122976,2.82625,-2.05625,-3.56125,42.68,3.664,53.064003,concentric,3,3.0,23761.0,332817.0,300056.0,350617.0,307087.0
2026-04-07 17:56:00.321374,300459,1630700937,1630702656,-1.069696,0.124928,0.148352,2.94,-2.37125,-3.64875,42.168003,3.56,53.296,concentric,3,3.0,23761.0,332817.0,300056.0,350617.0,307087.0
2026-04-07 17:56:00.325127,300460,1630709875,1630711378,-1.069696,0.124928,0.148352,2.5725,-2.79125,-3.6925,42.168003,3.56,53.296,concentric,3,3.0,23761.0,332817.0,300056.0,350617.0,307087.0
2026-04-07 17:56:00.357294,300461,1630724387,1630726327,-1.091168,0.132736,0.152256,1.63625,-3.66625,-3.92,42.744003,3.544,54.784004,concentric,3,3.0,23761.0,332817.0,300056.0,350617.0,307087.0
2026-04-07 17:56:00.358454,300462,1630733385,1630735021,-1.091168,0.132736,0.152256,0.6475,-4.48,-3.35125,42.744003,3.544,54.784004,concentric,3,3.0,23761.0,332817.0,300056.0,350617.0,307087.0
2026-04-07 17:56:00.363137,300463,1630742286,1630743719,-1.085312,0.140544,0.160064,-1.18125,-5.08375,-3.01875,42.568,3.712,53.816,concentric,3,3.0,23761.0,332817.0,300056.0,350617.0,307087.0
2026-04-07 17:56:00.424024,300474,1630756851,1630758726,-1.065792,0.138592,0.13664,-2.3625,-6.58875,-2.8,42.232002,3.504,53.832,concentric,3,3.0,23341.0,329580.0,297395.0,347533.0,304245.0
2026-04-07 17:56:00.428172,300475,1630765824,1630767519,-1.065792,0.138592,0.13664,-2.205,-7.63,-2.66,42.232002,3.504,53.832,concentric,3,3.0,23341.0,329580.0,297395.0,347533.0,304245.0
2026-04-07 17:56:00.429833,300476,1630774736,1630776228,-1.065792,0.138592,0.13664,-1.21625,-7.74375,-2.63375,42.232002,3.504,53.832,concentric,3,3.0,23341.0,329580.0,297395.0,347533.0,304245.0
2026-04-07 17:56:00.431353,300477,1630789285,1630791154,-1.0248,0.138592,0.113216,-0.65625,-8.225,-2.59,43.168003,4.04,53.728004,concentric,3,3.0,23341.0,329580.0,297395.0,347533.0,304245.0
2026-04-07 17:56:00.436594,300478,1630798262,1630799848,-0.987712,0.142496,0.093696,0.20125,-8.5925,-2.28375,41.224003,2.824,57.384003,concentric,3,3.0,23341.0,329580.0,297395.0,347533.0,304245.0
2026-04-07 17:56:00.437172,300479,1630807195,1630808614,-0.987712,0.142496,0.093696,1.65375,-8.4525,-3.2725,41.224003,2.824,57.384003,concentric,3,3.0,23341.0,329580.0,297395.0,347533.0,304245.0
2026-04-07 17:56:00.444263,300480,1630816120,1630817388,-0.987712,0.16592,0.119072,2.05625,-7.91875,-4.235,41.224003,2.824,57.384003,concentric,3,3.0,23341.0,329580.0,297395.0,347533.0,304245.0
2026-04-07 17:56:00.447952,300481,1630830677,1630832371,-0.968192,0.16592,0.119072,1.12,-7.1575,-4.87375,42.088,3.552,52.816,concentric,3,3.0,23341.0,329580.0,297395.0,347533.0,304245.0
2026-04-07 17:56:00.476511,300482,1630839568,1630841117,-1.007232,0.177632,0.113216,-0.35875,-7.06125,-5.6875,42.416,3.688,54.288002,concentric,3,3.0,23341.0,329580.0,297395.0,347533.0,304245.0
2026-04-07 17:56:00.481055,300483,1630848550,1630849829,-1.007232,0.177632,0.113216,-1.47,-6.18625,-5.1625,42.416,3.688,54.288002,concentric,3,3.0,23341.0,329580.0,297395.0,347533.0,304245.0
2026-04-07 17:56:00.508894,300493,1630863219,1630865406,-1.026752,0.15616,0.11712,-1.995,-5.81875,-5.78375,42.184002,3.936,54.688004,concentric,3,3.0,23369.0,329891.0,297639.0,347896.0,304582.0
2026-04-07 17:56:00.513120,300494,1630872163,1630874129,-1.026752,0.15616,0.11712,-2.52,-5.285,-6.39625,42.184002,3.936,54.688004,concentric,3,3.0,23369.0,329891.0,297639.0,347896.0,304582.0
2026-04-07 17:56:00.515220,300495,1630881171,1630882860,-1.0736,0.144448,0.12688,-1.88125,-4.8125,-6.88625,42.232002,3.32,55.376003,concentric,3,3.0,23369.0,329891.0,297639.0,347896.0,304582.0
2026-04-07 17:56:00.517715,300496,1630895822,1630897811,-1.0736,0.144448,0.12688,1.40875,-5.08375,-6.6675,42.232002,3.32,55.376003,concentric,3,3.0,23369.0,329891.0,297639.0,347896.0,304582.0
2026-04-07 17:56:00.520546,300497,1630904778,1630906570,-1.018944,0.130784,0.105408,4.935,-5.1275,-4.795,41.88,3.416,55.600002,concentric,3,3.0,23369.0,329891.0,297639.0,347896.0,304582.0
2026-04-07 17:56:00.580086,300498,1630913744,1630915284,-1.018944,0.130784,0.105408,7.35,-4.50625,-3.91125,41.88,3.416,55.600002,concentric,3,3.0,23369.0,329891.0,297639.0,347896.0,304582.0
2026-04-07 17:56:00.582366,300499,1630922655,1630924002,-1.042368,0.160064,0.11712,7.945,-4.20875,-4.9525,42.224003,3.528,54.464,concentric,3,3.0,23369.0,329891.0,297639.0,347896.0,304582.0
2026-04-07 17:56:00.586945,300500,1630937113,1630938900,-1.011136,0.148352,0.081984,5.97625,-3.77125,-4.52375,42.224003,3.888,55.296,concentric,3,3.0,23369.0,329891.0,297639.0,347896.0,304582.0
2026-04-07 17:56:00.588555,300501,1630946056,1630947593,-1.011136,0.148352,0.081984,-0.9625,-2.98375,-4.0425,41.616,3.888,55.296,concentric,3,3.0,23369.0,329891.0,297639.0,347896.0,304582.0
2026-04-07 17:56:00.590167,300502,1630955069,1630956285,-1.011136,0.148352,0.081984,-6.7725,-1.5925,-5.075,41.616,3.888,55.296,concentric,3,3.0,23369.0,329891.0,297639.0,347896.0,304582.0
2026-04-07 17:56:00.626078,300512,1630969575,1630971218,-1.028704,0.148352,0.08784,-10.535,0.1925,-5.0575,42.024002,4.12,54.840004,concentric,3,3.0,22794.0,325640.0,294435.0,344555.0,301658.0
2026-04-07 17:56:00.627637,300513,1630978608,1630979911,-1.038464,0.15616,0.089792,-11.8475,0.735,-6.22125,41.224003,3.648,56.000004,concentric,3,3.0,22794.0,325640.0,294435.0,344555.0,301658.0
2026-04-07 17:56:00.631833,300514,1630987576,1630988723,-1.038464,0.15616,0.089792,-10.8325,1.155,-6.57125,41.224003,3.648,56.000004,concentric,3,3.0,22794.0,325640.0,294435.0,344555.0,301658.0
2026-04-07 17:56:00.633556,300515,1631002119,1631003638,-1.05408,0.177632,0.109312,-9.3275,1.53125,-7.09625,42.016003,4.072,54.600002,concentric,3,3.0,22794.0,325640.0,294435.0,344555.0,301658.0
2026-04-07 17:56:00.635179,300516,1631011118,1631012378,-1.05408,0.177632,0.109312,-8.84625,1.8025,-6.965,42.016003,4.072,54.600002,concentric,3,3.0,22794.0,325640.0,294435.0,344555.0,301658.0
2026-04-07 17:56:00.639177,300517,1631020090,1631021167,-1.075552,0.142496,0.099552,-10.64,2.1525,-7.27125,41.544003,3.64,57.008003,concentric,3,3.0,22794.0,325640.0,294435.0,344555.0,301658.0
2026-04-07 17:56:00.645454,300518,1631029036,1631029872,-1.075552,0.142496,0.099552,-13.57125,2.415,-7.525,41.544003,3.64,57.008003,concentric,3,3.0,22794.0,325640.0,294435.0,344555.0,301658.0
2026-04-07 17:56:00.674124,300519,1631045527,1631046946,-1.04432,0.070272,0.095648,-14.65625,2.72125,-7.13125,42.816,4.144,54.576004,concentric,3,3.0,22794.0,325640.0,294435.0,344555.0,301658.0
2026-04-07 17:56:00.678589,300520,1631054448,1631055632,-1.04432,0.070272,0.095648,-14.7875,2.8525,-7.5425,42.816,4.144,54.576004,concentric,3,3.0,22794.0,325640.0,294435.0,344555.0,301658.0
2026-04-07 17:56:00.702630,300530,1631063505,1631064534,-1.057984,0.0976,0.12688,-13.25625,3.52625,-8.32125,42.192,4.48,54.016003,concentric,3,3.0,22581.0,324348.0,293595.0,343911.0,301092.0
2026-04-07 17:56:00.705149,300531,1631072490,1631073244,-1.057984,0.0976,0.12688,-9.7825,3.8675,-7.98,42.192,4.48,54.016003,concentric,3,3.0,22581.0,324348.0,293595.0,343911.0,301092.0
2026-04-07 17:56:00.707601,300532,1631087422,1631088193,-1.069696,0.103456,0.10736,-9.24,2.625,-7.4725,41.104,4.824,55.792004,concentric,3,3.0,22581.0,324348.0,293595.0,343911.0,301092.0
2026-04-07 17:56:00.712581,300533,1631096812,1631099004,-1.069696,0.103456,0.10736,-9.87,2.17,-6.04625,41.104,4.824,55.792004,concentric,3,3.0,22581.0,324348.0,293595.0,343911.0,301092.0
2026-04-07 17:56:00.743732,300534,1631105722,1631107756,-1.032608,0.101504,0.072224,-8.26,2.10875,-5.48625,41.544003,4.392,56.288002,concentric,3,3.0,22581.0,324348.0,293595.0,343911.0,301092.0
2026-04-07 17:56:00.746022,300535,1631114676,1631116437,-1.032608,0.101504,0.072224,-5.39,2.09125,-5.18875,41.544003,4.392,56.288002,concentric,3,3.0,22581.0,324348.0,293595.0,343911.0,301092.0
2026-04-07 17:56:00.748900,300536,1631129167,1631131306,-1.057984,0.152256,0.074176,-3.1675,3.42125,-6.74625,41.832,4.856,54.176003,concentric,3,3.0,22581.0,324348.0,293595.0,343911.0,301092.0
2026-04-07 17:56:00.756753,300537,1631138099,1631140099,-1.081408,0.17568,0.099552,-4.26125,4.54125,-7.18375,41.952003,5.064,56.488003,concentric,3,3.0,22581.0,324348.0,293595.0,343911.0,301092.0
2026-04-07 17:56:00.785301,300538,1631147042,1631148816,-1.081408,0.17568,0.099552,-6.4925,5.55625,-7.665,41.952003,5.064,56.488003,concentric,3,3.0,22581.0,324348.0,293595.0,343911.0,301092.0
2026-04-07 17:56:00.815104,300549,1631162244,1631163724,-1.067744,0.15616,0.13664,-8.82875,6.79875,-7.8575,41.696003,4.936,54.576004,concentric,3,3.0,22604.0,324441.0,293722.0,344103.0,301437.0
2026-04-07 17:56:00.820043,300550,1631171264,1631172465,-1.067744,0.15616,0.13664,-10.94625,8.2425,-8.44375,41.696003,4.936,54.576004,concentric,3,3.0,22604.0,324441.0,293722.0,344103.0,301437.0
2026-04-07 17:56:00.821414,300551,1631180179,1631181255,-1.061888,0.11712,0.150304,-13.79875,8.198751,-8.95125,42.008003,4.232,55.296,concentric,3,3.0,22604.0,324441.0,293722.0,344103.0,301437.0
2026-04-07 17:56:00.825612,300552,1631189210,1631189998,-1.061888,0.11712,0.150304,-14.90125,7.2275,-9.6075,42.008003,4.232,55.296,concentric,3,3.0,22604.0,324441.0,293722.0,344103.0,301437.0
2026-04-07 17:56:00.827350,300553,1631203797,1631204972,-1.079456,0.0976,0.13664,-14.945,6.15125,-8.995,41.56,5.288,55.224003,concentric,3,3.0,22604.0,324441.0,293722.0,344103.0,301437.0
2026-04-07 17:56:00.829676,300554,1631212731,1631213679,-1.079456,0.0976,0.13664,-13.9825,5.4075,-7.8225,41.56,5.288,55.224003,concentric,3,3.0,22604.0,324441.0,293722.0,344103.0,301437.0
2026-04-07 17:56:00.837918,300555,1631221657,1631222456,-1.06384,0.08784,0.11712,-12.792501,4.55875,-6.51875,42.064003,5.568,55.128002,concentric,3,3.0,22604.0,324441.0,293722.0,344103.0,301437.0
2026-04-07 17:56:00.865196,300556,1631236629,1631237380,-1.06384,0.08784,0.11712,-11.17375,4.34,-5.81,42.064003,5.568,55.128002,concentric,3,3.0,22604.0,324441.0,293722.0,344103.0,301437.0
2026-04-07 17:56:00.869813,300557,1631246028,1631248134,-1.067744,0.08784,0.0976,-10.49125,4.41,-4.445,42.272003,5.016,54.056004,concentric,3,3.0,22604.0,324441.0,293722.0,344103.0,301437.0
2026-04-07 17:56:00.871325,300558,1631254959,1631256816,-1.067744,0.08784,0.0976,-9.79125,4.20875,-3.85,42.272003,5.016,54.056004,concentric,3,3.0,22604.0,324441.0,293722.0,344103.0,301437.0
2026-04-07 17:56:00.897987,300568,1631264545,1631265673,-1.05408,0.101504,0.099552,-7.98875,3.47375,-3.85,41.72,5.168,55.808002,concentric,3,3.0,22682.0,324911.0,294077.0,344419.0,301629.0
2026-04-07 17:56:00.898983,300569,1631279081,1631280686,-1.050176,0.105408,0.113216,-6.90375,3.80625,-3.78,41.568,5.128,57.872,concentric,3,3.0,22682.0,324911.0,294077.0,344419.0,301629.0
2026-04-07 17:56:00.904434,300570,1631288041,1631289436,-1.050176,0.105408,0.113216,-5.635,3.4475,-3.59625,41.568,5.128,57.872,concentric,3,3.0,22682.0,324911.0,294077.0,344419.0,301629.0
2026-04-07 17:56:00.935781,300571,1631296971,1631298128,-1.050176,0.105408,0.113216,-4.54125,2.51125,-2.79125,41.568,5.128,57.872,concentric,3,3.0,22682.0,324911.0,294077.0,344419.0,301629.0
2026-04-07 17:56:00.937292,300572,1631311468,1631313009,-1.032608,0.095648,0.122976,-3.38625,1.81125,-1.7675,41.648003,5.776001,57.552002,concentric,3,3.0,22682.0,324911.0,294077.0,344419.0,301629.0
2026-04-07 17:56:00.938828,300573,1631320398,1631321716,-1.013088,0.095648,0.144448,-0.79625,1.35625,-1.5575,42.496002,5.536,54.096,concentric,3,3.0,22682.0,324911.0,294077.0,344419.0,301629.0
2026-04-07 17:56:00.945494,300574,1631329334,1631330456,-1.013088,0.095648,0.144448,4.55875,0.42875,-1.3475,42.496002,5.536,54.096,concentric,3,3.0,22682.0,324911.0,294077.0,344419.0,301629.0
2026-04-07 17:56:00.974003,300575,1631338274,1631339173,-1.013088,0.095648,0.16592,10.5525,0.00875,-1.5575,42.496002,5.536,54.096,concentric,3,3.0,22682.0,324911.0,294077.0,344419.0,301629.0
2026-04-07 17:56:00.978851,300576,1631352786,1631354066,-1.01504,0.162016,0.16592,11.97,-0.1575,-2.4325,42.600002,5.232,53.592003,concentric,3,3.0,22682.0,324911.0,294077.0,344419.0,301629.0
2026-04-07 17:56:01.005821,300586,1631361822,1631362810,-1.01504,0.167872,0.158112,9.82625,0.79625,-3.955,42.856003,4.96,54.448,concentric,3,3.0,22517.0,323421.0,292706.0,342769.0,300065.0
2026-04-07 17:56:01.009397,300587,1631370828,1631371567,-1.01504,0.167872,0.158112,4.13,1.88125,-4.585,42.856003,4.96,54.448,concentric,3,3.0,22517.0,323421.0,292706.0,342769.0,300065.0
2026-04-07 17:56:01.011067,300588,1631385981,1631386660,-1.0248,0.158112,0.1464,-0.84875,3.08,-4.9875,42.448,5.496,54.136,concentric,3,3.0,22517.0,323421.0,292706.0,342769.0,300065.0
2026-04-07 17:56:01.012619,300589,1631395323,1631397459,-1.0248,0.158112,0.1464,-4.12125,4.7075,-5.67,42.448,5.496,54.136,concentric,3,3.0,22517.0,323421.0,292706.0,342769.0,300065.0
2026-04-07 17:56:01.045691,300590,1631404358,1631406179,-1.01504,0.132736,0.115168,-5.4075,5.6,-7.23625,42.440002,5.264,54.752003,concentric,3,3.0,22517.0,323421.0,292706.0,342769.0,300065.0
2026-04-07 17:56:01.047278,300591,1631413388,1631414888,-1.01504,0.132736,0.115168,-5.22375,6.09875,-8.39125,42.440002,5.264,54.752003,concentric,3,3.0,22517.0,323421.0,292706.0,342769.0,300065.0
2026-04-07 17:56:01.052156,300592,1631427894,1631429761,-1.022848,0.130784,0.121024,-4.05125,6.79875,-8.5575,41.768,5.296001,54.768,concentric,3,3.0,22517.0,323421.0,292706.0,342769.0,300065.0
2026-04-07 17:56:01.052949,300593,1631436803,1631438524,-1.022848,0.130784,0.121024,-4.1825,6.9125,-9.0125,41.768,5.296001,54.768,concentric,3,3.0,22517.0,323421.0,292706.0,342769.0,300065.0
2026-04-07 17:56:01.084563,300594,1631445812,1631447259,-1.032608,0.109312,0.111264,-5.39,7.0,-8.3825,41.920002,5.352,54.792004,concentric,3,3.0,22517.0,323421.0,292706.0,342769.0,300065.0
2026-04-07 17:56:01.113941,300605,1631460265,1631462439,-1.022848,0.085888,0.099552,-5.52125,6.69375,-8.35625,42.160004,6.000001,52.896004,concentric,3,3.0,22499.0,323457.0,292824.0,343015.0,300289.0
2026-04-07 17:56:01.116392,300606,1631469296,1631471212,-1.022848,0.085888,0.099552,-4.235,6.9125,-9.065,42.160004,6.000001,52.896004,concentric,3,3.0,22499.0,323457.0,292824.0,343015.0,300289.0
2026-04-07 17:56:01.120602,300607,1631478245,1631479959,-1.022848,0.085888,0.099552,-0.84875,6.30875,-8.995,42.160004,6.000001,52.896004,concentric,3,3.0,22499.0,323457.0,292824.0,343015.0,300289.0
2026-04-07 17:56:01.122232,300608,1631487190,1631488730,-1.046272,0.105408,0.115168,1.42625,5.73125,-8.70625,41.696003,5.288,55.456,concentric,3,3.0,22499.0,323457.0,292824.0,343015.0,300289.0
2026-04-07 17:56:01.124729,300609,1631501803,1631503668,-1.05408,0.121024,0.113216,3.29,5.80125,-9.555,42.352,5.6,54.208004,concentric,3,3.0,22499.0,323457.0,292824.0,343015.0,300289.0
2026-04-07 17:56:01.126322,300610,1631510834,1631512438,-1.05408,0.121024,0.113216,2.8525,5.6525,-8.56625,42.352,5.6,54.208004,concentric,3,3.0,22499.0,323457.0,292824.0,343015.0,300289.0
2026-04-07 17:56:01.157468,300611,1631519778,1631521162,-1.056032,0.122976,0.115168,2.275,5.67,-9.345,42.352,5.656,54.008003,concentric,3,3.0,22499.0,323457.0,292824.0,343015.0,300289.0
2026-04-07 17:56:01.161914,300612,1631534309,1631536046,-1.056032,0.122976,0.115168,1.84625,5.6875,-9.5725,42.704002,5.656,54.008003,concentric,3,3.0,22499.0,323457.0,292824.0,343015.0,300289.0
2026-04-07 17:56:01.163502,300613,1631543312,1631544735,-1.057984,0.134688,0.134688,2.63375,5.67875,-9.94,42.688004,5.432,54.392002,concentric,3,3.0,22499.0,323457.0,292824.0,343015.0,300289.0
2026-04-07 17:56:01.170480,300614,1631552248,1631553482,-1.057984,0.134688,0.134688,5.25875,5.25875,-10.045,42.688004,5.432,54.392002,concentric,3,3.0,22499.0,323457.0,292824.0,343015.0,300289.0
2026-04-07 17:56:01.243586,300624,1631566917,1631568471,-1.079456,0.140544,0.134688,6.92125,5.15375,-9.96625,42.344,5.296001,54.480003,concentric,3,3.0,22554.0,323911.0,293267.0,343582.0,300921.0
2026-04-07 17:56:01.245084,300625,1631575866,1631577173,-1.079456,0.140544,0.134688,7.7875,4.7075,-9.72125,42.344,5.296001,54.480003,concentric,3,3.0,22554.0,323911.0,293267.0,343582.0,300921.0
2026-04-07 17:56:01.249329,300626,1631584788,1631585850,-1.097024,0.128832,0.130784,8.1025,4.4975,-9.42375,42.336002,5.32,54.392002,concentric,3,3.0,22554.0,323911.0,293267.0,343582.0,300921.0
2026-04-07 17:56:01.251122,300627,1631593723,1631594580,-1.097024,0.128832,0.130784,8.28625,5.10125,-9.6075,42.336002,5.32,54.392002,concentric,3,3.0,22554.0,323911.0,293267.0,343582.0,300921.0
2026-04-07 17:56:01.252656,300628,1631608166,1631609479,-1.08336,0.101504,0.128832,8.49625,5.39875,-10.14125,42.52,5.12,54.648003,concentric,3,3.0,22554.0,323911.0,293267.0,343582.0,300921.0
2026-04-07 17:56:01.256921,300629,1631617170,1631618218,-1.08336,0.101504,0.128832,8.435,5.7225,-10.50875,42.52,5.12,54.648003,concentric,3,3.0,22554.0,323911.0,293267.0,343582.0,300921.0
2026-04-07 17:56:01.258608,300630,1631626177,1631626965,-1.085312,0.101504,0.12688,8.435,5.635,-11.698751,42.456,5.424,54.696003,concentric,3,3.0,22554.0,323911.0,293267.0,343582.0,300921.0
2026-04-07 17:56:01.260184,300631,1631641203,1631641990,-1.075552,0.109312,0.12688,8.79375,5.15375,-11.45375,42.088,5.032,55.328003,concentric,3,3.0,22554.0,323911.0,293267.0,343582.0,300921.0
2026-04-07 17:56:01.268021,300632,1631650785,1631652766,-1.075552,0.109312,0.12688,10.50875,4.94375,-10.955,42.088,5.032,55.328003,concentric,3,3.0,22554.0,323911.0,293267.0,343582.0,300921.0
2026-04-07 17:56:01.300886,300633,1631659709,1631661454,-1.075552,0.109312,0.12688,11.935,4.24375,-10.6575,42.088,5.032,55.328003,concentric,3,3.0,22554.0,323911.0,293267.0,343582.0,300921.0
2026-04-07 17:56:01.325688,300643,1631668838,1631670199,-1.079456,0.122976,0.12688,12.215,4.1125,-10.29875,42.896004,4.96,53.968002,concentric,3,3.0,22683.0,325228.0,294440.0,344987.0,302272.0
2026-04-07 17:56:01.327256,300644,1631683336,1631685121,-1.081408,0.128832,0.122976,12.29375,4.305,-9.59,42.376003,4.728,55.032,concentric,3,3.0,22683.0,325228.0,294440.0,344987.0,302272.0
2026-04-07 17:56:01.328868,300645,1631692286,1631693848,-1.081408,0.128832,0.122976,11.57625,3.9375,-9.4675,42.376003,4.728,55.032,concentric,3,3.0,22683.0,325228.0,294440.0,344987.0,302272.0
2026-04-07 17:56:01.333061,300646,1631701307,1631702576,-1.079456,0.115168,0.11712,10.08875,4.6375,-9.77375,42.56,4.68,56.520004,concentric,3,3.0,22683.0,325228.0,294440.0,344987.0,302272.0
2026-04-07 17:56:01.334715,300647,1631715854,1631717637,-1.079456,0.115168,0.11712,8.75,5.3025,-10.42125,42.56,4.68,56.520004,concentric,3,3.0,22683.0,325228.0,294440.0,344987.0,302272.0
2026-04-07 17:56:01.341740,300648,1631724835,1631726359,-1.0736,0.124928,0.12688,9.14375,5.0225,-11.40125,42.712,4.88,56.352,concentric,3,3.0,22683.0,325228.0,294440.0,344987.0,302272.0
2026-04-07 17:56:01.373143,300649,1631733809,1631735038,-1.0736,0.124928,0.12688,9.42375,4.935,-12.32,42.712,4.88,56.352,concentric,3,3.0,22683.0,325228.0,294440.0,344987.0,302272.0
2026-04-07 17:56:01.374760,300650,1631748267,1631749967,-1.048224,0.134688,0.134688,9.205,4.8125,-12.6175,42.488003,5.248,55.136,concentric,3,3.0,22683.0,325228.0,294440.0,344987.0,302272.0
2026-04-07 17:56:01.376475,300651,1631757176,1631758655,-1.048224,0.134688,0.134688,9.0475,4.99625,-12.565,42.488003,5.248,55.136,concentric,3,3.0,22683.0,325228.0,294440.0,344987.0,302272.0
2026-04-07 17:56:01.411017,300662,1631766626,1631767409,-1.059936,0.132736,0.134688,8.417501,5.32875,-12.60875,42.864002,5.024,55.104004,concentric,3,3.0,22800.0,326387.0,295505.0,346253.0,303378.0
2026-04-07 17:56:01.412485,300663,1631776081,1631778233,-1.059936,0.132736,0.134688,5.8625,5.53875,-11.6375,42.864002,5.024,55.104004,concentric,3,3.0,22800.0,326387.0,295505.0,346253.0,303378.0
2026-04-07 17:56:01.416816,300664,1631790572,1631791099,-1.06384,0.089792,0.115168,4.6375,4.725,-11.3225,42.584003,4.888,54.896004,concentric,3,3.0,22800.0,326387.0,295505.0,346253.0,303378.0
2026-04-07 17:56:01.418495,300665,1631799998,1631801868,-1.06384,0.089792,0.115168,4.8825,4.26125,-11.025,42.584003,4.888,54.896004,concentric,3,3.0,22800.0,326387.0,295505.0,346253.0,303378.0
2026-04-07 17:56:01.450604,300666,1631808912,1631810601,-1.067744,0.093696,0.0976,6.95625,4.6375,-10.94625,43.088,4.872,54.176003,concentric,3,3.0,22800.0,326387.0,295505.0,346253.0,303378.0
2026-04-07 17:56:01.452307,300667,1631817828,1631819273,-1.067744,0.093696,0.0976,8.77625,4.865,-10.49125,43.088,4.872,54.176003,concentric,3,3.0,22800.0,326387.0,295505.0,346253.0,303378.0
2026-04-07 17:56:01.454738,300668,1631832284,1631834171,-1.0736,0.109312,0.10736,9.4325,4.27875,-10.4825,42.808002,5.016,54.840004,concentric,3,3.0,22800.0,326387.0,295505.0,346253.0,303378.0
2026-04-07 17:56:01.457312,300669,1631841208,1631842904,-1.067744,0.103456,0.121024,8.2775,3.78,-10.8325,42.808002,4.088,57.88,concentric,3,3.0,22800.0,326387.0,295505.0,346253.0,303378.0
2026-04-07 17:56:01.487431,300670,1631850205,1631851609,-1.067744,0.103456,0.121024,7.30625,3.535,-10.29,42.144,4.088,57.88,concentric,3,3.0,22800.0,326387.0,295505.0,346253.0,303378.0
2026-04-07 17:56:01.513551,300680,1631865231,1631866839,-1.061888,0.103456,0.134688,7.7,3.07125,-10.57,42.128002,4.528,55.544003,concentric,3,3.0,22872.0,327002.0,296103.0,347003.0,304017.0
2026-04-07 17:56:01.515990,300681,1631874161,1631875659,-1.061888,0.103456,0.134688,8.11125,2.45875,-9.905,42.128002,4.528,55.544003,concentric,3,3.0,22872.0,327002.0,296103.0,347003.0,304017.0
2026-04-07 17:56:01.517837,300682,1631883134,1631884397,-1.061888,0.095648,0.128832,7.88375,1.67125,-9.555,42.368004,5.016,57.424004,concentric,3,3.0,22872.0,327002.0,296103.0,347003.0,304017.0
2026-04-07 17:56:01.519976,300683,1631892097,1631893143,-1.061888,0.095648,0.128832,8.1725,1.42625,-8.84625,42.368004,5.016,57.424004,concentric,3,3.0,22872.0,327002.0,296103.0,347003.0,304017.0
2026-04-07 17:56:01.522185,300684,1631906528,1631908068,-1.046272,0.115168,0.113216,9.31875,1.4,-8.365,42.544003,4.408,55.304,concentric,3,3.0,22872.0,327002.0,296103.0,347003.0,304017.0
2026-04-07 17:56:01.552743,300685,1631915474,1631916829,-1.046272,0.115168,0.113216,9.84375,1.645,-8.295,42.544003,4.408,55.304,concentric,3,3.0,22872.0,327002.0,296103.0,347003.0,304017.0
2026-04-07 17:56:01.557126,300686,1631924422,1631925522,-1.050176,0.128832,0.099552,9.292501,2.0825,-8.5925,42.104004,4.088,55.528004,concentric,3,3.0,22872.0,327002.0,296103.0,347003.0,304017.0
2026-04-07 17:56:01.559780,300687,1631938886,1631940435,-1.050176,0.128832,0.099552,8.4875,2.6075,-8.19,42.104004,4.088,55.528004,concentric,3,3.0,22872.0,327002.0,296103.0,347003.0,304017.0
2026-04-07 17:56:01.567081,300688,1631947801,1631949145,-1.038464,0.132736,0.113216,6.3525,3.19375,-7.6825,42.4,4.672,55.328003,concentric,3,3.0,22872.0,327002.0,296103.0,347003.0,304017.0
2026-04-07 17:56:01.570610,300689,1631956737,1631957856,-1.038464,0.132736,0.113216,4.8475,2.7475,-7.60375,42.4,4.672,55.328003,concentric,3,3.0,22872.0,327002.0,296103.0,347003.0,304017.0
2026-04-07 17:56:01.602627,300699,1631971246,1631972829,-1.05408,0.115168,0.124928,3.1675,3.22875,-7.3325,42.672,4.424,55.928,concentric,3,3.0,22830.0,326761.0,295961.0,346878.0,303910.0
2026-04-07 17:56:01.607218,300700,1631980212,1631981530,-1.05408,0.115168,0.124928,1.35625,3.75375,-6.86,42.672,4.424,55.928,concentric,3,3.0,22830.0,326761.0,295961.0,346878.0,303910.0
2026-04-07 17:56:01.608768,300701,1631989168,1631990279,-1.059936,0.089792,0.115168,0.72625,3.85,-7.525,41.952003,3.776,56.336002,concentric,3,3.0,22830.0,326761.0,295961.0,346878.0,303910.0
2026-04-07 17:56:01.639994,300702,1632003700,1632005218,-1.065792,0.099552,0.124928,1.4,4.34875,-7.385,42.000004,3.896,56.808002,concentric,3,3.0,22830.0,326761.0,295961.0,346878.0,303910.0
2026-04-07 17:56:01.642251,300703,1632012637,1632013914,-1.065792,0.099552,0.124928,2.84375,4.375,-7.72625,42.000004,3.896,56.808002,concentric,3,3.0,22830.0,326761.0,295961.0,346878.0,303910.0
2026-04-07 17:56:01.646886,300704,1632021559,1632022627,-1.065792,0.10736,0.11712,4.3925,4.06875,-7.8925,42.000004,3.896,56.808002,concentric,3,3.0,22830.0,326761.0,295961.0,346878.0,303910.0
2026-04-07 17:56:01.648426,300705,1632030462,1632031321,-1.071648,0.10736,0.11712,5.2675,4.33125,-7.455,42.752003,4.376,55.520004,concentric,3,3.0,22830.0,326761.0,295961.0,346878.0,303910.0
2026-04-07 17:56:01.680116,300706,1632044966,1632046174,-1.071648,0.122976,0.121024,5.11,4.26125,-7.175,41.944,3.984,56.184002,concentric,3,3.0,22830.0,326761.0,295961.0,346878.0,303910.0
2026-04-07 17:56:01.681349,300707,1632053841,1632054915,-1.071648,0.122976,0.121024,5.17125,4.795,-6.37,41.944,3.984,56.184002,concentric,3,3.0,22830.0,326761.0,295961.0,346878.0,303910.0
2026-04-07 17:56:01.685662,300708,1632062781,1632063615,-1.06384,0.121024,0.113216,5.18875,5.2675,-7.06125,42.352,4.312,55.88,concentric,3,3.0,22830.0,326761.0,295961.0,346878.0,303910.0
2026-04-07 17:56:01.711325,300719,1632077386,1632078634,-1.06384,0.121024,0.113216,4.12125,5.46875,-7.81375,42.352,4.312,55.88,concentric,3,3.0,22835.0,327065.0,296262.0,347280.0,304264.0
2026-04-07 17:56:01.716015,300720,1632086434,1632087406,-1.077504,0.111264,0.113216,3.00125,5.7225,-7.63,42.832,3.896,55.856003,concentric,3,3.0,22835.0,327065.0,296262.0,347280.0,304264.0
2026-04-07 17:56:01.717330,300721,1632095383,1632096131,-1.077504,0.111264,0.113216,2.93125,5.7575,-7.2975,42.832,3.896,55.856003,concentric,3,3.0,22835.0,327065.0,296262.0,347280.0,304264.0
2026-04-07 17:56:01.749348,300722,1632110339,1632111055,-1.059936,0.103456,0.130784,3.36,5.87125,-6.39625,42.56,4.952,55.384003,concentric,3,3.0,22835.0,327065.0,296262.0,347280.0,304264.0
2026-04-07 17:56:01.751106,300723,1632119690,1632121802,-1.059936,0.103456,0.130784,3.36,6.30875,-5.94125,42.56,4.952,55.384003,concentric,3,3.0,22835.0,327065.0,296262.0,347280.0,304264.0
2026-04-07 17:56:01.752814,300724,1632128623,1632130481,-1.061888,0.080032,0.122976,3.35125,6.9475,-5.76625,42.728,4.136,55.616,concentric,3,3.0,22835.0,327065.0,296262.0,347280.0,304264.0
2026-04-07 17:56:01.756759,300725,1632137626,1632139188,-1.061888,0.080032,0.122976,3.5525,6.335,-5.39875,42.728,4.136,55.616,concentric,3,3.0,22835.0,327065.0,296262.0,347280.0,304264.0
2026-04-07 17:56:01.785275,300726,1632152175,1632154107,-1.0736,0.072224,0.095648,4.33125,6.2475,-4.9875,42.368004,3.672,57.24,concentric,3,3.0,22835.0,327065.0,296262.0,347280.0,304264.0
2026-04-07 17:56:01.789865,300727,1632161182,1632162805,-1.0736,0.072224,0.095648,5.99375,7.04375,-4.76875,42.368004,3.672,57.24,concentric,3,3.0,22835.0,327065.0,296262.0,347280.0,304264.0
2026-04-07 17:56:01.818559,300737,1632170428,1632171563,-1.089216,0.089792,0.099552,8.7675,7.735,-4.82125,42.832,3.8,55.528004,concentric,3,3.0,22868.0,327502.0,296651.0,347730.0,304668.0
2026-04-07 17:56:01.820222,300738,1632184944,1632186556,-1.067744,0.119072,0.119072,10.9025,7.84,-4.76875,42.616,3.832,55.536003,concentric,3,3.0,22868.0,327502.0,296651.0,347730.0,304668.0
2026-04-07 17:56:01.824572,300739,1632193931,1632195287,-1.067744,0.119072,0.119072,12.1625,8.32125,-4.52375,42.616,3.832,55.536003,concentric,3,3.0,22868.0,327502.0,296651.0,347730.0,304668.0
2026-04-07 17:56:01.859851,300740,1632202945,1632204029,-1.0736,0.124928,0.1464,11.08625,8.6975,-4.62875,43.448,3.632,54.312004,concentric,3,3.0,22868.0,327502.0,296651.0,347730.0,304668.0
2026-04-07 17:56:01.866211,300741,1632211936,1632212746,-1.0736,0.124928,0.1464,8.75875,8.00625,-4.45375,43.448,3.632,54.312004,concentric,3,3.0,22868.0,327502.0,296651.0,347730.0,304668.0
2026-04-07 17:56:01.869702,300742,1632226429,1632227629,-1.06384,0.101504,0.130784,7.07,7.70875,-4.0425,43.504,4.008,55.864002,concentric,3,3.0,22868.0,327502.0,296651.0,347730.0,304668.0
2026-04-07 17:56:01.871225,300743,1632235320,1632236351,-1.06384,0.101504,0.130784,6.86875,7.0525,-3.22,43.504,4.008,55.864002,concentric,3,3.0,22868.0,327502.0,296651.0,347730.0,304668.0
2026-04-07 17:56:01.873307,300744,1632244262,1632245032,-1.087264,0.093696,0.105408,6.895,7.28875,-3.1325,43.864002,4.144,56.160004,concentric,3,3.0,22868.0,327502.0,296651.0,347730.0,304668.0
2026-04-07 17:56:01.878863,300745,1632258764,1632259964,-1.087264,0.093696,0.105408,6.81625,8.00625,-3.0275,43.864002,4.144,56.160004,concentric,3,3.0,22868.0,327502.0,296651.0,347730.0,304668.0
2026-04-07 17:56:01.907267,300755,1632267848,1632269174,-1.079456,0.105408,0.101504,7.34125,8.6975,-3.4825,42.848003,3.184,56.992004,concentric,3,3.0,22949.0,328022.0,297007.0,348081.0,304953.0
2026-04-07 17:56:01.908775,300756,1632276867,1632278000,-1.079456,0.105408,0.101504,7.95375,9.16125,-3.71,42.848003,3.184,56.992004,concentric,3,3.0,22949.0,328022.0,297007.0,348081.0,304953.0
2026-04-07 17:56:01.913042,300757,1632291502,1632292982,-1.061888,0.12688,0.113216,7.90125,9.5025,-4.095,43.320004,3.224,57.072002,concentric,3,3.0,22949.0,328022.0,297007.0,348081.0,304953.0
2026-04-07 17:56:01.916733,300758,1632300454,1632301710,-1.061888,0.12688,0.113216,7.09625,9.75625,-4.15625,43.320004,3.224,57.072002,concentric,3,3.0,22949.0,328022.0,297007.0,348081.0,304953.0
2026-04-07 17:56:01.925451,300759,1632309390,1632310468,-1.06384,0.0976,0.134688,4.36625,9.77375,-4.55,42.744003,3.048,56.984,concentric,3,3.0,22949.0,328022.0,297007.0,348081.0,304953.0
2026-04-07 17:56:01.954011,300760,1632318364,1632319161,-1.06384,0.0976,0.134688,1.8725,9.485,-3.75375,42.744003,3.048,56.984,concentric,3,3.0,22949.0,328022.0,297007.0,348081.0,304953.0
2026-04-07 17:56:01.958508,300761,1632332952,1632334077,-1.087264,0.072224,0.113216,1.4525,9.485,-2.93125,43.304,3.248,55.296,concentric,3,3.0,22949.0,328022.0,297007.0,348081.0,304953.0
2026-04-07 17:56:01.960094,300762,1632341879,1632342777,-1.087264,0.072224,0.113216,2.8525,9.3975,-2.66875,43.304,3.248,55.296,concentric,3,3.0,22949.0,328022.0,297007.0,348081.0,304953.0
2026-04-07 17:56:01.966723,300763,1632350892,1632351525,-1.081408,0.089792,0.099552,5.22375,9.9575,-2.73,44.056004,3.248,56.480003,concentric,3,3.0,22949.0,328022.0,297007.0,348081.0,304953.0
2026-04-07 17:56:01.995134,300764,1632365803,1632366468,-1.077504,0.111264,0.115168,6.43125,10.9725,-3.08,43.800003,3.52,55.536003,concentric,3,3.0,22949.0,328022.0,297007.0,348081.0,304953.0
2026-04-07 17:56:02.027624,300775,1632375186,1632377326,-1.077504,0.111264,0.115168,7.14,11.2175,-3.1675,43.800003,3.52,55.536003,concentric,3,3.0,23007.0,328307.0,297225.0,348295.0,305132.0
2026-04-07 17:56:02.031795,300776,1632384173,1632386022,-1.069696,0.113216,0.138592,6.64125,10.5,-2.35375,44.536003,2.856,57.800003,concentric,3,3.0,23007.0,328307.0,297225.0,348295.0,305132.0
2026-04-07 17:56:02.033511,300777,1632393141,1632394712,-1.069696,0.113216,0.138592,6.09875,9.94,-1.67125,44.536003,2.856,57.800003,concentric,3,3.0,23007.0,328307.0,297225.0,348295.0,305132.0
2026-04-07 17:56:02.035545,300778,1632407717,1632409686,-1.075552,0.101504,0.144448,6.06375,9.4675,-2.02125,44.688004,2.368,55.872,concentric,3,3.0,23007.0,328307.0,297225.0,348295.0,305132.0
2026-04-07 17:56:02.038076,300779,1632416690,1632418396,-1.075552,0.101504,0.144448,6.335,9.05625,-1.63625,44.688004,2.368,55.872,concentric,3,3.0,23007.0,328307.0,297225.0,348295.0,305132.0
2026-04-07 17:56:02.043050,300780,1632425661,1632427093,-1.085312,0.099552,0.105408,7.21875,7.90125,-1.67125,44.168003,2.792,55.88,concentric,3,3.0,23007.0,328307.0,297225.0,348295.0,305132.0
2026-04-07 17:56:02.074446,300781,1632440195,1632441991,-1.085312,0.099552,0.105408,6.81625,8.085,-1.54875,44.168003,2.792,55.88,concentric,3,3.0,23007.0,328307.0,297225.0,348295.0,305132.0
2026-04-07 17:56:02.075994,300782,1632449140,1632450759,-1.0736,0.103456,0.081984,6.55375,8.68875,-1.84625,44.152,2.288,55.616,concentric,3,3.0,23007.0,328307.0,297225.0,348295.0,305132.0
2026-04-07 17:56:02.078672,300783,1632458068,1632459453,-1.0736,0.103456,0.081984,6.685,8.295,-2.1525,44.152,2.288,55.616,concentric,3,3.0,23007.0,328307.0,297225.0,348295.0,305132.0
2026-04-07 17:56:02.109777,300793,1632472744,1632474475,-1.056032,0.115168,0.081984,6.27375,8.295,-1.84625,44.432003,2.4,55.952003,concentric,3,3.0,23015.0,328483.0,297404.0,348496.0,305284.0
2026-04-07 17:56:02.112210,300794,1632481799,1632483287,-1.056032,0.115168,0.081984,5.775,8.25125,-2.065,44.432003,2.4,55.952003,concentric,3,3.0,23015.0,328483.0,297404.0,348496.0,305284.0
2026-04-07 17:56:02.115027,300795,1632490745,1632491990,-1.05408,0.119072,0.113216,5.005,8.0675,-2.24,44.008003,2.216,55.288002,concentric,3,3.0,23015.0,328483.0,297404.0,348496.0,305284.0
2026-04-07 17:56:02.116734,300796,1632499668,1632500723,-1.05408,0.119072,0.113216,4.0775,7.27125,-2.31,44.008003,2.216,55.288002,concentric,3,3.0,23015.0,328483.0,297404.0,348496.0,305284.0
2026-04-07 17:56:02.150600,300797,1632514173,1632515670,-1.065792,0.0976,0.099552,3.5175,7.30625,-2.33625,44.160004,2.344,56.904003,concentric,3,3.0,23015.0,328483.0,297404.0,348496.0,305284.0
2026-04-07 17:56:02.152364,300798,1632523132,1632524351,-1.065792,0.0976,0.099552,3.49125,6.83375,-1.855,44.160004,2.344,56.904003,concentric,3,3.0,23015.0,328483.0,297404.0,348496.0,305284.0
2026-04-07 17:56:02.153866,300799,1632532049,1632533025,-1.056032,0.093696,0.091744,4.2875,6.51,-2.1525,44.928,2.376,55.88,concentric,3,3.0,23015.0,328483.0,297404.0,348496.0,305284.0
2026-04-07 17:56:02.185013,300800,1632546515,1632547946,-1.057984,0.095648,0.089792,6.1075,6.6675,-2.52875,44.496002,2.384,56.184002,concentric,3,3.0,23015.0,328483.0,297404.0,348496.0,305284.0
2026-04-07 17:56:02.187288,300801,1632555473,1632556677,-1.057984,0.095648,0.089792,7.4375,7.04375,-3.0275,44.496002,2.384,56.184002,concentric,3,3.0,23015.0,328483.0,297404.0,348496.0,305284.0
2026-04-07 17:56:02.191938,300802,1632564369,1632565354,-1.05408,0.111264,0.091744,7.30625,6.58875,-2.65125,44.496002,2.456,55.960003,concentric,3,3.0,23015.0,328483.0,297404.0,348496.0,305284.0
2026-04-07 17:56:02.216807,300812,1632578935,1632580334,-1.05408,0.111264,0.091744,7.34125,6.16875,-2.52,44.776,2.456,55.960003,concentric,3,3.0,23040.0,329011.0,297946.0,349251.0,305935.0
2026-04-07 17:56:02.218635,300813,1632587944,1632589036,-1.061888,0.111264,0.095648,7.18375,5.88,-2.23125,44.624,1.576,56.688004,concentric,3,3.0,23040.0,329011.0,297946.0,349251.0,305935.0
2026-04-07 17:56:02.220179,300814,1632596870,1632597806,-1.061888,0.111264,0.095648,6.265,6.46625,-2.42375,44.624,1.576,56.688004,concentric,3,3.0,23040.0,329011.0,297946.0,349251.0,305935.0
2026-04-07 17:56:02.224247,300815,1632605817,1632606540,-1.081408,0.105408,0.085888,5.59125,5.90625,-2.9225,43.872,1.448,56.120003,concentric,3,3.0,23040.0,329011.0,297946.0,349251.0,305935.0
2026-04-07 17:56:02.252734,300816,1632620839,1632621486,-1.081408,0.105408,0.085888,5.8975,6.2825,-3.815,43.872,1.448,56.120003,concentric,3,3.0,23040.0,329011.0,297946.0,349251.0,305935.0
2026-04-07 17:56:02.257389,300817,1632630071,1632632227,-1.067744,0.128832,0.081984,6.95625,6.43125,-4.3575,44.784,1.112,55.688004,concentric,3,3.0,23040.0,329011.0,297946.0,349251.0,305935.0
2026-04-07 17:56:02.259641,300818,1632638997,1632640964,-1.067744,0.128832,0.081984,8.365,6.2475,-5.5475,44.784,1.112,55.688004,concentric,3,3.0,23040.0,329011.0,297946.0,349251.0,305935.0
2026-04-07 17:56:02.321160,300819,1632653493,1632653813,-1.059936,0.130784,0.08784,8.645,5.95875,-6.51875,44.504,2.136,55.768,concentric,3,3.0,23040.0,329011.0,297946.0,349251.0,305935.0
2026-04-07 17:56:02.325659,300820,1632662676,1632664563,-1.059936,0.130784,0.08784,6.9825,5.92375,-5.95875,44.504,2.136,55.768,concentric,3,3.0,23040.0,329011.0,297946.0,349251.0,305935.0
2026-04-07 17:56:02.351245,300831,1632672037,1632673285,-1.069696,0.0976,0.091744,5.6,5.39875,-5.64375,45.104004,2.304,55.704002,concentric,3,3.0,23114.0,329790.0,298655.0,350063.0,306687.0
2026-04-07 17:56:02.356834,300832,1632680999,1632682070,-1.069696,0.0976,0.091744,5.43375,5.11,-5.74,45.104004,2.304,55.704002,concentric,3,3.0,23114.0,329790.0,298655.0,350063.0,306687.0
2026-04-07 17:56:02.357868,300833,1632695450,1632696970,-1.075552,0.093696,0.099552,6.79875,5.06625,-6.0725,45.008003,1.92,55.584003,concentric,3,3.0,23114.0,329790.0,298655.0,350063.0,306687.0
2026-04-07 17:56:02.358844,300834,1632704376,1632705646,-1.075552,0.093696,0.083936,8.39125,4.655,-7.105,45.008003,1.92,55.584003,concentric,3,3.0,23114.0,329790.0,298655.0,350063.0,306687.0
2026-04-07 17:56:02.363159,300835,1632713274,1632714347,-1.091168,0.128832,0.083936,10.885,3.5875,-7.63,44.528004,1.264,55.904003,concentric,3,3.0,23114.0,329790.0,298655.0,350063.0,306687.0
2026-04-07 17:56:02.365859,300836,1632727754,1632729287,-1.085312,0.1464,0.060512,11.4975,2.38875,-8.198751,44.800003,1.4,55.512,concentric,3,3.0,23114.0,329790.0,298655.0,350063.0,306687.0
2026-04-07 17:56:02.371812,300837,1632736693,1632738038,-1.085312,0.1464,0.060512,10.325,1.365,-8.7675,44.800003,1.4,55.512,concentric,3,3.0,23114.0,329790.0,298655.0,350063.0,306687.0
2026-04-07 17:56:02.373420,300838,1632745622,1632746734,-1.06384,0.113216,0.050752,7.77875,0.69125,-8.56625,44.648003,1.224,56.568,concentric,3,3.0,23114.0,329790.0,298655.0,350063.0,306687.0
2026-04-07 17:56:02.378011,300839,1632760142,1632761627,-1.06384,0.113216,0.050752,5.45125,-0.07875,-7.735,44.648003,1.224,56.568,concentric,3,3.0,23114.0,329790.0,298655.0,350063.0,306687.0
2026-04-07 17:56:02.431810,300849,1632769472,1632770312,-1.057984,0.083936,0.054656,4.865,-0.34125,-8.5225,44.504,1.44,57.072002,concentric,3,3.0,23169.0,330161.0,298954.0,350399.0,306947.0
2026-04-07 17:56:02.433543,300850,1632778418,1632779081,-1.057984,0.083936,0.054656,5.705,-0.83125,-7.30625,44.504,1.44,57.072002,concentric,3,3.0,23169.0,330161.0,298954.0,350399.0,306947.0
2026-04-07 17:56:02.436265,300851,1632787790,1632789853,-1.046272,0.083936,0.06832,8.04125,-0.385,-6.0725,44.376003,1.088,56.000004,concentric,3,3.0,23169.0,330161.0,298954.0,350399.0,306947.0
2026-04-07 17:56:02.439400,300852,1632802268,1632802735,-1.046272,0.083936,0.06832,9.7475,-0.25375,-5.94125,44.376003,1.088,56.000004,concentric,3,3.0,23169.0,330161.0,298954.0,350399.0,306947.0
2026-04-07 17:56:02.441032,300853,1632811617,1632813551,-1.05408,0.105408,0.080032,10.815,1.1375,-6.9825,44.168003,1.016,57.616,concentric,3,3.0,23169.0,330161.0,298954.0,350399.0,306947.0
2026-04-07 17:56:02.443477,300854,1632820582,1632822287,-1.05408,0.105408,0.080032,11.90875,1.58375,-7.455,44.168003,1.016,57.616,concentric,3,3.0,23169.0,330161.0,298954.0,350399.0,306947.0
2026-04-07 17:56:02.445169,300855,1632829542,1632831065,-1.056032,0.138592,0.093696,12.1275,1.98625,-8.365,44.312,0.896,57.520004,concentric,3,3.0,23169.0,330161.0,298954.0,350399.0,306947.0
2026-04-07 17:56:02.477376,300856,1632844088,1632846018,-1.056032,0.138592,0.093696,12.775,1.785,-9.17,44.312,0.896,57.520004,concentric,3,3.0,23169.0,330161.0,298954.0,350399.0,306947.0
2026-04-07 17:56:02.481817,300857,1632853017,1632854731,-1.06384,0.154208,0.10736,12.74,1.82,-9.89625,44.72,0.84,56.328003,concentric,3,3.0,23169.0,330161.0,298954.0,350399.0,306947.0
2026-04-07 17:56:02.483540,300858,1632861956,1632863448,-1.06384,0.154208,0.10736,11.725,2.21375,-10.0975,44.72,0.84,56.328003,concentric,3,3.0,23169.0,330161.0,298954.0,350399.0,306947.0
2026-04-07 17:56:02.507620,300868,1632876542,1632878613,-1.057984,0.140544,0.095648,9.82625,2.485,-9.75625,44.328003,1.216,56.704002,concentric,3,3.0,23222.0,330661.0,299331.0,350795.0,307340.0
2026-04-07 17:56:02.511888,300869,1632885521,1632887356,-1.0736,0.093696,0.064416,6.78125,2.89625,-10.3075,44.328003,1.216,56.920002,concentric,3,3.0,23222.0,330661.0,299331.0,350795.0,307340.0
2026-04-07 17:56:02.513415,300870,1632894432,1632896070,-1.06384,0.093696,0.064416,4.61125,3.43,-10.8325,44.52,1.056,56.920002,concentric,3,3.0,23222.0,330661.0,299331.0,350795.0,307340.0
2026-04-07 17:56:02.543684,300871,1632908982,1632910977,-1.061888,0.099552,0.050752,4.38375,3.465,-11.8475,44.848003,0.888,56.424004,concentric,3,3.0,23222.0,330661.0,299331.0,350795.0,307340.0
2026-04-07 17:56:02.547639,300872,1632917942,1632919722,-1.061888,0.099552,0.050752,6.83375,3.4825,-12.2325,44.848003,0.888,56.424004,concentric,3,3.0,23222.0,330661.0,299331.0,350795.0,307340.0
2026-04-07 17:56:02.548855,300873,1632926866,1632928428,-1.050176,0.109312,0.064416,8.84625,3.29875,-12.18,44.432003,0.896,56.128002,concentric,3,3.0,23222.0,330661.0,299331.0,350795.0,307340.0
2026-04-07 17:56:02.581402,300874,1632941408,1632943339,-1.050176,0.109312,0.064416,10.255,3.38625,-11.9525,44.432003,0.896,56.128002,concentric,3,3.0,23222.0,330661.0,299331.0,350795.0,307340.0
2026-04-07 17:56:02.583556,300875,1632950406,1632952024,-1.061888,0.105408,0.089792,10.19375,3.07125,-11.15625,44.272003,0.936,57.112003,concentric,3,3.0,23222.0,330661.0,299331.0,350795.0,307340.0
2026-04-07 17:56:02.588103,300876,1632959353,1632960684,-1.061888,0.105408,0.089792,9.2225,3.5,-9.77375,44.272003,0.936,57.112003,concentric,3,3.0,23222.0,330661.0,299331.0,350795.0,307340.0
2026-04-07 17:56:02.589830,300877,1632968257,1632969369,-1.052128,0.085888,0.081984,8.636251,3.57,-8.8725,44.424004,0.76,56.528004,concentric,3,3.0,23222.0,330661.0,299331.0,350795.0,307340.0
2026-04-07 17:56:02.618830,300888,1632982826,1632984393,-1.052128,0.085888,0.081984,8.32125,2.86125,-8.435,44.424004,0.76,56.528004,concentric,3,3.0,23274.0,331240.0,299902.0,351504.0,307910.0
2026-04-07 17:56:02.623122,300889,1632991812,1632993150,-1.052128,0.083936,0.062464,9.00375,2.6075,-8.14625,43.816,0.544,58.72,concentric,3,3.0,23274.0,331240.0,299902.0,351504.0,307910.0
2026-04-07 17:56:02.624723,300890,1633000776,1633001890,-1.052128,0.083936,0.062464,10.66625,1.81125,-7.77,43.816,0.544,58.72,concentric,3,3.0,23274.0,331240.0,299902.0,351504.0,307910.0
2026-04-07 17:56:02.631957,300891,1633015296,1633016923,-1.040416,0.111264,0.060512,12.25875,1.715,-7.63,43.68,0.168,57.632004,concentric,3,3.0,23274.0,331240.0,299902.0,351504.0,307910.0
2026-04-07 17:56:02.660399,300892,1633024254,1633025649,-1.040416,0.111264,0.060512,12.64375,2.17,-7.455,43.68,0.168,57.632004,concentric,3,3.0,23274.0,331240.0,299902.0,351504.0,307910.0
2026-04-07 17:56:02.664768,300893,1633033173,1633034340,-1.032608,0.11712,0.080032,12.67875,1.98625,-8.05,44.432003,0.248,55.952003,concentric,3,3.0,23274.0,331240.0,299902.0,351504.0,307910.0
2026-04-07 17:56:02.666248,300894,1633047670,1633049216,-1.050176,0.122976,0.076128,12.29375,2.05625,-8.295,44.664,0.448,55.176003,concentric,3,3.0,23274.0,331240.0,299902.0,351504.0,307910.0
2026-04-07 17:56:02.673527,300895,1633056604,1633057972,-1.050176,0.122976,0.076128,12.18875,1.5575,-8.96,44.664,0.448,55.176003,concentric,3,3.0,23274.0,331240.0,299902.0,351504.0,307910.0
2026-04-07 17:56:02.701488,300896,1633065533,1633066688,-1.050176,0.122976,0.076128,12.31125,1.58375,-8.855001,44.664,0.448,55.176003,concentric,3,3.0,23274.0,331240.0,299902.0,351504.0,307910.0
2026-04-07 17:56:02.728658,300906,1633074743,1633075642,-1.05408,0.130784,0.06832,11.9525,1.88125,-9.70375,44.04,0.432,56.536003,concentric,3,3.0,23248.0,331159.0,299869.0,351506.0,307918.0
2026-04-07 17:56:02.730134,300907,1633089292,1633090537,-1.067744,0.11712,0.044896,11.36625,2.49375,-10.3425,44.04,0.512,57.320004,concentric,3,3.0,23248.0,331159.0,299869.0,351506.0,307918.0
2026-04-07 17:56:02.733508,300908,1633098176,1633099298,-1.067744,0.11712,0.044896,10.12375,2.275,-10.54375,44.04,0.512,57.320004,concentric,3,3.0,23248.0,331159.0,299869.0,351506.0,307918.0
2026-04-07 17:56:02.735047,300909,1633107130,1633108050,-1.0736,0.101504,0.052704,9.555,2.9575,-10.7975,44.112003,0.008,58.320004,concentric,3,3.0,23248.0,331159.0,299869.0,351506.0,307918.0
2026-04-07 17:56:02.739331,300910,1633121697,1633122972,-1.0736,0.101504,0.052704,9.09125,3.29875,-10.75375,44.112003,0.008,58.320004,concentric,3,3.0,23248.0,331159.0,299869.0,351506.0,307918.0
2026-04-07 17:56:02.767782,300911,1633130713,1633131712,-1.11264,0.109312,0.06832,9.56375,3.955,-10.325,44.472004,0.768,57.848003,concentric,3,3.0,23248.0,331159.0,299869.0,351506.0,307918.0
2026-04-07 17:56:02.772320,300912,1633139635,1633140394,-1.11264,0.109312,0.06832,10.386251,4.7075,-10.47375,44.472004,0.768,57.848003,concentric,3,3.0,23248.0,331159.0,299869.0,351506.0,307918.0
2026-04-07 17:56:02.773890,300913,1633149082,1633151207,-1.108736,0.115168,0.095648,11.5675,4.76875,-10.167501,44.352,0.16,57.184002,concentric,3,3.0,23248.0,331159.0,299869.0,351506.0,307918.0
2026-04-07 17:56:02.779187,300914,1633163628,1633164058,-1.108736,0.115168,0.095648,10.9025,5.5125,-9.72125,44.352,0.16,57.184002,concentric,3,3.0,23248.0,331159.0,299869.0,351506.0,307918.0
2026-04-07 17:56:02.833152,300924,1633173476,1633174927,-1.128256,0.111264,0.109312,10.3425,6.27375,-9.7825,44.472004,-0.056,56.816,concentric,3,3.0,23365.0,332230.0,300801.0,352615.0,308938.0
2026-04-07 17:56:02.835932,300925,1633182483,1633183664,-1.128256,0.111264,0.109312,10.94625,6.2825,-9.31875,44.472004,-0.056,56.816,concentric,3,3.0,23365.0,332230.0,300801.0,352615.0,308938.0
2026-04-07 17:56:02.837220,300926,1633196938,1633198636,-1.138016,0.130784,0.105408,11.47125,6.1775,-8.79375,43.944,0.096,56.984,concentric,3,3.0,23365.0,332230.0,300801.0,352615.0,308938.0
2026-04-07 17:56:02.839723,300927,1633205874,1633207370,-1.138016,0.130784,0.105408,10.12375,6.51,-8.68,43.944,0.096,56.984,concentric,3,3.0,23365.0,332230.0,300801.0,352615.0,308938.0
2026-04-07 17:56:02.841332,300928,1633214821,1633216074,-1.177056,0.140544,0.06832,7.5075,7.25375,-8.77625,44.384003,-0.168,59.200005,concentric,3,3.0,23365.0,332230.0,300801.0,352615.0,308938.0
2026-04-07 17:56:02.847941,300929,1633223738,1633224823,-1.177056,0.140544,0.06832,5.18,7.67375,-8.54875,44.384003,-0.168,59.200005,concentric,3,3.0,23365.0,332230.0,300801.0,352615.0,308938.0
2026-04-07 17:56:02.854208,300930,1633238258,1633239817,-1.196576,0.142496,0.042944,2.5025,8.65375,-8.70625,44.384003,-0.512,57.488003,concentric,3,3.0,23365.0,332230.0,300801.0,352615.0,308938.0
2026-04-07 17:56:02.882681,300931,1633247200,1633248536,-1.218048,0.12688,0.050752,0.90125,9.8,-9.292501,44.384003,-0.512,57.632004,concentric,3,3.0,23365.0,332230.0,300801.0,352615.0,308938.0
2026-04-07 17:56:02.887301,300932,1633256116,1633257214,-1.218048,0.12688,0.050752,1.995,9.8525,-9.68625,44.304,-0.44,57.632004,concentric,3,3.0,23365.0,332230.0,300801.0,352615.0,308938.0
2026-04-07 17:56:02.916665,300943,1633270584,1633272472,-1.260992,0.1464,0.064416,3.6925,9.87,-9.765,44.328003,0.336,56.504,concentric,3,3.0,23434.0,332842.0,301316.0,353224.0,309577.0
2026-04-07 17:56:02.917621,300944,1633279626,1633281303,-1.260992,0.1464,0.064416,5.50375,9.89625,-10.07125,44.328003,0.336,56.504,concentric,3,3.0,23434.0,332842.0,301316.0,353224.0,309577.0
2026-04-07 17:56:02.919814,300945,1633288636,1633290106,-1.29808,0.150304,0.080032,4.935,9.765,-9.72125,44.672,0.128,57.000004,concentric,3,3.0,23434.0,332842.0,301316.0,353224.0,309577.0
2026-04-07 17:56:02.921256,300946,1633303211,1633305019,-1.29808,0.150304,0.080032,3.35125,10.54375,-9.8875,44.672,0.128,57.000004,concentric,3,3.0,23434.0,332842.0,301316.0,353224.0,309577.0
2026-04-07 17:56:02.929183,300947,1633312186,1633313789,-1.32736,0.154208,0.081984,3.38625,11.235,-10.19375,44.808002,-0.128,57.04,concentric,3,3.0,23434.0,332842.0,301316.0,353224.0,309577.0
2026-04-07 17:56:02.957740,300948,1633321120,1633322507,-1.32736,0.154208,0.081984,3.64,11.4625,-9.31875,44.808002,-0.128,57.04,concentric,3,3.0,23434.0,332842.0,301316.0,353224.0,309577.0
2026-04-07 17:56:02.963116,300949,1633335580,1633337398,-1.323456,0.134688,0.083936,3.885,10.535,-8.8725,44.368004,0.248,57.264004,concentric,3,3.0,23434.0,332842.0,301316.0,353224.0,309577.0
2026-04-07 17:56:02.964607,300950,1633344526,1633346131,-1.323456,0.134688,0.083936,4.06,10.167501,-7.41125,44.368004,0.248,57.264004,concentric,3,3.0,23434.0,332842.0,301316.0,353224.0,309577.0
2026-04-07 17:56:02.968349,300951,1633353463,1633354794,-1.3176,0.12688,0.066368,4.80375,10.64,-6.5625,44.776,-0.112,56.792004,concentric,3,3.0,23434.0,332842.0,301316.0,353224.0,309577.0
2026-04-07 17:56:02.998730,300952,1633362429,1633363481,-1.3176,0.12688,0.066368,6.36125,10.92,-5.36375,44.776,-0.112,56.792004,concentric,3,3.0,23434.0,332842.0,301316.0,353224.0,309577.0
2026-04-07 17:56:03.025577,300962,1633377359,1633378440,-1.305888,0.160064,0.062464,5.4075,11.48875,-4.6725,44.608,0.264,56.968002,concentric,3,3.0,23494.0,333167.0,301555.0,353435.0,309732.0
2026-04-07 17:56:03.027363,300963,1633386322,1633387148,-1.305888,0.160064,0.062464,3.1325,12.18875,-4.1125,44.608,0.264,56.968002,concentric,3,3.0,23494.0,333167.0,301555.0,353435.0,309732.0
2026-04-07 17:56:03.028860,300964,1633395257,1633395915,-1.296128,0.158112,0.062464,-2.17,13.22125,-3.4125,44.792004,-0.24,56.448,concentric,3,3.0,23494.0,333167.0,301555.0,353435.0,309732.0
2026-04-07 17:56:03.035739,300965,1633410359,1633410983,-1.27856,0.130784,0.060512,-8.5575,13.475,-2.4325,45.024002,1.088,57.512,concentric,3,3.0,23494.0,333167.0,301555.0,353435.0,309732.0
2026-04-07 17:56:03.037256,300966,1633419623,1633421765,-1.27856,0.130784,0.060512,-13.0025,12.81,-1.18125,45.024002,1.088,57.512,concentric,3,3.0,23494.0,333167.0,301555.0,353435.0,309732.0
2026-04-07 17:56:03.067469,300967,1633428622,1633430484,-1.2688,0.115168,0.072224,-14.971251,12.3375,-0.42,44.920002,0.536,58.744003,concentric,3,3.0,23494.0,333167.0,301555.0,353435.0,309732.0
2026-04-07 17:56:03.069697,300968,1633437538,1633439148,-1.2688,0.115168,0.072224,-16.3625,12.55625,1.11125,44.920002,0.536,58.744003,concentric,3,3.0,23494.0,333167.0,301555.0,353435.0,309732.0
2026-04-07 17:56:03.076011,300969,1633452021,1633454084,-1.245376,0.093696,0.046848,-17.2025,11.8125,2.23125,45.456,0.968,56.256004,concentric,3,3.0,23494.0,333167.0,301555.0,353435.0,309732.0
2026-04-07 17:56:03.077908,300970,1633460955,1633462777,-1.245376,0.093696,0.046848,-17.15,10.955,3.9025,45.456,0.968,56.256004,concentric,3,3.0,23494.0,333167.0,301555.0,353435.0,309732.0
2026-04-07 17:56:03.088153,300971,1633469866,1633471447,-1.194624,0.081984,0.046848,-16.6425,10.73625,4.73375,45.208004,0.632,56.552002,concentric,3,3.0,23494.0,333167.0,301555.0,353435.0,309732.0
