pc_time,serial_num,sensor_ts,host_ts,ax,ay,az,gx,gy,gz,mx,my,mz,phase,rpe,weight_kg,ppg_a,ppg_b,ppg_c,ppg_d,ppg_e
2026-04-07 18:04:45.439425,397242,2155756904,2155757908,-1.241472,0.15616,0.037088,6.405,-8.65375,1.9775,41.72,-3.528,59.656002,eccentric,6,3.0,23388.0,319901.0,285168.0,331299.0,292196.0
2026-04-07 18:04:45.441064,397243,2155765861,2155766653,-1.241472,0.15616,0.037088,3.75375,-8.5225,2.1875,41.72,-3.528,59.656002,eccentric,6,3.0,23388.0,319901.0,285168.0,331299.0,292196.0
2026-04-07 18:04:45.446027,397244,2155780331,2155781532,-1.216096,0.148352,0.025376,1.47,-8.295,2.40625,41.04,-3.312,60.112003,eccentric,6,3.0,23388.0,319901.0,285168.0,331299.0,292196.0
2026-04-07 18:04:45.447711,397245,2155789303,2155790301,-1.216096,0.148352,0.025376,0.5075,-7.60375,2.80875,41.04,-3.312,60.112003,eccentric,6,3.0,23388.0,319901.0,285168.0,331299.0,292196.0
2026-04-07 18:04:45.448688,397246,2155798270,2155799033,-1.216096,0.154208,0.015616,0.07875,-7.09625,2.79125,40.456,-3.048,60.24,eccentric,6,3.0,23388.0,319901.0,285168.0,331299.0,292196.0
2026-04-07 18:04:45.452761,397247,2155807766,2155809948,-1.216096,0.154208,0.015616,0.0525,-6.50125,2.37125,40.456,-3.048,60.24,eccentric,6,3.0,23388.0,319901.0,285168.0,331299.0,292196.0
2026-04-07 18:04:45.454280,397248,2155822267,2155822933,-1.206336,0.154208,0.013664,0.6125,-6.36125,2.31,40.960003,-3.648,59.184002,eccentric,6,3.0,23388.0,319901.0,285168.0,331299.0,292196.0
2026-04-07 18:04:45.484665,397249,2155831552,2155833758,-1.206336,0.154208,0.013664,0.8225,-5.6875,2.485,40.960003,-3.648,59.184002,eccentric,6,3.0,23388.0,319901.0,285168.0,331299.0,292196.0
2026-04-07 18:04:45.489204,397250,2155840487,2155842423,-1.167296,0.160064,0.027328,0.56875,-4.655,2.40625,40.824,-3.04,59.640003,eccentric,6,3.0,23388.0,319901.0,285168.0,331299.0,292196.0
2026-04-07 18:04:45.517756,397260,2155855037,2155855390,-1.167296,0.160064,0.027328,-0.98875,-3.87625,2.1875,40.824,-3.04,59.640003,eccentric,6,3.0,23304.0,318909.0,284169.0,329973.0,291024.0
2026-04-07 18:04:45.519416,397261,2155864308,2155866284,-1.169248,0.144448,0.035136,-1.82875,-2.79125,1.86375,40.896004,-2.48,59.736004,eccentric,6,3.0,23304.0,318909.0,284169.0,329973.0,291024.0
2026-04-07 18:04:45.520981,397262,2155873258,2155874982,-1.169248,0.144448,0.035136,-2.03,-2.03,2.14375,40.896004,-2.48,59.736004,eccentric,6,3.0,23304.0,318909.0,284169.0,329973.0,291024.0
2026-04-07 18:04:45.527101,397263,2155882205,2155883732,-1.165344,0.132736,0.01952,-2.625,-1.40875,1.84625,40.424004,-2.28,59.232002,eccentric,6,3.0,23304.0,318909.0,284169.0,329973.0,291024.0
2026-04-07 18:04:45.530224,397264,2155896751,2155898628,-1.134112,0.140544,0.005856,-2.12625,-0.93625,1.54875,40.424004,-2.28,59.808002,eccentric,6,3.0,23304.0,318909.0,284169.0,329973.0,291024.0
2026-04-07 18:04:45.582172,397265,2155905688,2155907369,-1.136064,0.140544,0.005856,-1.6275,-0.28,1.11125,40.24,-2.872,59.808002,eccentric,6,3.0,23304.0,318909.0,284169.0,329973.0,291024.0
2026-04-07 18:04:45.584412,397266,2155914598,2155916089,-1.136064,0.140544,0.005856,-0.91875,-0.14,1.155,40.24,-2.872,59.808002,eccentric,6,3.0,23304.0,318909.0,284169.0,329973.0,291024.0
2026-04-07 18:04:45.589003,397267,2155929076,2155930979,-1.130208,0.148352,0.003904,-1.1375,0.0,0.83125,40.056004,-2.272,59.112003,eccentric,6,3.0,23304.0,318909.0,284169.0,329973.0,291024.0
2026-04-07 18:04:45.590778,397268,2155937978,2155939661,-1.10288,0.140544,0.003904,-2.2225,0.37625,0.315,40.36,-1.992,57.552002,eccentric,6,3.0,23304.0,318909.0,284169.0,329973.0,291024.0
2026-04-07 18:04:45.592263,397269,2155946892,2155948338,-1.10288,0.140544,0.003904,-3.12375,0.3675,-0.0875,40.36,-1.992,57.552002,eccentric,6,3.0,23304.0,318909.0,284169.0,329973.0,291024.0
2026-04-07 18:04:45.617232,397279,2155961435,2155963308,-1.09312,0.134688,0.013664,-4.27,0.6125,-0.25375,39.952003,-2.216,59.232002,eccentric,6,3.0,23075.0,316451.0,281911.0,327274.0,288684.0
2026-04-07 18:04:45.621471,397280,2155970540,2155972056,-1.09312,0.134688,0.013664,-4.10375,1.155,-0.98,39.952003,-2.216,59.232002,eccentric,6,3.0,23075.0,316451.0,281911.0,327274.0,288684.0
2026-04-07 18:04:45.623162,397281,2155979578,2155980785,-1.097024,0.13664,0.0,-2.24,2.23125,-2.38875,39.504,-2.544,59.56,eccentric,6,3.0,23075.0,316451.0,281911.0,327274.0,288684.0
2026-04-07 18:04:45.624728,397282,2155988555,2155989487,-1.097024,0.13664,0.0,-0.20125,2.66,-3.0275,39.504,-2.544,59.56,eccentric,6,3.0,23075.0,316451.0,281911.0,327274.0,288684.0
2026-04-07 18:04:45.655707,397283,2156003219,2156004490,-1.059936,0.140544,0.003904,0.48125,2.2575,-3.745,39.432003,-2.456,59.568005,eccentric,6,3.0,23075.0,316451.0,281911.0,327274.0,288684.0
2026-04-07 18:04:45.660305,397284,2156012196,2156013230,-1.059936,0.140544,0.003904,0.83125,3.1675,-4.27875,39.432003,-2.456,59.568005,eccentric,6,3.0,23075.0,316451.0,281911.0,327274.0,288684.0
2026-04-07 18:04:45.661868,397285,2156021145,2156021922,-1.052128,0.140544,0.00976,0.69125,3.9025,-4.83875,39.480003,-1.688,58.416004,eccentric,6,3.0,23075.0,316451.0,281911.0,327274.0,288684.0
2026-04-07 18:04:45.667617,397286,2156036141,2156037196,-1.052128,0.140544,0.00976,-1.0325,4.97,-4.71625,39.480003,-1.688,58.416004,eccentric,6,3.0,23075.0,316451.0,281911.0,327274.0,288684.0
2026-04-07 18:04:45.676339,397287,2156045044,2156046270,-1.03456,0.130784,0.00976,-2.79125,5.0575,-4.515,39.552002,-2.104,59.216003,eccentric,6,3.0,23075.0,316451.0,281911.0,327274.0,288684.0
2026-04-07 18:04:45.732786,397298,2156053948,2156055312,-1.03456,0.130784,0.00976,-4.66375,4.7775,-4.38375,39.552002,-2.104,59.216003,eccentric,6,3.0,22741.0,313106.0,278815.0,323555.0,285511.0
2026-04-07 18:04:45.734484,397299,2156062980,2156064018,-1.03456,0.10736,-0.005856,-5.285,4.85625,-4.0075,39.672,-2.136,58.992004,eccentric,6,3.0,22741.0,313106.0,278815.0,323555.0,285511.0
2026-04-07 18:04:45.736160,397300,2156077480,2156078915,-1.03456,0.124928,-0.015616,-4.24375,4.97,-3.96375,39.672,-2.136,58.992004,eccentric,6,3.0,22741.0,313106.0,278815.0,323555.0,285511.0
2026-04-07 18:04:45.740181,397301,2156086426,2156087653,-1.03456,0.124928,-0.015616,-0.8925,6.23875,-4.0775,39.704002,-1.632,57.968002,eccentric,6,3.0,22741.0,313106.0,278815.0,323555.0,285511.0
2026-04-07 18:04:45.741799,397302,2156095452,2156096354,-1.03456,0.124928,-0.015616,1.3125,5.59125,-4.31375,39.704002,-1.632,57.968002,eccentric,6,3.0,22741.0,313106.0,278815.0,323555.0,285511.0
2026-04-07 18:04:45.747713,397303,2156109976,2156111329,-1.026752,0.138592,-0.001952,1.5225,5.83625,-4.5675,39.032,-1.896,58.808002,eccentric,6,3.0,22741.0,313106.0,278815.0,323555.0,285511.0
2026-04-07 18:04:45.749289,397304,2156118956,2156120115,-0.999424,0.132736,0.01952,1.18125,5.76625,-4.795,39.280003,-1.816,56.232002,eccentric,6,3.0,22741.0,313106.0,278815.0,323555.0,285511.0
2026-04-07 18:04:45.779668,397305,2156127921,2156128809,-0.999424,0.132736,0.01952,0.5075,6.11625,-5.03125,39.280003,-1.816,56.232002,eccentric,6,3.0,22741.0,313106.0,278815.0,323555.0,285511.0
2026-04-07 18:04:45.781963,397306,2156142521,2156143680,-0.987712,0.12688,0.025376,1.365,6.13375,-5.0225,39.616,-0.984,57.608,eccentric,6,3.0,22741.0,313106.0,278815.0,323555.0,285511.0
2026-04-07 18:04:45.786517,397307,2156151431,2156152369,-0.987712,0.12688,0.025376,2.49375,6.125,-4.9,39.616,-0.984,57.608,eccentric,6,3.0,22741.0,313106.0,278815.0,323555.0,285511.0
2026-04-07 18:04:45.810626,397317,2156160569,2156161257,-0.958432,0.12688,0.015616,2.73,5.8275,-4.5325,39.984,-0.888,57.4,eccentric,6,3.0,22466.0,310173.0,276046.0,320193.0,282556.0
2026-04-07 18:04:45.812233,397318,2156170161,2156172065,-0.958432,0.12688,0.015616,2.77375,5.775,-4.7425,39.984,-0.888,57.4,eccentric,6,3.0,22466.0,310173.0,276046.0,320193.0,282556.0
2026-04-07 18:04:45.817673,397319,2156184778,2156186979,-0.94672,0.121024,0.005856,1.9775,5.97625,-4.89125,39.416,-1.584,57.848003,eccentric,6,3.0,22466.0,310173.0,276046.0,320193.0,282556.0
2026-04-07 18:04:45.846590,397320,2156193899,2156195711,-0.94672,0.121024,0.005856,1.3825,5.9325,-4.57625,39.416,-1.584,57.848003,eccentric,6,3.0,22466.0,310173.0,276046.0,320193.0,282556.0
2026-04-07 18:04:45.883343,397321,2156202891,2156204413,-0.933056,0.121024,-0.001952,0.385,5.7575,-4.0775,38.984,-1.376,57.192,eccentric,6,3.0,22466.0,310173.0,276046.0,320193.0,282556.0
2026-04-07 18:04:45.885608,397322,2156217362,2156219325,-0.933056,0.121024,-0.001952,-0.2625,5.6525,-4.03375,38.984,-1.376,57.192,eccentric,6,3.0,22466.0,310173.0,276046.0,320193.0,282556.0
2026-04-07 18:04:45.890196,397323,2156226340,2156228016,-0.9272,0.11712,-0.007808,0.1225,5.5825,-3.99,39.592003,-1.072,56.216003,eccentric,6,3.0,22466.0,310173.0,276046.0,320193.0,282556.0
2026-04-07 18:04:45.891925,397324,2156235293,2156236680,-0.9272,0.11712,-0.007808,0.805,5.57375,-3.94625,39.592003,-1.072,56.216003,eccentric,6,3.0,22466.0,310173.0,276046.0,320193.0,282556.0
2026-04-07 18:04:45.894389,397325,2156244211,2156245374,-0.89792,0.134688,0.023424,1.575,5.3725,-4.2525,39.136,-1.456,56.920002,eccentric,6,3.0,22466.0,310173.0,276046.0,320193.0,282556.0
2026-04-07 18:04:45.922391,397335,2156259191,2156260667,-0.913536,0.140544,0.01952,1.96875,5.48625,-4.75125,39.712,-0.944,55.360004,eccentric,6,3.0,22364.0,309147.0,275005.0,318895.0,281386.0
2026-04-07 18:04:45.926140,397336,2156268202,2156269365,-0.913536,0.140544,0.01952,0.48125,5.0925,-4.9175,39.712,-0.944,55.360004,eccentric,6,3.0,22364.0,309147.0,275005.0,318895.0,281386.0
2026-04-07 18:04:45.928274,397337,2156277129,2156278060,-0.913536,0.140544,0.01952,-0.86625,5.74875,-4.97875,39.712,-0.944,55.360004,eccentric,6,3.0,22364.0,309147.0,275005.0,318895.0,281386.0
2026-04-07 18:04:45.929711,397338,2156291758,2156293026,-0.911584,0.140544,0.023424,-1.26,5.495,-5.0225,39.504,-1.224,57.200005,eccentric,6,3.0,22364.0,309147.0,275005.0,318895.0,281386.0
2026-04-07 18:04:45.933808,397339,2156300769,2156301795,-0.905728,0.142496,0.021472,-0.62125,5.06625,-5.81875,40.072002,-0.416,57.448,eccentric,6,3.0,22364.0,309147.0,275005.0,318895.0,281386.0
2026-04-07 18:04:45.962475,397340,2156309754,2156310492,-0.905728,0.142496,0.021472,-0.175,4.73375,-6.48375,40.072002,-0.416,57.448,eccentric,6,3.0,22364.0,309147.0,275005.0,318895.0,281386.0
2026-04-07 18:04:45.966936,397341,2156319088,2156321254,-0.903776,0.142496,0.021472,0.79625,4.1475,-7.1225,39.584003,-0.696,57.08,eccentric,6,3.0,22364.0,309147.0,275005.0,318895.0,281386.0
2026-04-07 18:04:45.968520,397342,2156333659,2156334096,-0.903776,0.142496,0.021472,2.26625,3.6925,-8.21625,39.584003,-0.696,57.08,eccentric,6,3.0,22364.0,309147.0,275005.0,318895.0,281386.0
2026-04-07 18:04:45.976283,397343,2156343108,2156344897,-0.886208,0.140544,0.035136,3.38625,3.42125,-8.715,39.752003,-0.8,56.488003,eccentric,6,3.0,22364.0,309147.0,275005.0,318895.0,281386.0
2026-04-07 18:04:46.008151,397344,2156352075,2156353625,-0.886208,0.140544,0.035136,3.675,3.1675,-9.21375,39.752003,-0.8,56.488003,eccentric,6,3.0,22364.0,309147.0,275005.0,318895.0,281386.0
2026-04-07 18:04:46.039049,397355,2156361214,2156362414,-0.899872,0.142496,0.042944,2.6425,3.115,-9.59,39.512,-0.648,56.360004,eccentric,6,3.0,22755.0,312139.0,277328.0,321319.0,283406.0
2026-04-07 18:04:46.040622,397356,2156375681,2156377360,-0.899872,0.142496,0.042944,0.63875,3.6225,-9.00375,39.512,-0.648,56.360004,eccentric,6,3.0,22755.0,312139.0,277328.0,321319.0,283406.0
2026-04-07 18:04:46.042251,397357,2156384610,2156386049,-0.89792,0.132736,0.044896,-0.86625,4.17375,-8.4875,39.544003,-0.648,55.688004,eccentric,6,3.0,22755.0,312139.0,277328.0,321319.0,283406.0
2026-04-07 18:04:46.050216,397358,2156393509,2156394742,-0.89792,0.132736,0.044896,0.21875,4.1125,-8.26875,39.544003,-0.648,55.688004,eccentric,6,3.0,22755.0,312139.0,277328.0,321319.0,283406.0
2026-04-07 18:04:46.051974,397359,2156408060,2156409788,-0.890112,0.134688,0.052704,0.91875,4.2175,-8.04125,38.760002,-0.92,56.704002,eccentric,6,3.0,22755.0,312139.0,277328.0,321319.0,283406.0
2026-04-07 18:04:46.053571,397360,2156417007,2156418490,-0.890112,0.134688,0.052704,0.51625,4.375,-7.69125,38.760002,-0.92,56.704002,eccentric,6,3.0,22755.0,312139.0,277328.0,321319.0,283406.0
2026-04-07 18:04:46.057575,397361,2156425907,2156427167,-0.884256,0.15616,0.064416,-1.72375,4.92625,-7.35,38.960003,-0.64,57.848003,eccentric,6,3.0,22755.0,312139.0,277328.0,321319.0,283406.0
2026-04-07 18:04:46.088989,397362,2156440381,2156442102,-0.892064,0.152256,0.044896,-4.15625,4.41,-6.23875,39.664,-0.752,57.472004,eccentric,6,3.0,22755.0,312139.0,277328.0,321319.0,283406.0
2026-04-07 18:04:46.090694,397363,2156449305,2156450793,-0.892064,0.152256,0.044896,-8.88125,3.7975,-4.31375,39.664,-0.752,57.472004,eccentric,6,3.0,22755.0,312139.0,277328.0,321319.0,283406.0
2026-04-07 18:04:46.115700,397373,2156458340,2156459669,-0.892064,0.152256,0.044896,-13.53625,4.1825,-3.465,39.664,-0.752,57.472004,eccentric,6,3.0,23107.0,314466.0,278959.0,322903.0,284704.0
2026-04-07 18:04:46.117250,397374,2156473033,2156474682,-0.90768,0.109312,0.031232,-14.245,4.2175,-3.70125,39.784,0.016,56.192,eccentric,6,3.0,23107.0,314466.0,278959.0,322903.0,284704.0
2026-04-07 18:04:46.119666,397375,2156482059,2156483458,-0.903776,0.134688,0.027328,-10.78,4.08625,-3.92,38.800003,-0.984,56.176003,eccentric,6,3.0,23107.0,314466.0,278959.0,322903.0,284704.0
2026-04-07 18:04:46.123843,397376,2156491010,2156492217,-0.903776,0.134688,0.027328,-5.78375,4.5325,-4.48,38.800003,-0.984,56.176003,eccentric,6,3.0,23107.0,314466.0,278959.0,322903.0,284704.0
2026-04-07 18:04:46.180850,397377,2156499964,2156500953,-0.89792,0.171776,0.05856,-1.88125,5.1975,-4.50625,39.304,-0.12,55.656002,eccentric,6,3.0,23107.0,314466.0,278959.0,322903.0,284704.0
2026-04-07 18:04:46.185219,397378,2156514439,2156515837,-0.89792,0.171776,0.05856,-0.42,5.73125,-3.5175,39.304,-0.12,55.656002,eccentric,6,3.0,23107.0,314466.0,278959.0,322903.0,284704.0
2026-04-07 18:04:46.186910,397379,2156523372,2156524503,-0.894016,0.173728,0.089792,-0.30625,7.20125,-3.815,39.68,-0.16,55.616,eccentric,6,3.0,23107.0,314466.0,278959.0,322903.0,284704.0
2026-04-07 18:04:46.188472,397380,2156532295,2156533242,-0.894016,0.173728,0.089792,-1.5575,7.7875,-3.29,39.68,-0.16,55.616,eccentric,6,3.0,23107.0,314466.0,278959.0,322903.0,284704.0
2026-04-07 18:04:46.192698,397381,2156546753,2156548150,-0.933056,0.169824,0.091744,-1.7325,8.46125,-3.61375,40.088,-0.864,55.440002,eccentric,6,3.0,23107.0,314466.0,278959.0,322903.0,284704.0
2026-04-07 18:04:46.194521,397382,2156555659,2156556833,-0.933056,0.169824,0.091744,-1.9425,9.00375,-4.2875,40.088,-0.864,55.440002,eccentric,6,3.0,23107.0,314466.0,278959.0,322903.0,284704.0
2026-04-07 18:04:46.221011,397392,2156564580,2156565586,-0.972096,0.189344,0.052704,-1.575,9.49375,-4.99625,39.624,-0.512,56.888004,eccentric,6,3.0,22584.0,310333.0,275599.0,319173.0,281456.0
2026-04-07 18:04:46.223510,397393,2156579120,2156580567,-0.972096,0.189344,0.052704,0.0175,8.68,-6.6675,39.624,-0.512,56.888004,eccentric,6,3.0,22584.0,310333.0,275599.0,319173.0,281456.0
2026-04-07 18:04:46.225957,397394,2156588043,2156589320,-1.001376,0.212768,0.042944,0.95375,8.085,-8.25125,40.0,-0.096,55.888004,eccentric,6,3.0,22584.0,310333.0,275599.0,319173.0,281456.0
2026-04-07 18:04:46.228549,397395,2156596977,2156598045,-1.001376,0.212768,0.042944,2.21375,7.79625,-9.44125,40.0,-0.096,55.888004,eccentric,6,3.0,22584.0,310333.0,275599.0,319173.0,281456.0
2026-04-07 18:04:46.259653,397396,2156611501,2156612974,-1.036512,0.210816,0.031232,2.24875,6.95625,-9.8,40.088,-0.456,55.992004,eccentric,6,3.0,22584.0,310333.0,275599.0,319173.0,281456.0
2026-04-07 18:04:46.264002,397397,2156620423,2156621686,-1.050176,0.152256,0.023424,0.34125,6.09,-9.56375,40.088,-0.144,55.064003,eccentric,6,3.0,22584.0,310333.0,275599.0,319173.0,281456.0
2026-04-07 18:04:46.265544,397398,2156629330,2156630417,-1.050176,0.152256,0.023424,-0.63875,5.0925,-9.45875,39.544003,-0.144,55.064003,eccentric,6,3.0,22584.0,310333.0,275599.0,319173.0,281456.0
2026-04-07 18:04:46.270027,397399,2156638233,2156639109,-1.050176,0.152256,0.023424,0.77875,3.7275,-8.82,39.544003,-0.144,55.064003,eccentric,6,3.0,22584.0,310333.0,275599.0,319173.0,281456.0
2026-04-07 18:04:46.298701,397400,2156652778,2156654070,-1.075552,0.121024,0.044896,4.0075,3.01875,-7.83125,40.008003,-0.368,55.176003,eccentric,6,3.0,22584.0,310333.0,275599.0,319173.0,281456.0
2026-04-07 18:04:46.332744,397411,2156661860,2156662853,-1.036512,0.124928,0.06832,8.26875,1.42625,-7.27125,40.368,-0.392,54.2,eccentric,6,3.0,22517.0,309870.0,275335.0,319034.0,281451.0
2026-04-07 18:04:46.334481,397412,2156670797,2156671578,-1.036512,0.124928,0.06832,14.35,-0.06125,-6.11625,40.368,-0.392,54.2,eccentric,6,3.0,22517.0,309870.0,275335.0,319034.0,281451.0
2026-04-07 18:04:46.335978,397413,2156685287,2156686562,-1.038464,0.16592,0.089792,22.19875,-0.7175,-4.41875,40.264004,-0.84,55.112003,eccentric,6,3.0,22517.0,309870.0,275335.0,319034.0,281451.0
2026-04-07 18:04:46.340211,397414,2156694207,2156695313,-1.038464,0.16592,0.089792,28.595,-1.53125,-2.52875,40.264004,-0.84,55.112003,eccentric,6,3.0,22517.0,309870.0,275335.0,319034.0,281451.0
2026-04-07 18:04:46.342652,397415,2156703184,2156704015,-1.030656,0.203008,0.0976,32.2,-1.67125,-1.70625,39.616,-0.88,55.496002,eccentric,6,3.0,22517.0,309870.0,275335.0,319034.0,281451.0
2026-04-07 18:04:46.348913,397416,2156717658,2156718992,-1.030656,0.203008,0.0976,34.04625,-2.16125,-0.8225,39.616,-0.88,55.496002,eccentric,6,3.0,22517.0,309870.0,275335.0,319034.0,281451.0
2026-04-07 18:04:46.377365,397417,2156726558,2156727681,-1.016992,0.216672,0.109312,34.3525,-2.3275,-0.41125,39.488003,-1.904,55.536003,eccentric,6,3.0,22517.0,309870.0,275335.0,319034.0,281451.0
2026-04-07 18:04:46.381769,397418,2156735495,2156736363,-1.016992,0.216672,0.109312,34.95625,-1.88125,0.0,39.488003,-1.904,55.536003,eccentric,6,3.0,22517.0,309870.0,275335.0,319034.0,281451.0
2026-04-07 18:04:46.400365,397419,2156749955,2156751346,-1.028704,0.210816,0.11712,34.51875,-1.435,-0.315,40.304,-1.408,55.464005,eccentric,6,3.0,22517.0,309870.0,275335.0,319034.0,281451.0
2026-04-07 18:04:46.434835,397429,2156759017,2156760160,-1.028704,0.210816,0.11712,32.6725,-0.91,-1.3475,40.304,-1.408,55.464005,eccentric,6,3.0,23152.0,314781.0,279240.0,323315.0,285129.0
2026-04-07 18:04:46.439026,397430,2156768024,2156768944,-1.040416,0.17568,0.152256,29.522501,-0.84,-3.17625,39.608,-2.392,56.496002,eccentric,6,3.0,23152.0,314781.0,279240.0,323315.0,285129.0
2026-04-07 18:04:46.440743,397431,2156777129,2156777727,-1.040416,0.17568,0.152256,23.0825,-0.6475,-5.355,39.608,-2.392,56.496002,eccentric,6,3.0,23152.0,314781.0,279240.0,323315.0,285129.0
2026-04-07 18:04:46.442227,397432,2156792078,2156792644,-1.087264,0.115168,0.191296,15.2075,-0.69125,-7.9275,39.528004,-1.472,55.976,eccentric,6,3.0,23152.0,314781.0,279240.0,323315.0,285129.0
2026-04-07 18:04:46.446500,397433,2156801340,2156803408,-1.097024,0.0488,0.210816,7.0875,-1.12,-10.73625,39.528004,-1.544,58.280003,eccentric,6,3.0,23152.0,314781.0,279240.0,323315.0,285129.0
2026-04-07 18:04:46.449218,397434,2156810328,2156812136,-1.097024,0.0488,0.210816,0.6825,-2.24875,-13.16875,39.272003,-1.544,58.280003,eccentric,6,3.0,23152.0,314781.0,279240.0,323315.0,285129.0
2026-04-07 18:04:46.482136,397435,2156819280,2156820848,-1.097024,0.0488,0.210816,-4.01625,-2.9925,-14.44625,39.272003,-1.544,58.280003,eccentric,6,3.0,23152.0,314781.0,279240.0,323315.0,285129.0
2026-04-07 18:04:46.486517,397436,2156833780,2156835739,-1.065792,0.072224,0.144448,-5.8975,-3.64875,-14.2275,39.872,-1.624,57.280003,eccentric,6,3.0,23152.0,314781.0,279240.0,323315.0,285129.0
2026-04-07 18:04:46.488206,397437,2156842739,2156844427,-1.061888,0.13664,0.050752,-6.0725,-3.4125,-12.46875,39.488003,-1.616,55.776,eccentric,6,3.0,23152.0,314781.0,279240.0,323315.0,285129.0
2026-04-07 18:04:46.489718,397438,2156851708,2156853168,-1.061888,0.13664,0.050752,-6.93875,-3.675,-10.26375,39.488003,-1.616,55.776,eccentric,6,3.0,23152.0,314781.0,279240.0,323315.0,285129.0
2026-04-07 18:04:46.516466,397448,2156866332,2156868194,-1.056032,0.169824,-0.015616,-8.46125,-3.94625,-7.98875,39.192,-1.768,57.112003,eccentric,6,3.0,23041.0,313943.0,278531.0,322412.0,284273.0
2026-04-07 18:04:46.518182,397449,2156875298,2156876936,-1.056032,0.169824,-0.015616,-10.2725,-3.54375,-6.09,39.192,-1.768,57.112003,eccentric,6,3.0,23041.0,313943.0,278531.0,322412.0,284273.0
2026-04-07 18:04:46.519750,397450,2156884206,2156885698,-1.059936,0.1952,-0.003904,-11.34,-2.7825,-5.39875,39.064003,-1.032,56.984,eccentric,6,3.0,23041.0,313943.0,278531.0,322412.0,284273.0
2026-04-07 18:04:46.553284,397451,2156898763,2156900678,-1.059936,0.1952,-0.003904,-9.98375,-2.52,-4.75125,39.064003,-1.032,56.984,eccentric,6,3.0,23041.0,313943.0,278531.0,322412.0,284273.0
2026-04-07 18:04:46.555579,397452,2156907690,2156909380,-1.052128,0.20496,0.044896,-7.44625,-2.54625,-3.8325,39.528004,-0.888,55.944004,eccentric,6,3.0,23041.0,313943.0,278531.0,322412.0,284273.0
2026-04-07 18:04:46.560112,397453,2156916606,2156918066,-1.052128,0.20496,0.044896,-4.36625,-3.22,-3.57875,39.528004,-0.888,55.944004,eccentric,6,3.0,23041.0,313943.0,278531.0,322412.0,284273.0
2026-04-07 18:04:46.563864,397454,2156931096,2156932963,-1.040416,0.189344,0.0488,-2.66875,-3.26375,-3.36875,39.584003,-1.416,56.096004,eccentric,6,3.0,23041.0,313943.0,278531.0,322412.0,284273.0
2026-04-07 18:04:46.592436,397455,2156940039,2156941659,-1.040416,0.189344,0.0488,-0.1925,-2.7125,-3.9725,39.584003,-1.416,56.096004,eccentric,6,3.0,23041.0,313943.0,278531.0,322412.0,284273.0
2026-04-07 18:04:46.596847,397456,2156949018,2156950391,-1.026752,0.193248,0.050752,2.82625,-2.17875,-4.29625,39.456,-1.12,57.864002,eccentric,6,3.0,23041.0,313943.0,278531.0,322412.0,284273.0
2026-04-07 18:04:46.603888,397457,2156957966,2156959073,-1.026752,0.193248,0.050752,5.53875,-1.54,-4.375,39.456,-1.12,57.864002,eccentric,6,3.0,23041.0,313943.0,278531.0,322412.0,284273.0
2026-04-07 18:04:46.663125,397468,2156972481,2156974023,-1.03456,0.201056,0.033184,7.63,0.02625,-5.24125,39.248,-1.512,56.072002,eccentric,6,3.0,22530.0,310039.0,275528.0,319221.0,281606.0
2026-04-07 18:04:46.667753,397469,2156981438,2156982740,-1.03456,0.201056,0.027328,9.00375,0.56875,-5.4075,39.248,-1.512,56.072002,eccentric,6,3.0,22530.0,310039.0,275528.0,319221.0,281606.0
2026-04-07 18:04:46.669481,397470,2156990498,2156991480,-1.036512,0.197152,0.027328,10.00125,1.07625,-6.0375,38.416,-2.024,58.728004,eccentric,6,3.0,22530.0,310039.0,275528.0,319221.0,281606.0
2026-04-07 18:04:46.670990,397471,2157005035,2157006444,-1.050176,0.173728,0.023424,9.89625,1.7325,-6.93875,39.512,-1.864,56.264004,eccentric,6,3.0,22530.0,310039.0,275528.0,319221.0,281606.0
2026-04-07 18:04:46.675201,397472,2157013936,2157015139,-1.050176,0.173728,0.023424,9.730001,2.3975,-6.97375,39.512,-1.864,56.264004,eccentric,6,3.0,22530.0,310039.0,275528.0,319221.0,281606.0
2026-04-07 18:04:46.676967,397473,2157022893,2157023812,-1.038464,0.152256,0.021472,10.28125,3.01875,-7.2625,39.312,-1.288,56.280003,eccentric,6,3.0,22530.0,310039.0,275528.0,319221.0,281606.0
2026-04-07 18:04:46.678651,397474,2157037409,2157038698,-1.038464,0.152256,0.021472,12.355001,3.42125,-7.1225,39.312,-1.288,56.280003,eccentric,6,3.0,22530.0,310039.0,275528.0,319221.0,281606.0
2026-04-07 18:04:46.682555,397475,2157046340,2157047415,-1.038464,0.150304,0.031232,13.658751,4.1475,-7.35,39.84,-1.272,56.152004,eccentric,6,3.0,22530.0,310039.0,275528.0,319221.0,281606.0
2026-04-07 18:04:46.686371,397476,2157055285,2157056179,-1.038464,0.150304,0.031232,13.7025,4.1825,-6.8775,39.84,-1.272,56.152004,eccentric,6,3.0,22530.0,310039.0,275528.0,319221.0,281606.0
2026-04-07 18:04:46.713989,397486,2157064364,2157065080,-1.056032,0.152256,0.031232,14.35,4.68125,-6.16875,38.792004,-1.464,57.120003,eccentric,6,3.0,22483.0,309967.0,275601.0,319453.0,281829.0
2026-04-07 18:04:46.715464,397487,2157079276,2157080107,-1.056032,0.152256,0.031232,14.4025,4.6375,-5.29375,38.792004,-1.464,57.120003,eccentric,6,3.0,22483.0,309967.0,275601.0,319453.0,281829.0
2026-04-07 18:04:46.719255,397488,2157088250,2157088854,-1.057984,0.148352,0.050752,13.64125,4.68125,-5.48625,38.304,-2.336,57.832005,eccentric,6,3.0,22483.0,309967.0,275601.0,319453.0,281829.0
2026-04-07 18:04:46.783429,397489,2157097645,2157099617,-1.057984,0.148352,0.050752,11.50625,5.3025,-5.6175,38.304,-2.336,57.832005,eccentric,6,3.0,22483.0,309967.0,275601.0,319453.0,281829.0
2026-04-07 18:04:46.785663,397490,2157112152,2157112485,-1.069696,0.1464,0.066368,8.61875,5.53875,-5.81875,38.944,-2.144,56.608,eccentric,6,3.0,22483.0,309967.0,275601.0,319453.0,281829.0
2026-04-07 18:04:46.790176,397491,2157121393,2157123251,-1.069696,0.1464,0.066368,6.545,5.8975,-5.705,38.944,-2.144,56.608,eccentric,6,3.0,22483.0,309967.0,275601.0,319453.0,281829.0
2026-04-07 18:04:46.791914,397492,2157130356,2157131956,-1.067744,0.13664,0.076128,5.2675,5.90625,-5.69625,39.280003,-1.896,57.376003,eccentric,6,3.0,22483.0,309967.0,275601.0,319453.0,281829.0
2026-04-07 18:04:46.794378,397493,2157139337,2157140672,-1.067744,0.13664,0.076128,4.45375,5.6525,-5.85375,39.280003,-1.896,57.376003,eccentric,6,3.0,22483.0,309967.0,275601.0,319453.0,281829.0
2026-04-07 18:04:46.795922,397494,2157153873,2157155592,-1.040416,0.132736,0.099552,3.03625,5.2675,-6.09875,39.008003,-1.768,56.304,eccentric,6,3.0,22483.0,309967.0,275601.0,319453.0,281829.0
2026-04-07 18:04:46.825823,397504,2157163266,2157164329,-1.05408,0.144448,0.0976,2.0475,4.59375,-5.81875,38.984,-2.104,57.432003,eccentric,6,3.0,22482.0,310012.0,275658.0,319524.0,281877.0
2026-04-07 18:04:46.827483,397505,2157172226,2157173051,-1.05408,0.144448,0.0976,1.89,4.2875,-5.6175,38.984,-2.104,57.432003,eccentric,6,3.0,22482.0,310012.0,275658.0,319524.0,281877.0
2026-04-07 18:04:46.831493,397506,2157181755,2157183883,-1.05408,0.144448,0.0976,1.1025,4.69,-5.4775,38.984,-2.104,57.432003,eccentric,6,3.0,22482.0,310012.0,275658.0,319524.0,281877.0
2026-04-07 18:04:46.833921,397507,2157196316,2157196794,-1.042368,0.154208,0.099552,-0.86625,4.62,-5.11875,39.544003,-2.128,56.408,eccentric,6,3.0,22482.0,310012.0,275658.0,319524.0,281877.0
2026-04-07 18:04:46.835978,397508,2157205789,2157207564,-1.04432,0.1464,0.095648,-2.40625,4.62,-5.25875,39.256,-2.016,56.184002,eccentric,6,3.0,22482.0,310012.0,275658.0,319524.0,281877.0
2026-04-07 18:04:46.867025,397509,2157214734,2157216257,-1.04432,0.1464,0.095648,-1.9075,4.19125,-5.36375,39.256,-2.016,56.184002,eccentric,6,3.0,22482.0,310012.0,275658.0,319524.0,281877.0
2026-04-07 18:04:46.869384,397510,2157229255,2157231172,-1.030656,0.152256,0.095648,-0.3675,3.96375,-5.74,39.544003,-1.76,56.216003,eccentric,6,3.0,22482.0,310012.0,275658.0,319524.0,281877.0
2026-04-07 18:04:46.873840,397511,2157238272,2157239865,-1.030656,0.152256,0.095648,1.7325,3.87625,-5.83625,39.544003,-1.76,56.216003,eccentric,6,3.0,22482.0,310012.0,275658.0,319524.0,281877.0
2026-04-07 18:04:46.877238,397512,2157247272,2157248604,-1.03456,0.163968,0.085888,2.3975,3.745,-6.88625,39.088,-1.824,56.184002,eccentric,6,3.0,22482.0,310012.0,275658.0,319524.0,281877.0
2026-04-07 18:04:46.910236,397513,2157256201,2157257327,-1.03456,0.163968,0.085888,3.00125,3.78,-7.88375,39.088,-1.824,56.184002,eccentric,6,3.0,22482.0,310012.0,275658.0,319524.0,281877.0
2026-04-07 18:04:46.936037,397523,2157270903,2157272402,-1.036512,0.163968,0.074176,3.47375,4.06,-7.8575,39.432003,-1.888,56.664,eccentric,6,3.0,22322.0,308398.0,274230.0,317868.0,280438.0
2026-04-07 18:04:46.938465,397524,2157279825,2157281086,-1.036512,0.163968,0.074176,4.61125,4.15625,-8.44375,39.432003,-1.888,56.664,eccentric,6,3.0,22322.0,308398.0,274230.0,317868.0,280438.0
2026-04-07 18:04:46.941042,397525,2157288719,2157289796,-1.03456,0.15616,0.070272,5.74875,4.76,-8.96875,39.2,-2.624,56.376003,eccentric,6,3.0,22322.0,308398.0,274230.0,317868.0,280438.0
2026-04-07 18:04:46.943432,397526,2157303269,2157304741,-1.018944,0.142496,0.083936,6.4225,4.64625,-9.58125,39.2,-2.624,57.384003,eccentric,6,3.0,22322.0,308398.0,274230.0,317868.0,280438.0
2026-04-07 18:04:46.946741,397527,2157312229,2157313437,-1.028704,0.142496,0.083936,6.41375,4.4975,-9.8875,38.760002,-1.84,57.384003,eccentric,6,3.0,22322.0,308398.0,274230.0,317868.0,280438.0
2026-04-07 18:04:46.952222,397528,2157321180,2157322187,-1.028704,0.142496,0.083936,7.035,4.48875,-9.87875,38.760002,-1.84,57.384003,eccentric,6,3.0,22322.0,308398.0,274230.0,317868.0,280438.0
2026-04-07 18:04:46.982654,397529,2157335664,2157337096,-1.020896,0.13664,0.076128,8.12875,4.62,-9.7475,39.280003,-1.944,56.208004,eccentric,6,3.0,22322.0,308398.0,274230.0,317868.0,280438.0
2026-04-07 18:04:46.987839,397530,2157344591,2157345774,-1.007232,0.144448,0.074176,8.82,5.4075,-9.948751,39.320004,-1.64,56.56,eccentric,6,3.0,22322.0,308398.0,274230.0,317868.0,280438.0
2026-04-07 18:04:46.989622,397531,2157353501,2157354395,-1.007232,0.144448,0.074176,8.9425,5.99375,-9.84375,39.320004,-1.64,56.56,eccentric,6,3.0,22322.0,308398.0,274230.0,317868.0,280438.0
2026-04-07 18:04:47.015991,397542,2157368138,2157369379,-1.009184,0.1464,0.0488,7.65625,6.51875,-9.16125,38.856003,-2.08,57.192,eccentric,6,3.0,22239.0,307605.0,273507.0,316999.0,279671.0
2026-04-07 18:04:47.019412,397543,2157377112,2157378222,-1.009184,0.1464,0.0488,5.7225,7.1575,-8.8375,38.856003,-2.08,57.192,eccentric,6,3.0,22239.0,307605.0,273507.0,316999.0,279671.0
2026-04-07 18:04:47.020775,397544,2157386042,2157386958,-1.036512,0.1464,0.015616,4.41,6.88625,-8.54,39.304,-2.048,57.448,eccentric,6,3.0,22239.0,307605.0,273507.0,316999.0,279671.0
2026-04-07 18:04:47.025439,397545,2157395018,2157395683,-1.036512,0.1464,0.015616,3.78875,7.84,-8.82,39.304,-2.048,57.448,eccentric,6,3.0,22239.0,307605.0,273507.0,316999.0,279671.0
2026-04-07 18:04:47.086657,397546,2157409877,2157410588,-1.022848,0.148352,0.027328,3.43875,8.51375,-9.10875,38.568,-2.024,57.592003,eccentric,6,3.0,22239.0,307605.0,273507.0,316999.0,279671.0
2026-04-07 18:04:47.088174,397547,2157419168,2157421314,-1.022848,0.148352,0.027328,3.82375,8.95125,-8.8375,38.568,-2.024,57.592003,eccentric,6,3.0,22239.0,307605.0,273507.0,316999.0,279671.0
2026-04-07 18:04:47.089765,397548,2157428100,2157429989,-1.028704,0.140544,0.050752,3.85875,8.715,-8.085,39.576,-2.416,56.352,eccentric,6,3.0,22239.0,307605.0,273507.0,316999.0,279671.0
2026-04-07 18:04:47.093970,397549,2157437056,2157438722,-1.028704,0.140544,0.050752,3.08,8.98625,-7.525,39.576,-2.416,56.352,eccentric,6,3.0,22239.0,307605.0,273507.0,316999.0,279671.0
2026-04-07 18:04:47.095717,397550,2157451515,2157453602,-1.020896,0.12688,0.06832,2.135,9.3625,-6.5625,40.048,-2.128,56.04,eccentric,6,3.0,22239.0,307605.0,273507.0,316999.0,279671.0
2026-04-07 18:04:47.097287,397551,2157460455,2157462243,-1.020896,0.12688,0.06832,1.645,9.9575,-6.23,40.048,-2.128,56.04,eccentric,6,3.0,22239.0,307605.0,273507.0,316999.0,279671.0
2026-04-07 18:04:47.124001,397561,2157469528,2157470980,-1.009184,0.128832,0.070272,1.3475,9.86125,-6.0725,39.816,-1.88,56.792004,eccentric,6,3.0,22330.0,308529.0,274382.0,318066.0,280630.0
2026-04-07 18:04:47.127220,397562,2157484141,2157485928,-1.03456,0.140544,0.054656,1.6975,10.325,-5.8625,39.816,-1.88,59.480003,eccentric,6,3.0,22330.0,308529.0,274382.0,318066.0,280630.0
2026-04-07 18:04:47.127871,397563,2157493158,2157494633,-1.03456,0.140544,0.054656,1.5575,10.22,-6.16,39.480003,-2.2,59.480003,eccentric,6,3.0,22330.0,308529.0,274382.0,318066.0,280630.0
2026-04-07 18:04:47.135046,397564,2157502155,2157503317,-1.03456,0.140544,0.054656,1.46125,9.8875,-6.23875,39.480003,-2.2,59.480003,eccentric,6,3.0,22330.0,308529.0,274382.0,318066.0,280630.0
2026-04-07 18:04:47.167103,397565,2157516633,2157518245,-1.026752,0.152256,0.03904,1.6975,9.10875,-5.81875,39.472,-2.264,58.984,eccentric,6,3.0,22330.0,308529.0,274382.0,318066.0,280630.0
2026-04-07 18:04:47.169420,397566,2157525577,2157526928,-1.020896,0.144448,0.044896,1.8025,7.84875,-5.87125,39.704002,-1.912,56.472004,eccentric,6,3.0,22330.0,308529.0,274382.0,318066.0,280630.0
2026-04-07 18:04:47.173804,397567,2157534474,2157535603,-1.020896,0.144448,0.044896,1.8025,6.85125,-6.09,39.704002,-1.912,56.472004,eccentric,6,3.0,22330.0,308529.0,274382.0,318066.0,280630.0
2026-04-07 18:04:47.202340,397568,2157548974,2157550504,-1.003328,0.128832,0.044896,1.68,5.95,-5.90625,39.376003,-1.952,57.392002,eccentric,6,3.0,22330.0,308529.0,274382.0,318066.0,280630.0
2026-04-07 18:04:47.207963,397569,2157557958,2157559222,-1.003328,0.128832,0.044896,1.26,4.935,-6.41375,39.376003,-1.952,57.392002,eccentric,6,3.0,22330.0,308529.0,274382.0,318066.0,280630.0
2026-04-07 18:04:47.230994,397579,2157566954,2157567995,-1.003328,0.113216,0.0488,0.3325,4.47125,-6.79,39.896004,-1.832,56.264004,eccentric,6,3.0,22387.0,309234.0,275026.0,318841.0,281273.0
2026-04-07 18:04:47.235245,397580,2157575989,2157576725,-1.003328,0.113216,0.0488,0.8225,3.24625,-7.23625,39.896004,-1.832,56.264004,eccentric,6,3.0,22387.0,309234.0,275026.0,318841.0,281273.0
2026-04-07 18:04:47.237222,397581,2157591016,2157591647,-0.99552,0.089792,0.054656,-0.20125,2.135,-8.61875,40.368,-2.016,56.088,eccentric,6,3.0,22387.0,309234.0,275026.0,318841.0,281273.0
2026-04-07 18:04:47.238885,397582,2157600280,2157602404,-0.99552,0.089792,0.054656,-0.76125,1.9075,-9.345,40.368,-2.016,56.088,eccentric,6,3.0,22387.0,309234.0,275026.0,318841.0,281273.0
2026-04-07 18:04:47.244742,397583,2157609262,2157611153,-0.99552,0.085888,0.081984,-0.39375,0.84,-9.9925,39.920002,-1.904,56.112003,eccentric,6,3.0,22387.0,309234.0,275026.0,318841.0,281273.0
2026-04-07 18:04:47.249236,397584,2157618214,2157619864,-0.99552,0.085888,0.081984,1.96875,-0.18375,-10.99875,39.920002,-1.904,56.112003,eccentric,6,3.0,22387.0,309234.0,275026.0,318841.0,281273.0
2026-04-07 18:04:47.279546,397585,2157632726,2157634805,-0.991616,0.138592,0.089792,5.355,-1.74125,-10.4475,40.176003,-1.64,56.544003,concentric,6,3.0,22387.0,309234.0,275026.0,318841.0,281273.0
2026-04-07 18:04:47.284063,397586,2157641698,2157643549,-0.991616,0.138592,0.089792,6.67625,-3.29,-9.80875,40.176003,-1.64,56.544003,concentric,6,3.0,22387.0,309234.0,275026.0,318841.0,281273.0
2026-04-07 18:04:47.285579,397587,2157650609,2157652245,-0.96624,0.158112,0.085888,7.42875,-4.1475,-9.14375,39.712,-1.784,56.376003,concentric,6,3.0,22387.0,309234.0,275026.0,318841.0,281273.0
2026-04-07 18:04:47.343426,397598,2157665725,2157667146,-0.983808,0.144448,0.080032,5.0925,-4.6375,-8.417501,39.496002,-2.688,57.904003,concentric,6,3.0,22207.0,308114.0,274123.0,317957.0,280478.0
2026-04-07 18:04:47.346906,397599,2157674647,2157675895,-0.983808,0.144448,0.080032,2.94875,-4.57625,-7.7,39.496002,-2.688,57.904003,concentric,6,3.0,22207.0,308114.0,274123.0,317957.0,280478.0
2026-04-07 18:04:47.348466,397600,2157683585,2157684614,-0.983808,0.144448,0.080032,1.96,-4.655,-7.945,39.496002,-2.688,57.904003,concentric,6,3.0,22207.0,308114.0,274123.0,317957.0,280478.0
2026-04-07 18:04:47.385918,397601,2157698256,2157699537,-0.972096,0.122976,0.066368,3.5175,-5.25875,-8.32125,39.544003,-2.12,57.800003,concentric,6,3.0,22207.0,308114.0,274123.0,317957.0,280478.0
2026-04-07 18:04:47.388108,397602,2157707182,2157708266,-0.987712,0.132736,0.085888,6.50125,-5.78375,-8.67125,39.120003,-2.28,57.952003,concentric,6,3.0,22207.0,308114.0,274123.0,317957.0,280478.0
2026-04-07 18:04:47.392771,397603,2157716176,2157716958,-0.987712,0.132736,0.085888,8.96,-6.895,-9.05625,39.120003,-2.28,57.952003,concentric,6,3.0,22207.0,308114.0,274123.0,317957.0,280478.0
2026-04-07 18:04:47.394510,397604,2157725132,2157725717,-0.987712,0.132736,0.103456,10.12375,-7.665,-8.6625,39.120003,-2.28,57.952003,concentric,6,3.0,22207.0,308114.0,274123.0,317957.0,280478.0
2026-04-07 18:04:47.396039,397605,2157739890,2157740643,-0.989664,0.132736,0.103456,9.4325,-8.07625,-7.37625,39.016003,-2.448,57.912003,concentric,6,3.0,22207.0,308114.0,274123.0,317957.0,280478.0
2026-04-07 18:04:47.400203,397606,2157749232,2157751386,-0.999424,0.109312,0.06832,7.09625,-8.61875,-5.7925,39.120003,-1.92,57.352,concentric,6,3.0,22207.0,308114.0,274123.0,317957.0,280478.0
2026-04-07 18:04:47.402874,397607,2157758143,2157760114,-0.999424,0.109312,0.06832,4.50625,-8.155,-4.82125,39.120003,-1.92,57.352,concentric,6,3.0,22207.0,308114.0,274123.0,317957.0,280478.0
2026-04-07 18:04:47.440197,397617,2157772976,2157775165,-1.00528,0.128832,0.064416,3.50875,-7.37625,-4.97,39.328003,-2.152,59.392002,concentric,6,3.0,22066.0,306745.0,272937.0,316634.0,279372.0
2026-04-07 18:04:47.442698,397618,2157782000,2157783888,-1.00528,0.128832,0.064416,1.95125,-6.71125,-4.92625,39.328003,-2.152,59.392002,concentric,6,3.0,22066.0,306745.0,272937.0,316634.0,279372.0
2026-04-07 18:04:47.444447,397619,2157790942,2157792614,-1.038464,0.144448,0.074176,-0.21875,-4.43625,-5.0575,39.760002,-1.792,57.600002,concentric,6,3.0,22066.0,306745.0,272937.0,316634.0,279372.0
2026-04-07 18:04:47.446926,397620,2157800108,2157801383,-1.038464,0.144448,0.074176,-2.94875,-3.35125,-5.5125,39.760002,-1.792,57.600002,concentric,6,3.0,22066.0,306745.0,272937.0,316634.0,279372.0
2026-04-07 18:04:47.449233,397621,2157814697,2157816330,-1.06384,0.162016,0.101504,-5.39,-3.63125,-5.20625,39.216003,-2.464,57.840004,concentric,6,3.0,22066.0,306745.0,272937.0,316634.0,279372.0
2026-04-07 18:04:47.456293,397622,2157823652,2157825072,-1.06384,0.162016,0.101504,-7.735,-3.7275,-4.76,39.216003,-2.464,57.840004,concentric,6,3.0,22066.0,306745.0,272937.0,316634.0,279372.0
2026-04-07 18:04:47.484961,397623,2157832658,2157833869,-1.081408,0.163968,0.074176,-8.47875,-4.69875,-4.0775,38.784,-2.568,59.88,concentric,6,3.0,22066.0,306745.0,272937.0,316634.0,279372.0
2026-04-07 18:04:47.489430,397624,2157847174,2157848764,-1.042368,0.191296,0.054656,-7.06125,-5.5825,-3.9375,38.616,-2.032,57.432003,concentric,6,3.0,22066.0,306745.0,272937.0,316634.0,279372.0
2026-04-07 18:04:47.491702,397625,2157856130,2157857518,-1.042368,0.191296,0.054656,-4.3925,-6.22125,-3.26375,38.616,-2.032,57.432003,concentric,6,3.0,22066.0,306745.0,272937.0,316634.0,279372.0
2026-04-07 18:04:47.520199,397635,2157865253,2157866220,-1.042368,0.191296,0.054656,-2.98375,-5.705,-3.19375,38.616,-2.032,57.432003,concentric,6,3.0,22165.0,307388.0,273359.0,316966.0,279616.0
2026-04-07 18:04:47.522382,397636,2157874314,2157875009,-1.032608,0.201056,0.046848,-3.91125,-5.52125,-2.6425,38.408,-2.56,58.784004,concentric,6,3.0,22165.0,307388.0,273359.0,316966.0,279616.0
2026-04-07 18:04:47.523511,397637,2157889407,2157890025,-1.028704,0.16592,0.056608,-6.51875,-5.565,-2.00375,38.192,-2.04,58.960003,concentric,6,3.0,22165.0,307388.0,273359.0,316966.0,279616.0
2026-04-07 18:04:47.531391,397638,2157898697,2157900798,-1.028704,0.16592,0.056608,-7.945,-4.795,-0.53375,38.192,-2.04,58.960003,concentric,6,3.0,22165.0,307388.0,273359.0,316966.0,279616.0
2026-04-07 18:04:47.559898,397639,2157907657,2157909469,-1.052128,0.169824,0.064416,-8.4525,-4.5325,0.5075,38.872,-1.936,58.792004,concentric,6,3.0,22165.0,307388.0,273359.0,316966.0,279616.0
2026-04-07 18:04:47.564485,397640,2157916677,2157918168,-1.052128,0.169824,0.064416,-8.0675,-3.87625,1.05,38.872,-1.936,58.792004,concentric,6,3.0,22165.0,307388.0,273359.0,316966.0,279616.0
2026-04-07 18:04:47.565935,397641,2157931165,2157933045,-1.028704,0.163968,0.091744,-6.09875,-3.82375,0.6125,38.776,-1.576,57.88,concentric,6,3.0,22165.0,307388.0,273359.0,316966.0,279616.0
2026-04-07 18:04:47.572568,397642,2157940131,2157941762,-1.028704,0.163968,0.091744,-2.56375,-4.27,0.9625,38.776,-1.576,57.88,concentric,6,3.0,22165.0,307388.0,273359.0,316966.0,279616.0
2026-04-07 18:04:47.601116,397643,2157949206,2157950496,-1.056032,0.171776,0.083936,-1.085,-4.5675,1.2075,38.016003,-2.712,59.424004,concentric,6,3.0,22165.0,307388.0,273359.0,316966.0,279616.0
2026-04-07 18:04:47.633481,397654,2157963710,2157965857,-1.056032,0.171776,0.083936,-2.75625,-5.1975,0.4025,38.016003,-2.712,59.424004,concentric,6,3.0,22512.0,310512.0,276093.0,320082.0,282309.0
2026-04-07 18:04:47.637730,397655,2157972788,2157974570,-1.032608,0.162016,0.091744,-3.87625,-5.62625,-0.35875,38.808002,-2.208,58.480003,concentric,6,3.0,22512.0,310512.0,276093.0,320082.0,282309.0
2026-04-07 18:04:47.639476,397656,2157981791,2157983301,-1.032608,0.162016,0.091744,-1.11125,-5.145,-1.16375,38.808002,-2.208,58.480003,concentric,6,3.0,22512.0,310512.0,276093.0,320082.0,282309.0
2026-04-07 18:04:47.641033,397657,2157996401,2157998225,-1.05408,0.210816,0.11712,2.0125,-4.2875,-2.8175,38.312,-2.792,59.4,concentric,6,3.0,22512.0,310512.0,276093.0,320082.0,282309.0
2026-04-07 18:04:47.645261,397658,2158005348,2158006920,-1.05408,0.210816,0.11712,2.065,-2.96625,-3.7975,38.312,-2.792,59.4,concentric,6,3.0,22512.0,310512.0,276093.0,320082.0,282309.0
2026-04-07 18:04:47.647914,397659,2158014425,2158015670,-1.038464,0.226432,0.121024,-1.05875,-2.09125,-4.9875,38.456,-2.04,58.576004,concentric,6,3.0,22512.0,310512.0,276093.0,320082.0,282309.0
2026-04-07 18:04:47.682008,397660,2158023395,2158024371,-1.038464,0.226432,0.121024,-5.1275,-1.9775,-5.73125,38.456,-2.04,58.576004,concentric,6,3.0,22512.0,310512.0,276093.0,320082.0,282309.0
2026-04-07 18:04:47.686875,397661,2158037900,2158039285,-1.032608,0.20496,0.109312,-8.16375,-1.33,-5.95,38.56,-1.824,58.848003,concentric,6,3.0,22512.0,310512.0,276093.0,320082.0,282309.0
2026-04-07 18:04:47.688240,397662,2158046825,2158047987,-1.042368,0.169824,0.115168,-10.0975,-0.63875,-5.6,38.56,-2.056,58.632004,concentric,6,3.0,22512.0,310512.0,276093.0,320082.0,282309.0
2026-04-07 18:04:47.690016,397663,2158055739,2158056708,-1.042368,0.169824,0.115168,-12.11,-0.49,-5.4075,38.224003,-2.056,58.632004,concentric,6,3.0,22512.0,310512.0,276093.0,320082.0,282309.0
2026-04-07 18:04:47.724505,397673,2158070402,2158071662,-1.038464,0.150304,0.091744,-12.34625,0.14,-5.34625,38.2,-2.304,60.920002,concentric,6,3.0,22722.0,312713.0,278093.0,322407.0,284253.0
2026-04-07 18:04:47.725998,397674,2158079363,2158080453,-1.038464,0.150304,0.091744,-11.06875,0.27125,-5.0225,38.2,-2.304,60.920002,concentric,6,3.0,22722.0,312713.0,278093.0,322407.0,284253.0
2026-04-07 18:04:47.729337,397675,2158088289,2158089199,-1.046272,0.173728,0.0976,-7.93625,0.28875,-5.5475,37.800003,-2.728,60.768,concentric,6,3.0,22722.0,312713.0,278093.0,322407.0,284253.0
2026-04-07 18:04:47.732989,397676,2158102833,2158104091,-1.046272,0.173728,0.0976,-4.29625,0.595,-5.74,37.800003,-2.728,60.768,concentric,6,3.0,22722.0,312713.0,278093.0,322407.0,284253.0
2026-04-07 18:04:47.763373,397677,2158111787,2158112868,-1.04432,0.189344,0.10736,-4.12125,0.7525,-4.71625,38.288002,-1.72,58.800003,concentric,6,3.0,22722.0,312713.0,278093.0,322407.0,284253.0
2026-04-07 18:04:47.766719,397678,2158120711,2158121548,-1.04432,0.189344,0.10736,-5.845,0.69125,-3.815,38.288002,-1.72,58.800003,concentric,6,3.0,22722.0,312713.0,278093.0,322407.0,284253.0
2026-04-07 18:04:47.770145,397679,2158129630,2158130276,-1.046272,0.163968,0.101504,-8.96,0.91875,-3.26375,38.528004,-1.712,59.000004,concentric,6,3.0,22722.0,312713.0,278093.0,322407.0,284253.0
2026-04-07 18:04:47.774207,397680,2158144450,2158145208,-1.046272,0.163968,0.101504,-11.0075,0.7,-2.45,38.528004,-1.712,59.000004,concentric,6,3.0,22722.0,312713.0,278093.0,322407.0,284253.0
2026-04-07 18:04:47.804622,397681,2158153989,2158155989,-1.048224,0.152256,0.091744,-11.165,0.39375,-1.295,38.248,-1.792,59.168003,concentric,6,3.0,22722.0,312713.0,278093.0,322407.0,284253.0
2026-04-07 18:04:47.806906,397682,2158162909,2158164671,-1.048224,0.152256,0.091744,-10.17625,0.735,-1.54,38.248,-1.792,59.168003,concentric,6,3.0,22722.0,312713.0,278093.0,322407.0,284253.0
2026-04-07 18:04:47.832227,397692,2158177487,2158179646,-1.040416,0.148352,0.093696,-9.345,0.23625,-1.7675,38.216003,-1.552,59.160004,concentric,6,3.0,22668.0,312992.0,278716.0,323428.0,285190.0
2026-04-07 18:04:47.836462,397693,2158186457,2158188356,-1.040416,0.148352,0.093696,-9.30125,0.16625,-1.575,38.216003,-1.552,59.160004,concentric,6,3.0,22668.0,312992.0,278716.0,323428.0,285190.0
2026-04-07 18:04:47.838147,397694,2158195427,2158197098,-1.052128,0.134688,0.109312,-9.31875,0.30625,-1.785,38.192,-1.592,58.752003,concentric,6,3.0,22668.0,312992.0,278716.0,323428.0,285190.0
2026-04-07 18:04:47.839697,397695,2158204444,2158205800,-1.052128,0.134688,0.109312,-9.5025,-0.42,-2.0125,38.192,-1.592,58.752003,concentric,6,3.0,22668.0,312992.0,278716.0,323428.0,285190.0
2026-04-07 18:04:47.870779,397696,2158219064,2158220778,-1.061888,0.089792,0.12688,-8.4,-1.5225,-1.67125,38.576,-1.44,60.248,concentric,6,3.0,22668.0,312992.0,278716.0,323428.0,285190.0
2026-04-07 18:04:47.875170,397697,2158227972,2158229470,-1.286368,0.054656,0.324032,-6.78125,-3.395,-2.2575,38.160004,-1.424,59.344,concentric,6,3.0,22668.0,312992.0,278716.0,323428.0,285190.0
2026-04-07 18:04:47.876774,397698,2158236887,2158238149,-1.286368,0.054656,0.324032,-6.405,-6.71125,-3.59625,38.160004,-1.424,59.344,concentric,6,3.0,22668.0,312992.0,278716.0,323428.0,285190.0
2026-04-07 18:04:47.883792,397699,2158251401,2158253069,-1.139968,0.050752,0.064416,0.5425,-10.9025,-3.12375,37.328003,-1.624,60.672005,concentric,6,3.0,22668.0,312992.0,278716.0,323428.0,285190.0
2026-04-07 18:04:47.937108,397700,2158260321,2158261796,-1.139968,0.050752,0.064416,15.00625,-12.59125,2.59875,37.328003,-1.624,60.672005,concentric,6,3.0,22668.0,312992.0,278716.0,323428.0,285190.0
2026-04-07 18:04:48.002274,397711,2158269483,2158270540,-0.8296,0.1464,0.060512,13.93,-12.41625,5.4425,38.216003,-1.6,59.368004,concentric,6,3.0,22662.0,313546.0,279454.0,324564.0,286208.0
2026-04-07 18:04:48.006774,397712,2158284094,2158285409,-0.8296,0.1464,0.060512,1.5575,-9.1525,2.86125,38.216003,-1.6,59.368004,concentric,6,3.0,22662.0,313546.0,279454.0,324564.0,286208.0
2026-04-07 18:04:48.009404,397713,2158293015,2158294086,-1.030656,0.13664,0.013664,-7.455,-5.71375,-0.04375,38.096,-1.576,59.816,concentric,6,3.0,22662.0,313546.0,279454.0,324564.0,286208.0
2026-04-07 18:04:48.013967,397714,2158301963,2158302769,-1.030656,0.13664,0.013664,-6.85125,-7.1225,1.67125,38.096,-1.576,59.816,concentric,6,3.0,22662.0,313546.0,279454.0,324564.0,286208.0
2026-04-07 18:04:48.015606,397715,2158310864,2158311474,-1.011136,0.171776,0.054656,0.23625,-10.325,3.605,37.672,-1.688,60.584003,concentric,6,3.0,22662.0,313546.0,279454.0,324564.0,286208.0
2026-04-07 18:04:48.017173,397716,2158325672,2158326401,-1.011136,0.171776,0.054656,3.61375,-11.43625,1.155,37.672,-1.688,60.584003,concentric,6,3.0,22662.0,313546.0,279454.0,324564.0,286208.0
2026-04-07 18:04:48.021438,397717,2158335113,2158337198,-1.0248,0.150304,0.07808,1.63625,-9.7475,-0.7,37.352,-2.088,60.376003,concentric,6,3.0,22662.0,313546.0,279454.0,324564.0,286208.0
2026-04-07 18:04:48.023147,397718,2158344002,2158345898,-1.0248,0.150304,0.07808,-0.98,-6.95625,-1.65375,37.352,-2.088,60.376003,concentric,6,3.0,22662.0,313546.0,279454.0,324564.0,286208.0
2026-04-07 18:04:48.024697,397719,2158358536,2158360804,-0.991616,0.140544,0.115168,-2.2925,-4.305,-2.89625,37.944,-2.352,60.232002,concentric,6,3.0,22662.0,313546.0,279454.0,324564.0,286208.0
2026-04-07 18:04:48.051449,397729,2158367529,2158369485,-0.991616,0.140544,0.115168,-1.89875,-2.24,-4.76875,37.944,-2.352,60.232002,concentric,6,3.0,23279.0,319803.0,285242.0,331493.0,292132.0
2026-04-07 18:04:48.053167,397730,2158376871,2158378206,-1.009184,0.162016,0.115168,-0.98,-0.30625,-6.74625,36.800003,-2.248,64.472,concentric,6,3.0,23279.0,319803.0,285242.0,331493.0,292132.0
2026-04-07 18:04:48.054723,397731,2158385811,2158386947,-1.009184,0.162016,0.115168,-1.11125,1.1375,-7.9625,36.800003,-2.248,64.472,concentric,6,3.0,23279.0,319803.0,285242.0,331493.0,292132.0
2026-04-07 18:04:48.058966,397732,2158400311,2158401945,-1.040416,0.199104,0.083936,-4.36625,3.00125,-9.511251,37.464,-1.64,62.480003,concentric,6,3.0,23279.0,319803.0,285242.0,331493.0,292132.0
2026-04-07 18:04:48.060645,397733,2158409225,2158410683,-1.059936,0.18544,0.056608,-9.52,5.8625,-11.3225,37.136,-1.72,60.544003,concentric,6,3.0,23279.0,319803.0,285242.0,331493.0,292132.0
2026-04-07 18:04:48.062295,397734,2158418175,2158419413,-1.059936,0.18544,0.056608,-13.90375,7.69125,-13.27375,37.136,-1.72,60.544003,concentric,6,3.0,23279.0,319803.0,285242.0,331493.0,292132.0
2026-04-07 18:04:48.064709,397735,2158432792,2158434472,-1.028704,0.13664,0.072224,-14.2275,9.58125,-15.16375,37.912003,-1.008,60.480003,concentric,6,3.0,23279.0,319803.0,285242.0,331493.0,292132.0
2026-04-07 18:04:48.095811,397736,2158441747,2158443264,-1.028704,0.13664,0.072224,-12.565,9.86125,-15.89875,37.912003,-1.008,60.480003,concentric,6,3.0,23279.0,319803.0,285242.0,331493.0,292132.0
2026-04-07 18:04:48.100252,397737,2158450731,2158452000,-1.052128,0.095648,0.08784,-9.89625,9.948751,-15.7675,37.376003,-1.472,60.184002,concentric,6,3.0,23279.0,319803.0,285242.0,331493.0,292132.0
2026-04-07 18:04:48.101939,397738,2158465170,2158466920,-1.052128,0.095648,0.08784,-8.198751,10.3075,-15.8025,37.376003,-1.472,60.184002,concentric,6,3.0,23279.0,319803.0,285242.0,331493.0,292132.0
2026-04-07 18:04:48.126979,397748,2158474213,2158475685,-1.087264,0.095648,0.062464,-6.4925,10.33375,-14.2975,38.128002,-1.424,60.824,concentric,6,3.0,23498.0,322062.0,287330.0,333921.0,294084.0
2026-04-07 18:04:48.128661,397749,2158483227,2158484451,-1.087264,0.095648,0.062464,-6.2825,11.05125,-13.16875,38.128002,-1.424,60.824,concentric,6,3.0,23498.0,322062.0,287330.0,333921.0,294084.0
2026-04-07 18:04:48.132622,397750,2158492154,2158493203,-1.10288,0.115168,0.052704,-5.95875,11.78625,-12.005,38.04,-1.064,61.600002,concentric,6,3.0,23498.0,322062.0,287330.0,333921.0,294084.0
2026-04-07 18:04:48.138864,397751,2158506763,2158508093,-1.10288,0.115168,0.052704,-7.27125,12.495,-10.98125,38.04,-1.064,61.600002,concentric,6,3.0,23498.0,322062.0,287330.0,333921.0,294084.0
2026-04-07 18:04:48.167418,397752,2158515683,2158516827,-1.079456,0.124928,0.074176,-7.6475,12.635,-10.21125,37.712,-1.128,61.072002,concentric,6,3.0,23498.0,322062.0,287330.0,333921.0,294084.0
2026-04-07 18:04:48.172721,397753,2158524683,2158525517,-1.079456,0.124928,0.074176,-6.93875,12.2325,-9.275,37.712,-1.128,61.072002,concentric,6,3.0,23498.0,322062.0,287330.0,333921.0,294084.0
2026-04-07 18:04:48.175337,397754,2158539184,2158540411,-1.09312,0.037088,0.109312,-5.01375,11.480001,-8.417501,38.480003,-1.2,60.120003,concentric,6,3.0,23498.0,322062.0,287330.0,333921.0,294084.0
2026-04-07 18:04:48.181359,397755,2158548059,2158549146,-1.09312,0.037088,0.109312,-1.12875,9.82625,-6.4925,38.480003,-1.2,60.120003,concentric,6,3.0,23498.0,322062.0,287330.0,333921.0,294084.0
2026-04-07 18:04:48.209874,397756,2158557008,2158557873,-1.098976,0.140544,0.132736,6.67625,9.8875,-5.99375,38.576,-0.888,60.384003,concentric,6,3.0,23498.0,322062.0,287330.0,333921.0,294084.0
2026-04-07 18:04:48.238590,397767,2158571577,2158572862,-1.106784,0.158112,0.10736,14.37625,10.4475,-7.44625,38.448,-1.048,60.232002,concentric,6,3.0,23620.0,323315.0,288535.0,335415.0,295336.0
2026-04-07 18:04:48.243119,397768,2158580571,2158581649,-1.106784,0.158112,0.10736,14.1575,10.4825,-8.645,38.448,-1.048,60.232002,concentric,6,3.0,23620.0,323315.0,288535.0,335415.0,295336.0
2026-04-07 18:04:48.244445,397769,2158589480,2158590377,-1.08336,0.15616,0.074176,9.59,10.54375,-8.1025,38.128002,-1.728,61.24,concentric,6,3.0,23620.0,323315.0,288535.0,335415.0,295336.0
2026-04-07 18:04:48.247078,397770,2158599005,2158601210,-1.08336,0.15616,0.074176,6.8775,10.7975,-7.805,38.128002,-1.728,61.24,concentric,6,3.0,23620.0,323315.0,288535.0,335415.0,295336.0
2026-04-07 18:04:48.250318,397771,2158613517,2158614098,-1.085312,0.130784,0.099552,3.80625,11.042501,-7.665,38.768,-1.728,60.456,concentric,6,3.0,23620.0,323315.0,288535.0,335415.0,295336.0
2026-04-07 18:04:48.289947,397772,2158622736,2158624881,-1.085312,0.130784,0.099552,0.42875,10.94625,-7.7875,38.768,-1.728,60.456,concentric,6,3.0,23620.0,323315.0,288535.0,335415.0,295336.0
2026-04-07 18:04:48.302800,397773,2158631694,2158633609,-1.087264,0.124928,0.115168,-0.55125,10.675,-8.1025,39.08,-1.88,60.432003,concentric,6,3.0,23620.0,323315.0,288535.0,335415.0,295336.0
2026-04-07 18:04:48.304402,397774,2158646157,2158646462,-1.087264,0.124928,0.115168,1.085,10.2025,-7.4025,39.08,-1.88,60.432003,concentric,6,3.0,23620.0,323315.0,288535.0,335415.0,295336.0
2026-04-07 18:04:48.306905,397775,2158655312,2158657267,-1.097024,0.113216,0.105408,2.9575,9.7475,-7.2275,39.600002,-2.008,60.160004,concentric,6,3.0,23620.0,323315.0,288535.0,335415.0,295336.0
2026-04-07 18:04:48.308419,397776,2158664250,2158665974,-1.097024,0.113216,0.105408,3.47375,10.42125,-8.0325,39.600002,-2.008,60.160004,concentric,6,3.0,23620.0,323315.0,288535.0,335415.0,295336.0
2026-04-07 18:04:48.335192,397786,2158673473,2158674698,-1.085312,0.121024,0.111264,6.37,10.3775,-8.81125,38.24,-2.384,61.640003,concentric,6,3.0,23737.0,324540.0,289668.0,336770.0,296490.0
2026-04-07 18:04:48.336910,397787,2158688117,2158689592,-1.085312,0.121024,0.111264,11.05125,10.66625,-10.15875,38.24,-2.384,61.640003,concentric,6,3.0,23737.0,324540.0,289668.0,336770.0,296490.0
2026-04-07 18:04:48.338479,397788,2158697058,2158698332,-1.065792,0.162016,0.1464,14.105001,10.675,-10.66625,38.816,-1.896,62.000004,concentric,6,3.0,23737.0,324540.0,289668.0,336770.0,296490.0
2026-04-07 18:04:48.342596,397789,2158706023,2158707094,-1.065792,0.162016,0.1464,14.7,10.3425,-11.1125,38.816,-1.896,62.000004,concentric,6,3.0,23737.0,324540.0,289668.0,336770.0,296490.0
2026-04-07 18:04:48.371164,397790,2158720590,2158722023,-1.057984,0.154208,0.130784,12.285,9.45,-11.03375,38.864002,-2.624,60.168003,concentric,6,3.0,23737.0,324540.0,289668.0,336770.0,296490.0
2026-04-07 18:04:48.375655,397791,2158729541,2158730712,-1.057984,0.150304,0.089792,9.6775,9.86125,-11.042501,38.864002,-2.624,60.168003,concentric,6,3.0,23737.0,324540.0,289668.0,336770.0,296490.0
2026-04-07 18:04:48.377182,397792,2158738454,2158739388,-1.0736,0.150304,0.089792,8.07625,11.0775,-11.9,39.488003,-2.168,60.440002,concentric,6,3.0,23737.0,324540.0,289668.0,336770.0,296490.0
2026-04-07 18:04:48.381294,397793,2158747386,2158748095,-1.0736,0.150304,0.089792,8.855001,10.99875,-12.1975,39.488003,-2.168,60.440002,concentric,6,3.0,23737.0,324540.0,289668.0,336770.0,296490.0
2026-04-07 18:04:48.409974,397794,2158762287,2158763010,-1.048224,0.152256,0.080032,9.5025,11.042501,-13.32625,39.032,-2.296,61.848003,concentric,6,3.0,23737.0,324540.0,289668.0,336770.0,296490.0
2026-04-07 18:04:48.436922,397804,2158771673,2158773793,-1.028704,0.132736,0.081984,11.515,10.71875,-13.755,39.72,-1.792,60.136,concentric,6,3.0,23642.0,323829.0,289094.0,336121.0,295907.0
2026-04-07 18:04:48.439443,397805,2158780691,2158782486,-1.028704,0.132736,0.081984,13.755,10.2025,-13.685,39.72,-1.792,60.136,concentric,6,3.0,23642.0,323829.0,289094.0,336121.0,295907.0
2026-04-07 18:04:48.441067,397806,2158795247,2158797485,-1.032608,0.111264,0.06832,16.135,9.94,-13.57125,39.768,-2.504,61.272003,concentric,6,3.0,23642.0,323829.0,289094.0,336121.0,295907.0
2026-04-07 18:04:48.445543,397807,2158804181,2158806211,-1.032608,0.111264,0.06832,18.1125,9.511251,-13.1075,39.768,-2.504,61.272003,concentric,6,3.0,23642.0,323829.0,289094.0,336121.0,295907.0
2026-04-07 18:04:48.449185,397808,2158813179,2158814970,-1.003328,0.103456,0.076128,20.74625,9.56375,-12.66125,39.88,-2.272,61.440002,concentric,6,3.0,23642.0,323829.0,289094.0,336121.0,295907.0
2026-04-07 18:04:48.457668,397809,2158822219,2158823660,-1.003328,0.103456,0.076128,23.205,9.6775,-12.17125,39.88,-2.272,61.440002,concentric,6,3.0,23642.0,323829.0,289094.0,336121.0,295907.0
2026-04-07 18:04:48.486540,397810,2158836765,2158838540,-1.026752,0.158112,0.089792,25.305,10.40375,-12.425,39.976,-3.56,60.360004,concentric,6,3.0,23642.0,323829.0,289094.0,336121.0,295907.0
2026-04-07 18:04:48.490642,397811,2158845707,2158847246,-1.026752,0.158112,0.089792,25.2175,11.6725,-12.34625,39.976,-3.56,60.360004,concentric,6,3.0,23642.0,323829.0,289094.0,336121.0,295907.0
2026-04-07 18:04:48.492202,397812,2158854640,2158855926,-1.057984,0.21472,0.121024,20.90375,12.8975,-11.47125,40.296,-3.136,60.536003,concentric,6,3.0,23642.0,323829.0,289094.0,336121.0,295907.0
2026-04-07 18:04:48.540920,397823,2158869169,2158871300,-1.057984,0.21472,0.121024,11.38375,14.9975,-10.84125,40.296,-3.136,60.536003,concentric,6,3.0,23514.0,323005.0,288467.0,335497.0,295455.0
2026-04-07 18:04:48.546451,397824,2158878148,2158880098,-1.108736,0.148352,0.080032,1.46125,15.5925,-10.6225,40.912003,-2.848,57.888004,concentric,6,3.0,23514.0,323005.0,288467.0,335497.0,295455.0
2026-04-07 18:04:48.549290,397825,2158887166,2158888788,-1.108736,0.148352,0.080032,-3.395,16.28375,-9.5725,40.912003,-2.848,57.888004,concentric,6,3.0,23514.0,323005.0,288467.0,335497.0,295455.0
2026-04-07 18:04:48.582086,397826,2158901724,2158903727,-1.130208,0.099552,0.070272,-0.69125,16.6425,-9.3625,40.232002,-3.16,62.56,concentric,6,3.0,23514.0,323005.0,288467.0,335497.0,295455.0
2026-04-07 18:04:48.584312,397827,2158910748,2158912475,-1.126304,0.119072,0.089792,4.515,15.8025,-10.01875,40.232002,-3.68,63.000004,concentric,6,3.0,23514.0,323005.0,288467.0,335497.0,295455.0
2026-04-07 18:04:48.588966,397828,2158919702,2158921222,-1.126304,0.119072,0.089792,9.14375,15.1025,-10.395,40.168003,-3.68,63.000004,concentric,6,3.0,23514.0,323005.0,288467.0,335497.0,295455.0
2026-04-07 18:04:48.590682,397829,2158928650,2158929992,-1.126304,0.119072,0.089792,9.7125,13.97375,-10.31625,40.168003,-3.68,63.000004,concentric,6,3.0,23514.0,323005.0,288467.0,335497.0,295455.0
2026-04-07 18:04:48.592286,397830,2158943148,2158944913,-1.110688,0.124928,0.111264,6.92125,13.475,-9.31,40.616,-2.68,60.128002,concentric,6,3.0,23514.0,323005.0,288467.0,335497.0,295455.0
2026-04-07 18:04:48.596511,397831,2158952098,2158953613,-1.13216,0.093696,0.056608,3.99875,13.29125,-7.84,41.464,-3.032,59.200005,concentric,6,3.0,23514.0,323005.0,288467.0,335497.0,295455.0
2026-04-07 18:04:48.598970,397832,2158961025,2158962410,-1.13216,0.093696,0.056608,2.0825,13.0025,-6.57125,41.464,-3.032,59.200005,concentric,6,3.0,23514.0,323005.0,288467.0,335497.0,295455.0
2026-04-07 18:04:48.626988,397842,2158975663,2158977345,-1.15168,0.115168,0.033184,2.1,12.4775,-5.83625,41.472,-3.744,60.376003,concentric,6,3.0,23542.0,323293.0,288732.0,335806.0,295716.0
2026-04-07 18:04:48.628484,397843,2158984773,2158986130,-1.15168,0.115168,0.033184,4.4275,12.8975,-5.425,41.472,-3.744,60.376003,concentric,6,3.0,23542.0,323293.0,288732.0,335806.0,295716.0
2026-04-07 18:04:48.635030,397844,2158993714,2158994844,-1.173152,0.158112,0.05856,7.77,13.53625,-5.64375,40.88,-4.064,61.360004,concentric,6,3.0,23542.0,323293.0,288732.0,335806.0,295716.0
2026-04-07 18:04:48.641286,397845,2159008334,2159009802,-1.173152,0.158112,0.05856,10.85875,13.448751,-6.74625,40.88,-4.064,61.360004,concentric,6,3.0,23542.0,323293.0,288732.0,335806.0,295716.0
2026-04-07 18:04:48.669858,397846,2159017282,2159018544,-1.192672,0.169824,0.089792,13.09875,12.99375,-8.09375,41.000004,-3.888,61.328003,concentric,6,3.0,23542.0,323293.0,288732.0,335806.0,295716.0
2026-04-07 18:04:48.674472,397847,2159026261,2159027233,-1.192672,0.169824,0.089792,14.21,13.1425,-8.47,41.000004,-3.888,61.328003,concentric,6,3.0,23542.0,323293.0,288732.0,335806.0,295716.0
2026-04-07 18:04:48.675969,397848,2159035173,2159035936,-1.221952,0.171776,0.099552,14.9975,13.440001,-10.01,41.792004,-3.568,59.920002,concentric,6,3.0,23542.0,323293.0,288732.0,335806.0,295716.0
2026-04-07 18:04:48.680995,397849,2159050177,2159050871,-1.221952,0.171776,0.099552,16.24875,15.23375,-11.13,41.792004,-3.568,59.920002,concentric,6,3.0,23542.0,323293.0,288732.0,335806.0,295716.0
2026-04-07 18:04:48.712041,397850,2159059568,2159061709,-1.292224,0.15616,0.064416,18.0775,17.36875,-12.03125,41.176003,-4.136,60.424004,concentric,6,3.0,23542.0,323293.0,288732.0,335806.0,295716.0
2026-04-07 18:04:48.714339,397851,2159068484,2159070401,-1.292224,0.15616,0.064416,20.772501,18.8825,-13.97375,41.176003,-4.136,60.424004,concentric,6,3.0,23542.0,323293.0,288732.0,335806.0,295716.0
2026-04-07 18:04:48.743489,397861,2159083029,2159085308,-1.423008,0.181536,0.037088,24.50875,20.39625,-16.03875,41.864002,-4.024,59.704002,concentric,6,3.0,23520.0,322753.0,288144.0,335099.0,295098.0
2026-04-07 18:04:48.747861,397862,2159092048,2159094100,-1.524512,0.158112,0.050752,30.52875,21.16625,-18.52375,42.312,-4.768,60.216003,concentric,6,3.0,23520.0,322753.0,288144.0,335099.0,295098.0
2026-04-07 18:04:48.749517,397863,2159101010,2159102811,-1.524512,0.158112,0.050752,38.2375,21.175,-19.985,42.312,-4.768,60.216003,concentric,6,3.0,23520.0,322753.0,288144.0,335099.0,295098.0
2026-04-07 18:04:48.750983,397864,2159110060,2159111513,-1.524512,0.158112,0.050752,46.375,18.40125,-19.25875,42.312,-4.768,60.216003,concentric,6,3.0,23520.0,322753.0,288144.0,335099.0,295098.0
2026-04-07 18:04:48.757648,397865,2159124630,2159126417,-1.5616,0.101504,0.085888,54.451252,13.97375,-18.41,41.688004,-5.64,60.376003,concentric,6,3.0,23520.0,322753.0,288144.0,335099.0,295098.0
2026-04-07 18:04:48.786112,397866,2159133623,2159135146,-1.608448,0.169824,0.109312,57.2425,9.42375,-16.66,42.296,-5.744,60.032,concentric,6,3.0,23520.0,322753.0,288144.0,335099.0,295098.0
2026-04-07 18:04:48.790664,397867,2159142648,2159143845,-1.608448,0.169824,0.109312,54.46,5.69625,-13.95625,42.296,-5.744,60.032,concentric,6,3.0,23520.0,322753.0,288144.0,335099.0,295098.0
2026-04-07 18:04:48.792157,397868,2159157132,2159158743,-1.544032,0.11712,0.10736,44.51125,1.96875,-9.0125,42.376003,-6.096,59.88,concentric,6,3.0,23520.0,322753.0,288144.0,335099.0,295098.0
2026-04-07 18:04:48.798806,397869,2159165993,2159167448,-1.544032,0.11712,0.10736,30.93125,-0.93625,-2.77375,42.376003,-6.096,59.88,concentric,6,3.0,23520.0,322753.0,288144.0,335099.0,295098.0
2026-04-07 18:04:48.833966,397880,2159175517,2159176234,-1.5128,0.06832,0.124928,21.76125,-2.065,2.23125,41.616,-5.664,59.768,concentric,6,3.0,23256.0,319672.0,285184.0,331509.0,292055.0
2026-04-07 18:04:48.835771,397881,2159184849,2159187031,-1.5128,0.06832,0.124928,18.095,-2.72125,5.9675,41.616,-5.664,59.768,concentric,6,3.0,23256.0,319672.0,285184.0,331509.0,292055.0
2026-04-07 18:04:48.837335,397882,2159199343,2159199910,-1.452288,0.12688,0.115168,17.66625,-3.52625,8.785,41.696003,-6.64,62.200005,concentric,6,3.0,23256.0,319672.0,285184.0,331509.0,292055.0
2026-04-07 18:04:48.841298,397883,2159208568,2159210746,-1.452288,0.12688,0.115168,18.52375,-4.12125,10.50875,41.696003,-6.64,62.200005,concentric,6,3.0,23256.0,319672.0,285184.0,331509.0,292055.0
2026-04-07 18:04:48.880771,397884,2159217480,2159219429,-1.391776,0.1952,0.105408,17.66625,-3.99,10.9375,40.792004,-7.384,61.896004,concentric,6,3.0,23256.0,319672.0,285184.0,331509.0,292055.0
2026-04-07 18:04:48.886025,397885,2159232003,2159232316,-1.331264,0.236192,0.121024,14.84875,-3.33375,10.12375,40.792004,-6.584,59.856003,concentric,6,3.0,23256.0,319672.0,285184.0,331509.0,292055.0
2026-04-07 18:04:48.888428,397886,2159241173,2159243119,-1.331264,0.236192,0.121024,11.2,-3.4125,8.42625,41.944,-6.584,59.856003,concentric,6,3.0,23256.0,319672.0,285184.0,331509.0,292055.0
2026-04-07 18:04:48.890178,397887,2159250075,2159251799,-1.331264,0.236192,0.121024,7.27125,-2.45875,6.51875,41.944,-6.584,59.856003,concentric,6,3.0,23256.0,319672.0,285184.0,331509.0,292055.0
2026-04-07 18:04:48.891787,397888,2159258999,2159260494,-1.284416,0.261568,0.101504,4.305,-1.96875,3.45625,41.656002,-6.584,60.008003,concentric,6,3.0,23256.0,319672.0,285184.0,331509.0,292055.0
2026-04-07 18:04:48.960211,397898,2159273507,2159275736,-1.260992,0.27328,0.080032,1.37375,-0.79625,-0.34125,41.384003,-6.576,60.336002,concentric,6,3.0,22818.0,314812.0,280540.0,325818.0,287165.0
2026-04-07 18:04:48.961914,397899,2159282454,2159284491,-1.260992,0.27328,0.080032,0.0,0.21875,-5.0575,41.384003,-6.576,60.336002,concentric,6,3.0,22818.0,314812.0,280540.0,325818.0,287165.0
2026-04-07 18:04:48.963492,397900,2159291415,2159293204,-1.260992,0.27328,0.080032,-2.59,1.575,-9.8,41.384003,-6.576,60.336002,concentric,6,3.0,22818.0,314812.0,280540.0,325818.0,287165.0
2026-04-07 18:04:48.968050,397901,2159305896,2159308125,-1.237568,0.251808,0.072224,-5.635,1.89875,-13.448751,41.24,-6.264,59.632004,concentric,6,3.0,22818.0,314812.0,280540.0,325818.0,287165.0
2026-04-07 18:04:48.969367,397902,2159314945,2159316865,-1.262944,0.177632,0.027328,-8.89875,1.9425,-16.2575,41.168003,-5.664,60.744003,concentric,6,3.0,22818.0,314812.0,280540.0,325818.0,287165.0
2026-04-07 18:04:48.970976,397903,2159323869,2159325548,-1.262944,0.177632,0.027328,-10.0975,2.73875,-17.185,41.168003,-5.664,60.744003,concentric,6,3.0,22818.0,314812.0,280540.0,325818.0,287165.0
2026-04-07 18:04:48.975076,397904,2159338390,2159340504,-1.216096,0.105408,0.013664,-9.16125,2.21375,-16.5025,41.24,-4.936,60.568005,concentric,6,3.0,22818.0,314812.0,280540.0,325818.0,287165.0
2026-04-07 18:04:48.980180,397905,2159347310,2159349195,-1.216096,0.105408,0.013664,-7.525,2.16125,-15.295,41.24,-4.936,60.568005,concentric,6,3.0,22818.0,314812.0,280540.0,325818.0,287165.0
