pc_time,serial_num,sensor_ts,host_ts,ax,ay,az,gx,gy,gz,mx,my,mz,phase,rpe,weight_kg,ppg_a,ppg_b,ppg_c,ppg_d,ppg_e
2026-04-07 18:05:10.593957,401937,2180940559,2180941660,-1.47376,0.216672,0.050752,2.84375,-6.7725,4.9525,41.04,-1.144,59.320004,eccentric,6,3.0,23545.0,322155.0,286435.0,332113.0,291330.0
2026-04-07 18:05:10.607699,401938,2180949547,2180950361,-1.467904,0.22448,0.064416,1.11125,-5.8975,5.48625,41.608,-1.896,59.264004,eccentric,6,3.0,23545.0,322155.0,286435.0,332113.0,291330.0
2026-04-07 18:05:10.609245,401939,2180964040,2180965241,-1.467904,0.22448,0.064416,-0.6475,-5.67875,6.25625,41.608,-1.896,59.264004,eccentric,6,3.0,23545.0,322155.0,286435.0,332113.0,291330.0
2026-04-07 18:05:10.610860,401940,2180972988,2180973939,-1.477664,0.210816,0.06832,-1.4175,-4.27,6.335,40.976,-1.24,59.224003,eccentric,6,3.0,23545.0,322155.0,286435.0,332113.0,291330.0
2026-04-07 18:05:10.614934,401941,2180981964,2180982641,-1.477664,0.210816,0.06832,-2.84375,-3.5175,6.02875,40.976,-1.24,59.224003,eccentric,6,3.0,23545.0,322155.0,286435.0,332113.0,291330.0
2026-04-07 18:05:10.671786,401951,2180997051,2180997597,-1.456192,0.1952,0.080032,-1.5225,-2.49375,4.27,40.928,-0.608,60.000004,eccentric,6,3.0,23426.0,321335.0,285986.0,331825.0,291233.0
2026-04-07 18:05:10.673305,401952,2181006218,2181008386,-1.456192,0.1952,0.080032,-1.9425,-1.25125,3.71875,40.928,-0.608,60.000004,eccentric,6,3.0,23426.0,321335.0,285986.0,331825.0,291233.0
2026-04-07 18:05:10.677514,401953,2181015157,2181017075,-1.469856,0.144448,0.023424,-0.56,-0.4375,3.40375,40.920002,-1.0,59.224003,eccentric,6,3.0,23426.0,321335.0,285986.0,331825.0,291233.0
2026-04-07 18:05:10.679349,401954,2181024089,2181025812,-1.469856,0.144448,0.023424,2.93125,0.1925,2.3625,40.920002,-1.0,59.224003,eccentric,6,3.0,23426.0,321335.0,285986.0,331825.0,291233.0
2026-04-07 18:05:10.680784,401955,2181038588,2181040715,-1.446432,0.158112,-0.025376,8.09375,1.8725,0.53375,40.192,-0.96,60.184002,eccentric,6,3.0,23426.0,321335.0,285986.0,331825.0,291233.0
2026-04-07 18:05:10.684936,401956,2181047622,2181049491,-1.446432,0.158112,-0.025376,14.8925,4.59375,-1.995,40.192,-0.96,60.184002,eccentric,6,3.0,23426.0,321335.0,285986.0,331825.0,291233.0
2026-04-07 18:05:10.688745,401957,2181056541,2181058185,-1.407392,0.245952,-0.00976,17.59625,8.1025,-4.62875,40.432003,-1.104,59.952003,eccentric,6,3.0,23426.0,321335.0,285986.0,331825.0,291233.0
2026-04-07 18:05:10.741953,401958,2181071081,2181073092,-1.370304,0.240096,0.072224,14.07875,12.24125,-5.8975,40.280003,-1.016,56.696003,eccentric,6,3.0,23426.0,321335.0,285986.0,331825.0,291233.0
2026-04-07 18:05:10.744187,401959,2181080040,2181081778,-1.370304,0.240096,0.072224,6.265,14.980001,-5.8975,40.280003,-1.016,56.696003,eccentric,6,3.0,23426.0,321335.0,285986.0,331825.0,291233.0
2026-04-07 18:05:10.749088,401960,2181088962,2181090507,-1.370304,0.240096,0.06832,-1.2775,17.3075,-5.31125,40.280003,-1.016,56.696003,eccentric,6,3.0,23426.0,321335.0,285986.0,331825.0,291233.0
2026-04-07 18:05:10.774628,401971,2181103597,2181105436,-1.364448,0.158112,0.06832,-6.02875,17.31625,-4.45375,41.04,-0.84,60.296,eccentric,6,3.0,24250.0,327847.0,291258.0,337591.0,296178.0
2026-04-07 18:05:10.778771,401972,2181112537,2181114131,-1.29808,0.134688,0.056608,-5.845,17.272501,-3.535,41.280003,-0.376,57.736004,eccentric,6,3.0,24250.0,327847.0,291258.0,337591.0,296178.0
2026-04-07 18:05:10.780592,401973,2181121528,2181122863,-1.29808,0.134688,0.056608,0.09625,16.70375,-3.185,41.280003,-0.376,57.736004,eccentric,6,3.0,24250.0,327847.0,291258.0,337591.0,296178.0
2026-04-07 18:05:10.782288,401974,2181130515,2181131614,-1.245376,0.173728,0.031232,5.0925,16.66875,-3.1675,41.048,-0.544,57.416004,eccentric,6,3.0,24250.0,327847.0,291258.0,337591.0,296178.0
2026-04-07 18:05:10.786366,401975,2181145037,2181146602,-1.245376,0.173728,0.031232,6.39625,17.07125,-3.07125,41.048,-0.544,57.416004,eccentric,6,3.0,24250.0,327847.0,291258.0,337591.0,296178.0
2026-04-07 18:05:10.789033,401976,2181153980,2181155316,-1.212192,0.160064,-0.017568,3.815,16.35375,-2.905,41.120003,-0.624,56.904003,eccentric,6,3.0,24250.0,327847.0,291258.0,337591.0,296178.0
2026-04-07 18:05:10.795428,401977,2181162959,2181164043,-1.212192,0.160064,-0.017568,-1.015,15.9075,-2.59,41.120003,-0.624,56.904003,eccentric,6,3.0,24250.0,327847.0,291258.0,337591.0,296178.0
2026-04-07 18:05:10.825668,401978,2181177426,2181178972,-1.163392,0.130784,-0.076128,-4.68125,15.18125,-2.24875,41.288002,-0.544,57.000004,eccentric,6,3.0,24250.0,327847.0,291258.0,337591.0,296178.0
2026-04-07 18:05:10.828308,401979,2181186321,2181187650,-1.163392,0.130784,-0.076128,-5.43375,14.55125,-2.49375,41.288002,-0.544,57.000004,eccentric,6,3.0,24250.0,327847.0,291258.0,337591.0,296178.0
2026-04-07 18:05:10.856064,401989,2181195749,2181196457,-1.089216,0.1464,-0.062464,-4.41875,13.4925,-2.555,40.832,-0.488,56.552002,eccentric,6,3.0,23912.0,324950.0,288621.0,334327.0,293147.0
2026-04-07 18:05:10.860028,401990,2181205229,2181207292,-1.089216,0.1464,-0.062464,-4.3575,12.06625,-1.8025,40.832,-0.488,56.552002,eccentric,6,3.0,23912.0,324950.0,288621.0,334327.0,293147.0
2026-04-07 18:05:10.861829,401991,2181219847,2181220237,-1.030656,0.134688,-0.037088,-5.59125,10.05375,-0.77875,40.384003,-0.544,57.488003,eccentric,6,3.0,23912.0,324950.0,288621.0,334327.0,293147.0
2026-04-07 18:05:10.863713,401992,2181229108,2181231058,-1.030656,0.134688,-0.037088,-6.99125,7.55125,1.05875,40.384003,-0.544,57.488003,eccentric,6,3.0,23912.0,324950.0,288621.0,334327.0,293147.0
2026-04-07 18:05:10.871188,401993,2181238042,2181239767,-0.979904,0.103456,-0.021472,-8.82875,4.85625,2.87875,41.08,0.528,57.016003,eccentric,6,3.0,23912.0,324950.0,288621.0,334327.0,293147.0
2026-04-07 18:05:10.899812,401994,2181252533,2181254661,-0.931104,0.081984,-0.01952,-11.55,1.82,4.6375,41.936,0.704,55.152004,eccentric,6,3.0,23912.0,324950.0,288621.0,334327.0,293147.0
2026-04-07 18:05:10.903387,401995,2181261466,2181263322,-0.931104,0.081984,-0.01952,-12.88875,-0.63875,5.87125,41.936,0.704,55.152004,eccentric,6,3.0,23912.0,324950.0,288621.0,334327.0,293147.0
2026-04-07 18:05:10.906625,401996,2181270394,2181272080,-0.864736,0.072224,-0.035136,-11.9525,-3.5875,7.315,41.936,0.536,56.120003,eccentric,6,3.0,23912.0,324950.0,288621.0,334327.0,293147.0
2026-04-07 18:05:10.936940,401997,2181284896,2181286984,-0.864736,0.072224,-0.035136,-9.0825,-6.6675,8.11125,40.912003,0.536,56.120003,eccentric,6,3.0,23912.0,324950.0,288621.0,334327.0,293147.0
2026-04-07 18:05:10.997700,402007,2181293805,2181295697,-0.782752,0.081984,-0.060512,-5.9325,-9.87875,9.45,40.56,0.304,55.336002,eccentric,6,3.0,23297.0,320239.0,284621.0,329866.0,289085.0
2026-04-07 18:05:10.999289,402008,2181303302,2181304457,-0.782752,0.081984,-0.060512,-3.29875,-12.43375,11.20875,40.56,0.304,55.336002,eccentric,6,3.0,23297.0,320239.0,284621.0,329866.0,289085.0
2026-04-07 18:05:11.000963,402009,2181312230,2181313146,-0.71248,0.091744,-0.056608,-3.255,-14.9275,12.81,40.432003,0.336,55.264004,eccentric,6,3.0,23297.0,320239.0,284621.0,329866.0,289085.0
2026-04-07 18:05:11.003322,402010,2181326698,2181328063,-0.71248,0.091744,-0.056608,-7.06125,-16.87875,14.49,40.432003,0.336,55.264004,eccentric,6,3.0,23297.0,320239.0,284621.0,329866.0,289085.0
2026-04-07 18:05:11.007553,402011,2181335598,2181336740,-0.651968,0.085888,-0.044896,-13.16,-17.29875,16.84375,40.584003,0.576,55.2,eccentric,6,3.0,23297.0,320239.0,284621.0,329866.0,289085.0
2026-04-07 18:05:11.010164,402012,2181344496,2181345416,-0.651968,0.085888,-0.044896,-18.803751,-17.4125,18.69,40.584003,0.576,55.2,eccentric,6,3.0,23297.0,320239.0,284621.0,329866.0,289085.0
2026-04-07 18:05:11.046078,402013,2181358991,2181360348,-0.607072,0.035136,-0.025376,-21.866251,-17.053751,20.615,40.176003,0.152,55.312004,eccentric,6,3.0,23297.0,320239.0,284621.0,329866.0,289085.0
2026-04-07 18:05:11.049696,402014,2181367931,2181369093,-0.607072,0.035136,-0.025376,-22.365,-16.835001,22.32125,40.176003,0.152,55.312004,eccentric,6,3.0,23297.0,320239.0,284621.0,329866.0,289085.0
2026-04-07 18:05:11.051098,402015,2181376867,2181377843,-0.593408,0.027328,0.0,-19.52125,-16.345,22.9425,39.920002,0.92,54.832,eccentric,6,3.0,23297.0,320239.0,284621.0,329866.0,289085.0
2026-04-07 18:05:11.054863,402016,2181391346,2181392755,-0.59536,0.074176,0.031232,-15.4,-15.015,22.91625,40.72,0.448,56.648003,eccentric,6,3.0,23297.0,320239.0,284621.0,329866.0,289085.0
2026-04-07 18:05:11.085560,402027,2181400425,2181401650,-0.59536,0.074176,0.031232,-11.9,-12.3375,22.46125,40.72,0.448,56.648003,eccentric,6,3.0,22923.0,317178.0,282027.0,327043.0,286432.0
2026-04-07 18:05:11.087001,402028,2181409295,2181410395,-0.59536,0.074176,0.031232,-10.43,-9.72125,20.39625,40.72,0.448,56.648003,eccentric,6,3.0,22923.0,317178.0,282027.0,327043.0,286432.0
2026-04-07 18:05:11.091278,402029,2181418219,2181419078,-0.626592,0.148352,0.081984,-9.63375,-7.8225,17.7275,40.056004,-0.288,54.440002,eccentric,6,3.0,22923.0,317178.0,282027.0,327043.0,286432.0
2026-04-07 18:05:11.093018,402030,2181432729,2181434034,-0.6832,0.25376,0.111264,-8.995,-6.405,15.11125,40.032,0.56,54.984,eccentric,6,3.0,22923.0,317178.0,282027.0,327043.0,286432.0
2026-04-07 18:05:11.094695,402031,2181441750,2181442798,-0.6832,0.25376,0.111264,-8.53125,-5.60875,12.4425,40.032,0.56,54.984,eccentric,6,3.0,22923.0,317178.0,282027.0,327043.0,286432.0
2026-04-07 18:05:11.098789,402032,2181450714,2181451598,-0.6832,0.25376,0.134688,-7.98875,-5.73125,10.59625,40.032,0.56,54.984,eccentric,6,3.0,22923.0,317178.0,282027.0,327043.0,286432.0
2026-04-07 18:05:11.100399,402033,2181465200,2181466559,-0.733952,0.298656,0.134688,-8.96875,-6.6325,9.82625,39.832,0.264,54.192,eccentric,6,3.0,22923.0,317178.0,282027.0,327043.0,286432.0
2026-04-07 18:05:11.104672,402034,2181474111,2181475277,-0.798368,0.208864,0.089792,-9.19625,-8.68,10.35125,39.272003,0.256,55.920002,eccentric,6,3.0,22923.0,317178.0,282027.0,327043.0,286432.0
2026-04-07 18:05:11.135613,402035,2181483044,2181484000,-0.798368,0.208864,0.089792,-5.6875,-12.215,11.3575,39.272003,0.256,55.920002,eccentric,6,3.0,22923.0,317178.0,282027.0,327043.0,286432.0
2026-04-07 18:05:11.162557,402045,2181497654,2181498990,-0.778848,0.060512,-0.017568,1.28625,-15.56625,11.13,40.072002,0.176,54.776,eccentric,6,3.0,22490.0,313571.0,278928.0,323870.0,283867.0
2026-04-07 18:05:11.164274,402046,2181506610,2181507702,-0.778848,0.060512,-0.017568,14.90125,-17.12375,9.37125,40.072002,0.176,54.776,eccentric,6,3.0,22490.0,313571.0,278928.0,323870.0,283867.0
2026-04-07 18:05:11.166716,402047,2181515562,2181516384,-0.825696,0.023424,0.013664,31.52625,-15.49625,8.575,39.960003,-0.864,55.344,eccentric,6,3.0,22490.0,313571.0,278928.0,323870.0,283867.0
2026-04-07 18:05:11.168369,402048,2181530192,2181531394,-0.825696,0.023424,0.013664,41.965,-12.76625,8.53125,39.960003,-0.864,55.344,eccentric,6,3.0,22490.0,313571.0,278928.0,323870.0,283867.0
2026-04-07 18:05:11.172420,402049,2181539101,2181540135,-0.90768,0.171776,0.060512,47.74,-9.1175,6.16875,40.448,-0.8,56.744003,eccentric,6,3.0,22490.0,313571.0,278928.0,323870.0,283867.0
2026-04-07 18:05:11.200952,402050,2181548078,2181548854,-0.90768,0.171776,0.060512,44.6425,-5.9675,3.94625,40.448,-0.8,56.744003,eccentric,6,3.0,22490.0,313571.0,278928.0,323870.0,283867.0
2026-04-07 18:05:11.206245,402051,2181557457,2181559599,-0.8296,0.269376,0.091744,35.1925,-2.28375,4.17375,40.208,-1.416,55.776,eccentric,6,3.0,22490.0,313571.0,278928.0,323870.0,283867.0
2026-04-07 18:05:11.212616,402052,2181571946,2181572465,-0.815936,0.3416,0.177632,24.71875,2.5375,4.375,39.992,-1.728,54.928,eccentric,6,3.0,22490.0,313571.0,278928.0,323870.0,283867.0
2026-04-07 18:05:11.214126,402053,2181581427,2181583252,-0.815936,0.3416,0.177632,12.60875,8.65375,5.215,39.992,-1.728,54.928,eccentric,6,3.0,22490.0,313571.0,278928.0,323870.0,283867.0
2026-04-07 18:05:11.244510,402054,2181590389,2181591954,-0.815936,0.3416,0.177632,0.34125,14.7,5.06625,39.992,-1.728,54.928,eccentric,6,3.0,22490.0,313571.0,278928.0,323870.0,283867.0
2026-04-07 18:05:11.271366,402064,2181599731,2181600731,-0.905728,0.345504,0.21472,-12.38125,20.6675,4.0775,39.84,-1.232,55.728004,eccentric,6,3.0,22278.0,311190.0,276807.0,321392.0,281848.0
2026-04-07 18:05:11.273081,402065,2181614309,2181615670,-0.94672,0.296704,0.269376,-23.87875,26.67,3.75375,40.568,-1.104,54.368004,eccentric,6,3.0,22278.0,311190.0,276807.0,321392.0,281848.0
2026-04-07 18:05:11.274599,402066,2181623259,2181624368,-0.94672,0.296704,0.269376,-31.89375,31.07125,2.59,40.568,-1.104,54.368004,eccentric,6,3.0,22278.0,311190.0,276807.0,321392.0,281848.0
2026-04-07 18:05:11.278813,402067,2181632271,2181633098,-0.948672,0.251808,0.41968,-30.695,30.38875,1.54875,42.616,-0.784,53.544003,eccentric,6,3.0,22278.0,311190.0,276807.0,321392.0,281848.0
2026-04-07 18:05:11.281227,402068,2181646766,2181648017,-0.948672,0.251808,0.41968,-22.785,27.01125,0.7525,40.960003,-0.784,53.544003,eccentric,6,3.0,22278.0,311190.0,276807.0,321392.0,281848.0
2026-04-07 18:05:11.287466,402069,2181655847,2181656734,-0.921344,0.173728,0.433344,-12.1625,19.83625,-1.00625,41.088,-1.248,53.88,eccentric,6,3.0,22278.0,311190.0,276807.0,321392.0,281848.0
2026-04-07 18:05:11.340808,402070,2181664772,2181665480,-0.921344,0.173728,0.433344,1.11125,12.32875,-3.395,41.088,-1.248,53.88,eccentric,6,3.0,22278.0,311190.0,276807.0,321392.0,281848.0
2026-04-07 18:05:11.342949,402071,2181674124,2181676236,-0.931104,0.144448,0.2928,16.415,4.83875,-7.88375,40.84,-0.712,53.776,eccentric,6,3.0,22278.0,311190.0,276807.0,321392.0,281848.0
2026-04-07 18:05:11.347661,402072,2181688671,2181689059,-0.931104,0.144448,0.2928,31.89375,-0.69125,-12.95875,40.84,-0.712,53.776,eccentric,6,3.0,22278.0,311190.0,276807.0,321392.0,281848.0
2026-04-07 18:05:11.382648,402083,2181698011,2181699838,-0.925248,0.203008,0.33184,40.5475,-3.5175,-19.495,41.048,-1.088,54.304,eccentric,6,3.0,23078.0,318106.0,282696.0,327819.0,287329.0
2026-04-07 18:05:11.385962,402084,2181707026,2181708627,-0.925248,0.203008,0.33184,42.49875,-4.13,-24.7275,41.048,-1.088,54.304,eccentric,6,3.0,23078.0,318106.0,282696.0,327819.0,287329.0
2026-04-07 18:05:11.390077,402085,2181721540,2181723662,-1.016992,0.247904,0.222528,43.015,-3.43875,-27.50125,40.832,-1.392,54.728004,eccentric,6,3.0,23078.0,318106.0,282696.0,327819.0,287329.0
2026-04-07 18:05:11.391789,402086,2181730484,2181732373,-1.016992,0.247904,0.222528,37.38,-3.675,-30.07375,40.832,-1.392,54.728004,eccentric,6,3.0,23078.0,318106.0,282696.0,327819.0,287329.0
2026-04-07 18:05:11.393323,402087,2181739428,2181741077,-0.974048,0.251808,0.103456,26.97625,-1.75875,-31.4125,39.992,-1.464,55.064003,eccentric,6,3.0,23078.0,318106.0,282696.0,327819.0,287329.0
2026-04-07 18:05:11.397692,402088,2181748375,2181749805,-0.974048,0.251808,0.103456,18.83,2.065,-33.53,39.992,-1.464,55.064003,eccentric,6,3.0,23078.0,318106.0,282696.0,327819.0,287329.0
2026-04-07 18:05:11.400090,402089,2181762963,2181764700,-1.038464,0.238144,-0.003904,14.07,5.46,-34.982502,40.368,-1.488,54.776,eccentric,6,3.0,23078.0,318106.0,282696.0,327819.0,287329.0
2026-04-07 18:05:11.403652,402090,2181771927,2181773447,-1.038464,0.238144,-0.003904,12.92375,7.35,-34.965,40.368,-1.488,54.776,eccentric,6,3.0,23078.0,318106.0,282696.0,327819.0,287329.0
2026-04-07 18:05:11.432235,402091,2181780880,2181782176,-1.040416,0.226432,-0.0976,14.72625,8.72375,-34.72,40.024002,-1.024,56.536003,eccentric,6,3.0,23078.0,318106.0,282696.0,327819.0,287329.0
2026-04-07 18:05:11.459331,402101,2181795385,2181797537,-1.052128,0.230336,-0.122976,15.417501,10.70125,-35.32375,40.096,-0.688,54.912003,eccentric,6,3.0,23093.0,318232.0,282929.0,328150.0,287708.0
2026-04-07 18:05:11.460829,402102,2181804350,2181806275,-1.052128,0.230336,-0.122976,12.38125,12.55625,-34.02,40.096,-0.688,54.912003,eccentric,6,3.0,23093.0,318232.0,282929.0,328150.0,287708.0
2026-04-07 18:05:11.465060,402103,2181813457,2181815031,-1.042368,0.189344,-0.074176,6.93,14.14875,-32.20875,39.68,-0.488,55.600002,eccentric,6,3.0,23093.0,318232.0,282929.0,328150.0,287708.0
2026-04-07 18:05:11.466801,402104,2181828064,2181829995,-1.042368,0.189344,-0.074176,0.46375,15.8725,-30.44125,39.68,-0.488,55.600002,eccentric,6,3.0,23093.0,318232.0,282929.0,328150.0,287708.0
2026-04-07 18:05:11.468334,402105,2181837043,2181838741,-1.087264,0.163968,-0.046848,-4.76875,16.73875,-27.78125,40.328003,-0.656,55.592003,eccentric,6,3.0,23093.0,318232.0,282929.0,328150.0,287708.0
2026-04-07 18:05:11.499392,402106,2181845989,2181847443,-1.087264,0.163968,-0.046848,-6.86875,17.42125,-25.4625,40.328003,-0.656,55.592003,eccentric,6,3.0,23093.0,318232.0,282929.0,328150.0,287708.0
2026-04-07 18:05:11.503833,402107,2181854916,2181856120,-1.069696,0.167872,0.01952,-6.60625,17.7625,-23.1175,40.408,-0.224,55.872,eccentric,6,3.0,23093.0,318232.0,282929.0,328150.0,287708.0
2026-04-07 18:05:11.505421,402108,2181869459,2181871003,-1.069696,0.167872,0.01952,-4.27,16.59875,-20.8075,40.408,-0.224,55.872,eccentric,6,3.0,23093.0,318232.0,282929.0,328150.0,287708.0
2026-04-07 18:05:11.511162,402109,2181878414,2181879722,-1.087264,0.197152,0.01952,-0.1225,15.636251,-18.92625,40.52,-0.08,54.360004,eccentric,6,3.0,23093.0,318232.0,282929.0,328150.0,287708.0
2026-04-07 18:05:11.545168,402110,2181887387,2181888427,-1.087264,0.197152,0.01952,6.6325,14.2975,-16.94,40.52,-0.08,54.360004,eccentric,6,3.0,23093.0,318232.0,282929.0,328150.0,287708.0
2026-04-07 18:05:11.572791,402120,2181902031,2181903445,-1.11264,0.228384,-0.003904,13.475,12.81875,-14.7175,40.56,-0.592,54.616,eccentric,6,3.0,23213.0,319727.0,284455.0,330087.0,289506.0
2026-04-07 18:05:11.576767,402121,2181911101,2181912154,-1.11264,0.228384,-0.003904,18.05125,12.0575,-14.3325,40.56,-0.592,54.616,eccentric,6,3.0,23213.0,319727.0,284455.0,330087.0,289506.0
2026-04-07 18:05:11.578366,402122,2181920111,2181920835,-1.098976,0.23424,-0.001952,18.40125,11.235,-14.315001,41.032,0.04,55.088,eccentric,6,3.0,23213.0,319727.0,284455.0,330087.0,289506.0
2026-04-07 18:05:11.582556,402123,2181929449,2181931591,-1.098976,0.23424,-0.001952,16.9925,11.22625,-13.8425,41.032,0.04,55.088,eccentric,6,3.0,23213.0,319727.0,284455.0,330087.0,289506.0
2026-04-07 18:05:11.584353,402124,2181944018,2181944526,-1.091168,0.206912,0.031232,15.35625,10.40375,-13.877501,40.952003,-0.72,54.656002,eccentric,6,3.0,23213.0,319727.0,284455.0,330087.0,289506.0
2026-04-07 18:05:11.586628,402125,2181953425,2181955295,-1.061888,0.17568,0.076128,14.4375,9.02125,-13.51875,40.952003,-0.72,54.096,eccentric,6,3.0,23213.0,319727.0,284455.0,330087.0,289506.0
2026-04-07 18:05:11.644508,402126,2181962416,2181964006,-1.061888,0.17568,0.076128,15.855001,6.9825,-12.60875,40.160004,-0.568,54.096,eccentric,6,3.0,23213.0,319727.0,284455.0,330087.0,289506.0
2026-04-07 18:05:11.646699,402127,2181976925,2181978879,-1.046272,0.158112,0.111264,19.17125,5.11875,-10.71875,40.744003,-0.48,54.312004,eccentric,6,3.0,23213.0,319727.0,284455.0,330087.0,289506.0
2026-04-07 18:05:11.651393,402128,2181985860,2181987626,-1.046272,0.158112,0.111264,22.68875,2.66875,-9.70375,40.744003,-0.48,54.312004,eccentric,6,3.0,23213.0,319727.0,284455.0,330087.0,289506.0
2026-04-07 18:05:11.653058,402129,2181994790,2181996326,-1.057984,0.162016,0.128832,24.68375,0.665,-8.14625,41.336002,-1.28,55.152004,eccentric,6,3.0,23213.0,319727.0,284455.0,330087.0,289506.0
2026-04-07 18:05:11.681313,402140,2182009444,2182011267,-1.057984,0.162016,0.128832,24.4825,-1.0675,-6.97375,41.336002,-1.28,55.152004,eccentric,6,3.0,22804.0,316523.0,281975.0,327601.0,287417.0
2026-04-07 18:05:11.683074,402141,2182018377,2182019957,-1.067744,0.16592,0.12688,23.03,-2.345,-6.1775,40.384003,-0.976,54.552002,eccentric,6,3.0,22804.0,316523.0,281975.0,327601.0,287417.0
2026-04-07 18:05:11.684924,402142,2182027408,2182028726,-1.067744,0.16592,0.12688,20.76375,-3.50875,-5.18,40.384003,-0.976,54.552002,eccentric,6,3.0,22804.0,316523.0,281975.0,327601.0,287417.0
2026-04-07 18:05:11.686753,402143,2182036426,2182037447,-1.032608,0.1952,0.105408,18.99625,-3.99,-4.585,40.056004,-1.224,55.920002,eccentric,6,3.0,22804.0,316523.0,281975.0,327601.0,287417.0
2026-04-07 18:05:11.691358,402144,2182050912,2182052390,-1.032608,0.1952,0.105408,16.73875,-4.0775,-4.10375,40.056004,-1.224,55.920002,eccentric,6,3.0,22804.0,316523.0,281975.0,327601.0,287417.0
2026-04-07 18:05:11.693784,402145,2182059926,2182061089,-1.013088,0.218624,0.07808,14.23625,-3.5875,-3.56125,40.256,-1.288,56.224003,eccentric,6,3.0,22804.0,316523.0,281975.0,327601.0,287417.0
2026-04-07 18:05:11.699936,402146,2182068872,2182069830,-1.013088,0.218624,0.07808,10.56125,-3.15,-3.2025,40.256,-1.288,56.224003,eccentric,6,3.0,22804.0,316523.0,281975.0,327601.0,287417.0
2026-04-07 18:05:11.728461,402147,2182083369,2182084792,-1.022848,0.216672,0.035136,8.56625,-2.38875,-3.675,40.496002,-1.68,55.280003,eccentric,6,3.0,22804.0,316523.0,281975.0,327601.0,287417.0
2026-04-07 18:05:11.733110,402148,2182092302,2182093476,-1.022848,0.216672,0.035136,6.93,-1.33,-4.24375,40.496002,-1.68,55.280003,eccentric,6,3.0,22804.0,316523.0,281975.0,327601.0,287417.0
2026-04-07 18:05:11.763544,402158,2182101766,2182102205,-1.030656,0.206912,0.011712,6.06375,-0.16625,-5.64375,40.272003,-1.52,54.584003,eccentric,6,3.0,22480.0,314038.0,279958.0,325551.0,285696.0
2026-04-07 18:05:11.767516,402159,2182111230,2182113137,-1.030656,0.206912,0.011712,5.285,1.3825,-7.63,40.272003,-1.52,54.584003,eccentric,6,3.0,22480.0,314038.0,279958.0,325551.0,285696.0
2026-04-07 18:05:11.769229,402160,2182125825,2182128107,-1.016992,0.222528,0.001952,4.34875,2.56375,-9.17,40.344,-1.216,56.120003,eccentric,6,3.0,22480.0,314038.0,279958.0,325551.0,285696.0
2026-04-07 18:05:11.770840,402161,2182134743,2182136822,-1.036512,0.1952,0.005856,3.3075,4.40125,-10.75375,39.928,-1.712,56.384003,eccentric,6,3.0,22480.0,314038.0,279958.0,325551.0,285696.0
2026-04-07 18:05:11.777404,402162,2182143681,2182145523,-1.036512,0.1952,0.005856,2.05625,6.04625,-11.62875,39.928,-1.712,56.384003,eccentric,6,3.0,22480.0,314038.0,279958.0,325551.0,285696.0
2026-04-07 18:05:11.806021,402163,2182158194,2182160453,-1.022848,0.163968,0.011712,1.19,7.0,-12.1625,40.096,-1.024,55.656002,eccentric,6,3.0,22480.0,314038.0,279958.0,325551.0,285696.0
2026-04-07 18:05:11.810486,402164,2182167111,2182169147,-1.022848,0.163968,0.011712,0.9625,7.74375,-12.355001,40.096,-1.024,55.656002,eccentric,6,3.0,22480.0,314038.0,279958.0,325551.0,285696.0
2026-04-07 18:05:11.812128,402165,2182176041,2182177833,-1.016992,0.154208,0.011712,0.5775,9.14375,-12.39875,40.288002,-1.176,54.320004,eccentric,6,3.0,22480.0,314038.0,279958.0,325551.0,285696.0
2026-04-07 18:05:11.843258,402166,2182190560,2182192708,-1.016992,0.154208,0.011712,0.4375,10.255,-11.99625,40.288002,-1.176,54.320004,eccentric,6,3.0,22480.0,314038.0,279958.0,325551.0,285696.0
2026-04-07 18:05:11.869317,402176,2182199749,2182202055,-1.026752,0.15616,0.013664,-0.4725,11.83875,-11.235,40.640003,-1.144,54.936,eccentric,6,3.0,22496.0,314463.0,280469.0,326317.0,286409.0
2026-04-07 18:05:11.870861,402177,2182208750,2182210834,-1.026752,0.15616,0.013664,-1.68875,13.475,-9.84375,40.640003,-1.144,54.936,eccentric,6,3.0,22496.0,314463.0,280469.0,326317.0,286409.0
2026-04-07 18:05:11.875058,402178,2182217644,2182219527,-1.013088,0.142496,0.040992,-3.12375,14.28,-8.5575,40.56,-0.384,54.840004,eccentric,6,3.0,22496.0,314463.0,280469.0,326317.0,286409.0
2026-04-07 18:05:11.876725,402179,2182232153,2182234526,-1.013088,0.142496,0.040992,-4.96125,14.83125,-7.2275,40.56,-0.384,54.840004,eccentric,6,3.0,22496.0,314463.0,280469.0,326317.0,286409.0
2026-04-07 18:05:11.878409,402180,2182241123,2182243252,-1.01504,0.154208,0.0488,-6.13375,15.11125,-6.3175,40.384003,-1.616,56.800003,eccentric,6,3.0,22496.0,314463.0,280469.0,326317.0,286409.0
2026-04-07 18:05:11.883700,402181,2182250145,2182251948,-1.01504,0.154208,0.0488,-6.8775,16.1175,-5.57375,40.384003,-1.616,56.800003,eccentric,6,3.0,22496.0,314463.0,280469.0,326317.0,286409.0
2026-04-07 18:05:11.947241,402182,2182264664,2182266964,-1.026752,0.181536,0.06832,-7.7,17.63125,-5.18,39.672,-1.256,56.024002,eccentric,6,3.0,22496.0,314463.0,280469.0,326317.0,286409.0
2026-04-07 18:05:11.948551,402183,2182273575,2182275655,-1.026752,0.181536,0.06832,-8.9775,18.375,-5.285,39.672,-1.256,56.024002,eccentric,6,3.0,22496.0,314463.0,280469.0,326317.0,286409.0
2026-04-07 18:05:11.950567,402184,2182282483,2182284338,-1.038464,0.201056,0.080032,-11.8825,19.31125,-5.24125,40.88,-0.84,54.376003,eccentric,6,3.0,22496.0,314463.0,280469.0,326317.0,286409.0
2026-04-07 18:05:11.953039,402185,2182296950,2182299203,-1.050176,0.203008,0.083936,-14.42,20.3175,-6.335,41.24,-0.712,54.936,eccentric,6,3.0,22496.0,314463.0,280469.0,326317.0,286409.0
2026-04-07 18:05:11.977062,402195,2182305933,2182307965,-1.050176,0.203008,0.083936,-17.6925,21.035,-7.20125,41.24,-0.712,54.936,eccentric,6,3.0,22438.0,313967.0,280023.0,325823.0,286018.0
2026-04-07 18:05:11.981326,402196,2182314850,2182316635,-1.050176,0.206912,0.081984,-18.83875,21.84,-7.69125,41.24,-0.712,54.936,eccentric,6,3.0,22438.0,313967.0,280023.0,325823.0,286018.0
2026-04-07 18:05:11.983637,402197,2182323967,2182325395,-1.057984,0.206912,0.081984,-18.94375,21.5425,-8.56625,41.696003,0.04,53.480003,eccentric,6,3.0,22438.0,313967.0,280023.0,325823.0,286018.0
2026-04-07 18:05:11.998323,402198,2182338551,2182340379,-1.069696,0.191296,0.083936,-19.32875,21.32375,-9.30125,41.504,0.144,53.752003,eccentric,6,3.0,22438.0,313967.0,280023.0,325823.0,286018.0
2026-04-07 18:05:12.002335,402199,2182347483,2182349095,-1.069696,0.191296,0.083936,-20.055,20.0025,-9.58125,41.504,0.144,53.752003,eccentric,6,3.0,22438.0,313967.0,280023.0,325823.0,286018.0
2026-04-07 18:05:12.003330,402200,2182356450,2182357800,-1.061888,0.144448,0.080032,-20.74625,18.0075,-9.17,41.52,0.088,54.656002,eccentric,6,3.0,22438.0,313967.0,280023.0,325823.0,286018.0
2026-04-07 18:05:12.007437,402201,2182370944,2182372752,-1.061888,0.144448,0.080032,-20.97375,16.2925,-8.2075,41.52,0.088,54.656002,eccentric,6,3.0,22438.0,313967.0,280023.0,325823.0,286018.0
2026-04-07 18:05:12.012427,402202,2182379892,2182381491,-1.069696,0.11712,0.07808,-20.335001,14.56875,-6.95625,41.368004,-0.128,54.296,eccentric,6,3.0,22438.0,313967.0,280023.0,325823.0,286018.0
2026-04-07 18:05:12.041008,402203,2182388837,2182390250,-1.069696,0.11712,0.07808,-18.3575,12.60875,-5.87125,41.368004,-0.128,54.296,eccentric,6,3.0,22438.0,313967.0,280023.0,325823.0,286018.0
2026-04-07 18:05:12.069611,402214,2182404051,2182405176,-1.056032,0.134688,0.06832,-17.115,10.28125,-4.17375,41.752003,0.568,53.072002,eccentric,6,3.0,22482.0,314415.0,280510.0,326427.0,286529.0
2026-04-07 18:05:12.071996,402215,2182412968,2182413903,-1.056032,0.134688,0.06832,-15.015,8.28625,-2.6775,41.752003,0.568,53.072002,eccentric,6,3.0,22482.0,314415.0,280510.0,326427.0,286529.0
2026-04-07 18:05:12.074558,402216,2182421926,2182422616,-1.009184,0.150304,0.083936,-14.28875,6.8425,-1.4175,42.160004,0.712,53.184002,eccentric,6,3.0,22482.0,314415.0,280510.0,326427.0,286529.0
2026-04-07 18:05:12.077023,402217,2182431281,2182433406,-1.009184,0.150304,0.083936,-15.225,5.39875,-0.4025,42.160004,0.712,53.184002,eccentric,6,3.0,22482.0,314415.0,280510.0,326427.0,286529.0
2026-04-07 18:05:12.079544,402218,2182445772,2182446300,-0.977952,0.138592,0.099552,-16.0825,3.85875,0.76125,41.36,0.464,54.144,eccentric,6,3.0,22482.0,314415.0,280510.0,326427.0,286529.0
2026-04-07 18:05:12.086715,402219,2182455177,2182457093,-0.977952,0.138592,0.128832,-16.5375,3.0625,1.6975,41.36,0.464,54.144,eccentric,6,3.0,22482.0,314415.0,280510.0,326427.0,286529.0
2026-04-07 18:05:12.115994,402220,2182464101,2182465813,-0.938912,0.122976,0.128832,-17.053751,1.56625,2.52875,41.824,0.76,56.872,eccentric,6,3.0,22482.0,314415.0,280510.0,326427.0,286529.0
2026-04-07 18:05:12.121349,402221,2182473118,2182474511,-0.938912,0.122976,0.128832,-16.485,-0.65625,3.64875,41.824,0.76,56.872,eccentric,6,3.0,22482.0,314415.0,280510.0,326427.0,286529.0
2026-04-07 18:05:12.123240,402222,2182487610,2182489399,-0.993568,0.189344,0.033184,-14.39375,-2.31875,3.5,41.992,0.864,53.352,eccentric,6,3.0,22482.0,314415.0,280510.0,326427.0,286529.0
2026-04-07 18:05:12.128426,402223,2182496646,2182498115,-1.061888,0.259616,-0.040992,-8.155,-1.11125,1.68875,41.72,0.504,55.464005,eccentric,6,3.0,22482.0,314415.0,280510.0,326427.0,286529.0
2026-04-07 18:05:12.154247,402233,2182505656,2182506958,-1.061888,0.259616,-0.040992,-3.6575,1.575,-1.21625,41.72,0.504,55.464005,concentric,6,3.0,22262.0,312757.0,279191.0,325173.0,285492.0
2026-04-07 18:05:12.155747,402234,2182520231,2182522043,-1.04432,0.2928,0.011712,-3.64,3.22875,-4.85625,42.424004,1.112,53.112003,concentric,6,3.0,22262.0,312757.0,279191.0,325173.0,285492.0
2026-04-07 18:05:12.162560,402235,2182529272,2182530784,-1.04432,0.2928,0.011712,-6.85125,5.775,-8.6625,42.424004,1.112,53.112003,concentric,6,3.0,22262.0,312757.0,279191.0,325173.0,285492.0
2026-04-07 18:05:12.191010,402236,2182538209,2182539527,-1.085312,0.279136,0.080032,-14.18375,8.75,-11.83875,41.632004,0.784,53.768,concentric,6,3.0,22262.0,312757.0,279191.0,325173.0,285492.0
2026-04-07 18:05:12.195576,402237,2182552692,2182554432,-1.085312,0.279136,0.080032,-22.8375,10.64875,-14.30625,41.632004,0.784,53.768,concentric,6,3.0,22262.0,312757.0,279191.0,325173.0,285492.0
2026-04-07 18:05:12.197070,402238,2182561620,2182563165,-1.106784,0.206912,0.122976,-30.87875,11.9875,-16.1525,41.632004,2.168,52.696003,concentric,6,3.0,22262.0,312757.0,279191.0,325173.0,285492.0
2026-04-07 18:05:12.202471,402239,2182570575,2182571864,-1.106784,0.206912,0.122976,-35.91875,12.85375,-16.40625,41.632004,2.168,52.696003,concentric,6,3.0,22262.0,312757.0,279191.0,325173.0,285492.0
2026-04-07 18:05:12.263186,402240,2182579512,2182580599,-1.120448,0.1464,0.0976,-35.2275,11.7075,-16.94,42.384003,1.488,52.72,concentric,6,3.0,22262.0,312757.0,279191.0,325173.0,285492.0
2026-04-07 18:05:12.265464,402241,2182594083,2182595477,-1.120448,0.1464,0.0976,-30.6775,10.0625,-17.14125,42.384003,1.488,52.72,concentric,6,3.0,22262.0,312757.0,279191.0,325173.0,285492.0
2026-04-07 18:05:12.294577,402251,2182603053,2182604212,-1.08336,0.134688,0.03904,-25.8475,8.79375,-16.79125,41.624,2.928,52.624004,concentric,6,3.0,22482.0,315944.0,282376.0,329299.0,289229.0
2026-04-07 18:05:12.298799,402252,2182612028,2182612949,-1.08336,0.134688,0.03904,-20.72,7.315,-17.12375,41.624,2.928,52.624004,concentric,6,3.0,22482.0,315944.0,282376.0,329299.0,289229.0
2026-04-07 18:05:12.301662,402253,2182626563,2182627838,-1.050176,0.181536,-0.011712,-14.67375,6.3,-16.93125,41.920002,2.68,52.520004,concentric,6,3.0,22482.0,315944.0,282376.0,329299.0,289229.0
2026-04-07 18:05:12.307545,402254,2182635476,2182636551,-1.050176,0.181536,-0.011712,-13.22125,4.935,-16.16125,41.920002,2.68,52.520004,concentric,6,3.0,22482.0,315944.0,282376.0,329299.0,289229.0
2026-04-07 18:05:12.309322,402255,2182644441,2182645270,-0.999424,0.181536,-0.0488,-17.272501,3.19375,-15.33,41.768,2.592,53.248,concentric,6,3.0,22482.0,315944.0,282376.0,329299.0,289229.0
2026-04-07 18:05:12.310809,402256,2182659146,2182660316,-1.026752,0.144448,-0.08784,-22.54,2.02125,-13.4225,41.624,3.04,53.440002,concentric,6,3.0,22482.0,315944.0,282376.0,329299.0,289229.0
2026-04-07 18:05:12.315213,402257,2182668205,2182669075,-1.026752,0.144448,-0.08784,-26.99375,1.12,-11.1475,41.624,3.04,53.440002,concentric,6,3.0,22482.0,315944.0,282376.0,329299.0,289229.0
2026-04-07 18:05:12.319207,402258,2182677303,2182677783,-1.001376,0.08784,-0.070272,-28.07875,0.14,-8.575,41.376003,3.328,52.000004,concentric,6,3.0,22482.0,315944.0,282376.0,329299.0,289229.0
2026-04-07 18:05:12.320774,402259,2182686777,2182688617,-1.001376,0.08784,-0.070272,-28.00875,-1.21625,-7.0,41.376003,3.328,52.000004,concentric,6,3.0,22482.0,315944.0,282376.0,329299.0,289229.0
2026-04-07 18:05:12.386802,402270,2182701323,2182703489,-0.999424,0.099552,-0.044896,-26.39,-3.77125,-5.74,41.600002,4.192,53.512,concentric,6,3.0,22641.0,318367.0,284932.0,332688.0,292246.0
2026-04-07 18:05:12.389280,402271,2182710232,2182712194,-0.999424,0.099552,-0.044896,-21.37625,-5.53,-5.17125,41.600002,4.192,53.512,concentric,6,3.0,22641.0,318367.0,284932.0,332688.0,292246.0
2026-04-07 18:05:12.390865,402272,2182719168,2182720896,-0.977952,0.134688,-0.011712,-15.855001,-6.5975,-4.34875,42.096,4.328,52.440002,concentric,6,3.0,22641.0,318367.0,284932.0,332688.0,292246.0
2026-04-07 18:05:12.395058,402273,2182734058,2182734492,-0.977952,0.134688,-0.011712,-11.54125,-8.2425,-3.26375,42.096,4.328,52.440002,concentric,6,3.0,22641.0,318367.0,284932.0,332688.0,292246.0
2026-04-07 18:05:12.396775,402274,2182743339,2182745304,-0.94672,0.148352,0.017568,-8.9425,-9.14375,-2.17875,40.872,3.256,53.872,concentric,6,3.0,22641.0,318367.0,284932.0,332688.0,292246.0
2026-04-07 18:05:12.398319,402275,2182752443,2182754034,-0.94672,0.148352,0.017568,-7.95375,-10.63125,-1.645,40.872,3.256,53.872,concentric,6,3.0,22641.0,318367.0,284932.0,332688.0,292246.0
2026-04-07 18:05:12.402632,402276,2182761475,2182762757,-0.940864,0.150304,0.015616,-8.32125,-11.585,-1.30375,40.760002,3.872,54.256004,concentric,6,3.0,22641.0,318367.0,284932.0,332688.0,292246.0
2026-04-07 18:05:12.408650,402277,2182776007,2182777721,-0.940864,0.150304,0.015616,-8.225,-13.265,-1.1725,40.760002,3.872,54.256004,concentric,6,3.0,22641.0,318367.0,284932.0,332688.0,292246.0
2026-04-07 18:05:12.418766,402278,2182784957,2182786448,-0.938912,0.15616,-0.025376,-6.62375,-13.90375,-1.26875,41.064003,3.528,55.192,concentric,6,3.0,22641.0,318367.0,284932.0,332688.0,292246.0
2026-04-07 18:05:12.449477,402279,2182793917,2182795167,-0.938912,0.15616,-0.025376,-4.83875,-13.72875,-2.21375,41.064003,3.528,55.192,concentric,6,3.0,22641.0,318367.0,284932.0,332688.0,292246.0
2026-04-07 18:05:12.495538,402289,2182808677,2182810230,-0.944768,0.17568,-0.046848,-3.2375,-12.92375,-3.84125,40.52,3.984,54.160004,concentric,6,3.0,22772.0,319121.0,285384.0,332866.0,292245.0
2026-04-07 18:05:12.497137,402290,2182817638,2182818930,-0.964288,0.163968,-0.040992,-3.9725,-11.33125,-5.565,42.568,4.28,52.496002,concentric,6,3.0,22772.0,319121.0,285384.0,332866.0,292245.0
2026-04-07 18:05:12.501310,402291,2182826570,2182827686,-0.964288,0.163968,-0.040992,-6.90375,-9.9225,-7.175,41.000004,4.28,52.496002,concentric,6,3.0,22772.0,319121.0,285384.0,332866.0,292245.0
2026-04-07 18:05:12.503076,402292,2182835656,2182836444,-0.964288,0.163968,-0.040992,-10.00125,-8.11125,-8.25125,41.000004,4.28,52.496002,concentric,6,3.0,22772.0,319121.0,285384.0,332866.0,292245.0
2026-04-07 18:05:12.504649,402293,2182850633,2182851513,-1.022848,0.15616,-0.011712,-10.4825,-6.25625,-8.575,40.584003,4.112,53.208004,concentric,6,3.0,22772.0,319121.0,285384.0,332866.0,292245.0
2026-04-07 18:05:12.541913,402294,2182859594,2182860261,-1.04432,0.162016,0.042944,-9.38,-4.68125,-8.65375,40.984,4.48,53.232002,concentric,6,3.0,22772.0,319121.0,285384.0,332866.0,292245.0
2026-04-07 18:05:12.544233,402295,2182869028,2182871081,-1.04432,0.162016,0.042944,-8.8375,-3.6225,-8.636251,40.984,4.48,53.232002,concentric,6,3.0,22772.0,319121.0,285384.0,332866.0,292245.0
2026-04-07 18:05:12.548791,402296,2182878026,2182879799,-1.048224,0.152256,0.070272,-8.05,-2.5375,-8.6625,40.952003,4.176,52.672,concentric,6,3.0,22772.0,319121.0,285384.0,332866.0,292245.0
2026-04-07 18:05:12.551483,402297,2182892617,2182894701,-1.048224,0.152256,0.070272,-8.58375,-0.77,-8.7325,40.952003,4.176,52.672,concentric,6,3.0,22772.0,319121.0,285384.0,332866.0,292245.0
2026-04-07 18:05:12.583202,402307,2182901586,2182903724,-1.071648,0.150304,0.085888,-10.0975,0.875,-8.12875,40.72,4.216,53.288002,concentric,6,3.0,23022.0,320206.0,285905.0,332864.0,292161.0
2026-04-07 18:05:12.584751,402308,2182910513,2182912429,-1.071648,0.150304,0.085888,-12.0225,2.94,-6.86,40.72,4.216,53.288002,concentric,6,3.0,23022.0,320206.0,285905.0,332864.0,292161.0
2026-04-07 18:05:12.588816,402309,2182925071,2182927360,-1.120448,0.134688,0.064416,-14.72625,4.725,-6.0025,40.336002,4.696,54.288002,concentric,6,3.0,23022.0,320206.0,285905.0,332864.0,292161.0
2026-04-07 18:05:12.590526,402310,2182934228,2182936085,-1.120448,0.134688,0.064416,-18.45375,5.46875,-5.145,40.336002,4.696,54.288002,concentric,6,3.0,23022.0,320206.0,285905.0,332864.0,292161.0
2026-04-07 18:05:12.592056,402311,2182943215,2182944830,-1.130208,0.115168,0.021472,-21.315,5.0225,-2.6425,40.336002,4.856,53.712,concentric,6,3.0,23022.0,320206.0,285905.0,332864.0,292161.0
2026-04-07 18:05:12.596321,402312,2182952165,2182953626,-1.130208,0.115168,0.021472,-21.1575,4.725,-1.5925,40.336002,4.856,53.712,concentric,6,3.0,23022.0,320206.0,285905.0,332864.0,292161.0
2026-04-07 18:05:12.598743,402313,2182966667,2182968584,-1.108736,0.115168,0.007808,-17.10625,4.6725,-0.60375,40.752003,5.376,54.384003,concentric,6,3.0,23022.0,320206.0,285905.0,332864.0,292161.0
2026-04-07 18:05:12.627258,402314,2182975595,2182977281,-1.108736,0.115168,0.007808,-13.58,4.7075,0.8925,40.752003,5.376,54.384003,concentric,6,3.0,23022.0,320206.0,285905.0,332864.0,292161.0
2026-04-07 18:05:12.631792,402315,2182984493,2182985975,-1.134112,0.154208,0.017568,-11.41,5.15375,1.68,40.856003,5.216,53.04,concentric,6,3.0,23022.0,320206.0,285905.0,332864.0,292161.0
2026-04-07 18:05:12.633195,402316,2182999005,2183000838,-1.143872,0.169824,0.06832,-11.64625,4.83,1.7325,41.184002,5.536,55.600002,concentric,6,3.0,23022.0,320206.0,285905.0,332864.0,292161.0
2026-04-07 18:05:12.668449,402327,2183008059,2183009657,-1.143872,0.169824,0.06832,-13.67625,3.29,2.59875,41.184002,5.536,55.600002,concentric,6,3.0,22825.0,317669.0,283364.0,329556.0,289184.0
2026-04-07 18:05:12.672544,402328,2183017020,2183018395,-1.143872,0.169824,0.06832,-15.58375,1.96875,4.0075,41.184002,5.536,55.600002,concentric,6,3.0,22825.0,317669.0,283364.0,329556.0,289184.0
2026-04-07 18:05:12.674296,402329,2183031701,2183033389,-1.143872,0.15616,0.10736,-17.52625,1.26,5.11875,40.728,5.008,55.312004,concentric,6,3.0,22825.0,317669.0,283364.0,329556.0,289184.0
2026-04-07 18:05:12.676709,402330,2183040652,2183042046,-1.120448,0.134688,0.074176,-18.97,1.81125,5.66125,41.272003,4.968,52.712,concentric,6,3.0,22825.0,317669.0,283364.0,329556.0,289184.0
2026-04-07 18:05:12.683675,402331,2183049574,2183050737,-1.120448,0.134688,0.074176,-21.3325,1.015,5.9675,41.272003,4.968,52.712,concentric,6,3.0,22825.0,317669.0,283364.0,329556.0,289184.0
2026-04-07 18:05:12.714250,402332,2183064031,2183065718,-1.097024,0.070272,0.037088,-23.415,0.9625,5.76625,40.288002,5.168,54.912003,concentric,6,3.0,22825.0,317669.0,283364.0,329556.0,289184.0
2026-04-07 18:05:12.718786,402333,2183072961,2183074419,-1.097024,0.070272,0.037088,-24.185,2.19625,4.4625,40.288002,5.168,54.912003,concentric,6,3.0,22825.0,317669.0,283364.0,329556.0,289184.0
2026-04-07 18:05:12.720516,402334,2183081911,2183083153,-1.09312,0.074176,0.046848,-23.45,3.185,1.4,41.288002,5.264,52.608,concentric,6,3.0,22825.0,317669.0,283364.0,329556.0,289184.0
2026-04-07 18:05:12.722187,402335,2183090812,2183091885,-1.09312,0.074176,0.046848,-22.70625,4.1125,-2.30125,41.288002,5.264,52.608,concentric,6,3.0,22825.0,317669.0,283364.0,329556.0,289184.0
2026-04-07 18:05:12.795553,402345,2183105652,2183106979,-1.1224,0.140544,0.144448,-22.60125,3.66625,-5.90625,40.928,5.688,53.576004,concentric,6,3.0,21478.0,305517.0,272954.0,318328.0,280164.0
2026-04-07 18:05:12.797085,402346,2183114609,2183115774,-1.1224,0.140544,0.144448,-23.02125,1.67125,-7.84875,40.928,5.688,53.576004,concentric,6,3.0,21478.0,305517.0,272954.0,318328.0,280164.0
2026-04-07 18:05:12.801814,402347,2183123526,2183124509,-1.13216,0.169824,0.197152,-21.63,-0.81375,-6.1425,40.896004,6.048,52.536003,concentric,6,3.0,21478.0,305517.0,272954.0,318328.0,280164.0
2026-04-07 18:05:12.804680,402348,2183137987,2183139457,-1.13216,0.169824,0.197152,-19.76625,-4.15625,-3.21125,40.896004,6.048,52.536003,concentric,6,3.0,21478.0,305517.0,272954.0,318328.0,280164.0
2026-04-07 18:05:12.810188,402349,2183147047,2183148139,-1.100928,0.138592,0.189344,-18.90875,-6.475,-1.54,41.408,5.944,53.064003,concentric,6,3.0,21478.0,305517.0,272954.0,318328.0,280164.0
2026-04-07 18:05:12.844368,402350,2183155982,2183156891,-1.100928,0.138592,0.189344,-19.460001,-7.39375,-1.09375,41.408,5.944,53.064003,concentric,6,3.0,21478.0,305517.0,272954.0,318328.0,280164.0
2026-04-07 18:05:12.845886,402351,2183170588,2183171840,-1.077504,0.11712,0.154208,-19.52125,-6.6675,-2.0125,40.784,6.336,53.312004,concentric,6,3.0,21478.0,305517.0,272954.0,318328.0,280164.0
2026-04-07 18:05:12.849198,402352,2183179555,2183180618,-1.042368,0.113216,0.122976,-18.15625,-6.41375,-3.92875,40.480003,6.448,53.424004,concentric,6,3.0,21478.0,305517.0,272954.0,318328.0,280164.0
2026-04-07 18:05:12.851523,402353,2183188540,2183189340,-1.042368,0.113216,0.122976,-18.29625,-4.68125,-5.67,40.480003,6.448,53.424004,concentric,6,3.0,21478.0,305517.0,272954.0,318328.0,280164.0
2026-04-07 18:05:12.862643,402354,2183197447,2183198078,-1.042368,0.113216,0.122976,-17.26375,-2.87,-9.16125,40.480003,6.448,53.424004,concentric,6,3.0,21478.0,305517.0,272954.0,318328.0,280164.0
2026-04-07 18:05:12.889279,402364,2183212312,2183213058,-1.04432,0.179584,0.144448,-13.18625,-2.555,-11.515,40.640003,6.568,52.992004,concentric,6,3.0,21193.0,302986.0,270877.0,316194.0,278614.0
2026-04-07 18:05:12.891635,402365,2183221725,2183223844,-1.0248,0.216672,0.15616,-9.905,-2.7475,-12.3725,40.832,6.704001,53.584003,concentric,6,3.0,21193.0,302986.0,270877.0,316194.0,278614.0
2026-04-07 18:05:12.898819,402366,2183230762,2183232559,-1.0248,0.216672,0.15616,-7.65625,-3.36875,-12.7575,40.832,6.704001,53.584003,concentric,6,3.0,21193.0,302986.0,270877.0,316194.0,278614.0
2026-04-07 18:05:12.900513,402367,2183239912,2183241218,-0.974048,0.189344,0.148352,-7.44625,-2.835,-12.5125,40.416,6.472,55.896004,concentric,6,3.0,21193.0,302986.0,270877.0,316194.0,278614.0
2026-04-07 18:05:12.902056,402368,2183254513,2183256196,-0.974048,0.189344,0.148352,-8.61875,-3.395,-11.8475,40.416,6.472,55.896004,concentric,6,3.0,21193.0,302986.0,270877.0,316194.0,278614.0
2026-04-07 18:05:12.906394,402369,2183263461,2183264907,-0.972096,0.128832,0.103456,-10.19375,-2.75625,-11.55,40.600002,6.632,53.856003,concentric,6,3.0,21193.0,302986.0,270877.0,316194.0,278614.0
2026-04-07 18:05:12.908781,402370,2183272395,2183273674,-0.972096,0.128832,0.103456,-10.66625,-2.2575,-12.4425,40.600002,6.632,53.856003,concentric,6,3.0,21193.0,302986.0,270877.0,316194.0,278614.0
2026-04-07 18:05:12.937200,402371,2183286893,2183288640,-0.99552,0.130784,0.089792,-8.02375,-2.31,-13.5625,40.168003,7.168,52.960003,concentric,6,3.0,21193.0,302986.0,270877.0,316194.0,278614.0
2026-04-07 18:05:12.941765,402372,2183295791,2183297331,-0.99552,0.130784,0.089792,-2.94,-3.14125,-14.9975,40.168003,7.168,52.960003,concentric,6,3.0,21193.0,302986.0,270877.0,316194.0,278614.0
2026-04-07 18:05:12.969178,402383,2183306861,2183308212,-0.974048,0.154208,0.115168,3.73625,-4.03375,-15.74125,40.472,7.520001,52.752003,concentric,6,3.0,21615.0,306797.0,274104.0,319703.0,281560.0
2026-04-07 18:05:12.971725,402384,2183315871,2183317000,-0.974048,0.154208,0.115168,8.25125,-4.87375,-15.68875,40.472,7.520001,52.752003,concentric,6,3.0,21615.0,306797.0,274104.0,319703.0,281560.0
2026-04-07 18:05:12.974169,402385,2183330381,2183332023,-1.001376,0.148352,0.081984,11.62,-5.95,-15.86375,39.72,7.136,55.256004,concentric,6,3.0,21615.0,306797.0,274104.0,319703.0,281560.0
2026-04-07 18:05:12.975692,402386,2183339308,2183340722,-1.001376,0.148352,0.08784,14.65625,-6.60625,-15.82875,39.72,7.136,55.256004,concentric,6,3.0,21615.0,306797.0,274104.0,319703.0,281560.0
2026-04-07 18:05:12.981188,402387,2183348296,2183349434,-0.974048,0.163968,0.08784,16.49375,-6.3525,-15.49625,39.416,6.944,54.680004,concentric,6,3.0,21615.0,306797.0,274104.0,319703.0,281560.0
2026-04-07 18:05:13.009741,402388,2183357215,2183358166,-0.974048,0.163968,0.08784,17.00125,-4.865,-16.14375,39.416,6.944,54.680004,concentric,6,3.0,21615.0,306797.0,274104.0,319703.0,281560.0
2026-04-07 18:05:13.014261,402389,2183371708,2183373066,-0.983808,0.203008,0.089792,15.02375,-2.12625,-16.31875,39.432003,7.368001,53.352,concentric,6,3.0,21615.0,306797.0,274104.0,319703.0,281560.0
2026-04-07 18:05:13.015756,402390,2183380633,2183381764,-0.981856,0.15616,0.02928,6.2825,0.4025,-17.29,39.752003,7.68,52.256004,concentric,6,3.0,21615.0,306797.0,274104.0,319703.0,281560.0
2026-04-07 18:05:13.022416,402391,2183389529,2183390464,-0.981856,0.15616,0.02928,-6.9475,1.98625,-16.8875,39.752003,7.68,52.256004,concentric,6,3.0,21615.0,306797.0,274104.0,319703.0,281560.0
2026-04-07 18:05:13.051024,402392,2183404058,2183405350,-1.003328,0.115168,-0.02928,-19.55625,4.61125,-15.47,39.368,7.656,53.248,concentric,6,3.0,21615.0,306797.0,274104.0,319703.0,281560.0
2026-04-07 18:05:13.083109,402402,2183413034,2183414093,-1.003328,0.115168,-0.02928,-27.85125,6.23,-14.1225,39.368,7.656,53.248,concentric,6,3.0,22441.0,314334.0,280549.0,326718.0,287203.0
2026-04-07 18:05:13.084617,402403,2183422052,2183422836,-1.020896,0.076128,-0.064416,-34.18625,6.9475,-12.90625,39.832,8.272,52.776,concentric,6,3.0,22441.0,314334.0,280549.0,326718.0,287203.0
2026-04-07 18:05:13.088876,402404,2183436604,2183437793,-1.020896,0.076128,-0.064416,-37.8875,7.525,-10.56125,39.832,8.272,52.776,concentric,6,3.0,22441.0,314334.0,280549.0,326718.0,287203.0
2026-04-07 18:05:13.090595,402405,2183445542,2183446517,-1.04432,0.005856,-0.017568,-37.9575,7.8925,-8.89875,39.88,8.824,53.776,concentric,6,3.0,22441.0,314334.0,280549.0,326718.0,287203.0
2026-04-07 18:05:13.092365,402406,2183454473,2183455253,-1.04432,0.005856,-0.017568,-32.26125,8.40875,-6.685,39.88,8.824,53.776,concentric,6,3.0,22441.0,314334.0,280549.0,326718.0,287203.0
2026-04-07 18:05:13.144463,402407,2183468994,2183470220,-1.24928,0.044896,0.121024,-25.9875,6.0025,-4.445,39.592003,8.52,53.840004,concentric,6,3.0,22441.0,314334.0,280549.0,326718.0,287203.0
2026-04-07 18:05:13.146767,402408,2183477908,2183478942,-1.24928,0.044896,0.121024,-20.405,2.9925,-3.675,39.592003,8.52,53.840004,concentric,6,3.0,22441.0,314334.0,280549.0,326718.0,287203.0
2026-04-07 18:05:13.150552,402409,2183486807,2183487639,-1.16144,0.060512,0.20496,-17.2025,0.21,-0.665,40.104,8.472,52.848003,concentric,6,3.0,22441.0,314334.0,280549.0,326718.0,287203.0
2026-04-07 18:05:13.152126,402410,2183495722,2183496346,-1.16144,0.060512,0.20496,-13.2125,-3.68375,4.06875,40.104,8.472,52.848003,concentric,6,3.0,22441.0,314334.0,280549.0,326718.0,287203.0
2026-04-07 18:05:13.178046,402420,2183510789,2183511264,-1.00528,0.052704,0.316224,-5.87125,-6.72,7.0875,39.72,8.088,53.256004,concentric,6,3.0,23255.0,323006.0,288589.0,336156.0,295248.0
2026-04-07 18:05:13.179638,402421,2183520116,2183522016,-1.00528,0.052704,0.218624,8.53125,-8.61,8.7675,39.72,8.088,53.256004,concentric,6,3.0,23255.0,323006.0,288589.0,336156.0,295248.0
2026-04-07 18:05:13.183793,402422,2183529213,2183530780,-0.976,0.16592,0.218624,24.2025,-9.0825,9.073751,39.544003,7.896,52.312004,concentric,6,3.0,23255.0,323006.0,288589.0,336156.0,295248.0
2026-04-07 18:05:13.185504,402423,2183538275,2183539509,-0.976,0.16592,0.218624,33.67875,-8.645,6.27375,39.544003,7.896,52.312004,concentric,6,3.0,23255.0,323006.0,288589.0,336156.0,295248.0
2026-04-07 18:05:13.187076,402424,2183552728,2183554408,-0.944768,0.286944,0.083936,30.8,-6.2125,0.7175,39.640003,8.192,55.184002,concentric,6,3.0,23255.0,323006.0,288589.0,336156.0,295248.0
2026-04-07 18:05:13.193677,402425,2183561707,2183563140,-1.022848,0.275232,-0.05856,17.115,-2.42375,-4.34,39.280003,8.160001,54.472004,concentric,6,3.0,23255.0,323006.0,288589.0,336156.0,295248.0
2026-04-07 18:05:13.222247,402426,2183570669,2183571843,-1.022848,0.275232,-0.05856,2.40625,1.16375,-8.855001,39.280003,8.160001,54.472004,concentric,6,3.0,23255.0,323006.0,288589.0,336156.0,295248.0
2026-04-07 18:05:13.226862,402427,2183585166,2183586730,-1.030656,0.173728,-0.130784,-8.09375,5.06625,-12.635,39.928,8.240001,53.504,concentric,6,3.0,23255.0,323006.0,288589.0,336156.0,295248.0
2026-04-07 18:05:13.228219,402428,2183594070,2183595411,-1.030656,0.173728,-0.130784,-12.81875,8.25125,-15.42625,39.928,8.240001,53.504,concentric,6,3.0,23255.0,323006.0,288589.0,336156.0,295248.0
2026-04-07 18:05:13.234942,402429,2183603111,2183604155,-1.001376,0.101504,-0.08784,-11.445,11.7075,-16.835001,39.904003,8.688001,53.784004,concentric,6,3.0,23255.0,323006.0,288589.0,336156.0,295248.0
2026-04-07 18:05:13.264337,402440,2183617677,2183619126,-1.001376,0.101504,-0.08784,-6.04625,14.7875,-18.22625,39.904003,8.688001,53.784004,concentric,6,3.0,23947.0,329687.0,294682.0,343256.0,301302.0
2026-04-07 18:05:13.265844,402441,2183626650,2183627827,-1.036512,0.074176,-0.044896,-2.24875,16.44125,-19.13625,40.328003,8.384001,53.520004,concentric,6,3.0,23947.0,329687.0,294682.0,343256.0,301302.0
2026-04-07 18:05:13.269922,402442,2183635595,2183636551,-1.036512,0.074176,-0.044896,-0.70875,17.64,-19.495,40.328003,8.384001,53.520004,concentric,6,3.0,23947.0,329687.0,294682.0,343256.0,301302.0
2026-04-07 18:05:13.298539,402443,2183650116,2183651457,-1.067744,0.046848,-0.005856,0.86625,18.3925,-19.36375,39.808002,8.616,53.608,concentric,6,3.0,23947.0,329687.0,294682.0,343256.0,301302.0
2026-04-07 18:05:13.303018,402444,2183659029,2183660171,-1.067744,0.046848,-0.005856,4.73375,17.24625,-18.01625,39.808002,8.616,53.608,concentric,6,3.0,23947.0,329687.0,294682.0,343256.0,301302.0
2026-04-07 18:05:13.304517,402445,2183667955,2183668861,-1.075552,0.062464,0.044896,11.31375,16.16125,-15.70625,40.136,8.480001,53.304,concentric,6,3.0,23947.0,329687.0,294682.0,343256.0,301302.0
2026-04-07 18:05:13.308633,402446,2183676876,2183677584,-1.075552,0.062464,0.044896,20.62375,13.7375,-12.285,40.136,8.480001,53.304,concentric,6,3.0,23947.0,329687.0,294682.0,343256.0,301302.0
2026-04-07 18:05:13.337198,402447,2183691757,2183692480,-1.130208,-0.007808,0.203008,32.9175,8.5575,-8.365,39.864002,7.8,54.976,concentric,6,3.0,23947.0,329687.0,294682.0,343256.0,301302.0
2026-04-07 18:05:13.341769,402448,2183701117,2183703228,-1.130208,0.085888,0.111264,52.87625,1.645,-3.96375,39.864002,7.8,54.976,concentric,6,3.0,23947.0,329687.0,294682.0,343256.0,301302.0
2026-04-07 18:05:13.367706,402458,2183710604,2183712313,-1.087264,0.080032,0.111264,65.4675,-0.83125,-1.93375,40.352,7.024,54.904003,concentric,6,3.0,24212.0,333098.0,298118.0,347601.0,305010.0
2026-04-07 18:05:13.369989,402459,2183719601,2183721076,-1.087264,0.080032,0.111264,70.86625,0.48125,-4.06875,40.352,7.024,54.904003,concentric,6,3.0,24212.0,333098.0,298118.0,347601.0,305010.0
2026-04-07 18:05:13.371774,402460,2183734172,2183736040,-1.09312,0.247904,0.132736,70.6125,4.03375,-8.636251,40.192,6.536,54.840004,concentric,6,3.0,24212.0,333098.0,298118.0,347601.0,305010.0
2026-04-07 18:05:13.374107,402461,2183743162,2183744784,-1.05408,0.249856,0.142496,60.2,5.7575,-11.52375,40.496002,6.856,54.120003,concentric,6,3.0,24212.0,333098.0,298118.0,347601.0,305010.0
2026-04-07 18:05:13.404407,402462,2183752192,2183753510,-1.05408,0.249856,0.142496,44.170002,6.16,-13.55375,40.496002,6.856,54.120003,concentric,6,3.0,24212.0,333098.0,298118.0,347601.0,305010.0
2026-04-07 18:05:13.408782,402463,2183766720,2183768408,-1.057984,0.160064,0.07808,32.54125,6.60625,-13.97375,40.4,6.424,55.248,concentric,6,3.0,24212.0,333098.0,298118.0,347601.0,305010.0
2026-04-07 18:05:13.411714,402464,2183775645,2183777117,-1.057984,0.160064,0.07808,27.72,7.70875,-13.7725,40.4,6.424,55.248,concentric,6,3.0,24212.0,333098.0,298118.0,347601.0,305010.0
2026-04-07 18:05:13.449375,402465,2183784571,2183785833,-1.091168,0.091744,0.050752,26.95875,8.96875,-13.22125,40.624,5.976,55.72,concentric,6,3.0,24212.0,333098.0,298118.0,347601.0,305010.0
2026-04-07 18:05:13.451706,402466,2183799068,2183800783,-1.091168,0.091744,0.050752,26.678751,10.5175,-13.36125,40.624,5.976,55.72,concentric,6,3.0,24212.0,333098.0,298118.0,347601.0,305010.0
2026-04-07 18:05:13.478108,402476,2183808452,2183809521,-1.04432,0.083936,-0.003904,25.94375,10.80625,-13.475,40.224003,5.696,55.632004,concentric,6,3.0,24597.0,337094.0,301921.0,352217.0,309000.0
2026-04-07 18:05:13.479643,402477,2183817425,2183818218,-1.04432,0.083936,-0.003904,26.915,11.76875,-13.5975,40.224003,5.696,55.632004,concentric,6,3.0,24597.0,337094.0,301921.0,352217.0,309000.0
2026-04-07 18:05:13.483803,402478,2183826316,2183826920,-1.042368,0.083936,0.060512,24.35125,14.5075,-15.8025,40.440002,5.672,55.952003,concentric,6,3.0,24597.0,337094.0,301921.0,352217.0,309000.0
2026-04-07 18:05:13.485539,402479,2183841116,2183841874,-1.042368,0.083936,0.060512,21.6125,13.55375,-19.8275,40.440002,5.672,55.952003,concentric,6,3.0,24597.0,337094.0,301921.0,352217.0,309000.0
2026-04-07 18:05:13.487048,402480,2183850605,2183852668,-1.077504,0.121024,-0.011712,25.34875,14.67375,-17.57,40.480003,5.392,56.168003,concentric,6,3.0,24597.0,337094.0,301921.0,352217.0,309000.0
2026-04-07 18:05:13.491149,402481,2183859546,2183861418,-1.077504,0.121024,-0.011712,24.08875,14.60375,-15.435,40.480003,5.392,56.168003,concentric,6,3.0,24597.0,337094.0,301921.0,352217.0,309000.0
2026-04-07 18:05:13.521981,402482,2183868501,2183870161,-1.056032,0.138592,-0.027328,17.98125,15.58375,-12.92375,40.928,5.648,56.2,concentric,6,3.0,24597.0,337094.0,301921.0,352217.0,309000.0
2026-04-07 18:05:13.524427,402483,2183882975,2183885058,-1.097024,0.06832,-0.033184,8.86375,17.115,-8.75,41.208,6.288,55.896004,concentric,6,3.0,24597.0,337094.0,301921.0,352217.0,309000.0
2026-04-07 18:05:13.528726,402484,2183891924,2183893732,-1.097024,0.06832,-0.033184,5.71375,18.10375,-9.3975,41.208,6.288,55.896004,concentric,6,3.0,24597.0,337094.0,301921.0,352217.0,309000.0
2026-04-07 18:05:13.533688,402485,2183900867,2183902462,-1.097024,0.06832,-0.033184,7.97125,18.89125,-8.98625,41.208,6.288,55.896004,concentric,6,3.0,24597.0,337094.0,301921.0,352217.0,309000.0
2026-04-07 18:05:13.566963,402496,2183915451,2183917589,-1.085312,0.0976,0.011712,14.525,19.39,-8.8375,41.696003,5.936,55.552002,concentric,6,3.0,24646.0,338280.0,303274.0,353963.0,310330.0
2026-04-07 18:05:13.571325,402497,2183924412,2183926293,-1.057984,0.150304,0.070272,20.4925,19.3375,-10.26375,40.800003,5.32,57.232002,concentric,6,3.0,24646.0,338280.0,303274.0,353963.0,310330.0
2026-04-07 18:05:13.574485,402498,2183933420,2183935000,-1.057984,0.150304,0.070272,22.02375,19.6175,-9.1,40.800003,5.32,57.232002,concentric,6,3.0,24646.0,338280.0,303274.0,353963.0,310330.0
2026-04-07 18:05:13.602279,402499,2183947959,2183949952,-1.081408,0.148352,0.081984,21.00875,19.66125,-9.7825,41.552002,5.376,56.296,concentric,6,3.0,24646.0,338280.0,303274.0,353963.0,310330.0
2026-04-07 18:05:13.606794,402500,2183956897,2183958725,-1.081408,0.148352,0.081984,17.9025,18.96125,-8.61,41.552002,5.376,56.296,concentric,6,3.0,24646.0,338280.0,303274.0,353963.0,310330.0
2026-04-07 18:05:13.608333,402501,2183965794,2183967417,-1.079456,0.128832,0.052704,14.04375,18.69875,-7.91,41.760002,4.76,56.08,concentric,6,3.0,24646.0,338280.0,303274.0,353963.0,310330.0
2026-04-07 18:05:13.613696,402502,2183980288,2183982314,-1.079456,0.128832,0.052704,11.0075,18.52375,-8.12875,41.760002,4.76,56.08,concentric,6,3.0,24646.0,338280.0,303274.0,353963.0,310330.0
2026-04-07 18:05:13.642243,402503,2183989253,2183991004,-1.095072,0.103456,0.040992,9.38,18.655,-7.63875,41.472,4.112,56.864002,concentric,6,3.0,24646.0,338280.0,303274.0,353963.0,310330.0
2026-04-07 18:05:13.647551,402504,2183998169,2183999660,-1.095072,0.103456,0.040992,10.03625,18.59375,-7.6125,41.472,4.112,56.864002,concentric,6,3.0,24646.0,338280.0,303274.0,353963.0,310330.0
2026-04-07 18:05:13.649274,402505,2184007076,2184008356,-1.100928,0.105408,0.013664,11.76,18.17375,-7.91,41.768,4.728,55.864002,concentric,6,3.0,24646.0,338280.0,303274.0,353963.0,310330.0
2026-04-07 18:05:13.674224,402515,2184021759,2184023328,-1.100928,0.105408,0.013664,13.3875,18.165,-8.30375,41.768,4.728,55.864002,concentric,6,3.0,25122.0,342304.0,306662.0,357658.0,313324.0
2026-04-07 18:05:13.675810,402516,2184030812,2184032051,-1.067744,0.138592,0.031232,11.935,18.45375,-8.995,42.2,5.28,55.664,concentric,6,3.0,25122.0,342304.0,306662.0,357658.0,313324.0
2026-04-07 18:05:13.679896,402517,2184039858,2184040838,-1.067744,0.138592,0.031232,6.195,18.27875,-8.82,42.2,5.28,55.664,concentric,6,3.0,25122.0,342304.0,306662.0,357658.0,313324.0
2026-04-07 18:05:13.686810,402518,2184054390,2184055756,-1.11264,0.113216,0.027328,0.63875,17.9025,-8.155,42.096,4.92,55.192,concentric,6,3.0,25122.0,342304.0,306662.0,357658.0,313324.0
2026-04-07 18:05:13.741932,402519,2184063321,2184064437,-1.108736,0.091744,0.01952,-1.3825,18.2175,-8.21625,42.096,4.424,55.792004,concentric,6,3.0,25122.0,342304.0,306662.0,357658.0,313324.0
2026-04-07 18:05:13.744242,402520,2184072239,2184073129,-1.108736,0.091744,0.01952,-0.70875,17.8675,-7.4375,42.688004,4.424,55.792004,concentric,6,3.0,25122.0,342304.0,306662.0,357658.0,313324.0
2026-04-07 18:05:13.749203,402521,2184086691,2184088050,-1.097024,0.101504,0.052704,0.74375,17.33375,-5.985,42.72,4.44,55.440002,concentric,6,3.0,25122.0,342304.0,306662.0,357658.0,313324.0
2026-04-07 18:05:13.749276,402522,2184095616,2184096726,-1.097024,0.101504,0.052704,1.9075,17.31625,-4.76875,42.72,4.44,55.440002,concentric,6,3.0,25122.0,342304.0,306662.0,357658.0,313324.0
2026-04-07 18:05:13.753847,402523,2184104502,2184105416,-1.071648,0.103456,0.035136,3.36,17.21125,-3.71,43.224003,4.608,55.08,concentric,6,3.0,25122.0,342304.0,306662.0,357658.0,313324.0
2026-04-07 18:05:13.777980,402533,2184113592,2184114580,-1.071648,0.103456,0.035136,2.9575,16.6075,-2.38875,43.224003,4.608,55.08,concentric,6,3.0,25071.0,342074.0,306543.0,357596.0,313236.0
2026-04-07 18:05:13.779549,402534,2184128114,2184129514,-1.097024,0.081984,0.074176,3.77125,16.10875,-1.46125,42.928,4.144,57.136,concentric,6,3.0,25071.0,342074.0,306543.0,357596.0,313236.0
2026-04-07 18:05:13.783775,402535,2184137062,2184138274,-1.097024,0.081984,0.074176,8.00625,15.96,-0.0525,42.928,4.144,57.136,concentric,6,3.0,25071.0,342074.0,306543.0,357596.0,313236.0
2026-04-07 18:05:13.785354,402536,2184146131,2184147024,-1.116544,0.07808,0.066368,16.0825,14.42875,0.1925,42.896004,3.872,57.752003,concentric,6,3.0,25071.0,342074.0,306543.0,357596.0,313236.0
2026-04-07 18:05:13.815644,402537,2184160615,2184162019,-1.116544,0.07808,0.066368,21.4725,12.20625,0.79625,42.896004,3.872,57.752003,concentric,6,3.0,25071.0,342074.0,306543.0,357596.0,313236.0
2026-04-07 18:05:13.820063,402538,2184169527,2184170705,-1.138016,0.103456,0.03904,26.145,10.63125,1.65375,43.248,3.216,55.312004,concentric,6,3.0,25071.0,342074.0,306543.0,357596.0,313236.0
2026-04-07 18:05:13.821772,402539,2184178447,2184179340,-1.138016,0.103456,0.03904,26.18875,8.2775,0.56875,43.248,3.216,55.312004,concentric,6,3.0,25071.0,342074.0,306543.0,357596.0,313236.0
2026-04-07 18:05:13.823351,402540,2184192922,2184194300,-1.165344,0.150304,0.011712,25.2175,6.125,0.9975,43.736004,3.232,55.576004,concentric,6,3.0,25071.0,342074.0,306543.0,357596.0,313236.0
2026-04-07 18:05:13.854386,402541,2184201862,2184203023,-1.165344,0.150304,0.011712,23.6425,4.06,1.575,43.736004,3.232,55.576004,concentric,6,3.0,25071.0,342074.0,306543.0,357596.0,313236.0
2026-04-07 18:05:13.882112,402552,2184210796,2184211679,-1.1712,0.173728,0.021472,20.895,2.6775,1.37375,43.88,2.72,56.368004,concentric,6,3.0,24482.0,336354.0,301285.0,351404.0,308103.0
2026-04-07 18:05:13.886330,402553,2184225330,2184226636,-1.212192,0.154208,0.025376,16.905,2.0475,2.37125,43.432003,2.912,54.840004,concentric,6,3.0,24482.0,336354.0,301285.0,351404.0,308103.0
2026-04-07 18:05:13.888013,402554,2184234239,2184235371,-1.212192,0.154208,0.025376,11.27875,1.645,1.6975,43.432003,2.912,54.840004,concentric,6,3.0,24482.0,336354.0,301285.0,351404.0,308103.0
2026-04-07 18:05:13.891155,402555,2184243266,2184244089,-1.212192,0.154208,0.025376,7.28,2.7825,2.38875,43.432003,2.912,54.840004,concentric,6,3.0,24482.0,336354.0,301285.0,351404.0,308103.0
2026-04-07 18:05:13.893649,402556,2184252360,2184252840,-1.251232,0.18544,0.074176,7.18375,2.555,3.3425,43.536003,3.208,59.456,concentric,6,3.0,24482.0,336354.0,301285.0,351404.0,308103.0
2026-04-07 18:05:13.898723,402557,2184267393,2184267714,-1.325408,0.173728,0.113216,5.67875,1.54875,0.9975,43.496002,2.744,57.096004,concentric,6,3.0,24482.0,336354.0,301285.0,351404.0,308103.0
2026-04-07 18:05:13.927731,402558,2184276661,2184278505,-1.325408,0.173728,0.113216,4.445,1.0675,-0.35,43.496002,2.744,57.096004,concentric,6,3.0,24482.0,336354.0,301285.0,351404.0,308103.0
2026-04-07 18:05:13.931770,402559,2184285645,2184287194,-1.382016,0.15616,0.07808,7.1225,1.54,0.14,43.712,2.352,55.592003,concentric,6,3.0,24482.0,336354.0,301285.0,351404.0,308103.0
2026-04-07 18:05:13.933185,402560,2184294594,2184295884,-1.382016,0.15616,0.07808,8.82,1.12,-2.3625,43.712,2.352,55.592003,concentric,6,3.0,24482.0,336354.0,301285.0,351404.0,308103.0
2026-04-07 18:05:13.941141,402561,2184309124,2184310781,-1.393728,0.193248,0.042944,13.62375,0.91,-4.92625,43.280003,2.048,57.192,concentric,6,3.0,24482.0,336354.0,301285.0,351404.0,308103.0
2026-04-07 18:05:13.970118,402571,2184318088,2184319534,-1.393728,0.193248,0.042944,15.2775,-0.97125,-6.81625,43.280003,2.048,57.192,concentric,6,3.0,24704.0,337664.0,302121.0,352097.0,308589.0
2026-04-07 18:05:13.971801,402572,2184327136,2184328283,-1.467904,0.177632,0.017568,8.417501,-3.15,-15.575,43.616,2.832,56.24,concentric,6,3.0,24704.0,337664.0,302121.0,352097.0,308589.0
2026-04-07 18:05:13.973311,402573,2184341679,2184343184,-1.467904,0.177632,0.017568,0.00875,-3.87625,-20.7025,43.616,2.832,56.24,concentric,6,3.0,24704.0,337664.0,302121.0,352097.0,308589.0
2026-04-07 18:05:14.004919,402574,2184350685,2184351930,-1.624064,0.052704,0.08784,-5.66125,-4.7075,-21.46375,43.448,2.616,57.064003,concentric,6,3.0,24704.0,337664.0,302121.0,352097.0,308589.0
2026-04-07 18:05:14.008798,402575,2184359575,2184360664,-1.624064,0.052704,0.08784,-5.18,-9.02125,-17.14125,43.448,2.616,57.064003,concentric,6,3.0,24704.0,337664.0,302121.0,352097.0,308589.0
2026-04-07 18:05:14.011625,402576,2184374066,2184375544,-1.549888,0.01952,0.037088,0.35875,-13.93875,-6.405,43.488003,2.688,56.480003,concentric,6,3.0,24704.0,337664.0,302121.0,352097.0,308589.0
2026-04-07 18:05:14.044405,402577,2184382998,2184384240,-1.549888,0.01952,0.037088,5.17125,-18.33125,4.69,43.488003,2.688,56.480003,concentric,6,3.0,24704.0,337664.0,302121.0,352097.0,308589.0
2026-04-07 18:05:14.046744,402578,2184391912,2184392962,-1.504992,0.158112,0.072224,9.93125,-20.1425,7.63,43.120003,2.8,55.112003,concentric,6,3.0,24704.0,337664.0,302121.0,352097.0,308589.0
2026-04-07 18:05:14.051421,402579,2184406405,2184407939,-1.528416,0.208864,0.050752,11.55,-20.32625,9.02125,42.760002,2.76,55.472004,concentric,6,3.0,24704.0,337664.0,302121.0,352097.0,308589.0
2026-04-07 18:05:14.078211,402589,2184415433,2184416685,-1.528416,0.208864,0.050752,3.38625,-20.0375,10.6225,42.760002,2.76,55.472004,concentric,6,3.0,23654.0,326932.0,292186.0,340220.0,298472.0
2026-04-07 18:05:14.082697,402590,2184424378,2184425485,-1.528416,0.099552,0.07808,-13.60625,-20.79875,11.94375,42.760002,2.76,55.472004,concentric,6,3.0,23654.0,326932.0,292186.0,340220.0,298472.0
2026-04-07 18:05:14.085879,402591,2184433416,2184434194,-1.421056,0.103456,0.07808,-28.7875,-21.105,13.04625,42.704002,2.76,56.288002,concentric,6,3.0,23654.0,326932.0,292186.0,340220.0,298472.0
2026-04-07 18:05:14.090033,402592,2184447972,2184449179,-1.421056,0.076128,0.081984,-31.73625,-21.14875,12.50375,41.304,2.816,57.688004,concentric,6,3.0,23654.0,326932.0,292186.0,340220.0,298472.0
2026-04-07 18:05:14.092517,402593,2184456942,2184457874,-1.421056,0.076128,0.081984,-23.59,-20.90375,11.19125,41.304,2.816,57.688004,concentric,6,3.0,23654.0,326932.0,292186.0,340220.0,298472.0
2026-04-07 18:05:14.096570,402594,2184465892,2184466676,-1.378112,0.167872,0.076128,-10.71,-20.335001,10.3425,42.280003,3.168,57.008003,concentric,6,3.0,23654.0,326932.0,292186.0,340220.0,298472.0
2026-04-07 18:05:14.126947,402595,2184480937,2184481607,-1.378112,0.167872,0.076128,-1.16375,-19.32,8.16375,42.280003,3.168,57.008003,concentric,6,3.0,23654.0,326932.0,292186.0,340220.0,298472.0
2026-04-07 18:05:14.130496,402596,2184490208,2184492375,-1.3664,0.306464,0.085888,4.935,-16.9225,4.0775,41.656002,2.872,56.384003,concentric,6,3.0,23654.0,326932.0,292186.0,340220.0,298472.0
2026-04-07 18:05:14.133710,402597,2184499132,2184501052,-1.3664,0.306464,0.085888,5.99375,-13.011251,-1.9775,41.656002,2.872,56.384003,concentric,6,3.0,23654.0,326932.0,292186.0,340220.0,298472.0
2026-04-07 18:05:14.140040,402598,2184508082,2184509785,-1.380064,0.294752,0.046848,-2.2225,-9.72125,-6.3175,42.08,2.888,56.808002,concentric,6,3.0,23654.0,326932.0,292186.0,340220.0,298472.0
