pc_time,serial_num,sensor_ts,host_ts,ax,ay,az,gx,gy,gz,mx,my,mz,phase,rpe,weight_kg,ppg_a,ppg_b,ppg_c,ppg_d,ppg_e
2026-04-07 17:56:32.790654,306517,1663143637,1663143963,-1.3176,-0.015616,-0.033184,6.7725,8.53125,-6.57125,44.960003,2.44,58.024002,eccentric,3,3.0,22888.0,327072.0,295303.0,345625.0,301122.0
2026-04-07 17:56:32.792090,306518,1663152934,1663154787,-1.3176,-0.015616,-0.033184,10.4825,8.4525,-4.3925,44.960003,2.44,58.024002,eccentric,3,3.0,22888.0,327072.0,295303.0,345625.0,301122.0
2026-04-07 17:56:32.793683,306519,1663161899,1663163698,-1.3176,-0.015616,-0.033184,15.3125,7.665,-3.21125,44.960003,2.44,58.024002,eccentric,3,3.0,22888.0,327072.0,295303.0,345625.0,301122.0
2026-04-07 17:56:32.804168,306520,1663170850,1663172425,-1.352736,0.081984,-0.00976,20.2825,5.6,-3.5175,43.728,1.912,57.496002,eccentric,3,3.0,22888.0,327072.0,295303.0,345625.0,301122.0
2026-04-07 17:56:32.805757,306521,1663185471,1663187355,-1.382016,0.210816,0.081984,22.11125,2.8,-5.4075,44.072002,1.952,57.304,eccentric,3,3.0,22888.0,327072.0,295303.0,345625.0,301122.0
2026-04-07 17:56:32.812786,306522,1663194382,1663196058,-1.382016,0.210816,0.081984,16.8875,1.12875,-5.97625,44.072002,1.952,57.304,eccentric,3,3.0,22888.0,327072.0,295303.0,345625.0,301122.0
2026-04-07 17:56:32.843475,306523,1663203410,1663204760,-1.362496,0.154208,0.154208,7.3325,0.04375,-5.25875,44.296,2.608,56.800003,eccentric,3,3.0,22888.0,327072.0,295303.0,345625.0,301122.0
2026-04-07 17:56:32.847937,306524,1663217947,1663219682,-1.362496,0.154208,0.154208,-3.08875,-0.98,-3.6925,44.296,2.608,56.800003,eccentric,3,3.0,22888.0,327072.0,295303.0,345625.0,301122.0
2026-04-07 17:56:32.849563,306525,1663226907,1663228397,-1.34688,0.062464,0.189344,-9.5725,-1.0325,-2.54625,44.368004,2.656,55.984,eccentric,3,3.0,22888.0,327072.0,295303.0,345625.0,301122.0
2026-04-07 17:56:32.851154,306526,1663235826,1663237103,-1.34688,0.062464,0.189344,-8.6625,-1.4525,-3.0625,44.368004,2.656,55.984,eccentric,3,3.0,22888.0,327072.0,295303.0,345625.0,301122.0
2026-04-07 17:56:32.910770,306536,1663250445,1663252122,-1.37616,0.105408,0.163968,-1.74125,-2.65125,-3.68375,44.632004,2.504,57.320004,eccentric,3,3.0,22591.0,323985.0,292280.0,341857.0,297664.0
2026-04-07 17:56:32.913272,306537,1663259372,1663260806,-1.37616,0.105408,0.163968,7.13125,-4.2875,-3.2375,44.632004,2.504,57.320004,eccentric,3,3.0,22591.0,323985.0,292280.0,341857.0,297664.0
2026-04-07 17:56:32.915348,306538,1663268428,1663269551,-1.360544,0.206912,0.119072,12.1975,-4.97875,-5.48625,44.128002,1.904,56.464005,eccentric,3,3.0,22591.0,323985.0,292280.0,341857.0,297664.0
2026-04-07 17:56:32.919191,306539,1663277398,1663278231,-1.360544,0.206912,0.119072,10.36875,-4.47125,-7.525,44.128002,1.904,56.464005,eccentric,3,3.0,22591.0,323985.0,292280.0,341857.0,297664.0
2026-04-07 17:56:32.920818,306540,1663291971,1663293167,-1.354688,0.210816,0.12688,5.635,-3.40375,-9.2575,43.960003,2.448,57.488003,eccentric,3,3.0,22591.0,323985.0,292280.0,341857.0,297664.0
2026-04-07 17:56:32.922472,306541,1663300929,1663301880,-1.354688,0.210816,0.12688,2.24875,-3.14125,-11.08625,43.960003,2.448,57.488003,eccentric,3,3.0,22591.0,323985.0,292280.0,341857.0,297664.0
2026-04-07 17:56:32.925811,306542,1663309852,1663310610,-1.32736,0.183488,0.111264,0.0,-3.4825,-12.06625,43.56,2.664,57.320004,eccentric,3,3.0,22591.0,323985.0,292280.0,341857.0,297664.0
2026-04-07 17:56:32.959152,306543,1663324913,1663325591,-1.30784,0.130784,0.07808,-3.17625,-4.73375,-12.3375,43.512,2.888,55.736004,eccentric,3,3.0,22591.0,323985.0,292280.0,341857.0,297664.0
2026-04-07 17:56:32.960900,306544,1663334211,1663336365,-1.30784,0.130784,0.07808,-4.935,-5.95,-12.20625,43.512,2.888,55.736004,eccentric,3,3.0,22591.0,323985.0,292280.0,341857.0,297664.0
2026-04-07 17:56:32.986665,306554,1663343608,1663345144,-1.10288,0.216672,0.072224,-4.27875,-7.63875,-11.61125,43.512,2.616,53.776,eccentric,3,3.0,22346.0,321998.0,290723.0,340330.0,296671.0
2026-04-07 17:56:32.988314,306555,1663352590,1663353901,-1.10288,0.216672,0.072224,5.10125,-9.730001,-9.695,43.368004,2.616,53.776,eccentric,3,3.0,22346.0,321998.0,290723.0,340330.0,296671.0
2026-04-07 17:56:32.989877,306556,1663367162,1663369007,-1.264896,0.474336,0.080032,34.58,-16.26625,-3.3075,42.496002,2.536,57.760002,eccentric,3,3.0,22346.0,321998.0,290723.0,340330.0,296671.0
2026-04-07 17:56:32.993977,306557,1663376179,1663377722,-1.264896,0.474336,0.080032,40.11,-21.866251,2.17875,42.496002,2.536,57.760002,eccentric,3,3.0,22346.0,321998.0,290723.0,340330.0,296671.0
2026-04-07 17:56:33.022597,306558,1663385241,1663386465,-1.393728,0.08784,-0.003904,14.30625,-20.09,2.24,43.144,2.816,58.160004,eccentric,3,3.0,22346.0,321998.0,290723.0,340330.0,296671.0
2026-04-07 17:56:33.027052,306559,1663399704,1663401399,-1.393728,0.08784,-0.003904,-3.89375,-18.26125,-2.695,43.144,2.816,58.160004,eccentric,3,3.0,22346.0,321998.0,290723.0,340330.0,296671.0
2026-04-07 17:56:33.029457,306560,1663408652,1663410133,-1.253184,0.011712,0.083936,2.5375,-16.93125,-7.875,42.816,2.512,56.704002,eccentric,3,3.0,22346.0,321998.0,290723.0,340330.0,296671.0
2026-04-07 17:56:33.036490,306561,1663417600,1663418869,-1.253184,0.011712,0.083936,19.27625,-16.52875,-8.37375,42.816,2.512,56.704002,eccentric,3,3.0,22346.0,321998.0,290723.0,340330.0,296671.0
2026-04-07 17:56:33.065062,306562,1663426507,1663427607,-1.231712,0.0488,0.091744,32.585,-16.415,-7.175,42.568,2.448,57.328003,eccentric,3,3.0,22346.0,321998.0,290723.0,340330.0,296671.0
2026-04-07 17:56:33.098256,306572,1663441171,1663442552,-1.231712,0.0488,0.091744,37.5725,-16.19625,-7.27125,42.568,2.448,57.328003,eccentric,3,3.0,23549.0,331113.0,297852.0,347799.0,303625.0
2026-04-07 17:56:33.100745,306573,1663450214,1663451325,-1.192672,0.037088,0.113216,35.55125,-15.75,-5.0925,41.776,2.392,56.680004,eccentric,3,3.0,23549.0,331113.0,297852.0,347799.0,303625.0
2026-04-07 17:56:33.102395,306574,1663459115,1663460133,-1.192672,0.037088,0.113216,33.1625,-15.05,-1.77625,41.776,2.392,56.680004,eccentric,3,3.0,23549.0,331113.0,297852.0,347799.0,303625.0
2026-04-07 17:56:33.106605,306575,1663473606,1663475072,-1.167296,0.07808,0.113216,30.415,-15.785,0.56,41.920002,1.896,57.360004,eccentric,3,3.0,23549.0,331113.0,297852.0,347799.0,303625.0
2026-04-07 17:56:33.108340,306576,1663482548,1663483765,-1.167296,0.07808,0.113216,28.25375,-15.68875,2.5725,41.920002,1.896,57.360004,eccentric,3,3.0,23549.0,331113.0,297852.0,347799.0,303625.0
2026-04-07 17:56:33.109925,306577,1663491528,1663492472,-1.15168,0.111264,0.10736,25.27875,-14.18375,5.52125,41.248,1.728,57.072002,eccentric,3,3.0,23549.0,331113.0,297852.0,347799.0,303625.0
2026-04-07 17:56:33.141092,306578,1663506028,1663507448,-1.130208,0.122976,0.064416,22.505,-13.55375,6.825,41.328003,1.976,57.232002,eccentric,3,3.0,23549.0,331113.0,297852.0,347799.0,303625.0
2026-04-07 17:56:33.145453,306579,1663514975,1663516156,-1.130208,0.122976,0.064416,20.195,-12.32875,6.32625,41.328003,1.976,57.232002,eccentric,3,3.0,23549.0,331113.0,297852.0,347799.0,303625.0
2026-04-07 17:56:33.147071,306580,1663523888,1663524871,-1.130208,0.154208,0.074176,18.3225,-11.515,6.02875,41.328003,1.976,57.232002,eccentric,3,3.0,23549.0,331113.0,297852.0,347799.0,303625.0
2026-04-07 17:56:33.148636,306581,1663532806,1663533660,-1.098976,0.154208,0.074176,15.2775,-11.41,5.43375,41.208,2.08,57.632004,eccentric,3,3.0,23549.0,331113.0,297852.0,347799.0,303625.0
2026-04-07 17:56:33.232046,306592,1663547379,1663548697,-1.050176,0.089792,0.070272,14.39375,-11.13,4.97,40.824,1.36,58.272003,eccentric,3,3.0,23309.0,328580.0,295342.0,344541.0,300379.0
2026-04-07 17:56:33.233323,306593,1663556309,1663557402,-1.050176,0.089792,0.070272,13.58875,-10.52625,3.8675,40.824,1.36,58.272003,eccentric,3,3.0,23309.0,328580.0,295342.0,344541.0,300379.0
2026-04-07 17:56:33.235354,306594,1663565220,1663566082,-1.09312,0.07808,0.03904,12.22375,-10.12375,2.87,40.104,1.648,56.392002,eccentric,3,3.0,23309.0,328580.0,295342.0,344541.0,300379.0
2026-04-07 17:56:33.239142,306595,1663579685,1663580980,-1.09312,0.07808,0.03904,12.6175,-9.87875,1.9425,40.104,1.648,56.392002,eccentric,3,3.0,23309.0,328580.0,295342.0,344541.0,300379.0
2026-04-07 17:56:33.240791,306596,1663588618,1663589732,-1.059936,0.07808,0.023424,14.51625,-9.87,1.12,40.120003,1.176,58.432003,eccentric,3,3.0,23309.0,328580.0,295342.0,344541.0,300379.0
2026-04-07 17:56:33.242434,306597,1663597531,1663598502,-1.059936,0.07808,0.023424,18.0425,-10.22,1.2425,40.120003,1.176,58.432003,eccentric,3,3.0,23309.0,328580.0,295342.0,344541.0,300379.0
2026-04-07 17:56:33.246603,306598,1663612065,1663613442,-1.05408,0.11712,0.015616,22.58375,-10.36,1.63625,40.512,1.88,57.200005,eccentric,3,3.0,23309.0,328580.0,295342.0,344541.0,300379.0
2026-04-07 17:56:33.248323,306599,1663621013,1663622136,-1.05408,0.11712,0.015616,26.3725,-10.43875,2.555,40.512,1.88,57.200005,eccentric,3,3.0,23309.0,328580.0,295342.0,344541.0,300379.0
2026-04-07 17:56:33.249901,306600,1663629955,1663630839,-1.020896,0.1464,0.042944,26.678751,-10.22,3.6575,39.960003,1.888,57.304,eccentric,3,3.0,23309.0,328580.0,295342.0,344541.0,300379.0
2026-04-07 17:56:33.305368,306610,1663645079,1663646209,-1.020896,0.11712,0.06832,23.1525,-9.37125,3.91125,39.536003,1.112,61.232002,eccentric,3,3.0,22861.0,324848.0,292255.0,341082.0,297066.0
2026-04-07 17:56:33.307089,306611,1663654111,1663654914,-1.020896,0.11712,0.06832,20.20375,-8.785,5.32,39.536003,1.112,61.232002,eccentric,3,3.0,22861.0,324848.0,292255.0,341082.0,297066.0
2026-04-07 17:56:33.308646,306612,1663663033,1663663603,-1.020896,0.11712,0.06832,19.85375,-7.84875,5.74,39.536003,1.112,61.232002,eccentric,3,3.0,22861.0,324848.0,292255.0,341082.0,297066.0
2026-04-07 17:56:33.312852,306613,1663672207,1663674390,-0.997472,0.099552,0.06832,21.7875,-7.76125,6.125,39.56,0.616,57.544003,eccentric,3,3.0,22861.0,324848.0,292255.0,341082.0,297066.0
2026-04-07 17:56:33.314659,306614,1663686766,1663687234,-0.976,0.111264,0.064416,24.07125,-7.455,6.1425,39.528004,0.632,59.016003,eccentric,3,3.0,22861.0,324848.0,292255.0,341082.0,297066.0
2026-04-07 17:56:33.316987,306615,1663696110,1663698062,-0.976,0.111264,0.064416,25.64625,-6.23,3.745,39.528004,0.632,59.016003,eccentric,3,3.0,22861.0,324848.0,292255.0,341082.0,297066.0
2026-04-07 17:56:33.322831,306616,1663705037,1663706811,-0.958432,0.128832,0.06832,25.12125,-4.94375,3.66625,39.528004,-0.184,59.384003,eccentric,3,3.0,22861.0,324848.0,292255.0,341082.0,297066.0
2026-04-07 17:56:33.354752,306617,1663713974,1663715521,-0.958432,0.128832,0.06832,24.43875,-3.45625,3.01,38.744003,-0.184,59.384003,eccentric,3,3.0,22861.0,324848.0,292255.0,341082.0,297066.0
2026-04-07 17:56:33.356977,306618,1663728441,1663730439,-0.919392,0.124928,0.062464,24.21125,-2.03,2.66,39.064003,0.408,57.256004,eccentric,3,3.0,22861.0,324848.0,292255.0,341082.0,297066.0
2026-04-07 17:56:33.361691,306619,1663737354,1663739133,-0.919392,0.124928,0.062464,24.66625,-1.35625,2.98375,39.064003,0.408,57.256004,eccentric,3,3.0,22861.0,324848.0,292255.0,341082.0,297066.0
2026-04-07 17:56:33.386677,306629,1663746420,1663747855,-0.864736,0.121024,0.046848,26.83625,-1.05875,0.88375,38.960003,-0.136,57.264004,eccentric,3,3.0,22923.0,325284.0,292533.0,341347.0,297135.0
2026-04-07 17:56:33.388315,306630,1663760988,1663762846,-0.864736,0.121024,0.046848,28.56,-0.76125,-0.035,38.960003,-0.136,57.264004,eccentric,3,3.0,22923.0,325284.0,292533.0,341347.0,297135.0
2026-04-07 17:56:33.390691,306631,1663769939,1663771579,-0.792512,0.154208,0.07808,29.5925,0.60375,-1.58375,38.936,-0.336,56.944004,eccentric,3,3.0,22923.0,325284.0,292533.0,341347.0,297135.0
2026-04-07 17:56:33.396753,306632,1663778915,1663780342,-0.792512,0.154208,0.07808,25.85625,2.8525,-3.21125,38.936,-0.336,56.944004,eccentric,3,3.0,22923.0,325284.0,292533.0,341347.0,297135.0
2026-04-07 17:56:33.425078,306633,1663793386,1663795253,-0.798368,0.17568,0.080032,15.14625,5.95875,-3.94625,39.192,-0.016,57.112003,eccentric,3,3.0,22923.0,325284.0,292533.0,341347.0,297135.0
2026-04-07 17:56:33.429589,306634,1663802312,1663803963,-0.798368,0.17568,0.080032,1.74125,10.2725,-5.15375,39.192,-0.016,57.112003,eccentric,3,3.0,22923.0,325284.0,292533.0,341347.0,297135.0
2026-04-07 17:56:33.431073,306635,1663811239,1663812667,-0.817888,0.134688,0.066368,-8.21625,13.335,-4.97875,39.432003,0.056,56.840004,eccentric,3,3.0,22923.0,325284.0,292533.0,341347.0,297135.0
2026-04-07 17:56:33.489853,306636,1663825763,1663827593,-0.845216,0.046848,0.062464,-13.09875,15.2775,-4.80375,39.440002,0.712,59.048004,eccentric,3,3.0,22923.0,325284.0,292533.0,341347.0,297135.0
2026-04-07 17:56:33.492015,306637,1663834679,1663836255,-0.845216,0.046848,0.062464,-13.72,17.22,-6.4925,39.440002,0.712,59.048004,eccentric,3,3.0,22923.0,325284.0,292533.0,341347.0,297135.0
2026-04-07 17:56:33.520811,306648,1663844157,1663845047,-0.845216,0.046848,0.062464,-9.345,17.4475,-7.72625,39.440002,0.712,59.048004,eccentric,3,3.0,23061.0,326645.0,293765.0,342839.0,298517.0
2026-04-07 17:56:33.522374,306649,1663853141,1663853789,-0.843264,-0.003904,0.037088,0.245,15.61875,-8.18125,39.656002,0.6,55.016003,eccentric,3,3.0,23061.0,326645.0,293765.0,342839.0,298517.0
2026-04-07 17:56:33.526546,306650,1663867927,1663868695,-0.81984,0.085888,0.017568,14.84,11.935,-10.815,39.440002,0.224,55.912003,eccentric,3,3.0,23061.0,326645.0,293765.0,342839.0,298517.0
2026-04-07 17:56:33.528294,306651,1663876827,1663877437,-0.81984,0.085888,0.017568,28.00875,8.785,-12.9675,39.440002,0.224,55.912003,eccentric,3,3.0,23061.0,326645.0,293765.0,342839.0,298517.0
2026-04-07 17:56:33.530847,306652,1663886049,1663888226,-0.833504,0.169824,0.003904,35.23625,6.58875,-15.2775,39.192,0.024,55.648003,eccentric,3,3.0,23061.0,326645.0,293765.0,342839.0,298517.0
2026-04-07 17:56:33.532332,306653,1663895015,1663896938,-0.833504,0.169824,0.003904,34.755,5.36375,-17.5,39.192,0.024,55.648003,eccentric,3,3.0,23061.0,326645.0,293765.0,342839.0,298517.0
2026-04-07 17:56:33.536763,306654,1663909656,1663911875,-0.825696,0.1464,0.017568,29.39125,5.285,-17.01875,38.736,-0.288,57.128002,eccentric,3,3.0,23061.0,326645.0,293765.0,342839.0,298517.0
2026-04-07 17:56:33.539127,306655,1663918663,1663920606,-0.825696,0.1464,0.017568,21.93625,6.16,-15.91625,38.736,-0.288,57.128002,eccentric,3,3.0,23061.0,326645.0,293765.0,342839.0,298517.0
2026-04-07 17:56:33.545268,306656,1663927615,1663929328,-0.83936,0.109312,0.050752,13.67625,7.6825,-14.84,39.024002,0.048,56.888004,eccentric,3,3.0,23061.0,326645.0,293765.0,342839.0,298517.0
2026-04-07 17:56:33.617433,306666,1663942696,1663944970,-0.83936,0.109312,0.050752,6.965,9.33625,-14.35,39.024002,0.048,56.888004,eccentric,3,3.0,23004.0,326195.0,293355.0,342292.0,297895.0
2026-04-07 17:56:33.618719,306667,1663951787,1663953680,-0.806176,0.052704,0.091744,3.045,10.0275,-13.37,39.208,-0.248,57.304,eccentric,3,3.0,23004.0,326195.0,293355.0,342292.0,297895.0
2026-04-07 17:56:33.623161,306668,1663960742,1663962406,-0.806176,0.052704,0.091744,0.77,10.386251,-11.68125,39.208,-0.248,57.304,eccentric,3,3.0,23004.0,326195.0,293355.0,342292.0,297895.0
2026-04-07 17:56:33.632133,306669,1663969639,1663971099,-0.772992,-0.103456,0.121024,2.4675,9.5725,-8.68,39.064003,-0.136,57.616,eccentric,3,3.0,23004.0,326195.0,293355.0,342292.0,297895.0
2026-04-07 17:56:33.633406,306670,1663984333,1663986028,-0.772992,-0.103456,0.121024,6.72875,9.065,-5.5125,39.064003,-0.136,57.616,eccentric,3,3.0,23004.0,326195.0,293355.0,342292.0,297895.0
2026-04-07 17:56:33.634933,306671,1663993322,1663994713,-0.827648,-0.07808,0.083936,16.59,9.0475,-5.4425,38.448,-0.216,58.88,eccentric,3,3.0,23004.0,326195.0,293355.0,342292.0,297895.0
2026-04-07 17:56:33.639123,306672,1664002358,1664003429,-0.827648,-0.07808,0.083936,27.88625,8.47,-7.65625,38.448,-0.216,58.88,eccentric,3,3.0,23004.0,326195.0,293355.0,342292.0,297895.0
2026-04-07 17:56:33.640906,306673,1664016888,1664018329,-0.821792,0.109312,0.064416,37.31,8.12875,-10.89375,39.296,-0.888,56.128002,eccentric,3,3.0,23004.0,326195.0,293355.0,342292.0,297895.0
2026-04-07 17:56:33.642390,306674,1664025892,1664027027,-0.821792,0.109312,0.0976,40.57375,8.54875,-14.42,39.296,-0.888,56.128002,eccentric,3,3.0,23004.0,326195.0,293355.0,342292.0,297895.0
2026-04-07 17:56:33.673443,306675,1664034842,1664035837,-0.815936,0.286944,0.0976,38.99,9.26625,-15.4525,39.08,-1.072,57.016003,eccentric,3,3.0,23004.0,326195.0,293355.0,342292.0,297895.0
2026-04-07 17:56:33.709112,306685,1664049465,1664051084,-0.831552,0.259616,0.134688,31.00125,10.22875,-14.665,39.816,-0.576,56.056004,eccentric,3,3.0,22775.0,324339.0,291758.0,340388.0,295871.0
2026-04-07 17:56:33.710766,306686,1664058445,1664059787,-0.831552,0.259616,0.134688,19.53875,12.06625,-13.195,39.816,-0.576,56.056004,eccentric,3,3.0,22775.0,324339.0,291758.0,340388.0,295871.0
2026-04-07 17:56:33.712669,306687,1664067374,1664068495,-0.870592,0.121024,0.154208,7.4725,14.4375,-11.515,40.160004,-0.968,55.696003,eccentric,3,3.0,22775.0,324339.0,291758.0,340388.0,295871.0
2026-04-07 17:56:33.716487,306688,1664076300,1664077186,-0.870592,0.121024,0.154208,-1.33,16.89625,-12.46,40.160004,-0.968,55.696003,eccentric,3,3.0,22775.0,324339.0,291758.0,340388.0,295871.0
2026-04-07 17:56:33.722902,306689,1664090863,1664092162,-0.929152,0.074176,0.203008,-4.8475,19.15375,-15.14625,39.616,-0.544,56.792004,eccentric,3,3.0,22775.0,324339.0,291758.0,340388.0,295871.0
2026-04-07 17:56:33.724668,306690,1664099790,1664100878,-0.929152,0.074176,0.203008,-3.2375,20.125,-18.1825,39.616,-0.544,56.792004,eccentric,3,3.0,22775.0,324339.0,291758.0,340388.0,295871.0
2026-04-07 17:56:33.726169,306691,1664108743,1664109748,-0.976,0.12688,0.232288,-0.84,21.06125,-18.54125,40.032,0.04,57.200005,eccentric,3,3.0,22775.0,324339.0,291758.0,340388.0,295871.0
2026-04-07 17:56:33.795974,306692,1664123248,1664124688,-0.976,0.12688,0.232288,0.385,21.07,-18.55,40.032,0.04,57.200005,eccentric,3,3.0,22775.0,324339.0,291758.0,340388.0,295871.0
2026-04-07 17:56:33.798222,306693,1664132151,1664133377,-0.977952,0.122976,0.1952,-0.44625,20.93875,-18.54125,40.152,-0.696,55.72,eccentric,3,3.0,22775.0,324339.0,291758.0,340388.0,295871.0
2026-04-07 17:56:33.803047,306694,1664141081,1664142114,-0.977952,0.122976,0.1952,-3.4825,21.56875,-16.23125,40.152,-0.696,55.72,eccentric,3,3.0,22775.0,324339.0,291758.0,340388.0,295871.0
2026-04-07 17:56:33.880476,306705,1664155698,1664157040,-1.032608,0.122976,0.138592,-4.97875,20.9475,-15.505,40.496002,-0.496,54.992004,eccentric,3,3.0,23283.0,328629.0,295279.0,344466.0,299830.0
2026-04-07 17:56:33.882059,306706,1664164601,1664165742,-1.032608,0.122976,0.138592,-4.4275,21.20125,-14.84875,40.496002,-0.496,54.992004,eccentric,3,3.0,23283.0,328629.0,295279.0,344466.0,299830.0
2026-04-07 17:56:33.883665,306707,1664173588,1664174452,-1.040416,0.138592,0.113216,-2.19625,21.30625,-14.0525,40.832,-0.048,54.808002,eccentric,3,3.0,23283.0,328629.0,295279.0,344466.0,299830.0
2026-04-07 17:56:33.886097,306708,1664188228,1664189366,-1.0736,0.152256,0.189344,2.17875,20.41375,-12.573751,40.68,-1.024,53.600002,eccentric,3,3.0,23283.0,328629.0,295279.0,344466.0,299830.0
2026-04-07 17:56:33.888643,306709,1664197172,1664198081,-1.0736,0.152256,0.189344,9.1525,18.29625,-10.815,40.68,-1.024,53.600002,eccentric,3,3.0,23283.0,328629.0,295279.0,344466.0,299830.0
2026-04-07 17:56:33.891071,306710,1664206299,1664206819,-1.0736,0.152256,0.189344,18.64625,14.735,-7.14875,40.68,-1.024,53.600002,eccentric,3,3.0,23283.0,328629.0,295279.0,344466.0,299830.0
2026-04-07 17:56:33.893588,306711,1664215759,1664217591,-1.100928,0.158112,0.27328,28.16625,9.695,-4.19125,41.288002,-0.416,52.920002,eccentric,3,3.0,23283.0,328629.0,295279.0,344466.0,299830.0
2026-04-07 17:56:33.896077,306712,1664230304,1664232525,-1.098976,0.154208,0.28304,36.37375,5.10125,-2.31,41.296,-1.0,54.992004,eccentric,3,3.0,23283.0,328629.0,295279.0,344466.0,299830.0
2026-04-07 17:56:33.898591,306713,1664239224,1664241226,-1.098976,0.154208,0.28304,42.86625,1.2775,-1.085,41.296,-1.0,54.992004,eccentric,3,3.0,23283.0,328629.0,295279.0,344466.0,299830.0
2026-04-07 17:56:33.939977,306723,1664248729,1664249940,-1.100928,0.171776,0.22448,48.326252,-1.58375,-0.70875,41.128002,-1.576,55.176003,eccentric,3,3.0,24004.0,334491.0,300357.0,350396.0,305600.0
2026-04-07 17:56:33.942410,306724,1664257712,1664258700,-1.100928,0.171776,0.22448,53.15625,-3.85,-1.47,41.128002,-1.576,55.176003,eccentric,3,3.0,24004.0,334491.0,300357.0,350396.0,305600.0
2026-04-07 17:56:33.948568,306725,1664272233,1664273636,-1.061888,0.201056,0.163968,53.0425,-5.8975,-2.7825,40.208,-1.952,57.408,eccentric,3,3.0,24004.0,334491.0,300357.0,350396.0,305600.0
2026-04-07 17:56:33.951609,306726,1664281246,1664282384,-1.061888,0.201056,0.163968,47.74875,-6.90375,-3.745,40.208,-1.952,57.408,eccentric,3,3.0,24004.0,334491.0,300357.0,350396.0,305600.0
2026-04-07 17:56:33.953894,306727,1664290382,1664291141,-1.065792,0.11712,0.091744,38.395,-6.65875,-4.83875,39.920002,-2.096,57.112003,eccentric,3,3.0,24004.0,334491.0,300357.0,350396.0,305600.0
2026-04-07 17:56:33.956541,306728,1664305320,1664306032,-1.065792,0.11712,0.091744,28.1225,-6.34375,-5.62625,39.920002,-2.096,57.112003,eccentric,3,3.0,24004.0,334491.0,300357.0,350396.0,305600.0
2026-04-07 17:56:33.958590,306729,1664314694,1664316936,-1.081408,0.037088,0.044896,18.48875,-5.39,-8.0325,39.640003,-2.496,57.872,eccentric,3,3.0,24004.0,334491.0,300357.0,350396.0,305600.0
2026-04-07 17:56:33.961116,306730,1664323691,1664325641,-1.081408,0.037088,0.044896,12.92375,-5.0575,-10.4125,39.640003,-2.496,57.872,eccentric,3,3.0,24004.0,334491.0,300357.0,350396.0,305600.0
2026-04-07 17:56:33.963580,306731,1664332651,1664334335,-1.06384,0.031232,0.007808,12.36375,-4.17375,-12.38125,40.448,-2.128,55.896004,eccentric,3,3.0,24004.0,334491.0,300357.0,350396.0,305600.0
2026-04-07 17:56:33.998527,306741,1664347882,1664349363,-1.06384,0.031232,0.001952,13.51875,-4.22625,-13.02,40.448,-2.672,58.008003,eccentric,3,3.0,23964.0,334527.0,300586.0,350780.0,306006.0
2026-04-07 17:56:34.004823,306742,1664356976,1664358109,-1.048224,0.0976,0.001952,13.51,-3.6575,-11.40125,40.256,-2.672,58.008003,eccentric,3,3.0,23964.0,334527.0,300586.0,350780.0,306006.0
2026-04-07 17:56:34.007297,306743,1664365991,1664366825,-1.048224,0.0976,0.001952,11.87375,-2.23125,-10.823751,40.256,-2.672,58.008003,eccentric,3,3.0,23964.0,334527.0,300586.0,350780.0,306006.0
2026-04-07 17:56:34.009797,306744,1664375033,1664375543,-1.040416,0.130784,0.007808,8.295,-1.09375,-8.07625,40.584003,-2.152,55.000004,eccentric,3,3.0,23964.0,334527.0,300586.0,350780.0,306006.0
2026-04-07 17:56:34.012285,306745,1664390218,1664390588,-1.032608,0.150304,0.031232,3.94625,0.09625,-5.92375,40.248,-2.032,56.928,eccentric,3,3.0,23964.0,334527.0,300586.0,350780.0,306006.0
2026-04-07 17:56:34.016287,306746,1664399477,1664401365,-1.032608,0.150304,0.031232,1.1725,1.11125,-4.5675,40.248,-2.032,56.928,eccentric,3,3.0,23964.0,334527.0,300586.0,350780.0,306006.0
2026-04-07 17:56:34.046306,306747,1664408392,1664410100,-1.026752,0.17568,0.060512,-1.04125,2.03,-4.15625,40.088,-2.464,53.584003,eccentric,3,3.0,23964.0,334527.0,300586.0,350780.0,306006.0
2026-04-07 17:56:34.049897,306748,1664417303,1664418808,-1.026752,0.17568,0.060512,-2.79125,2.9225,-3.61375,40.088,-2.464,53.584003,eccentric,3,3.0,23964.0,334527.0,300586.0,350780.0,306006.0
2026-04-07 17:56:34.052367,306749,1664431808,1664433665,-1.028704,0.18544,0.080032,-3.59625,3.63125,-3.15,40.552002,-2.224,55.864002,eccentric,3,3.0,23964.0,334527.0,300586.0,350780.0,306006.0
2026-04-07 17:56:34.057348,306750,1664440782,1664442363,-1.028704,0.18544,0.080032,-2.73,4.57625,-4.48875,40.552002,-2.224,55.864002,eccentric,3,3.0,23964.0,334527.0,300586.0,350780.0,306006.0
2026-04-07 17:56:34.124896,306761,1664450070,1664451126,-1.03456,0.203008,0.076128,-2.8525,5.705,-4.795,39.912003,-2.352,59.008003,eccentric,3,3.0,24026.0,335145.0,301237.0,351609.0,306711.0
2026-04-07 17:56:34.129088,306762,1664464602,1664465970,-1.03456,0.203008,0.076128,-2.30125,6.9125,-5.92375,39.912003,-2.352,59.008003,eccentric,3,3.0,24026.0,335145.0,301237.0,351609.0,306711.0
2026-04-07 17:56:34.130801,306763,1664473626,1664474631,-1.03456,0.201056,0.06832,-1.54875,8.05875,-8.2775,40.68,-1.88,55.864002,eccentric,3,3.0,24026.0,335145.0,301237.0,351609.0,306711.0
2026-04-07 17:56:34.133223,306764,1664482553,1664483326,-1.03456,0.201056,0.06832,0.14875,8.14625,-8.46125,40.68,-1.88,55.864002,eccentric,3,3.0,24026.0,335145.0,301237.0,351609.0,306711.0
2026-04-07 17:56:34.134901,306765,1664497096,1664498289,-1.048224,0.189344,0.052704,1.68,8.89875,-9.82625,40.024002,-2.144,57.008003,eccentric,3,3.0,24026.0,335145.0,301237.0,351609.0,306711.0
2026-04-07 17:56:34.139095,306766,1664506133,1664506968,-1.048224,0.189344,0.052704,2.87875,10.24625,-11.34,40.024002,-2.144,57.008003,eccentric,3,3.0,24026.0,335145.0,301237.0,351609.0,306711.0
2026-04-07 17:56:34.141532,306767,1664517339,1664517892,-1.06384,0.158112,0.03904,4.38375,10.745,-12.22375,40.24,-2.464,57.864002,eccentric,3,3.0,24026.0,335145.0,301237.0,351609.0,306711.0
2026-04-07 17:56:34.145207,306768,1664526894,1664528713,-1.06384,0.158112,0.03904,5.3025,11.06,-12.50375,40.24,-2.464,57.864002,eccentric,3,3.0,24026.0,335145.0,301237.0,351609.0,306711.0
2026-04-07 17:56:34.173845,306769,1664535834,1664537419,-1.065792,0.1464,0.037088,6.72,11.34875,-12.50375,39.792004,-1.768,57.56,eccentric,3,3.0,24026.0,335145.0,301237.0,351609.0,306711.0
2026-04-07 17:56:34.208373,306779,1664550581,1664552446,-1.065792,0.134688,0.03904,7.3675,11.4275,-11.45375,40.808002,-1.632,53.904003,eccentric,3,3.0,23983.0,335149.0,301423.0,351917.0,307002.0
2026-04-07 17:56:34.208664,306780,1664559655,1664561170,-1.065792,0.134688,0.03904,7.98,11.19125,-10.29875,40.808002,-1.632,53.904003,eccentric,3,3.0,23983.0,335149.0,301423.0,351917.0,307002.0
2026-04-07 17:56:34.212908,306781,1664568578,1664569860,-1.065792,0.121024,0.044896,9.0125,11.305,-9.3275,40.808002,-1.632,57.600002,eccentric,3,3.0,23983.0,335149.0,301423.0,351917.0,307002.0
2026-04-07 17:56:34.214925,306782,1664577480,1664578572,-1.067744,0.121024,0.044896,7.665,11.33125,-7.315,40.216003,-2.248,57.600002,eccentric,3,3.0,23983.0,335149.0,301423.0,351917.0,307002.0
2026-04-07 17:56:34.217262,306783,1664592007,1664593547,-1.0736,0.113216,0.042944,7.9275,11.15625,-5.88875,41.024002,-2.304,55.456,eccentric,3,3.0,23983.0,335149.0,301423.0,351917.0,307002.0
2026-04-07 17:56:34.220664,306784,1664600940,1664602325,-1.0736,0.113216,0.042944,8.33875,11.20875,-4.41875,41.024002,-2.304,55.456,eccentric,3,3.0,23983.0,335149.0,301423.0,351917.0,307002.0
2026-04-07 17:56:34.249707,306785,1664609859,1664611022,-1.056032,0.121024,0.066368,9.40625,11.1825,-3.325,41.312,-2.032,54.704002,eccentric,3,3.0,23983.0,335149.0,301423.0,351917.0,307002.0
2026-04-07 17:56:34.254057,306786,1664624363,1664625937,-1.056032,0.121024,0.066368,10.57875,11.19125,-2.7125,41.312,-2.032,54.704002,eccentric,3,3.0,23983.0,335149.0,301423.0,351917.0,307002.0
2026-04-07 17:56:34.256029,306787,1664633291,1664634681,-1.061888,0.140544,0.095648,10.17625,11.025,-2.6075,41.312,-2.544,55.088,eccentric,3,3.0,23983.0,335149.0,301423.0,351917.0,307002.0
2026-04-07 17:56:34.258332,306788,1664642199,1664643384,-1.061888,0.140544,0.095648,8.28625,10.56125,-2.1875,41.312,-2.544,55.088,eccentric,3,3.0,23983.0,335149.0,301423.0,351917.0,307002.0
2026-04-07 17:56:34.286600,306798,1664656784,1664658381,-1.069696,0.124928,0.115168,5.18,9.73875,-1.81125,41.096,-2.544,56.416004,eccentric,3,3.0,23881.0,334357.0,300860.0,351384.0,306553.0
2026-04-07 17:56:34.288299,306799,1664665696,1664667118,-1.069696,0.124928,0.115168,2.09125,9.12625,-1.8025,41.096,-2.544,56.416004,eccentric,3,3.0,23881.0,334357.0,300860.0,351384.0,306553.0
2026-04-07 17:56:34.289898,306800,1664674670,1664675858,-1.067744,0.093696,0.138592,-0.76125,8.95125,-1.9075,41.472,-2.528,56.232002,eccentric,3,3.0,23881.0,334357.0,300860.0,351384.0,306553.0
2026-04-07 17:56:34.320917,306801,1664683637,1664684580,-1.067744,0.093696,0.138592,-2.3625,7.79625,-2.30125,41.472,-2.528,56.232002,eccentric,3,3.0,23881.0,334357.0,300860.0,351384.0,306553.0
2026-04-07 17:56:34.325353,306802,1664698108,1664699478,-1.077504,0.10736,0.142496,-3.26375,6.265,-2.24875,41.248,-2.056,55.008003,eccentric,3,3.0,23881.0,334357.0,300860.0,351384.0,306553.0
2026-04-07 17:56:34.326923,306803,1664706993,1664708172,-1.077504,0.10736,0.142496,-3.33375,5.64375,-3.255,41.248,-2.056,55.008003,eccentric,3,3.0,23881.0,334357.0,300860.0,351384.0,306553.0
2026-04-07 17:56:34.332718,306804,1664715999,1664716929,-1.06384,0.134688,0.121024,-4.2,4.8475,-3.01875,41.760002,-2.432,54.896004,eccentric,3,3.0,23881.0,334357.0,300860.0,351384.0,306553.0
2026-04-07 17:56:34.388521,306805,1664730465,1664731869,-1.067744,0.148352,0.119072,-7.44625,4.3925,-2.555,41.688004,-2.6,55.416004,eccentric,3,3.0,23881.0,334357.0,300860.0,351384.0,306553.0
2026-04-07 17:56:34.390815,306806,1664739350,1664740575,-1.067744,0.148352,0.119072,-9.24,3.78875,-2.89625,41.688004,-2.6,55.416004,eccentric,3,3.0,23881.0,334357.0,300860.0,351384.0,306553.0
2026-04-07 17:56:34.418752,306817,1664748340,1664749232,-1.067744,0.148352,0.119072,-11.3925,3.0275,-3.1325,41.688004,-2.6,55.416004,eccentric,3,3.0,23653.0,332456.0,299280.0,349646.0,304944.0
2026-04-07 17:56:34.422953,306818,1664762880,1664764168,-1.05408,0.144448,0.095648,-13.09,2.3975,-2.38875,41.344,-2.176,55.352,eccentric,3,3.0,23653.0,332456.0,299280.0,349646.0,304944.0
2026-04-07 17:56:34.424567,306819,1664771804,1664772887,-1.048224,0.1464,0.081984,-12.6175,2.0475,-3.185,41.176003,-2.352,55.000004,eccentric,3,3.0,23653.0,332456.0,299280.0,349646.0,304944.0
2026-04-07 17:56:34.426111,306820,1664780732,1664781573,-1.048224,0.1464,0.081984,-11.9525,1.86375,-2.31875,41.176003,-2.352,55.000004,eccentric,3,3.0,23653.0,332456.0,299280.0,349646.0,304944.0
2026-04-07 17:56:34.430315,306821,1664795277,1664796602,-1.028704,0.167872,0.083936,-9.7825,2.205,-2.79125,40.672,-2.368,56.464005,eccentric,3,3.0,23653.0,332456.0,299280.0,349646.0,304944.0
2026-04-07 17:56:34.432057,306822,1664804217,1664805355,-1.028704,0.167872,0.083936,-9.275,2.975,-2.86125,40.672,-2.368,56.464005,eccentric,3,3.0,23653.0,332456.0,299280.0,349646.0,304944.0
2026-04-07 17:56:34.433900,306823,1664813299,1664814115,-1.036512,0.148352,0.056608,-10.05375,3.24625,-3.255,41.152,-2.392,56.712,eccentric,3,3.0,23653.0,332456.0,299280.0,349646.0,304944.0
2026-04-07 17:56:34.439015,306824,1664822249,1664822887,-1.036512,0.148352,0.056608,-10.07125,3.84125,-3.15,41.152,-2.392,56.712,eccentric,3,3.0,23653.0,332456.0,299280.0,349646.0,304944.0
2026-04-07 17:56:34.467451,306825,1664837053,1664837797,-1.03456,0.13664,0.050752,-9.8525,3.3775,-3.43875,41.760002,-2.232,54.760002,eccentric,3,3.0,23653.0,332456.0,299280.0,349646.0,304944.0
2026-04-07 17:56:34.510351,306835,1664846380,1664848947,-1.03456,0.13664,0.050752,-8.37375,3.42125,-4.305,41.760002,-2.232,54.760002,eccentric,3,3.0,23596.0,332093.0,299002.0,349319.0,304656.0
2026-04-07 17:56:34.512029,306836,1664855414,1664857691,-1.036512,0.132736,0.03904,-6.23,3.395,-5.355,41.640003,-1.08,54.672,eccentric,3,3.0,23596.0,332093.0,299002.0,349319.0,304656.0
2026-04-07 17:56:34.514279,306837,1664869919,1664870544,-1.036512,0.121024,0.021472,-5.215,4.0425,-6.32625,41.640003,-1.08,54.672,eccentric,3,3.0,23596.0,332093.0,299002.0,349319.0,304656.0
2026-04-07 17:56:34.517853,306838,1664879128,1664881276,-1.040416,0.121024,0.021472,-5.17125,4.78625,-6.88625,41.336002,-1.776,54.936,eccentric,3,3.0,23596.0,332093.0,299002.0,349319.0,304656.0
2026-04-07 17:56:34.519628,306839,1664888121,1664890054,-1.040416,0.121024,0.021472,-4.76,5.67,-6.90375,41.336002,-1.776,54.936,eccentric,3,3.0,23596.0,332093.0,299002.0,349319.0,304656.0
2026-04-07 17:56:34.521423,306840,1664897103,1664898764,-1.04432,0.130784,0.015616,-3.43875,6.37875,-8.8725,40.864002,-2.2,55.512,eccentric,3,3.0,23596.0,332093.0,299002.0,349319.0,304656.0
2026-04-07 17:56:34.552221,306841,1664911608,1664913670,-1.048224,0.134688,0.031232,-2.7825,7.20125,-9.12625,41.168003,-1.344,56.224003,eccentric,3,3.0,23596.0,332093.0,299002.0,349319.0,304656.0
2026-04-07 17:56:34.556648,306842,1664920558,1664922395,-1.048224,0.134688,0.031232,-2.695,7.525,-8.6625,41.168003,-1.344,56.224003,eccentric,3,3.0,23596.0,332093.0,299002.0,349319.0,304656.0
2026-04-07 17:56:34.558352,306843,1664929479,1664931112,-1.048224,0.134688,0.031232,-3.45625,6.46625,-8.75,41.168003,-1.344,56.224003,eccentric,3,3.0,23596.0,332093.0,299002.0,349319.0,304656.0
2026-04-07 17:56:34.559929,306844,1664943966,1664946009,-1.026752,0.134688,0.046848,-4.0425,6.50125,-7.84,41.480003,-1.664,54.904003,eccentric,3,3.0,23596.0,332093.0,299002.0,349319.0,304656.0
2026-04-07 17:56:34.587904,306854,1664952999,1664954736,-1.085312,0.134688,0.050752,-7.6475,6.545,-7.76125,41.528004,-1.648,55.72,eccentric,3,3.0,23498.0,331242.0,298277.0,348512.0,303888.0
2026-04-07 17:56:34.589591,306855,1664962108,1664963537,-1.085312,0.134688,0.050752,-9.52,7.07875,-7.525,41.528004,-1.648,55.72,eccentric,3,3.0,23498.0,331242.0,298277.0,348512.0,303888.0
2026-04-07 17:56:34.591413,306856,1664971051,1664972255,-1.071648,0.111264,0.042944,-10.03625,6.13375,-6.29125,40.856003,-1.096,53.832,eccentric,3,3.0,23498.0,331242.0,298277.0,348512.0,303888.0
2026-04-07 17:56:34.622244,306857,1664985558,1664987151,-1.071648,0.111264,0.042944,-10.1325,5.6525,-5.495,40.856003,-1.096,53.832,eccentric,3,3.0,23498.0,331242.0,298277.0,348512.0,303888.0
2026-04-07 17:56:34.626605,306858,1664994467,1664995843,-1.056032,0.111264,0.040992,-9.4675,5.985,-5.90625,41.68,-0.88,54.624004,eccentric,3,3.0,23498.0,331242.0,298277.0,348512.0,303888.0
2026-04-07 17:56:34.628239,306859,1665003392,1665004533,-1.056032,0.111264,0.040992,-8.6975,5.6525,-6.475,41.68,-0.88,54.624004,eccentric,3,3.0,23498.0,331242.0,298277.0,348512.0,303888.0
2026-04-07 17:56:34.635317,306860,1665017913,1665019553,-1.056032,0.130784,0.0488,-8.47,5.075,-5.95875,41.208,-1.4,54.184002,eccentric,3,3.0,23498.0,331242.0,298277.0,348512.0,303888.0
2026-04-07 17:56:34.688563,306861,1665026859,1665028253,-1.056032,0.130784,0.0488,-8.54,4.655,-5.24125,41.208,-1.4,54.184002,eccentric,3,3.0,23498.0,331242.0,298277.0,348512.0,303888.0
2026-04-07 17:56:34.690791,306862,1665035822,1665036950,-1.067744,0.124928,0.037088,-9.625,4.83,-4.445,41.84,-1.056,54.608,eccentric,3,3.0,23498.0,331242.0,298277.0,348512.0,303888.0
2026-04-07 17:56:34.718637,306873,1665050878,1665052214,-1.067744,0.124928,0.033184,-10.43,4.92625,-3.85,41.84,-1.056,54.608,eccentric,3,3.0,23416.0,330630.0,297797.0,347982.0,303406.0
2026-04-07 17:56:34.725379,306874,1665059873,1665060906,-1.05408,0.121024,0.033184,-9.8875,5.24125,-3.3075,41.480003,-0.52,54.168003,eccentric,3,3.0,23416.0,330630.0,297797.0,347982.0,303406.0
2026-04-07 17:56:34.727060,306875,1665068835,1665069610,-1.05408,0.121024,0.033184,-10.21125,4.41,-3.5875,41.480003,-0.52,54.168003,eccentric,3,3.0,23416.0,330630.0,297797.0,347982.0,303406.0
2026-04-07 17:56:34.728626,306876,1665078231,1665080383,-1.057984,0.132736,0.044896,-10.49125,4.59375,-3.815,41.712,-0.632,54.624004,eccentric,3,3.0,23416.0,330630.0,297797.0,347982.0,303406.0
2026-04-07 17:56:34.733101,306877,1665092774,1665093234,-1.050176,0.122976,0.044896,-10.7625,4.94375,-3.885,41.800003,-0.36,54.512,eccentric,3,3.0,23416.0,330630.0,297797.0,347982.0,303406.0
2026-04-07 17:56:34.739281,306878,1665102255,1665104001,-1.050176,0.122976,0.044896,-10.33375,4.34,-3.61375,41.800003,-0.36,54.512,eccentric,3,3.0,23416.0,330630.0,297797.0,347982.0,303406.0
2026-04-07 17:56:34.742078,306879,1665111222,1665112774,-1.052128,0.115168,0.040992,-9.68625,3.9375,-2.86125,41.800003,-0.464,55.456,eccentric,3,3.0,23416.0,330630.0,297797.0,347982.0,303406.0
2026-04-07 17:56:34.747729,306880,1665120216,1665121456,-1.052128,0.115168,0.040992,-8.67125,3.82375,-3.15,41.416,-0.464,55.456,eccentric,3,3.0,23416.0,330630.0,297797.0,347982.0,303406.0
2026-04-07 17:56:34.752736,306881,1665134684,1665136372,-1.052128,0.121024,0.046848,-7.7875,3.00125,-3.45625,41.328003,-0.544,55.752003,eccentric,3,3.0,23416.0,330630.0,297797.0,347982.0,303406.0
2026-04-07 17:56:34.781246,306882,1665143615,1665145066,-1.052128,0.121024,0.046848,-7.20125,2.52,-3.0625,41.328003,-0.544,55.752003,eccentric,3,3.0,23416.0,330630.0,297797.0,347982.0,303406.0
2026-04-07 17:56:34.808268,306892,1665153204,1665153973,-1.059936,0.128832,0.040992,-7.28875,2.8,-2.91375,41.88,-0.36,55.392002,eccentric,3,3.0,23331.0,329969.0,297270.0,347419.0,302901.0
2026-04-07 17:56:34.809844,306893,1665168105,1665168878,-1.059936,0.128832,0.040992,-7.21875,2.26625,-2.6775,41.88,-0.36,55.392002,eccentric,3,3.0,23331.0,329969.0,297270.0,347419.0,302901.0
2026-04-07 17:56:34.814077,306894,1665177024,1665177597,-1.067744,0.122976,0.040992,-6.76375,1.8725,-2.38,41.672,-0.376,54.728004,eccentric,3,3.0,23331.0,329969.0,297270.0,347419.0,302901.0
2026-04-07 17:56:34.815792,306895,1665186279,1665188371,-1.067744,0.122976,0.040992,-6.86,1.12,-2.28375,41.672,-0.376,54.728004,eccentric,3,3.0,23331.0,329969.0,297270.0,347419.0,302901.0
2026-04-07 17:56:34.818496,306896,1665195229,1665197090,-1.056032,0.124928,0.044896,-6.2125,0.4375,-2.09125,41.488003,-0.808,55.496002,eccentric,3,3.0,23331.0,329969.0,297270.0,347419.0,302901.0
2026-04-07 17:56:34.848463,306897,1665209745,1665212001,-1.056032,0.124928,0.044896,-5.25,-0.30625,-2.1525,41.488003,-0.808,55.496002,eccentric,3,3.0,23331.0,329969.0,297270.0,347419.0,302901.0
2026-04-07 17:56:34.850734,306898,1665218726,1665220704,-1.059936,0.11712,0.042944,-5.2325,-0.42,-2.1525,41.888,0.088,54.256004,eccentric,3,3.0,23331.0,329969.0,297270.0,347419.0,302901.0
2026-04-07 17:56:34.855340,306899,1665227659,1665229377,-1.059936,0.11712,0.042944,-4.9525,-0.67375,-1.74125,41.888,0.088,54.256004,eccentric,3,3.0,23331.0,329969.0,297270.0,347419.0,302901.0
2026-04-07 17:56:34.859476,306900,1665242166,1665244328,-1.06384,0.10736,0.044896,-5.41625,-0.7175,-1.51375,41.84,-0.288,54.384003,eccentric,3,3.0,23331.0,329969.0,297270.0,347419.0,302901.0
2026-04-07 17:56:34.916726,306910,1665251153,1665253423,-1.06384,0.10736,0.060512,-5.74875,-0.81375,-1.23375,41.84,-0.288,54.384003,eccentric,3,3.0,23207.0,329018.0,296487.0,346618.0,302223.0
2026-04-07 17:56:34.918350,306911,1665260145,1665262201,-1.061888,0.111264,0.056608,-5.62625,-0.90125,-1.91625,41.624,-0.176,55.624004,eccentric,3,3.0,23207.0,329018.0,296487.0,346618.0,302223.0
2026-04-07 17:56:34.919937,306912,1665274744,1665275064,-1.05408,0.128832,0.05856,-4.33125,-0.5075,-2.51125,41.72,0.112,54.336002,eccentric,3,3.0,23207.0,329018.0,296487.0,346618.0,302223.0
2026-04-07 17:56:34.924095,306913,1665284033,1665285870,-1.05408,0.128832,0.05856,-4.27,-0.8925,-2.59875,41.72,0.112,54.336002,eccentric,3,3.0,23207.0,329018.0,296487.0,346618.0,302223.0
2026-04-07 17:56:34.925782,306914,1665293023,1665294584,-1.036512,0.124928,0.066368,-4.41875,0.0,-2.65125,41.392002,0.448,53.368004,eccentric,3,3.0,23207.0,329018.0,296487.0,346618.0,302223.0
2026-04-07 17:56:34.927383,306915,1665301972,1665303299,-1.036512,0.124928,0.066368,-4.7425,-0.18375,-2.8175,41.392002,0.448,53.368004,eccentric,3,3.0,23207.0,329018.0,296487.0,346618.0,302223.0
2026-04-07 17:56:34.935279,306916,1665316479,1665318261,-1.04432,0.113216,0.05856,-5.5125,0.16625,-2.49375,42.032,-0.152,54.592003,eccentric,3,3.0,23207.0,329018.0,296487.0,346618.0,302223.0
2026-04-07 17:56:34.988508,306917,1665325488,1665326975,-1.04432,0.113216,0.05856,-5.94125,0.41125,-2.555,42.032,-0.152,54.592003,eccentric,3,3.0,23207.0,329018.0,296487.0,346618.0,302223.0
2026-04-07 17:56:34.990758,306918,1665334405,1665335665,-1.03456,0.10736,0.05856,-5.39,0.98875,-2.23125,41.712,0.056,54.616,eccentric,3,3.0,23207.0,329018.0,296487.0,346618.0,302223.0
2026-04-07 17:56:34.996169,306919,1665348922,1665350622,-1.03456,0.10736,0.05856,-4.59375,1.1725,-2.59,41.712,0.056,54.616,eccentric,3,3.0,23207.0,329018.0,296487.0,346618.0,302223.0
2026-04-07 17:56:35.031172,306930,1665357996,1665359385,-1.04432,0.11712,0.056608,-4.305,1.435,-2.6775,41.920002,-0.312,54.2,concentric,3,3.0,23093.0,328100.0,295752.0,345811.0,301499.0
2026-04-07 17:56:35.031248,306931,1665366915,1665368075,-1.04432,0.11712,0.056608,-2.415,1.6275,-3.5525,41.920002,-0.312,54.2,concentric,3,3.0,23093.0,328100.0,295752.0,345811.0,301499.0
2026-04-07 17:56:35.035359,306932,1665375814,1665376789,-1.032608,0.13664,0.06832,-1.16375,2.17,-3.66625,41.744003,-0.128,54.608,concentric,3,3.0,23093.0,328100.0,295752.0,345811.0,301499.0
2026-04-07 17:56:35.037042,306933,1665390359,1665391811,-1.032608,0.13664,0.06832,-0.42,1.9775,-3.15875,41.744003,-0.128,54.608,concentric,3,3.0,23093.0,328100.0,295752.0,345811.0,301499.0
2026-04-07 17:56:35.040299,306934,1665399382,1665400534,-1.038464,0.152256,0.081984,0.175,2.0125,-3.22,41.168003,-0.224,54.872,concentric,3,3.0,23093.0,328100.0,295752.0,345811.0,301499.0
2026-04-07 17:56:35.042856,306935,1665408424,1665409234,-1.038464,0.152256,0.081984,0.44625,2.49375,-4.01625,41.168003,-0.224,54.872,concentric,3,3.0,23093.0,328100.0,295752.0,345811.0,301499.0
2026-04-07 17:56:35.044413,306936,1665423238,1665424127,-1.030656,0.132736,0.085888,0.5075,2.5025,-4.38375,41.008003,-0.416,56.752003,concentric,3,3.0,23093.0,328100.0,295752.0,345811.0,301499.0
2026-04-07 17:56:35.048122,306937,1665432201,1665432942,-1.030656,0.11712,0.080032,-0.525,3.3425,-3.6225,41.008003,-0.416,56.752003,concentric,3,3.0,23093.0,328100.0,295752.0,345811.0,301499.0
2026-04-07 17:56:35.078493,306938,1665441598,1665443755,-1.036512,0.115168,0.080032,-0.385,3.6225,-4.41,41.664,-0.304,52.624004,concentric,3,3.0,23093.0,328100.0,295752.0,345811.0,301499.0
2026-04-07 17:56:35.156038,306948,1665450505,1665452461,-1.036512,0.115168,0.080032,0.77,3.08875,-5.67,41.664,-0.304,52.624004,concentric,3,3.0,23142.0,328449.0,296043.0,346172.0,301833.0
2026-04-07 17:56:35.193816,306949,1665465027,1665465398,-1.042368,0.11712,0.06832,2.24,3.24625,-6.545,41.672,-0.256,53.952003,concentric,3,3.0,23142.0,328449.0,296043.0,346172.0,301833.0
2026-04-07 17:56:35.243957,306950,1665474440,1665476230,-1.052128,0.124928,0.052704,3.84125,2.42375,-7.2625,41.56,-0.68,56.296,concentric,3,3.0,23142.0,328449.0,296043.0,346172.0,301833.0
2026-04-07 17:56:35.297830,306951,1665483411,1665484944,-1.052128,0.124928,0.052704,5.0575,2.1525,-6.92125,41.56,-0.68,56.296,concentric,3,3.0,23142.0,328449.0,296043.0,346172.0,301833.0
2026-04-07 17:56:35.345223,306952,1665497952,1665499893,-1.048224,0.122976,0.072224,5.5125,2.0475,-6.85125,41.232002,-0.576,56.024002,concentric,3,3.0,23142.0,328449.0,296043.0,346172.0,301833.0
2026-04-07 17:56:35.392724,306953,1665506867,1665508621,-1.048224,0.122976,0.072224,5.285,1.86375,-7.2625,41.232002,-0.576,56.024002,concentric,3,3.0,23142.0,328449.0,296043.0,346172.0,301833.0
2026-04-07 17:56:35.440086,306954,1665515775,1665517316,-1.069696,0.12688,0.074176,5.425,1.42625,-7.595,41.384003,-0.584,54.696003,concentric,3,3.0,23142.0,328449.0,296043.0,346172.0,301833.0
2026-04-07 17:56:35.488851,306955,1665530256,1665532231,-1.069696,0.12688,0.074176,5.5475,1.33875,-7.5075,41.384003,-0.584,54.696003,concentric,3,3.0,23142.0,328449.0,296043.0,346172.0,301833.0
2026-04-07 17:56:35.536601,306956,1665539164,1665540925,-1.061888,0.12688,0.064416,4.90875,0.55125,-7.0875,41.888,-0.304,54.896004,concentric,3,3.0,23142.0,328449.0,296043.0,346172.0,301833.0
2026-04-07 17:56:35.573611,306957,1665548087,1665549582,-1.061888,0.12688,0.064416,5.29375,0.9625,-7.42875,41.888,-0.304,54.896004,concentric,3,3.0,23142.0,328449.0,296043.0,346172.0,301833.0
2026-04-07 17:56:35.826574,306967,1665557106,1665558329,-1.048224,0.12688,0.076128,5.005,0.77,-8.42625,41.992,-0.408,54.752003,concentric,3,3.0,23330.0,329946.0,297255.0,347444.0,302976.0
2026-04-07 17:56:35.828286,306968,1665571531,1665573284,-1.048224,0.12688,0.076128,4.6725,1.2425,-8.82,41.992,-0.408,54.752003,concentric,3,3.0,23330.0,329946.0,297255.0,347444.0,302976.0
2026-04-07 17:56:35.829792,306969,1665580449,1665581978,-1.052128,0.140544,0.081984,3.49125,1.5925,-9.0475,41.816,0.648,54.784004,concentric,3,3.0,23330.0,329946.0,297255.0,347444.0,302976.0
2026-04-07 17:56:35.834083,306970,1665589548,1665590691,-1.052128,0.140544,0.081984,1.4175,1.32125,-8.75875,41.816,0.648,54.784004,concentric,3,3.0,23330.0,329946.0,297255.0,347444.0,302976.0
2026-04-07 17:56:35.835805,306971,1665604021,1665605579,-1.077504,0.11712,0.074176,-1.07625,2.0475,-9.073751,42.488003,0.176,54.752003,concentric,3,3.0,23330.0,329946.0,297255.0,347444.0,302976.0
2026-04-07 17:56:35.837368,306972,1665612930,1665614277,-1.077504,0.132736,0.08784,-1.23375,2.68625,-8.49625,42.488003,0.176,54.752003,concentric,3,3.0,23330.0,329946.0,297255.0,347444.0,302976.0
2026-04-07 17:56:35.841579,306973,1665621845,1665622962,-1.067744,0.132736,0.08784,0.1925,2.49375,-8.6625,41.288002,-0.224,54.968002,concentric,3,3.0,23330.0,329946.0,297255.0,347444.0,302976.0
2026-04-07 17:56:35.844280,306974,1665636307,1665637909,-1.065792,0.148352,0.07808,0.77875,2.10875,-9.065,41.456,0.08,55.064003,concentric,3,3.0,23330.0,329946.0,297255.0,347444.0,302976.0
2026-04-07 17:56:35.850641,306975,1665645213,1665646602,-1.065792,0.148352,0.07808,0.14875,2.30125,-8.70625,41.456,0.08,55.064003,concentric,3,3.0,23330.0,329946.0,297255.0,347444.0,302976.0
2026-04-07 17:56:35.882384,306986,1665654151,1665655425,-1.056032,0.15616,0.070272,0.56,2.30125,-7.9275,41.464,-0.272,55.448,concentric,3,3.0,23343.0,330068.0,297320.0,347453.0,302995.0
2026-04-07 17:56:35.886912,306987,1665668629,1665670361,-1.056032,0.15616,0.070272,0.42875,2.40625,-7.20125,41.464,-0.272,55.448,concentric,3,3.0,23343.0,330068.0,297320.0,347453.0,302995.0
2026-04-07 17:56:35.888342,306988,1665677520,1665679043,-1.050176,0.132736,0.066368,-0.30625,2.975,-6.9825,41.272003,-0.136,55.208004,concentric,3,3.0,23343.0,330068.0,297320.0,347453.0,302995.0
2026-04-07 17:56:35.890783,306989,1665686472,1665687750,-1.050176,0.132736,0.066368,-0.74375,3.21125,-6.62375,41.272003,-0.136,55.208004,concentric,3,3.0,23343.0,330068.0,297320.0,347453.0,302995.0
2026-04-07 17:56:35.892321,306990,1665700945,1665702707,-1.046272,0.122976,0.0488,0.25375,2.73,-6.3,41.328003,-0.008,55.104004,concentric,3,3.0,23343.0,330068.0,297320.0,347453.0,302995.0
2026-04-07 17:56:35.896535,306991,1665709858,1665711394,-1.046272,0.122976,0.0488,1.74125,2.91375,-6.615,41.328003,-0.008,55.104004,concentric,3,3.0,23343.0,330068.0,297320.0,347453.0,302995.0
2026-04-07 17:56:35.898220,306992,1665718784,1665720118,-1.050176,0.130784,0.056608,2.8,2.7475,-7.14,41.592003,0.168,55.056004,concentric,3,3.0,23343.0,330068.0,297320.0,347453.0,302995.0
2026-04-07 17:56:35.900744,306993,1665727688,1665728805,-1.050176,0.130784,0.056608,3.49125,2.61625,-7.1925,41.592003,0.168,55.056004,concentric,3,3.0,23343.0,330068.0,297320.0,347453.0,302995.0
2026-04-07 17:56:35.902295,306994,1665742203,1665743688,-1.056032,0.134688,0.062464,4.445,2.275,-7.21,42.032,-0.36,54.856003,concentric,3,3.0,23343.0,330068.0,297320.0,347453.0,302995.0
2026-04-07 17:56:35.906436,306995,1665751155,1665752406,-1.056032,0.134688,0.062464,4.15625,2.275,-6.85125,42.032,-0.36,54.856003,concentric,3,3.0,23343.0,330068.0,297320.0,347453.0,302995.0
2026-04-07 17:56:35.957513,307005,1665760081,1665761116,-1.067744,0.128832,0.054656,4.0425,1.82,-6.71125,41.304,-0.112,55.496002,concentric,3,3.0,23326.0,329867.0,297229.0,347352.0,302931.0
2026-04-07 17:56:35.962079,307006,1665774578,1665776006,-1.05408,0.121024,0.052704,4.13875,1.8725,-7.06125,41.480003,-0.52,55.768,concentric,3,3.0,23326.0,329867.0,297229.0,347352.0,302931.0
2026-04-07 17:56:35.963575,307007,1665783489,1665784693,-1.05408,0.121024,0.052704,3.87625,1.84625,-7.385,41.480003,-0.52,55.768,concentric,3,3.0,23326.0,329867.0,297229.0,347352.0,302931.0
2026-04-07 17:56:35.967914,307008,1665792414,1665793375,-1.05408,0.121024,0.052704,3.98125,1.8375,-7.02625,41.480003,-0.52,55.768,concentric,3,3.0,23326.0,329867.0,297229.0,347352.0,302931.0
2026-04-07 17:56:35.969627,307009,1665806903,1665808254,-1.048224,0.111264,0.046848,3.5175,2.05625,-7.13125,41.896004,-0.12,55.424004,concentric,3,3.0,23326.0,329867.0,297229.0,347352.0,302931.0
2026-04-07 17:56:35.972064,307010,1665815847,1665816944,-1.046272,0.109312,0.0488,1.68875,2.19625,-7.2625,41.352,-0.608,55.192,concentric,3,3.0,23326.0,329867.0,297229.0,347352.0,302931.0
2026-04-07 17:56:35.973633,307011,1665824749,1665825631,-1.046272,0.109312,0.0488,0.21875,2.625,-7.14,41.352,-0.608,55.192,concentric,3,3.0,23326.0,329867.0,297229.0,347352.0,302931.0
2026-04-07 17:56:35.977952,307012,1665839239,1665840559,-1.020896,0.099552,0.044896,-1.12875,2.8,-6.755,41.264004,-0.312,55.944004,concentric,3,3.0,23326.0,329867.0,297229.0,347352.0,302931.0
2026-04-07 17:56:35.979698,307013,1665848176,1665849240,-1.020896,0.099552,0.044896,-2.37125,3.24625,-6.23,41.264004,-0.312,55.944004,concentric,3,3.0,23326.0,329867.0,297229.0,347352.0,302931.0
2026-04-07 17:56:36.004544,307023,1665857498,1665857949,-1.01504,0.105408,0.056608,-2.9225,3.78875,-5.74875,42.072002,0.272,55.104004,concentric,3,3.0,23264.0,329396.0,296779.0,346874.0,302500.0
2026-04-07 17:56:36.006132,307024,1665866803,1665868717,-1.01504,0.105408,0.056608,-3.08,3.465,-5.03125,42.072002,0.272,55.104004,concentric,3,3.0,23264.0,329396.0,296779.0,346874.0,302500.0
2026-04-07 17:56:36.010412,307025,1665881324,1665883616,-1.009184,0.124928,0.046848,-2.7125,3.185,-3.815,42.584003,0.032,55.464005,concentric,3,3.0,23264.0,329396.0,296779.0,346874.0,302500.0
2026-04-07 17:56:36.012053,307026,1665890347,1665892308,-1.009184,0.124928,0.046848,-2.75625,3.19375,-2.56375,42.584003,0.032,55.464005,concentric,3,3.0,23264.0,329396.0,296779.0,346874.0,302500.0
2026-04-07 17:56:36.013612,307027,1665899283,1665900987,-1.011136,0.13664,0.03904,-2.66,3.395,-2.16125,41.600002,0.432,55.672,concentric,3,3.0,23264.0,329396.0,296779.0,346874.0,302500.0
2026-04-07 17:56:36.018211,307028,1665913786,1665915862,-1.011136,0.13664,0.03904,-2.52875,3.43,-1.65375,41.600002,0.432,55.672,concentric,3,3.0,23264.0,329396.0,296779.0,346874.0,302500.0
2026-04-07 17:56:36.019678,307029,1665922725,1665924595,-1.003328,0.16592,0.042944,-2.695,3.59625,-1.5575,41.640003,-0.072,56.064003,concentric,3,3.0,23264.0,329396.0,296779.0,346874.0,302500.0
2026-04-07 17:56:36.021288,307030,1665931961,1665933308,-1.003328,0.16592,0.042944,-3.85875,4.025,-1.93375,41.640003,-0.072,56.064003,concentric,3,3.0,23264.0,329396.0,296779.0,346874.0,302500.0
2026-04-07 17:56:36.025467,307031,1665940926,1665942034,-1.065792,0.171776,0.035136,-5.355,4.83875,-2.72125,42.112003,0.224,55.536003,concentric,3,3.0,23264.0,329396.0,296779.0,346874.0,302500.0
2026-04-07 17:56:36.052844,307042,1665955911,1665957208,-1.06384,0.148352,0.054656,-5.495,4.375,-2.8875,41.448,0.168,55.984,concentric,3,3.0,23183.0,328693.0,296219.0,346289.0,302000.0
2026-04-07 17:56:36.054630,307043,1665964887,1665965949,-1.06384,0.148352,0.054656,-4.5325,4.12125,-3.29,41.448,0.168,55.984,concentric,3,3.0,23183.0,328693.0,296219.0,346289.0,302000.0
2026-04-07 17:56:36.056221,307044,1665973811,1665974658,-1.06384,0.148352,0.054656,-2.5725,4.97875,-4.78625,41.448,0.168,55.984,concentric,3,3.0,23183.0,328693.0,296219.0,346289.0,302000.0
2026-04-07 17:56:36.062928,307045,1665988290,1665989546,-1.09312,0.12688,0.066368,-0.77,5.29375,-5.3725,41.84,0.024,54.696003,concentric,3,3.0,23183.0,328693.0,296219.0,346289.0,302000.0
2026-04-07 17:56:36.064478,307046,1665997225,1665998269,-1.069696,0.132736,0.0488,1.65375,4.57625,-6.08125,41.744003,-0.352,55.480003,concentric,3,3.0,23183.0,328693.0,296219.0,346289.0,302000.0
2026-04-07 17:56:36.066051,307047,1666006215,1666006954,-1.069696,0.132736,0.0488,4.26125,4.305,-6.48375,41.744003,-0.352,55.480003,concentric,3,3.0,23183.0,328693.0,296219.0,346289.0,302000.0
2026-04-07 17:56:36.070363,307048,1666015597,1666017732,-1.106784,0.1464,0.072224,5.22375,4.20875,-6.92125,42.048,0.112,55.688004,concentric,3,3.0,23183.0,328693.0,296219.0,346289.0,302000.0
2026-04-07 17:56:36.072188,307049,1666030120,1666030571,-1.106784,0.1464,0.072224,4.15625,3.99,-7.16625,42.048,0.112,55.688004,concentric,3,3.0,23183.0,328693.0,296219.0,346289.0,302000.0
2026-04-07 17:56:36.109217,307050,1666039432,1666041337,-1.11264,0.128832,0.066368,2.695,3.85875,-6.755,41.696003,-0.28,55.160004,concentric,3,3.0,23183.0,328693.0,296219.0,346289.0,302000.0
2026-04-07 17:56:36.110860,307051,1666048372,1666050058,-1.11264,0.128832,0.066368,2.38875,3.47375,-6.09875,41.696003,-0.28,55.160004,concentric,3,3.0,23183.0,328693.0,296219.0,346289.0,302000.0
2026-04-07 17:56:36.144131,307061,1666062928,1666064996,-1.136064,0.12688,0.081984,2.66,2.63375,-6.11625,41.592003,-0.248,55.888004,concentric,3,3.0,23127.0,328148.0,295734.0,345654.0,301410.0
2026-04-07 17:56:36.145783,307062,1666072024,1666073703,-1.136064,0.12688,0.081984,2.3625,2.415,-6.0375,41.592003,-0.248,55.888004,concentric,3,3.0,23127.0,328148.0,295734.0,345654.0,301410.0
2026-04-07 17:56:36.147294,307063,1666081085,1666082428,-1.145824,0.128832,0.095648,3.50875,1.67125,-5.87125,42.104004,-0.2,55.120003,concentric,3,3.0,23127.0,328148.0,295734.0,345654.0,301410.0
2026-04-07 17:56:36.151627,307064,1666089979,1666091106,-1.145824,0.128832,0.095648,4.62,0.34125,-4.87375,42.104004,-0.2,55.120003,concentric,3,3.0,23127.0,328148.0,295734.0,345654.0,301410.0
2026-04-07 17:56:36.153313,307065,1666104452,1666105988,-1.13216,0.134688,0.0976,5.69625,-0.63,-4.31375,42.376003,-0.248,55.936,concentric,3,3.0,23127.0,328148.0,295734.0,345654.0,301410.0
2026-04-07 17:56:36.154916,307066,1666113411,1666114687,-1.13216,0.134688,0.0976,6.93875,-1.37375,-4.13875,42.376003,-0.248,55.936,concentric,3,3.0,23127.0,328148.0,295734.0,345654.0,301410.0
2026-04-07 17:56:36.159069,307067,1666122352,1666123414,-1.126304,0.144448,0.11712,7.91875,-2.72125,-4.17375,41.248,-0.32,56.04,concentric,3,3.0,23127.0,328148.0,295734.0,345654.0,301410.0
2026-04-07 17:56:36.160797,307068,1666136858,1666138340,-1.120448,0.148352,0.111264,7.7175,-4.03375,-3.7975,41.424004,-0.68,56.512,concentric,3,3.0,23127.0,328148.0,295734.0,345654.0,301410.0
2026-04-07 17:56:36.162339,307069,1666145795,1666147063,-1.120448,0.148352,0.111264,6.85125,-4.515,-2.59,41.424004,-0.68,56.512,concentric,3,3.0,23127.0,328148.0,295734.0,345654.0,301410.0
2026-04-07 17:56:36.190808,307079,1666154726,1666156155,-1.120448,0.148352,0.111264,5.46875,-5.0925,-1.68875,41.424004,-0.68,56.512,concentric,3,3.0,22965.0,326770.0,294616.0,344445.0,300308.0
2026-04-07 17:56:36.192466,307080,1666169210,1666171041,-1.108736,0.142496,0.091744,5.04,-5.17125,-2.21375,41.960003,-0.032,55.264004,concentric,3,3.0,22965.0,326770.0,294616.0,344445.0,300308.0
2026-04-07 17:56:36.196907,307081,1666178152,1666179747,-1.0736,0.150304,0.07808,4.73375,-4.82125,-1.54,41.736004,-0.6,56.208004,concentric,3,3.0,22965.0,326770.0,294616.0,344445.0,300308.0
2026-04-07 17:56:36.198222,307082,1666187074,1666188435,-1.0736,0.150304,0.07808,4.935,-4.78625,-1.88125,41.736004,-0.6,56.208004,concentric,3,3.0,22965.0,326770.0,294616.0,344445.0,300308.0
2026-04-07 17:56:36.200924,307083,1666201582,1666203325,-1.061888,0.167872,0.07808,6.65875,-4.47125,-2.75625,41.584003,-0.752,56.504,concentric,3,3.0,22965.0,326770.0,294616.0,344445.0,300308.0
2026-04-07 17:56:36.202403,307084,1666210621,1666212012,-1.061888,0.167872,0.07808,7.63875,-3.96375,-3.59625,41.584003,-0.752,56.504,concentric,3,3.0,22965.0,326770.0,294616.0,344445.0,300308.0
2026-04-07 17:56:36.206636,307085,1666219668,1666220942,-1.065792,0.169824,0.074176,7.90125,-3.61375,-4.445,41.408,-0.624,58.632004,concentric,3,3.0,22965.0,326770.0,294616.0,344445.0,300308.0
2026-04-07 17:56:36.208313,307086,1666228602,1666229662,-1.065792,0.169824,0.074176,7.2625,-3.01,-5.15375,41.408,-0.624,58.632004,concentric,3,3.0,22965.0,326770.0,294616.0,344445.0,300308.0
2026-04-07 17:56:36.209865,307087,1666243114,1666244679,-1.048224,0.142496,0.064416,6.30875,-2.58125,-6.335,41.104,-1.592,58.632004,concentric,3,3.0,22965.0,326770.0,294616.0,344445.0,300308.0
2026-04-07 17:56:36.214108,307088,1666252165,1666253445,-1.048224,0.142496,0.064416,5.6,-2.31,-7.7175,41.104,-1.592,58.632004,concentric,3,3.0,22965.0,326770.0,294616.0,344445.0,300308.0
2026-04-07 17:56:36.240730,307099,1666261123,1666262159,-1.065792,0.12688,0.070272,4.78625,-1.3825,-9.30125,40.712,-1.416,58.800003,concentric,3,3.0,22634.0,324267.0,292689.0,342506.0,298647.0
2026-04-07 17:56:36.243227,307100,1666275613,1666277083,-1.065792,0.12688,0.070272,5.46875,-0.60375,-10.21125,40.712,-1.416,58.800003,concentric,3,3.0,22634.0,324267.0,292689.0,342506.0,298647.0
2026-04-07 17:56:36.245702,307101,1666284551,1666285810,-1.059936,0.11712,0.070272,5.64375,-0.48125,-10.386251,40.688004,-1.336,57.768,concentric,3,3.0,22634.0,324267.0,292689.0,342506.0,298647.0
2026-04-07 17:56:36.247294,307102,1666293474,1666294540,-1.059936,0.11712,0.070272,5.7925,-0.16625,-11.34,40.688004,-1.336,57.768,concentric,3,3.0,22634.0,324267.0,292689.0,342506.0,298647.0
2026-04-07 17:56:36.254102,307103,1666307973,1666309453,-1.057984,0.12688,0.095648,6.20375,0.6125,-10.33375,41.488003,-0.72,57.496002,concentric,3,3.0,22634.0,324267.0,292689.0,342506.0,298647.0
2026-04-07 17:56:36.255843,307104,1666316882,1666318189,-1.06384,0.13664,0.10736,6.1775,1.015,-9.415,41.36,-0.376,58.016003,concentric,3,3.0,22634.0,324267.0,292689.0,342506.0,298647.0
2026-04-07 17:56:36.257452,307105,1666326100,1666328132,-1.06384,0.13664,0.10736,6.265,1.21625,-9.59,41.36,-0.376,58.016003,concentric,3,3.0,22634.0,324267.0,292689.0,342506.0,298647.0
2026-04-07 17:56:36.261619,307106,1666335027,1666336846,-1.06384,0.13664,0.10736,5.60875,0.28,-8.2775,41.36,-0.376,58.016003,concentric,3,3.0,22634.0,324267.0,292689.0,342506.0,298647.0
2026-04-07 17:56:36.263317,307107,1666349509,1666351991,-1.056032,0.140544,0.099552,4.4275,-0.30625,-6.9125,41.000004,-1.12,56.736004,concentric,3,3.0,22634.0,324267.0,292689.0,342506.0,298647.0
2026-04-07 17:56:36.288354,307117,1666359208,1666360809,-1.069696,0.128832,0.095648,3.01,-0.28875,-5.2325,41.336002,-1.496,57.4,concentric,3,3.0,22614.0,323958.0,292446.0,342206.0,298364.0
2026-04-07 17:56:36.290810,307118,1666368203,1666369575,-1.069696,0.128832,0.095648,1.86375,-0.6125,-4.61125,41.336002,-1.496,57.4,concentric,3,3.0,22614.0,323958.0,292446.0,342206.0,298364.0
2026-04-07 17:56:36.293232,307119,1666382749,1666384476,-1.077504,0.134688,0.099552,1.30375,-0.8575,-4.165,40.968002,-1.024,58.264004,concentric,3,3.0,22614.0,323958.0,292446.0,342206.0,298364.0
2026-04-07 17:56:36.294836,307120,1666391768,1666393212,-1.077504,0.134688,0.099552,0.3675,-0.70875,-2.9925,40.968002,-1.024,58.264004,concentric,3,3.0,22614.0,323958.0,292446.0,342206.0,298364.0
2026-04-07 17:56:36.299039,307121,1666400920,1666402160,-1.067744,0.130784,0.103456,0.315,-2.10875,-3.43875,40.648003,-0.72,57.648003,concentric,3,3.0,22614.0,323958.0,292446.0,342206.0,298364.0
2026-04-07 17:56:36.300792,307122,1666409850,1666410936,-1.067744,0.130784,0.103456,-0.175,-1.82875,-2.26625,40.648003,-0.72,57.648003,concentric,3,3.0,22614.0,323958.0,292446.0,342206.0,298364.0
2026-04-07 17:56:36.302401,307123,1666424382,1666425895,-1.05408,0.142496,0.111264,-0.385,-2.31,-1.65375,40.512,-1.176,58.360004,concentric,3,3.0,22614.0,323958.0,292446.0,342206.0,298364.0
2026-04-07 17:56:36.306566,307124,1666433402,1666434619,-1.05408,0.142496,0.111264,-1.07625,-2.12625,-2.555,40.512,-1.176,58.360004,concentric,3,3.0,22614.0,323958.0,292446.0,342206.0,298364.0
2026-04-07 17:56:36.308374,307125,1666442463,1666443338,-1.032608,0.134688,0.128832,-1.91625,-2.03875,-2.1875,40.968002,-1.096,57.864002,concentric,3,3.0,22614.0,323958.0,292446.0,342206.0,298364.0
2026-04-07 17:56:36.332330,307135,1666456985,1666458216,-1.048224,0.124928,0.142496,-3.0625,-2.94875,-2.2575,40.968002,-1.096,59.664,concentric,3,3.0,22477.0,322921.0,291609.0,341391.0,297633.0
2026-04-07 17:56:36.336882,307136,1666466844,1666468994,-1.059936,0.124928,0.142496,-3.22,-2.975,-2.5375,41.08,-0.8,59.664,concentric,3,3.0,22477.0,322921.0,291609.0,341391.0,297633.0
2026-04-07 17:56:36.338450,307137,1666475749,1666477677,-1.059936,0.124928,0.142496,-3.9725,-4.54125,-1.33,41.08,-0.8,59.664,concentric,3,3.0,22477.0,322921.0,291609.0,341391.0,297633.0
2026-04-07 17:56:36.339905,307138,1666484658,1666486358,-1.06384,0.124928,0.142496,-3.955,-5.8275,-2.49375,40.816,-0.96,55.968002,concentric,3,3.0,22477.0,322921.0,291609.0,341391.0,297633.0
2026-04-07 17:56:36.343260,307139,1666499112,1666501259,-1.085312,0.109312,0.105408,-4.20875,-6.2825,-3.42125,41.176003,-0.584,57.616,concentric,3,3.0,22477.0,322921.0,291609.0,341391.0,297633.0
2026-04-07 17:56:36.344716,307140,1666508116,1666509967,-1.085312,0.109312,0.105408,-5.9325,-6.5275,-2.73875,41.176003,-0.584,57.616,concentric,3,3.0,22477.0,322921.0,291609.0,341391.0,297633.0
2026-04-07 17:56:36.349080,307141,1666517170,1666518718,-1.085312,0.130784,0.105408,-6.55375,-6.53625,-2.415,41.176003,-0.584,57.616,concentric,3,3.0,22477.0,322921.0,291609.0,341391.0,297633.0
2026-04-07 17:56:36.351117,307142,1666531696,1666533670,-1.08336,0.130784,0.105408,-5.67875,-7.0525,-3.05375,40.936,-0.176,58.184002,concentric,3,3.0,22477.0,322921.0,291609.0,341391.0,297633.0
2026-04-07 17:56:36.352354,307143,1666540650,1666542438,-1.067744,0.142496,0.115168,-4.85625,-7.98875,-2.59,40.368,-1.28,57.344,concentric,3,3.0,22477.0,322921.0,291609.0,341391.0,297633.0
2026-04-07 17:56:36.356819,307144,1666549675,1666551190,-1.067744,0.142496,0.115168,-5.53,-8.015,-1.84625,40.368,-1.28,57.344,concentric,3,3.0,22477.0,322921.0,291609.0,341391.0,297633.0
2026-04-07 17:56:36.533487,307155,1666559163,1666559925,-1.09312,0.148352,0.109312,-5.985,-8.02375,-1.7675,40.320004,-1.088,56.448,concentric,3,3.0,22420.0,322398.0,291052.0,340732.0,297013.0
2026-04-07 17:56:36.571055,307156,1666574209,1666574884,-1.09312,0.148352,0.109312,-6.5625,-8.25125,-0.6475,40.320004,-1.088,56.448,concentric,3,3.0,22420.0,322398.0,291052.0,340732.0,297013.0
2026-04-07 17:56:36.608562,307157,1666583700,1666585709,-1.079456,0.158112,0.121024,-7.41125,-8.95125,-0.7175,40.472,-0.088,57.272003,concentric,3,3.0,22420.0,322398.0,291052.0,340732.0,297013.0
2026-04-07 17:56:36.652319,307158,1666592710,1666594436,-1.079456,0.158112,0.121024,-7.55125,-8.53125,-1.72375,40.472,-0.088,57.272003,concentric,3,3.0,22420.0,322398.0,291052.0,340732.0,297013.0
2026-04-07 17:56:36.692711,307159,1666601724,1666603148,-1.08336,0.173728,0.11712,-6.18625,-8.505,-2.17875,40.656002,0.344,57.336002,concentric,3,3.0,22420.0,322398.0,291052.0,340732.0,297013.0
2026-04-07 17:56:36.741426,307160,1666616293,1666618113,-1.08336,0.173728,0.11712,-6.545,-7.67375,-2.1525,40.656002,0.344,57.336002,concentric,3,3.0,22420.0,322398.0,291052.0,340732.0,297013.0
2026-04-07 17:56:36.786257,307161,1666625318,1666626822,-1.085312,0.18544,0.122976,-7.06125,-6.79875,-3.465,39.88,-0.48,55.768,concentric,3,3.0,22420.0,322398.0,291052.0,340732.0,297013.0
2026-04-07 17:56:36.788237,307162,1666634224,1666635578,-1.085312,0.18544,0.122976,-8.636251,-5.5825,-3.96375,39.88,-0.48,55.768,concentric,3,3.0,22420.0,322398.0,291052.0,340732.0,297013.0
2026-04-07 17:56:36.792883,307163,1666648829,1666650560,-1.081408,0.171776,0.124928,-8.75,-4.445,-3.7625,40.048,-0.224,58.704002,concentric,3,3.0,22420.0,322398.0,291052.0,340732.0,297013.0
2026-04-07 17:56:36.818225,307173,1666657778,1666659226,-1.081408,0.152256,0.11712,-7.13125,-3.2375,-3.87625,40.048,-0.224,60.752003,concentric,3,3.0,22534.0,323394.0,291969.0,341860.0,298120.0
2026-04-07 17:56:36.820659,307174,1666666762,1666667974,-1.059936,0.152256,0.11712,-5.10125,-2.4675,-4.87375,40.104,-0.6,59.888004,concentric,3,3.0,22534.0,323394.0,291969.0,341860.0,298120.0
2026-04-07 17:56:36.824551,307175,1666675662,1666676802,-1.059936,0.152256,0.11712,-4.01625,-1.9425,-4.64625,40.104,-0.6,59.888004,concentric,3,3.0,22534.0,323394.0,291969.0,341860.0,298120.0
2026-04-07 17:56:36.826015,307176,1666690255,1666691744,-1.0248,0.140544,0.093696,-3.92,-1.35625,-4.4975,39.392002,-0.376,59.136,concentric,3,3.0,22534.0,323394.0,291969.0,341860.0,298120.0
2026-04-07 17:56:36.830300,307177,1666699315,1666700528,-1.011136,0.132736,0.115168,-4.73375,-0.58625,-4.13875,39.496002,-0.376,58.568005,concentric,3,3.0,22534.0,323394.0,291969.0,341860.0,298120.0
2026-04-07 17:56:36.831965,307178,1666708345,1666709255,-1.011136,0.132736,0.115168,-6.9125,0.88375,-3.17625,39.496002,-0.376,58.568005,concentric,3,3.0,22534.0,323394.0,291969.0,341860.0,298120.0
2026-04-07 17:56:36.834782,307179,1666722996,1666724208,-1.069696,0.132736,0.152256,-9.695,3.0975,-2.45,39.624,0.184,58.776,concentric,3,3.0,22534.0,323394.0,291969.0,341860.0,298120.0
2026-04-07 17:56:36.837200,307180,1666731939,1666733032,-1.069696,0.132736,0.152256,-13.4925,3.99,-1.7675,39.624,0.184,58.776,concentric,3,3.0,22534.0,323394.0,291969.0,341860.0,298120.0
2026-04-07 17:56:36.838674,307181,1666740863,1666741749,-1.04432,0.13664,0.154208,-16.5025,4.08625,-0.8225,40.328003,0.248,58.472004,concentric,3,3.0,22534.0,323394.0,291969.0,341860.0,298120.0
2026-04-07 17:56:36.842673,307182,1666755407,1666756688,-1.04432,0.13664,0.154208,-18.025,4.305,-0.875,40.328003,0.248,58.472004,concentric,3,3.0,22534.0,323394.0,291969.0,341860.0,298120.0
2026-04-07 17:56:36.867032,307192,1666764406,1666765498,-1.009184,0.11712,0.15616,-17.78,4.10375,-0.8575,40.432003,0.096,58.88,concentric,3,3.0,22610.0,324756.0,293334.0,343692.0,299700.0
2026-04-07 17:56:36.868723,307193,1666773323,1666774199,-1.009184,0.11712,0.15616,-16.73,3.4825,-0.49,40.432003,0.096,58.88,concentric,3,3.0,22610.0,324756.0,293334.0,343692.0,299700.0
2026-04-07 17:56:36.872817,307194,1666782269,1666782886,-1.020896,0.089792,0.1464,-16.65125,3.605,-0.27125,40.432003,0.512,57.320004,concentric,3,3.0,22610.0,324756.0,293334.0,343692.0,299700.0
2026-04-07 17:56:36.874581,307195,1666797122,1666797791,-1.020896,0.089792,0.1464,-15.68875,3.115,1.49625,40.432003,0.512,57.320004,concentric,3,3.0,22610.0,324756.0,293334.0,343692.0,299700.0
2026-04-07 17:56:36.876971,307196,1666806500,1666808571,-1.001376,0.070272,0.130784,-11.025,1.88125,2.905,40.408,0.136,57.4,concentric,3,3.0,22610.0,324756.0,293334.0,343692.0,299700.0
2026-04-07 17:56:36.878489,307197,1666815441,1666817313,-1.001376,0.070272,0.130784,-4.9875,0.9975,3.325,40.408,0.136,57.4,concentric,3,3.0,22610.0,324756.0,293334.0,343692.0,299700.0
2026-04-07 17:56:36.882786,307198,1666830077,1666832216,-1.046272,0.187392,0.150304,3.5175,1.925,1.82,40.112003,-0.072,56.856003,concentric,3,3.0,22610.0,324756.0,293334.0,343692.0,299700.0
2026-04-07 17:56:36.884545,307199,1666838998,1666840929,-1.00528,0.208864,0.158112,6.88625,1.72375,0.3325,40.112003,0.424,57.232002,concentric,3,3.0,22610.0,324756.0,293334.0,343692.0,299700.0
2026-04-07 17:56:36.886124,307200,1666848031,1666849638,-1.00528,0.208864,0.158112,5.32,0.7525,0.81375,40.112003,0.424,57.232002,concentric,3,3.0,22610.0,324756.0,293334.0,343692.0,299700.0
2026-04-07 17:56:36.890193,307201,1666857005,1666858334,-1.00528,0.208864,0.158112,0.4025,1.7325,1.49625,40.112003,0.424,57.232002,concentric,3,3.0,22610.0,324756.0,293334.0,343692.0,299700.0
2026-04-07 17:56:36.916235,307212,1666871538,1666873262,-0.96624,0.187392,0.191296,-4.97,2.96625,0.88375,40.52,0.416,56.856003,concentric,3,3.0,22438.0,323717.0,292762.0,343490.0,299597.0
2026-04-07 17:56:36.920377,307213,1666880451,1666881950,-0.960384,0.144448,0.199104,-8.96,3.7275,0.07875,41.112003,0.432,57.512,concentric,3,3.0,22438.0,323717.0,292762.0,343490.0,299597.0
2026-04-07 17:56:36.922081,307214,1666889354,1666890644,-0.960384,0.144448,0.199104,-13.7025,4.0075,-1.9775,41.112003,0.432,57.512,concentric,3,3.0,22438.0,323717.0,292762.0,343490.0,299597.0
2026-04-07 17:56:36.923722,307215,1666903882,1666905599,-1.003328,0.162016,0.160064,-14.3675,3.8675,-3.24625,40.752003,0.864,57.184002,concentric,3,3.0,22438.0,323717.0,292762.0,343490.0,299597.0
2026-04-07 17:56:36.927889,307216,1666912802,1666914296,-1.003328,0.162016,0.160064,-12.39,4.1125,-3.43875,40.752003,0.864,57.184002,concentric,3,3.0,22438.0,323717.0,292762.0,343490.0,299597.0
2026-04-07 17:56:36.929624,307217,1666921745,1666922991,-0.964288,0.169824,0.122976,-9.66875,4.03375,-4.305,40.072002,0.68,57.320004,concentric,3,3.0,22438.0,323717.0,292762.0,343490.0,299597.0
2026-04-07 17:56:36.931118,307218,1666936266,1666937985,-0.964288,0.169824,0.122976,-7.9625,4.12125,-5.13625,40.072002,0.68,57.320004,concentric,3,3.0,22438.0,323717.0,292762.0,343490.0,299597.0
2026-04-07 17:56:36.935345,307219,1666945191,1666946664,-0.96624,0.17568,0.101504,-7.28875,4.9,-6.65875,40.312,1.296,57.368004,concentric,3,3.0,22438.0,323717.0,292762.0,343490.0,299597.0
2026-04-07 17:56:36.937012,307220,1666954116,1666955331,-0.96624,0.17568,0.101504,-8.40875,6.3175,-7.63,40.312,1.296,57.368004,concentric,3,3.0,22438.0,323717.0,292762.0,343490.0,299597.0
2026-04-07 17:56:36.966610,307230,1666969011,1666970344,-0.968192,0.16592,0.091744,-11.94375,7.8575,-8.715,40.264004,1.176,57.208004,concentric,3,3.0,22761.0,326605.0,295156.0,346173.0,302027.0
2026-04-07 17:56:36.969278,307231,1666977905,1666979024,-0.968192,0.16592,0.091744,-14.5075,8.98625,-9.8875,40.264004,1.176,57.208004,concentric,3,3.0,22761.0,326605.0,295156.0,346173.0,302027.0
2026-04-07 17:56:36.975483,307232,1666986833,1666987693,-0.997472,0.122976,0.099552,-16.0475,9.84375,-10.8325,40.664,1.56,56.944004,concentric,3,3.0,22761.0,326605.0,295156.0,346173.0,302027.0
2026-04-07 17:56:36.977157,307233,1666995742,1666996418,-0.997472,0.122976,0.099552,-12.95,10.61375,-11.698751,40.664,1.56,56.944004,concentric,3,3.0,22761.0,326605.0,295156.0,346173.0,302027.0
2026-04-07 17:56:36.978709,307234,1667010776,1667011354,-1.026752,0.122976,0.115168,-8.04125,11.10375,-11.375,40.168003,0.744,57.800003,concentric,3,3.0,22761.0,326605.0,295156.0,346173.0,302027.0
2026-04-07 17:56:36.982871,307235,1667020022,1667022120,-1.061888,0.121024,0.154208,-3.28125,10.4825,-11.87375,40.480003,1.152,54.800003,concentric,3,3.0,22761.0,326605.0,295156.0,346173.0,302027.0
2026-04-07 17:56:36.984563,307236,1667028961,1667030799,-1.061888,0.121024,0.154208,-1.37375,10.8325,-12.69625,40.480003,1.152,54.800003,concentric,3,3.0,22761.0,326605.0,295156.0,346173.0,302027.0
2026-04-07 17:56:36.986969,307237,1667037858,1667039534,-1.061888,0.121024,0.154208,-2.03875,10.045,-12.075,40.480003,1.152,54.800003,concentric,3,3.0,22761.0,326605.0,295156.0,346173.0,302027.0
2026-04-07 17:56:36.989324,307238,1667052352,1667054444,-1.06384,0.085888,0.167872,-4.24375,8.89,-11.34875,41.368004,1.976,55.392002,concentric,3,3.0,22761.0,326605.0,295156.0,346173.0,302027.0
2026-04-07 17:56:37.016988,307248,1667061889,1667063444,-1.003328,0.062464,0.169824,-5.11875,7.595,-9.3625,40.664,2.016,56.920002,concentric,3,3.0,22986.0,328616.0,296879.0,348064.0,303680.0
2026-04-07 17:56:37.018551,307249,1667070887,1667072142,-1.003328,0.062464,0.169824,-4.0075,6.09,-7.49875,40.664,2.016,56.920002,concentric,3,3.0,22986.0,328616.0,296879.0,348064.0,303680.0
2026-04-07 17:56:37.022808,307250,1667085390,1667087030,-1.042368,0.093696,0.148352,-0.34125,5.24125,-6.86,40.936,1.456,56.776,concentric,3,3.0,22986.0,328616.0,296879.0,348064.0,303680.0
2026-04-07 17:56:37.024592,307251,1667094391,1667095755,-1.042368,0.093696,0.148352,3.5525,4.36625,-6.29125,40.936,1.456,56.776,concentric,3,3.0,22986.0,328616.0,296879.0,348064.0,303680.0
2026-04-07 17:56:37.026244,307252,1667103311,1667104450,-1.048224,0.167872,0.122976,6.51,3.9375,-5.60875,41.144,1.112,56.832005,concentric,3,3.0,22986.0,328616.0,296879.0,348064.0,303680.0
2026-04-07 17:56:37.030350,307253,1667117880,1667119359,-1.048224,0.167872,0.122976,7.37625,4.0075,-5.11,41.144,1.112,56.832005,concentric,3,3.0,22986.0,328616.0,296879.0,348064.0,303680.0
2026-04-07 17:56:37.031879,307254,1667126879,1667128066,-0.989664,0.191296,0.13664,4.7775,3.85,-5.3375,40.712,1.76,59.000004,concentric,3,3.0,22986.0,328616.0,296879.0,348064.0,303680.0
2026-04-07 17:56:37.038928,307255,1667135932,1667136771,-0.989664,0.191296,0.13664,-1.23375,4.69,-5.3375,40.712,1.76,59.000004,concentric,3,3.0,22986.0,328616.0,296879.0,348064.0,303680.0
2026-04-07 17:56:37.055557,307256,1667144854,1667145464,-1.009184,0.124928,0.101504,-7.805,5.32,-5.95875,40.800003,1.464,56.88,concentric,3,3.0,22986.0,328616.0,296879.0,348064.0,303680.0
2026-04-07 17:56:37.088522,307257,1667159596,1667160359,-1.009184,0.124928,0.091744,-10.92,6.2475,-5.95875,40.800003,1.464,56.88,concentric,3,3.0,22986.0,328616.0,296879.0,348064.0,303680.0
2026-04-07 17:56:37.116984,307268,1667169082,1667171171,-1.022848,0.095648,0.091744,-10.15875,6.545,-6.44875,40.384003,1.736,56.424004,concentric,3,3.0,23129.0,329594.0,297638.0,348774.0,304312.0
2026-04-07 17:56:37.119467,307269,1667178001,1667179929,-1.022848,0.095648,0.091744,-6.74625,6.3175,-6.76375,40.384003,1.736,56.424004,concentric,3,3.0,23129.0,329594.0,297638.0,348774.0,304312.0
2026-04-07 17:56:37.121001,307270,1667186947,1667188666,-1.03456,0.109312,0.081984,-3.15,7.28875,-6.7025,40.616,1.816,57.280003,concentric,3,3.0,23129.0,329594.0,297638.0,348774.0,304312.0
2026-04-07 17:56:37.125291,307271,1667201479,1667203590,-1.032608,0.124928,0.089792,-1.89875,8.015,-6.23875,41.408,1.784,57.928,concentric,3,3.0,23129.0,329594.0,297638.0,348774.0,304312.0
2026-04-07 17:56:37.127017,307272,1667210437,1667212364,-1.032608,0.124928,0.089792,-2.3275,7.88375,-5.6175,41.408,1.784,57.928,concentric,3,3.0,23129.0,329594.0,297638.0,348774.0,304312.0
2026-04-07 17:56:37.128542,307273,1667219376,1667221103,-1.032608,0.124928,0.089792,-3.35125,7.51625,-5.31125,41.408,1.784,57.928,concentric,3,3.0,23129.0,329594.0,297638.0,348774.0,304312.0
2026-04-07 17:56:37.132838,307274,1667233885,1667236042,-1.007232,0.115168,0.12688,-3.3075,7.77,-4.795,40.920002,1.392,60.416004,concentric,3,3.0,23129.0,329594.0,297638.0,348774.0,304312.0
2026-04-07 17:56:37.134535,307275,1667242965,1667244750,-1.007232,0.109312,0.132736,-4.13,7.105,-4.2875,41.136,1.904,58.000004,concentric,3,3.0,23129.0,329594.0,297638.0,348774.0,304312.0
2026-04-07 17:56:37.137248,307276,1667251958,1667253633,-1.007232,0.109312,0.132736,-5.03125,6.51875,-3.6925,41.136,1.904,58.000004,concentric,3,3.0,23129.0,329594.0,297638.0,348774.0,304312.0
2026-04-07 17:56:37.161063,307286,1667266598,1667268840,-1.026752,0.105408,0.142496,-6.55375,6.51875,-2.94875,41.480003,1.704,56.760002,concentric,3,3.0,23226.0,330302.0,298172.0,349297.0,304784.0
2026-04-07 17:56:37.165369,307287,1667275550,1667277557,-1.026752,0.105408,0.142496,-6.5975,6.72,-2.59,41.480003,1.704,56.760002,concentric,3,3.0,23226.0,330302.0,298172.0,349297.0,304784.0
2026-04-07 17:56:37.167029,307288,1667284599,1667286313,-1.026752,0.109312,0.128832,-4.585,6.43125,-2.59875,41.440002,1.896,56.728004,concentric,3,3.0,23226.0,330302.0,298172.0,349297.0,304784.0
2026-04-07 17:56:37.168570,307289,1667293645,1667295076,-1.026752,0.109312,0.128832,-0.665,5.87125,-2.94,41.440002,1.896,56.728004,concentric,3,3.0,23226.0,330302.0,298172.0,349297.0,304784.0
2026-04-07 17:56:37.172858,307290,1667308238,1667310128,-1.032608,0.128832,0.163968,1.28625,5.425,-3.42125,41.384003,1.736,56.912003,concentric,3,3.0,23226.0,330302.0,298172.0,349297.0,304784.0
2026-04-07 17:56:37.174608,307291,1667317220,1667318863,-1.032608,0.128832,0.163968,1.19,5.31125,-3.08875,41.384003,1.736,56.912003,concentric,3,3.0,23226.0,330302.0,298172.0,349297.0,304784.0
2026-04-07 17:56:37.176984,307292,1667326165,1667327611,-1.020896,0.122976,0.162016,0.6825,4.515,-2.19625,41.416,1.872,56.672,concentric,3,3.0,23226.0,330302.0,298172.0,349297.0,304784.0
2026-04-07 17:56:37.178549,307293,1667340777,1667342584,-1.020896,0.122976,0.144448,0.9625,4.0775,-1.7325,41.416,1.872,56.672,concentric,3,3.0,23226.0,330302.0,298172.0,349297.0,304784.0
2026-04-07 17:56:37.183002,307294,1667349738,1667351318,-1.0248,0.122976,0.144448,1.8375,3.8675,-1.77625,41.112003,1.792,55.008003,concentric,3,3.0,23226.0,330302.0,298172.0,349297.0,304784.0
2026-04-07 17:56:37.189150,307295,1667358713,1667360150,-1.0248,0.122976,0.144448,1.74125,4.13,-3.50875,41.112003,1.792,55.008003,concentric,3,3.0,23226.0,330302.0,298172.0,349297.0,304784.0
2026-04-07 17:56:37.213574,307305,1667373376,1667375282,-1.028704,0.115168,0.11712,-0.1575,4.71625,-4.34,40.648003,1.52,58.160004,concentric,3,3.0,23310.0,331069.0,298827.0,350016.0,305383.0
2026-04-07 17:56:37.218500,307306,1667382330,1667384067,-1.026752,0.113216,0.095648,-1.995,5.45125,-3.52625,41.664,1.392,56.976,concentric,3,3.0,23310.0,331069.0,298827.0,350016.0,305383.0
2026-04-07 17:56:37.219880,307307,1667391305,1667392818,-1.026752,0.113216,0.095648,-3.82375,6.02,-4.5325,41.664,1.392,56.976,concentric,3,3.0,23310.0,331069.0,298827.0,350016.0,305383.0
2026-04-07 17:56:37.224143,307308,1667400253,1667401553,-1.026752,0.113216,0.095648,-5.8275,6.74625,-4.5675,41.664,1.392,56.976,concentric,3,3.0,23310.0,331069.0,298827.0,350016.0,305383.0
2026-04-07 17:56:37.225803,307309,1667414758,1667416522,-1.026752,0.10736,0.099552,-6.65875,6.86875,-4.5325,41.984,1.48,55.008003,concentric,3,3.0,23310.0,331069.0,298827.0,350016.0,305383.0
2026-04-07 17:56:37.227382,307310,1667423712,1667425312,-1.030656,0.124928,0.11712,-5.74,6.76375,-5.075,41.752003,2.192,56.752003,concentric,3,3.0,23310.0,331069.0,298827.0,350016.0,305383.0
2026-04-07 17:56:37.235658,307311,1667432768,1667434054,-1.030656,0.124928,0.11712,-5.495,6.51,-5.22375,41.752003,2.192,56.752003,concentric,3,3.0,23310.0,331069.0,298827.0,350016.0,305383.0
2026-04-07 17:56:37.237021,307312,1667447452,1667449018,-1.038464,0.138592,0.12688,-5.48625,6.6325,-5.38125,42.112003,1.472,56.376003,concentric,3,3.0,23310.0,331069.0,298827.0,350016.0,305383.0
2026-04-07 17:56:37.238649,307313,1667456368,1667457716,-1.038464,0.138592,0.12688,-5.88875,6.86,-6.125,42.112003,1.472,56.376003,concentric,3,3.0,23310.0,331069.0,298827.0,350016.0,305383.0
2026-04-07 17:56:37.270792,307324,1667465532,1667466409,-1.056032,0.130784,0.148352,-5.88875,7.20125,-6.39625,42.120003,1.856,56.480003,concentric,3,3.0,23419.0,332016.0,299692.0,350972.0,306319.0
2026-04-07 17:56:37.273211,307325,1667480025,1667481301,-1.056032,0.130784,0.148352,-6.5275,8.00625,-6.755,42.120003,1.856,56.480003,concentric,3,3.0,23419.0,332016.0,299692.0,350972.0,306319.0
2026-04-07 17:56:37.274809,307326,1667488958,1667490098,-1.061888,0.081984,0.142496,-6.15125,7.69125,-7.21875,42.064003,2.264,58.120003,concentric,3,3.0,23419.0,332016.0,299692.0,350972.0,306319.0
2026-04-07 17:56:37.279179,307327,1667497940,1667498872,-1.061888,0.081984,0.142496,-5.03125,6.83375,-7.88375,42.064003,2.264,58.120003,concentric,3,3.0,23419.0,332016.0,299692.0,350972.0,306319.0
2026-04-07 17:56:37.280739,307328,1667506868,1667507612,-1.061888,0.056608,0.124928,-2.4675,6.335,-7.525,41.832,1.52,57.752003,concentric,3,3.0,23419.0,332016.0,299692.0,350972.0,306319.0
2026-04-07 17:56:37.283206,307329,1667521853,1667522582,-1.05408,0.074176,0.085888,-0.5425,5.915,-7.1225,41.832,1.536,57.648003,concentric,3,3.0,23419.0,332016.0,299692.0,350972.0,306319.0
2026-04-07 17:56:37.284738,307330,1667531235,1667533400,-1.05408,0.074176,0.085888,3.35125,4.48,-6.5275,41.576,1.536,57.648003,concentric,3,3.0,23419.0,332016.0,299692.0,350972.0,306319.0
2026-04-07 17:56:37.289081,307331,1667540211,1667542182,-1.05408,0.074176,0.085888,7.28875,4.90875,-7.1575,41.576,1.536,57.648003,concentric,3,3.0,23419.0,332016.0,299692.0,350972.0,306319.0
2026-04-07 17:56:37.290818,307332,1667549316,1667550962,-1.057984,0.140544,0.109312,9.59875,5.48625,-7.58625,41.608,1.608,57.960003,concentric,3,3.0,23419.0,332016.0,299692.0,350972.0,306319.0
2026-04-07 17:56:37.315949,307342,1667564264,1667566592,-1.050176,0.160064,0.103456,8.21625,5.6175,-8.3475,41.296,1.48,58.280003,concentric,3,3.0,23273.0,330338.0,298090.0,348982.0,304505.0
2026-04-07 17:56:37.317343,307343,1667573285,1667575314,-1.050176,0.160064,0.103456,3.75375,6.16,-8.98625,41.296,1.48,58.280003,concentric,3,3.0,23273.0,330338.0,298090.0,348982.0,304505.0
2026-04-07 17:56:37.321574,307344,1667582281,1667584022,-1.057984,0.138592,0.113216,-1.435,6.5625,-8.89875,41.296,1.904,55.944004,concentric,3,3.0,23273.0,330338.0,298090.0,348982.0,304505.0
2026-04-07 17:56:37.323378,307345,1667596844,1667598943,-1.057984,0.138592,0.113216,-3.675,6.08125,-9.49375,42.296,1.904,55.944004,concentric,3,3.0,23273.0,330338.0,298090.0,348982.0,304505.0
2026-04-07 17:56:37.324924,307346,1667605841,1667607686,-1.077504,0.105408,0.101504,-4.40125,6.41375,-10.3775,42.552002,2.048,57.016003,concentric,3,3.0,23273.0,330338.0,298090.0,348982.0,304505.0
2026-04-07 17:56:37.329131,307347,1667614931,1667616468,-1.077504,0.105408,0.101504,-3.38625,6.32625,-12.1975,42.552002,2.048,57.016003,concentric,3,3.0,23273.0,330338.0,298090.0,348982.0,304505.0
2026-04-07 17:56:37.330820,307348,1667623903,1667625183,-1.075552,0.124928,0.091744,-1.26875,7.1575,-12.6525,42.872,2.048,56.936,concentric,3,3.0,23273.0,330338.0,298090.0,348982.0,304505.0
2026-04-07 17:56:37.332297,307349,1667638615,1667640164,-1.075552,0.124928,0.091744,-0.04375,7.77875,-13.60625,42.872,2.048,56.936,concentric,3,3.0,23273.0,330338.0,298090.0,348982.0,304505.0
2026-04-07 17:56:37.336649,307350,1667647577,1667648867,-1.077504,0.150304,0.12688,0.60375,8.9425,-15.07625,42.320004,1.808,56.760002,concentric,3,3.0,23273.0,330338.0,298090.0,348982.0,304505.0
2026-04-07 17:56:37.338284,307351,1667656585,1667657673,-1.077504,0.150304,0.12688,-2.415,9.8875,-16.30125,42.320004,1.808,56.760002,concentric,3,3.0,23273.0,330338.0,298090.0,348982.0,304505.0
2026-04-07 17:56:37.397616,307361,1667671181,1667672658,-1.100928,0.121024,0.140544,-5.635,10.0975,-16.7475,42.440002,1.72,56.648003,concentric,3,3.0,23268.0,330431.0,298197.0,349122.0,304713.0
2026-04-07 17:56:37.400354,307362,1667680108,1667681378,-1.100928,0.121024,0.140544,-6.97375,9.87,-16.28375,42.440002,1.72,56.648003,concentric,3,3.0,23268.0,330431.0,298197.0,349122.0,304713.0
2026-04-07 17:56:37.402124,307363,1667689163,1667690144,-1.089216,0.091744,0.138592,-5.76625,9.3275,-15.68875,42.344,1.984,56.600002,concentric,3,3.0,23268.0,330431.0,298197.0,349122.0,304713.0
2026-04-07 17:56:37.404474,307364,1667703694,1667705040,-1.095072,0.103456,0.10736,-3.36875,9.40625,-15.44375,42.440002,2.368,56.712,concentric,3,3.0,23268.0,330431.0,298197.0,349122.0,304713.0
2026-04-07 17:56:37.406060,307365,1667712711,1667713808,-1.095072,0.103456,0.10736,-0.1225,10.15875,-15.9075,42.440002,2.368,56.712,concentric,3,3.0,23268.0,330431.0,298197.0,349122.0,304713.0
2026-04-07 17:56:37.410316,307366,1667721765,1667722575,-1.095072,0.103456,0.10736,1.98625,9.6775,-15.93375,42.440002,2.368,56.712,concentric,3,3.0,23268.0,330431.0,298197.0,349122.0,304713.0
2026-04-07 17:56:37.412046,307367,1667730813,1667731306,-1.081408,0.122976,0.109312,1.5575,9.80875,-15.198751,42.760002,2.624,55.840004,concentric,3,3.0,23268.0,330431.0,298197.0,349122.0,304713.0
2026-04-07 17:56:37.413593,307368,1667745805,1667746331,-1.108736,0.121024,0.101504,-1.30375,10.255,-16.03,42.728,2.256,56.640003,concentric,3,3.0,23268.0,330431.0,298197.0,349122.0,304713.0
2026-04-07 17:56:37.417957,307369,1667755190,1667757101,-1.108736,0.121024,0.101504,-2.275,10.73625,-16.178751,42.728,2.256,56.640003,concentric,3,3.0,23268.0,330431.0,298197.0,349122.0,304713.0
2026-04-07 17:56:37.441994,307379,1667764118,1667765784,-1.124352,0.130784,0.0976,-3.03625,10.52625,-14.98875,42.640003,2.024,54.432003,concentric,3,3.0,23132.0,329098.0,297107.0,347853.0,303550.0
2026-04-07 17:56:37.443552,307380,1667773052,1667774528,-1.124352,0.130784,0.0976,-4.655,9.4325,-14.28,42.640003,2.024,54.432003,concentric,3,3.0,23132.0,329098.0,297107.0,347853.0,303550.0
2026-04-07 17:56:37.447797,307381,1667787572,1667789506,-1.120448,0.105408,0.091744,-6.2475,8.37375,-12.985,42.512,2.976,57.328003,concentric,3,3.0,23132.0,329098.0,297107.0,347853.0,303550.0
2026-04-07 17:56:37.449561,307382,1667796542,1667798263,-1.120448,0.105408,0.091744,-8.37375,6.7025,-10.8675,42.512,2.976,57.328003,concentric,3,3.0,23132.0,329098.0,297107.0,347853.0,303550.0
2026-04-07 17:56:37.451132,307383,1667805523,1667807012,-1.098976,0.085888,0.105408,-9.73875,5.85375,-10.4125,42.36,2.2,56.480003,concentric,3,3.0,23132.0,329098.0,297107.0,347853.0,303550.0
2026-04-07 17:56:37.455336,307384,1667820179,1667822015,-1.098976,0.085888,0.105408,-9.91375,5.11875,-9.77375,42.36,2.2,56.480003,concentric,3,3.0,23132.0,329098.0,297107.0,347853.0,303550.0
2026-04-07 17:56:37.457148,307385,1667829164,1667830732,-1.118496,0.08784,0.11712,-7.105,4.92625,-9.59,42.640003,2.472,56.536003,concentric,3,3.0,23132.0,329098.0,297107.0,347853.0,303550.0
2026-04-07 17:56:37.458609,307386,1667838089,1667839420,-1.118496,0.08784,0.11712,-3.28125,4.26125,-9.70375,42.640003,2.472,56.536003,concentric,3,3.0,23132.0,329098.0,297107.0,347853.0,303550.0
2026-04-07 17:56:37.489922,307387,1667852612,1667854462,-1.097024,0.10736,0.122976,0.63875,4.025,-9.555,42.952003,2.776,56.288002,concentric,3,3.0,23132.0,329098.0,297107.0,347853.0,303550.0
2026-04-07 17:56:37.493949,307388,1667861587,1667863167,-1.097024,0.10736,0.122976,4.17375,3.325,-10.08875,42.952003,2.776,56.288002,concentric,3,3.0,23132.0,329098.0,297107.0,347853.0,303550.0
2026-04-07 17:56:37.528599,307399,1667870768,1667872266,-1.085312,0.122976,0.122976,6.74625,3.4825,-9.0475,42.384003,2.912,56.440002,concentric,3,3.0,23191.0,329444.0,297359.0,348073.0,303818.0
2026-04-07 17:56:37.532817,307400,1667879698,1667880954,-1.085312,0.122976,0.122976,6.76375,3.36875,-8.35625,42.384003,2.912,56.440002,concentric,3,3.0,23191.0,329444.0,297359.0,348073.0,303818.0
2026-04-07 17:56:37.534452,307401,1667894348,1667895877,-1.079456,0.132736,0.105408,5.285,3.22,-8.1025,42.592003,1.952,58.552002,concentric,3,3.0,23191.0,329444.0,297359.0,348073.0,303818.0
2026-04-07 17:56:37.536132,307402,1667903345,1667904624,-1.048224,0.119072,0.085888,2.17875,3.87625,-7.9975,42.592003,1.952,58.568005,concentric,3,3.0,23191.0,329444.0,297359.0,348073.0,303818.0
2026-04-07 17:56:37.540222,307403,1667912319,1667913362,-1.050176,0.119072,0.085888,-1.54,4.62875,-8.30375,42.688004,2.72,58.568005,concentric,3,3.0,23191.0,329444.0,297359.0,348073.0,303818.0
2026-04-07 17:56:37.545227,307404,1667926817,1667928264,-1.0736,0.103456,0.083936,-4.45375,4.445,-8.5225,42.504,2.72,56.704002,concentric,3,3.0,23191.0,329444.0,297359.0,348073.0,303818.0
2026-04-07 17:56:37.573815,307405,1667935780,1667936998,-1.0736,0.103456,0.083936,-3.85875,4.97,-8.75,42.504,2.72,56.704002,concentric,3,3.0,23191.0,329444.0,297359.0,348073.0,303818.0
2026-04-07 17:56:37.578253,307406,1667944745,1667945731,-1.077504,0.11712,0.111264,-1.75,6.11625,-8.51375,42.672,2.984,56.736004,concentric,3,3.0,23191.0,329444.0,297359.0,348073.0,303818.0
2026-04-07 17:56:37.579776,307407,1667959269,1667960636,-1.077504,0.11712,0.111264,-0.28,5.88,-8.33875,42.672,2.984,56.736004,concentric,3,3.0,23191.0,329444.0,297359.0,348073.0,303818.0
2026-04-07 17:56:37.606523,307417,1667968346,1667969347,-1.0736,0.111264,0.121024,0.14,5.4775,-8.18125,42.784,2.608,56.608,concentric,3,3.0,23301.0,330412.0,298206.0,349047.0,304703.0
2026-04-07 17:56:37.608241,307418,1667977339,1667978208,-1.0736,0.111264,0.121024,0.1575,5.9325,-7.86625,42.784,2.608,56.608,concentric,3,3.0,23301.0,330412.0,298206.0,349047.0,304703.0
2026-04-07 17:56:37.610666,307419,1667986856,1667989091,-1.057984,0.095648,0.11712,0.55125,5.6175,-7.88375,42.2,2.928,57.768,concentric,3,3.0,23301.0,330412.0,298206.0,349047.0,304703.0
2026-04-07 17:56:37.640958,307420,1668001368,1668001994,-1.057984,0.095648,0.11712,2.05625,5.43375,-7.805,42.2,2.928,57.768,concentric,3,3.0,23301.0,330412.0,298206.0,349047.0,304703.0
2026-04-07 17:56:37.643214,307421,1668010797,1668012757,-1.052128,0.099552,0.113216,3.80625,5.0225,-7.37625,42.920002,2.416,56.480003,concentric,3,3.0,23301.0,330412.0,298206.0,349047.0,304703.0
2026-04-07 17:56:37.647849,307422,1668019711,1668021432,-1.052128,0.099552,0.113216,5.36375,3.98125,-6.685,42.920002,2.416,56.480003,concentric,3,3.0,23301.0,330412.0,298206.0,349047.0,304703.0
2026-04-07 17:56:37.650266,307423,1668028648,1668030179,-1.057984,0.0976,0.113216,6.41375,4.08625,-6.195,42.920002,2.112,56.872,concentric,3,3.0,23301.0,330412.0,298206.0,349047.0,304703.0
2026-04-07 17:56:37.709735,307424,1668043192,1668045164,-1.057984,0.0976,0.113216,6.9825,4.7775,-4.94375,42.920002,2.112,56.872,concentric,3,3.0,23301.0,330412.0,298206.0,349047.0,304703.0
2026-04-07 17:56:37.712297,307425,1668052116,1668053853,-1.061888,0.115168,0.101504,7.60375,4.73375,-4.64625,43.248,2.6,57.576004,concentric,3,3.0,23301.0,330412.0,298206.0,349047.0,304703.0
2026-04-07 17:56:37.716789,307426,1668061024,1668062534,-1.061888,0.115168,0.101504,6.99125,4.4625,-4.41875,43.248,2.6,57.576004,concentric,3,3.0,23301.0,330412.0,298206.0,349047.0,304703.0
2026-04-07 17:56:37.740830,307436,1668075895,1668077497,-1.042368,0.11712,0.109312,5.2675,4.66375,-4.655,43.432003,2.368,56.664,concentric,3,3.0,23372.0,330943.0,298569.0,349404.0,305016.0
2026-04-07 17:56:37.743245,307437,1668084840,1668086233,-1.026752,0.10736,0.122976,3.185,4.795,-4.03375,43.376003,2.608,57.888004,concentric,3,3.0,23372.0,330943.0,298569.0,349404.0,305016.0
2026-04-07 17:56:37.744827,307438,1668093736,1668094914,-1.026752,0.10736,0.122976,2.625,5.38125,-3.885,43.376003,2.608,57.888004,concentric,3,3.0,23372.0,330943.0,298569.0,349404.0,305016.0
2026-04-07 17:56:37.749016,307439,1668108398,1668109859,-1.036512,0.093696,0.148352,1.96875,4.80375,-4.06,43.296,2.272,56.440002,concentric,3,3.0,23372.0,330943.0,298569.0,349404.0,305016.0
2026-04-07 17:56:37.750754,307440,1668117340,1668118630,-1.036512,0.093696,0.148352,0.49,5.11875,-3.73625,43.296,2.272,56.440002,concentric,3,3.0,23372.0,330943.0,298569.0,349404.0,305016.0
2026-04-07 17:56:37.752366,307441,1668126387,1668127346,-1.046272,0.091744,0.128832,0.0525,4.4625,-3.63125,42.920002,2.416,56.384003,concentric,3,3.0,23372.0,330943.0,298569.0,349404.0,305016.0
2026-04-07 17:56:37.756736,307442,1668135306,1668136063,-1.046272,0.091744,0.128832,0.21875,4.27875,-2.70375,42.920002,2.416,56.384003,concentric,3,3.0,23372.0,330943.0,298569.0,349404.0,305016.0
2026-04-07 17:56:37.787209,307443,1668150205,1668151003,-1.03456,0.101504,0.124928,1.32125,4.0775,-2.9225,42.744003,2.576,56.656002,concentric,3,3.0,23372.0,330943.0,298569.0,349404.0,305016.0
2026-04-07 17:56:37.789453,307444,1668159116,1668159704,-1.03456,0.101504,0.124928,2.51125,4.20875,-3.78875,42.744003,2.576,56.656002,concentric,3,3.0,23372.0,330943.0,298569.0,349404.0,305016.0
2026-04-07 17:56:37.822120,307455,1668168405,1668170686,-1.018944,0.115168,0.124928,3.54375,4.17375,-4.445,42.928,2.216,56.904003,concentric,3,3.0,23600.0,333186.0,300613.0,351766.0,307096.0
2026-04-07 17:56:37.823673,307456,1668183097,1668183581,-1.018944,0.115168,0.124928,3.52625,3.84125,-4.445,42.928,2.216,56.904003,concentric,3,3.0,23600.0,333186.0,300613.0,351766.0,307096.0
2026-04-07 17:56:37.827872,307457,1668192457,1668194412,-1.036512,0.103456,0.113216,1.07625,3.66625,-4.48,42.88,2.432,55.584003,concentric,3,3.0,23600.0,333186.0,300613.0,351766.0,307096.0
2026-04-07 17:56:37.829583,307458,1668201440,1668203137,-1.036512,0.103456,0.113216,-1.1375,3.77125,-4.69,42.88,2.432,55.584003,concentric,3,3.0,23600.0,333186.0,300613.0,351766.0,307096.0
2026-04-07 17:56:37.831066,307459,1668210377,1668211861,-1.056032,0.060512,0.089792,-0.525,3.61375,-3.85,42.912003,1.72,58.816,concentric,3,3.0,23600.0,333186.0,300613.0,351766.0,307096.0
2026-04-07 17:56:37.862854,307460,1668224908,1668226812,-1.057984,0.052704,0.080032,2.975,2.9575,-3.6575,42.912003,3.768,56.384003,concentric,3,3.0,23600.0,333186.0,300613.0,351766.0,307096.0
2026-04-07 17:56:37.875543,307461,1668233813,1668235494,-1.057984,0.052704,0.080032,5.705,3.14125,-2.765,43.656002,2.072,56.384003,concentric,3,3.0,23600.0,333186.0,300613.0,351766.0,307096.0
2026-04-07 17:56:37.876763,307462,1668242738,1668244175,-1.057984,0.052704,0.080032,7.5425,3.4825,-2.87875,43.656002,2.072,56.384003,concentric,3,3.0,23600.0,333186.0,300613.0,351766.0,307096.0
2026-04-07 17:56:37.879467,307463,1668257304,1668259033,-1.05408,0.050752,0.085888,9.70375,3.75375,-3.5175,43.304,1.952,56.568,concentric,3,3.0,23600.0,333186.0,300613.0,351766.0,307096.0
2026-04-07 17:56:37.905770,307473,1668266199,1668268195,-1.046272,0.066368,0.11712,11.3225,3.7275,-2.7125,42.936,1.416,58.256004,concentric,3,3.0,24190.0,338409.0,305152.0,357024.0,311756.0
2026-04-07 17:56:37.908192,307474,1668275178,1668276953,-1.046272,0.066368,0.11712,13.13375,2.91375,-2.3975,42.936,1.416,58.256004,concentric,3,3.0,24190.0,338409.0,305152.0,357024.0,311756.0
2026-04-07 17:56:37.909813,307475,1668289663,1668291946,-1.052128,0.111264,0.134688,15.1725,2.9925,-2.415,43.160004,1.128,57.264004,concentric,3,3.0,24190.0,338409.0,305152.0,357024.0,311756.0
2026-04-07 17:56:37.917781,307476,1668298605,1668300672,-1.052128,0.111264,0.134688,15.155,2.49375,-2.6775,43.160004,1.128,57.264004,concentric,3,3.0,24190.0,338409.0,305152.0,357024.0,311756.0
2026-04-07 17:56:37.948327,307477,1668307526,1668309353,-1.091168,0.13664,0.10736,12.3375,2.1875,-2.54625,43.224003,1.432,57.704002,concentric,3,3.0,24190.0,338409.0,305152.0,357024.0,311756.0
2026-04-07 17:56:37.953007,307478,1668316455,1668318034,-1.091168,0.13664,0.10736,7.56,2.065,-2.31875,43.224003,1.432,57.704002,concentric,3,3.0,24190.0,338409.0,305152.0,357024.0,311756.0
2026-04-07 17:56:37.955716,307479,1668330924,1668332936,-1.085312,0.13664,0.093696,2.70375,2.63375,-2.8875,43.576,1.376,57.392002,concentric,3,3.0,24190.0,338409.0,305152.0,357024.0,311756.0
2026-04-07 17:56:37.989669,307480,1668339854,1668341666,-1.085312,0.13664,0.093696,-0.32375,3.33375,-4.26125,43.576,1.376,57.392002,concentric,3,3.0,24190.0,338409.0,305152.0,357024.0,311756.0
2026-04-07 17:56:37.991996,307481,1668348861,1668350362,-1.089216,0.130784,0.093696,-1.715,4.90875,-5.43375,43.128002,1.16,58.272003,concentric,3,3.0,24190.0,338409.0,305152.0,357024.0,311756.0
2026-04-07 17:56:37.996579,307482,1668363415,1668365325,-1.089216,0.130784,0.093696,-2.82625,5.27625,-6.3,43.128002,1.16,58.272003,concentric,3,3.0,24190.0,338409.0,305152.0,357024.0,311756.0
2026-04-07 17:56:38.020452,307492,1668372521,1668374088,-1.0736,0.128832,0.128832,-3.3775,4.87375,-7.4375,43.432003,1.592,56.752003,concentric,3,3.0,24222.0,338661.0,305401.0,357335.0,312007.0
2026-04-07 17:56:38.024086,307493,1668381487,1668382764,-1.0736,0.128832,0.128832,-3.0975,4.34,-8.198751,43.432003,1.592,56.752003,concentric,3,3.0,24222.0,338661.0,305401.0,357335.0,312007.0
2026-04-07 17:56:38.025791,307494,1668395997,1668397755,-1.09312,0.0976,0.128832,-2.625,4.8825,-7.945,43.384003,1.36,58.272003,concentric,3,3.0,24222.0,338661.0,305401.0,357335.0,312007.0
2026-04-07 17:56:38.027335,307495,1668404986,1668406508,-1.09312,0.0976,0.128832,-2.31,5.15375,-7.95375,43.384003,1.36,58.272003,concentric,3,3.0,24222.0,338661.0,305401.0,357335.0,312007.0
2026-04-07 17:56:38.032675,307496,1668413949,1668415227,-1.08336,0.083936,0.10736,-0.455,4.40125,-8.07625,43.192,1.408,56.808002,concentric,3,3.0,24222.0,338661.0,305401.0,357335.0,312007.0
2026-04-07 17:56:38.061346,307497,1668422882,1668424009,-1.08336,0.083936,0.10736,2.38875,3.885,-8.1375,43.192,1.408,56.808002,concentric,3,3.0,24222.0,338661.0,305401.0,357335.0,312007.0
2026-04-07 17:56:38.065764,307498,1668437383,1668438906,-1.08336,0.099552,0.081984,4.36625,4.095,-7.2975,43.08,1.448,57.392002,concentric,3,3.0,24222.0,338661.0,305401.0,357335.0,312007.0
2026-04-07 17:56:38.067233,307499,1668446310,1668447598,-1.077504,0.083936,0.070272,3.91125,4.17375,-6.5625,43.056004,1.808,56.808002,concentric,3,3.0,24222.0,338661.0,305401.0,357335.0,312007.0
2026-04-07 17:56:38.074304,307500,1668455227,1668456302,-1.077504,0.083936,0.070272,2.59875,4.29625,-4.6725,43.056004,1.808,56.808002,concentric,3,3.0,24222.0,338661.0,305401.0,357335.0,312007.0
2026-04-07 17:56:38.138260,307511,1668470129,1668471434,-1.071648,0.080032,0.089792,2.54625,3.82375,-3.2725,43.320004,1.504,58.368004,concentric,3,3.0,24431.0,340683.0,307170.0,359398.0,313742.0
2026-04-07 17:56:38.139878,307512,1668479175,1668480211,-1.071648,0.080032,0.089792,2.695,3.36,-2.7125,43.320004,1.504,58.368004,concentric,3,3.0,24431.0,340683.0,307170.0,359398.0,313742.0
2026-04-07 17:56:38.144125,307513,1668488086,1668488915,-1.067744,0.101504,0.101504,3.3775,2.80875,-2.03875,43.224003,0.912,57.464005,concentric,3,3.0,24431.0,340683.0,307170.0,359398.0,313742.0
2026-04-07 17:56:38.145738,307514,1668502614,1668503806,-1.067744,0.101504,0.101504,2.87,2.6075,-2.70375,43.224003,0.912,57.464005,concentric,3,3.0,24431.0,340683.0,307170.0,359398.0,313742.0
2026-04-07 17:56:38.148193,307515,1668511588,1668512627,-1.065792,0.10736,0.113216,0.98875,2.44125,-2.61625,43.88,1.008,57.120003,concentric,3,3.0,24431.0,340683.0,307170.0,359398.0,313742.0
2026-04-07 17:56:38.149842,307516,1668520653,1668521354,-1.065792,0.10736,0.113216,-1.0325,2.5375,-2.59875,43.88,1.008,57.120003,concentric,3,3.0,24431.0,340683.0,307170.0,359398.0,313742.0
2026-04-07 17:56:38.153934,307517,1668529989,1668532113,-1.042368,0.095648,0.105408,-2.54625,1.79375,-2.8,42.352,1.128,58.328003,concentric,3,3.0,24431.0,340683.0,307170.0,359398.0,313742.0
2026-04-07 17:56:38.160208,307518,1668544610,1668545045,-1.042368,0.095648,0.105408,-4.06,0.8575,-2.17875,42.352,1.128,58.328003,concentric,3,3.0,24431.0,340683.0,307170.0,359398.0,313742.0
2026-04-07 17:56:38.188758,307519,1668553944,1668555831,-1.05408,0.081984,0.08784,-4.48875,1.05875,-3.64,43.456,1.128,57.72,concentric,3,3.0,24431.0,340683.0,307170.0,359398.0,313742.0
2026-04-07 17:56:38.193364,307520,1668562887,1668564521,-1.05408,0.081984,0.08784,-2.94875,1.60125,-3.4825,43.456,1.128,57.72,concentric,3,3.0,24431.0,340683.0,307170.0,359398.0,313742.0
2026-04-07 17:56:38.217288,307530,1668577453,1668579485,-1.04432,0.093696,0.095648,-0.53375,1.5575,-3.0625,43.696003,1.472,57.488003,concentric,3,3.0,24641.0,342484.0,308662.0,361123.0,315229.0
2026-04-07 17:56:38.221531,307531,1668586422,1668588228,-1.091168,0.113216,0.08784,1.21625,0.98,-3.26375,43.696003,1.472,58.472004,concentric,3,3.0,24641.0,342484.0,308662.0,361123.0,315229.0
2026-04-07 17:56:38.223231,307532,1668595406,1668596969,-1.079456,0.113216,0.08784,3.325,0.98875,-3.0975,42.632004,1.008,58.472004,concentric,3,3.0,24641.0,342484.0,308662.0,361123.0,315229.0
2026-04-07 17:56:38.224866,307533,1668604421,1668605701,-1.079456,0.113216,0.08784,3.57,1.72375,-4.2875,42.632004,1.008,58.472004,concentric,3,3.0,24641.0,342484.0,308662.0,361123.0,315229.0
2026-04-07 17:56:38.286395,307534,1668618948,1668620659,-1.061888,0.119072,0.11712,2.8175,2.345,-5.81,43.024002,0.6,58.528004,concentric,3,3.0,24641.0,342484.0,308662.0,361123.0,315229.0
2026-04-07 17:56:38.289455,307535,1668627842,1668629343,-1.095072,0.109312,0.115168,1.0675,2.61625,-5.88875,43.504,1.264,56.912003,concentric,3,3.0,24641.0,342484.0,308662.0,361123.0,315229.0
2026-04-07 17:56:38.291022,307536,1668636777,1668638018,-1.095072,0.109312,0.115168,-0.455,3.17625,-6.055,43.504,1.264,56.912003,concentric,3,3.0,24641.0,342484.0,308662.0,361123.0,315229.0
2026-04-07 17:56:38.295384,307537,1668651302,1668653017,-1.114592,0.093696,0.124928,-1.225,2.7125,-5.915,43.472004,1.376,57.488003,concentric,3,3.0,24641.0,342484.0,308662.0,361123.0,315229.0
2026-04-07 17:56:38.297087,307538,1668660204,1668661700,-1.114592,0.093696,0.124928,-1.44375,2.80875,-5.43375,43.472004,1.376,57.488003,concentric,3,3.0,24641.0,342484.0,308662.0,361123.0,315229.0
2026-04-07 17:56:38.319947,307548,1668669137,1668670408,-1.134112,0.085888,0.095648,-0.1925,2.5725,-4.85625,43.672,1.08,57.536003,concentric,3,3.0,24920.0,344624.0,310482.0,363192.0,316972.0
2026-04-07 17:56:38.330318,307549,1668683662,1668685344,-1.134112,0.085888,0.095648,1.54875,2.31,-4.9175,43.672,1.08,57.536003,concentric,3,3.0,24920.0,344624.0,310482.0,363192.0,316972.0
2026-04-07 17:56:38.331948,307550,1668692654,1668694083,-1.14192,0.105408,0.095648,4.41,2.80875,-4.0425,42.824,0.728,58.752003,concentric,3,3.0,24920.0,344624.0,310482.0,363192.0,316972.0
2026-04-07 17:56:38.334457,307551,1668701652,1668702790,-1.14192,0.105408,0.095648,6.32625,3.7275,-3.78,42.824,0.728,58.752003,concentric,3,3.0,24920.0,344624.0,310482.0,363192.0,316972.0
2026-04-07 17:56:38.336168,307552,1668710600,1668711519,-1.153632,0.138592,0.109312,5.66125,4.5675,-4.76875,43.096,0.848,58.680004,concentric,3,3.0,24920.0,344624.0,310482.0,363192.0,316972.0
2026-04-07 17:56:38.342702,307553,1668725117,1668726526,-1.153632,0.138592,0.109312,4.10375,4.71625,-5.31125,43.096,0.848,58.680004,concentric,3,3.0,24920.0,344624.0,310482.0,363192.0,316972.0
2026-04-07 17:56:38.371249,307554,1668734087,1668735277,-1.184864,0.13664,0.11712,1.42625,4.6375,-5.8625,42.864002,0.432,59.08,concentric,3,3.0,24920.0,344624.0,310482.0,363192.0,316972.0
2026-04-07 17:56:38.382886,307555,1668743018,1668743961,-1.184864,0.13664,0.11712,-0.6475,5.34625,-6.4225,42.864002,0.432,59.08,concentric,3,3.0,24920.0,344624.0,310482.0,363192.0,316972.0
2026-04-07 17:56:38.384487,307556,1668757496,1668758884,-1.231712,0.134688,0.105408,-1.505,6.335,-6.74625,43.072002,0.8,57.736004,concentric,3,3.0,24920.0,344624.0,310482.0,363192.0,316972.0
2026-04-07 17:56:38.387057,307557,1668766420,1668767502,-1.231712,0.134688,0.105408,-1.11125,7.105,-7.74375,43.072002,0.8,57.736004,concentric,3,3.0,24920.0,344624.0,310482.0,363192.0,316972.0
2026-04-07 17:56:38.414452,307568,1668775433,1668776260,-1.23952,0.11712,0.113216,-0.28,6.95625,-8.47,43.016003,0.96,57.624004,concentric,3,3.0,24907.0,344222.0,310041.0,362593.0,316383.0
2026-04-07 17:56:38.417307,307569,1668789987,1668791158,-1.24928,0.099552,0.124928,2.6075,7.4725,-8.32125,42.36,0.56,58.816,concentric,3,3.0,24907.0,344222.0,310041.0,362593.0,316383.0
2026-04-07 17:56:38.418567,307570,1668798947,1668799892,-1.24928,0.099552,0.124928,5.66125,7.77875,-9.42375,42.36,0.56,58.816,concentric,3,3.0,24907.0,344222.0,310041.0,362593.0,316383.0
2026-04-07 17:56:38.425232,307571,1668807880,1668808644,-1.237568,0.093696,0.12688,7.84,7.0175,-8.96875,43.440002,0.896,57.520004,concentric,3,3.0,24907.0,344222.0,310041.0,362593.0,316383.0
2026-04-07 17:56:38.453770,307572,1668817254,1668819401,-1.237568,0.093696,0.12688,9.8175,5.1275,-9.45,43.440002,0.896,57.520004,concentric,3,3.0,24907.0,344222.0,310041.0,362593.0,316383.0
2026-04-07 17:56:38.458273,307573,1668831774,1668832287,-1.286368,0.103456,0.138592,11.64625,3.955,-8.89875,43.424004,0.872,57.504,concentric,3,3.0,24907.0,344222.0,310041.0,362593.0,316383.0
2026-04-07 17:56:38.460610,307574,1668841268,1668843054,-1.286368,0.103456,0.138592,12.94125,3.4475,-8.49625,43.424004,0.872,57.504,concentric,3,3.0,24907.0,344222.0,310041.0,362593.0,316383.0
2026-04-07 17:56:38.489984,307575,1668850245,1668851783,-1.32736,0.105408,0.124928,12.705,3.6575,-6.93,43.608,0.528,57.624004,concentric,3,3.0,24907.0,344222.0,310041.0,362593.0,316383.0
2026-04-07 17:56:38.494340,307576,1668864750,1668866670,-1.32736,0.105408,0.124928,11.55,4.2,-6.01125,43.608,0.528,57.624004,concentric,3,3.0,24907.0,344222.0,310041.0,362593.0,316383.0
2026-04-07 17:56:38.521218,307586,1668874310,1668875839,-1.341024,0.103456,0.134688,11.8125,3.63125,-7.21875,43.192,0.488,57.960003,concentric,3,3.0,24831.0,343644.0,309510.0,361976.0,315913.0
2026-04-07 17:56:38.525373,307587,1668883247,1668884577,-1.341024,0.103456,0.134688,13.335,2.31875,-8.5575,43.192,0.488,57.960003,concentric,3,3.0,24831.0,343644.0,309510.0,361976.0,315913.0
2026-04-07 17:56:38.527036,307588,1668892263,1668893278,-1.331264,0.085888,0.160064,14.7875,1.47,-7.9275,42.832,0.368,58.848003,concentric,3,3.0,24831.0,343644.0,309510.0,361976.0,315913.0
2026-04-07 17:56:38.528716,307589,1668906763,1668908174,-1.331264,0.085888,0.160064,15.015,-0.74375,-6.76375,42.832,0.368,58.848003,concentric,3,3.0,24831.0,343644.0,309510.0,361976.0,315913.0
2026-04-07 17:56:38.532751,307590,1668915696,1668916861,-1.321504,0.060512,0.160064,14.77875,-3.0625,-5.43375,43.032,0.656,59.288002,concentric,3,3.0,24831.0,343644.0,309510.0,361976.0,315913.0
