pc_time,serial_num,sensor_ts,host_ts,ax,ay,az,gx,gy,gz,mx,my,mz,phase,rpe,weight_kg,ppg_a,ppg_b,ppg_c,ppg_d,ppg_e
2026-04-09 22:25:47.921506,406403,2477853865,2477855396,-1.085312,0.128832,0.021472,-1.11125,3.87625,-5.50375,26.096,-0.904,18.368,inter_set_rest,6,5.0,26258.0,403431.0,167688.0,32111.0,113.0
2026-04-09 22:25:47.953945,406414,2477862996,2477864083,-1.085312,0.128832,0.021472,-0.245,3.68375,-5.38125,26.096,-0.904,18.368,inter_set_rest,6,5.0,26249.0,403431.0,167675.0,32032.0,104.0
2026-04-09 22:25:47.956301,406415,2477871930,2477872814,-1.085312,0.128832,0.021472,0.53375,3.115,-5.3725,26.096,-0.904,18.368,inter_set_rest,6,5.0,26249.0,403431.0,167675.0,32032.0,104.0
2026-04-09 22:25:47.958777,406416,2477880883,2477881523,-1.079456,0.134688,0.023424,-0.28875,2.9575,-5.88,26.2,-1.352,21.216002,inter_set_rest,6,5.0,26249.0,403431.0,167675.0,32032.0,104.0
2026-04-09 22:25:47.961158,406417,2477895789,2477896479,-1.089216,0.124928,0.00976,-1.77625,3.4125,-5.775,26.368002,-1.976,19.528002,inter_set_rest,6,5.0,26249.0,403431.0,167675.0,32032.0,104.0
2026-04-09 22:25:47.963730,406418,2477905117,2477907276,-1.089216,0.124928,0.00976,-3.6925,3.19375,-6.32625,26.368002,-1.976,19.528002,inter_set_rest,6,5.0,26249.0,403431.0,167675.0,32032.0,104.0
2026-04-09 22:25:47.966239,406419,2477914179,2477915993,-1.097024,0.10736,0.013664,-5.57375,3.0625,-6.36125,26.088001,-1.008,20.208,inter_set_rest,6,5.0,26249.0,403431.0,167675.0,32032.0,104.0
2026-04-09 22:25:47.971430,406420,2477928700,2477930929,-1.097024,0.10736,0.013664,-6.4225,2.93125,-5.6875,26.088001,-1.008,20.208,inter_set_rest,6,5.0,26249.0,403431.0,167675.0,32032.0,104.0
2026-04-09 22:25:48.002347,406421,2477937599,2477939613,-1.089216,0.122976,0.00976,-6.5275,2.21375,-5.73125,25.344002,-1.6,19.312,inter_set_rest,6,5.0,26249.0,403431.0,167675.0,32032.0,104.0
2026-04-09 22:25:48.004703,406422,2477946549,2477948328,-1.089216,0.122976,0.00976,-4.7425,2.51125,-5.48625,25.344002,-1.6,19.312,inter_set_rest,6,5.0,26249.0,403431.0,167675.0,32032.0,104.0
2026-04-09 22:25:48.009358,406423,2477955495,2477957045,-1.065792,0.124928,0.013664,-3.49125,2.5725,-4.94375,26.52,-1.36,18.416,inter_set_rest,6,5.0,26249.0,403431.0,167675.0,32032.0,104.0
2026-04-09 22:25:48.049261,406433,2477970109,2477971991,-1.065792,0.124928,0.013664,-4.24375,2.59875,-5.22375,26.52,-1.36,18.416,inter_set_rest,6,5.0,26284.0,403431.0,167677.0,32085.0,123.0
2026-04-09 22:25:48.051021,406434,2477979190,2477980740,-1.079456,0.113216,0.007808,-4.68125,2.03875,-5.355,25.744001,-0.88,19.504002,inter_set_rest,6,5.0,26284.0,403431.0,167677.0,32085.0,123.0
2026-04-09 22:25:48.052556,406435,2477988130,2477989458,-1.079456,0.113216,0.007808,-5.01375,2.14375,-5.5475,25.744001,-0.88,19.504002,inter_set_rest,6,5.0,26284.0,403431.0,167677.0,32085.0,123.0
2026-04-09 22:25:48.056726,406436,2478002646,2478004413,-1.071648,0.119072,0.011712,-4.59375,1.58375,-5.50375,26.328001,-0.752,18.232,inter_set_rest,6,5.0,26284.0,403431.0,167677.0,32085.0,123.0
2026-04-09 22:25:48.057806,406437,2478011801,2478013343,-1.071648,0.119072,0.011712,-4.27875,1.575,-5.18,26.328001,-0.752,18.232,inter_set_rest,6,5.0,26284.0,403431.0,167677.0,32085.0,123.0
2026-04-09 22:25:48.062893,406438,2478020767,2478022059,-1.065792,0.124928,0.01952,-3.24625,2.2225,-5.53,25.048,-1.576,19.408,inter_set_rest,6,5.0,26284.0,403431.0,167677.0,32085.0,123.0
2026-04-09 22:25:48.106173,406439,2478035305,2478037004,-1.067744,0.109312,0.007808,-3.49125,1.8025,-4.9525,26.216002,-1.216,16.856,inter_set_rest,6,5.0,26284.0,403431.0,167677.0,32085.0,123.0
2026-04-09 22:25:48.108464,406440,2478044221,2478045713,-1.067744,0.109312,0.007808,-3.185,1.93375,-4.73375,26.216002,-1.216,16.856,inter_set_rest,6,5.0,26284.0,403431.0,167677.0,32085.0,123.0
2026-04-09 22:25:48.113128,406441,2478053160,2478054450,-1.067744,0.109312,0.017568,-2.79125,2.23125,-4.4975,26.216002,-1.216,16.856,inter_set_rest,6,5.0,26284.0,403431.0,167677.0,32085.0,123.0
2026-04-09 22:25:48.137260,406451,2478062660,2478063262,-1.059936,0.121024,0.017568,-1.58375,2.6075,-4.47125,26.04,-1.12,18.752,inter_set_rest,6,5.0,26253.0,403431.0,167946.0,32316.0,123.0
2026-04-09 22:25:48.138810,406452,2478077650,2478078171,-1.056032,0.122976,0.023424,-1.39125,2.23125,-5.67,26.248001,-1.384,18.880001,inter_set_rest,6,5.0,26253.0,403431.0,167946.0,32316.0,123.0
2026-04-09 22:25:48.143037,406453,2478087088,2478089028,-1.056032,0.122976,0.023424,-3.08875,1.70625,-5.13625,26.248001,-1.384,18.880001,inter_set_rest,6,5.0,26253.0,403431.0,167946.0,32316.0,123.0
2026-04-09 22:25:48.144677,406454,2478096114,2478097837,-1.065792,0.113216,0.021472,-4.99625,1.33,-4.55,26.312002,-1.752,18.6,inter_set_rest,6,5.0,26253.0,403431.0,167946.0,32316.0,123.0
2026-04-09 22:25:48.146276,406455,2478105112,2478106553,-1.065792,0.113216,0.021472,-5.55625,1.05,-4.1825,26.312002,-1.752,18.6,inter_set_rest,6,5.0,26253.0,403431.0,167946.0,32316.0,123.0
2026-04-09 22:25:48.176513,406456,2478119628,2478121465,-1.06384,0.130784,0.03904,-5.10125,0.7175,-3.21125,26.488,-1.32,18.024,inter_set_rest,6,5.0,26253.0,403431.0,167946.0,32316.0,123.0
2026-04-09 22:25:48.180876,406457,2478128556,2478130235,-1.06384,0.130784,0.03904,-3.92875,0.77875,-3.4475,26.488,-1.32,18.024,inter_set_rest,6,5.0,26253.0,403431.0,167946.0,32316.0,123.0
2026-04-09 22:25:48.186660,406458,2478137570,2478138935,-1.056032,0.128832,0.00976,-2.555,0.86625,-3.99,26.432001,-1.576,18.256,inter_set_rest,6,5.0,26253.0,403431.0,167946.0,32316.0,123.0
2026-04-09 22:25:48.215301,406459,2478152160,2478153859,-1.056032,0.128832,0.00976,-2.52875,0.9625,-3.955,26.432001,-1.576,18.256,inter_set_rest,6,5.0,26253.0,403431.0,167946.0,32316.0,123.0
2026-04-09 22:25:48.249333,406470,2478161282,2478162625,-1.06384,0.122976,0.011712,-2.77375,0.1225,-4.0775,26.072,-1.432,18.568,inter_set_rest,6,5.0,26209.0,403431.0,168415.0,32677.0,129.0
2026-04-09 22:25:48.251043,406471,2478170275,2478171356,-1.06384,0.122976,0.011712,-2.31,-0.5425,-3.38625,26.072,-1.432,18.568,inter_set_rest,6,5.0,26209.0,403431.0,168415.0,32677.0,129.0
2026-04-09 22:25:48.253470,406472,2478179273,2478180092,-1.059936,0.134688,0.03904,-0.805,-0.56875,-3.8325,26.136002,-1.408,18.184,inter_set_rest,6,5.0,26209.0,403431.0,168415.0,32677.0,129.0
2026-04-09 22:25:48.255067,406473,2478193856,2478195126,-1.059936,0.150304,0.040992,0.4375,-1.3125,-3.71875,26.136002,-1.408,18.184,inter_set_rest,6,5.0,26209.0,403431.0,168415.0,32677.0,129.0
2026-04-09 22:25:48.259258,406474,2478202908,2478203871,-1.061888,0.142496,0.040992,1.4525,-1.37375,-3.3425,26.480001,-1.656,18.128,inter_set_rest,6,5.0,26209.0,403431.0,168415.0,32677.0,129.0
2026-04-09 22:25:48.261746,406475,2478211937,2478212636,-1.061888,0.142496,0.040992,2.98375,-1.9775,-3.56125,26.480001,-1.656,18.128,inter_set_rest,6,5.0,26209.0,403431.0,168415.0,32677.0,129.0
2026-04-09 22:25:48.290252,406476,2478226902,2478227610,-1.057984,0.163968,0.042944,3.42125,-1.96875,-3.52625,25.824001,-1.752,20.136002,inter_set_rest,6,5.0,26209.0,403431.0,168415.0,32677.0,129.0
2026-04-09 22:25:48.294768,406477,2478236246,2478238386,-1.067744,0.15616,0.015616,2.38,-1.82875,-3.57,26.344002,-1.824,19.056002,inter_set_rest,6,5.0,26209.0,403431.0,168415.0,32677.0,129.0
2026-04-09 22:25:48.297294,406478,2478245902,2478247190,-1.067744,0.15616,0.015616,0.30625,-1.9425,-4.0075,26.344002,-1.824,19.056002,inter_set_rest,6,5.0,26209.0,403431.0,168415.0,32677.0,129.0
2026-04-09 22:25:48.298871,406479,2478254877,2478255979,-1.091168,0.130784,0.013664,-1.1375,-2.1,-4.2875,26.384,-1.672,18.864,inter_set_rest,6,5.0,26209.0,403431.0,168415.0,32677.0,129.0
2026-04-09 22:25:48.325540,406489,2478269800,2478271469,-1.091168,0.130784,0.013664,-0.1925,-3.47375,-4.15625,26.384,-1.672,18.864,inter_set_rest,6,5.0,26119.0,403431.0,169008.0,33251.0,150.0
2026-04-09 22:25:48.327936,406490,2478278906,2478280208,-1.06384,0.144448,0.033184,2.31875,-4.48875,-3.42125,26.104002,-1.168,20.272001,inter_set_rest,6,5.0,26119.0,403431.0,169008.0,33251.0,150.0
2026-04-09 22:25:48.337934,406491,2478287866,2478288940,-1.06384,0.144448,0.033184,4.40125,-4.82125,-2.45,26.104002,-1.168,20.272001,inter_set_rest,6,5.0,26119.0,403431.0,169008.0,33251.0,150.0
2026-04-09 22:25:48.344185,406492,2478296803,2478297620,-1.06384,0.140544,0.033184,4.095,-5.06625,-1.4875,26.696001,-1.64,19.592001,inter_set_rest,6,5.0,26119.0,403431.0,169008.0,33251.0,150.0
2026-04-09 22:25:48.406278,406493,2478311324,2478312549,-1.06384,0.140544,0.033184,3.325,-4.97,-0.53375,26.696001,-1.64,19.592001,inter_set_rest,6,5.0,26119.0,403431.0,169008.0,33251.0,150.0
2026-04-09 22:25:48.414361,406494,2478320267,2478321255,-1.067744,0.130784,0.017568,1.32125,-4.96125,0.035,26.672,-2.12,19.704,inter_set_rest,6,5.0,26119.0,403431.0,169008.0,33251.0,150.0
2026-04-09 22:25:48.416075,406495,2478329196,2478329943,-1.067744,0.130784,0.017568,-0.805,-4.7075,0.5775,26.672,-2.12,19.704,inter_set_rest,6,5.0,26119.0,403431.0,169008.0,33251.0,150.0
2026-04-09 22:25:48.418487,406496,2478344148,2478344905,-1.085312,0.111264,0.00976,-3.92875,-4.69,0.53375,26.680002,-1.456,19.528002,inter_set_rest,6,5.0,26119.0,403431.0,169008.0,33251.0,150.0
2026-04-09 22:25:48.421027,406497,2478353651,2478355661,-1.085312,0.111264,0.00976,-7.32375,-4.445,0.79625,26.680002,-1.456,19.528002,inter_set_rest,6,5.0,26119.0,403431.0,169008.0,33251.0,150.0
2026-04-09 22:25:48.449794,406507,2478363150,2478364383,-1.10288,0.06832,0.050752,-7.65625,-3.99,1.96,26.52,-2.064,19.384,inter_set_rest,6,5.0,26244.0,403431.0,167911.0,32226.0,125.0
2026-04-09 22:25:48.452212,406508,2478372156,2478373070,-1.10288,0.06832,0.050752,-6.36125,-2.94,2.905,26.52,-2.064,19.384,inter_set_rest,6,5.0,26244.0,403431.0,167911.0,32226.0,125.0
2026-04-09 22:25:48.453824,406509,2478386751,2478388026,-1.089216,0.091744,0.023424,-5.53,-2.37125,3.61375,25.128,-2.064,21.464,inter_set_rest,6,5.0,26244.0,403431.0,167911.0,32226.0,125.0
2026-04-09 22:25:48.458155,406510,2478395778,2478396817,-1.098976,0.060512,-0.011712,-5.285,-2.09125,5.0575,26.768002,-2.072,19.376001,inter_set_rest,6,5.0,26244.0,403431.0,167911.0,32226.0,125.0
2026-04-09 22:25:48.459890,406511,2478404728,2478405550,-1.098976,0.060512,-0.011712,-8.575,-1.79375,6.78125,26.768002,-2.072,19.376001,inter_set_rest,6,5.0,26244.0,403431.0,167911.0,32226.0,125.0
2026-04-09 22:25:48.461282,406512,2478413693,2478414306,-1.098976,0.060512,-0.011712,-11.94375,-1.07625,9.98375,26.768002,-2.072,19.376001,inter_set_rest,6,5.0,26244.0,403431.0,167911.0,32226.0,125.0
2026-04-09 22:25:48.492485,406513,2478428582,2478429300,-1.10288,0.035136,-0.005856,-10.92,-1.23375,11.515,24.936,-1.976,21.544,concentric,6,5.0,26244.0,403431.0,167911.0,32226.0,125.0
2026-04-09 22:25:48.494713,406514,2478438011,2478440211,-1.071648,0.06832,0.027328,-7.3675,-0.805,12.3025,26.12,-3.04,19.408,concentric,6,5.0,26244.0,403431.0,167911.0,32226.0,125.0
2026-04-09 22:25:48.499260,406515,2478446932,2478448906,-1.071648,0.06832,0.027328,-3.15875,-0.07875,11.9,26.12,-3.04,19.408,concentric,6,5.0,26244.0,403431.0,167911.0,32226.0,125.0
2026-04-09 22:25:48.542629,406526,2478462026,2478464342,-1.075552,0.093696,0.02928,-0.1925,0.9975,11.15625,26.720001,-2.928,19.672,concentric,6,5.0,26366.0,403431.0,167118.0,31695.0,99.0
2026-04-09 22:25:48.546810,406527,2478471080,2478473143,-1.075552,0.093696,0.02928,1.5575,1.35625,10.99875,26.720001,-2.928,19.672,concentric,6,5.0,26366.0,403431.0,167118.0,31695.0,99.0
2026-04-09 22:25:48.548559,406528,2478479997,2478481851,-1.095072,0.08784,0.005856,1.9775,2.44125,10.01875,26.608002,-3.016,19.68,concentric,6,5.0,26366.0,403431.0,167118.0,31695.0,99.0
2026-04-09 22:25:48.550122,406529,2478488961,2478490596,-1.095072,0.08784,0.005856,2.87,2.73875,9.38,26.608002,-3.016,19.68,concentric,6,5.0,26366.0,403431.0,167118.0,31695.0,99.0
2026-04-09 22:25:48.554481,406530,2478503463,2478505526,-1.075552,0.07808,-0.011712,4.15625,2.45875,8.435,25.856,-3.256,20.688002,concentric,6,5.0,26366.0,403431.0,167118.0,31695.0,99.0
2026-04-09 22:25:48.558356,406531,2478512437,2478514320,-1.075552,0.07808,-0.011712,5.7925,2.54625,8.085,25.856,-3.256,20.688002,concentric,6,5.0,26366.0,403431.0,167118.0,31695.0,99.0
2026-04-09 22:25:48.564173,406532,2478521367,2478523034,-1.085312,0.103456,0.005856,7.2275,2.6425,7.39375,26.568,-3.416,19.552,concentric,6,5.0,26366.0,403431.0,167118.0,31695.0,99.0
2026-04-09 22:25:48.592728,406533,2478535844,2478537954,-1.09312,0.142496,0.02928,8.785,2.94,5.2325,26.736002,-3.6,20.448002,concentric,6,5.0,26366.0,403431.0,167118.0,31695.0,99.0
2026-04-09 22:25:48.598406,406534,2478544782,2478546667,-1.09312,0.142496,0.02928,9.09125,3.36,2.66875,26.736002,-3.6,20.448002,concentric,6,5.0,26366.0,403431.0,167118.0,31695.0,99.0
2026-04-09 22:25:48.600072,406535,2478553704,2478555386,-1.09312,0.142496,0.02928,8.1725,3.9025,1.2075,26.736002,-3.6,20.448002,concentric,6,5.0,26366.0,403431.0,167118.0,31695.0,99.0
2026-04-09 22:25:48.637100,406545,2478562671,2478564166,-1.100928,0.1464,0.02928,4.48,4.55,-0.735,26.936,-3.168,19.272001,concentric,6,5.0,26246.0,403431.0,167570.0,31965.0,115.0
2026-04-09 22:25:48.644281,406546,2478577254,2478579065,-1.14192,0.093696,0.0,-2.2575,5.13625,-3.7275,26.696001,-3.272,19.568,concentric,6,5.0,26246.0,403431.0,167570.0,31965.0,115.0
2026-04-09 22:25:48.645976,406547,2478586164,2478587788,-1.14192,0.093696,0.0,-7.81375,5.41625,-5.215,26.696001,-3.272,19.568,concentric,6,5.0,26246.0,403431.0,167570.0,31965.0,115.0
2026-04-09 22:25:48.647501,406548,2478595130,2478596571,-1.14192,0.093696,0.0,-9.66,5.64375,-4.6375,26.696001,-3.272,19.568,concentric,6,5.0,26246.0,403431.0,167570.0,31965.0,115.0
2026-04-09 22:25:48.653313,406549,2478609631,2478611522,-1.130208,0.060512,0.003904,-8.12,5.57375,-2.84375,25.272001,-3.416,20.472,concentric,6,5.0,26246.0,403431.0,167570.0,31965.0,115.0
2026-04-09 22:25:48.659530,406550,2478618571,2478620269,-1.104832,0.052704,0.00976,-4.1475,4.8475,-1.88125,25.320002,-3.432,19.256,concentric,6,5.0,26246.0,403431.0,167570.0,31965.0,115.0
2026-04-09 22:25:48.702424,406551,2478627479,2478628984,-1.104832,0.052704,0.00976,-0.97125,5.6,-0.9625,25.320002,-3.432,19.256,concentric,6,5.0,26246.0,403431.0,167570.0,31965.0,115.0
2026-04-09 22:25:48.704725,406552,2478641974,2478643902,-1.120448,0.08784,0.031232,2.65125,5.6525,-1.1375,26.328001,-3.632,19.384,concentric,6,5.0,26246.0,403431.0,167570.0,31965.0,115.0
2026-04-09 22:25:48.709298,406553,2478650895,2478652590,-1.120448,0.08784,0.031232,6.88625,6.04625,-1.82,26.328001,-3.632,19.384,concentric,6,5.0,26246.0,403431.0,167570.0,31965.0,115.0
2026-04-09 22:25:48.711049,406554,2478659810,2478661318,-1.065792,0.13664,0.02928,10.03625,6.72,-2.24875,26.28,-4.072,19.52,concentric,6,5.0,26246.0,403431.0,167570.0,31965.0,115.0
2026-04-09 22:25:48.744758,406564,2478674483,2478676273,-1.065792,0.13664,0.02928,7.245,7.76125,-2.80875,26.28,-4.072,19.52,concentric,6,5.0,26365.0,403431.0,166814.0,31396.0,97.0
2026-04-09 22:25:48.746328,406565,2478683398,2478685108,-1.069696,0.093696,0.013664,1.26,8.155,-2.0825,25.048,-3.8,18.960001,concentric,6,5.0,26365.0,403431.0,166814.0,31396.0,97.0
2026-04-09 22:25:48.750571,406566,2478692366,2478693831,-1.069696,0.093696,0.013664,-1.3475,8.58375,-1.1025,25.048,-3.8,18.960001,concentric,6,5.0,26365.0,403431.0,166814.0,31396.0,97.0
2026-04-09 22:25:48.752140,406567,2478701349,2478702546,-1.097024,0.044896,0.007808,1.75,7.44625,-1.68,25.656002,-3.728,18.888,concentric,6,5.0,26365.0,403431.0,166814.0,31396.0,97.0
2026-04-09 22:25:48.758031,406568,2478715878,2478717511,-1.097024,0.095648,0.017568,5.25875,5.94125,-2.66875,25.656002,-3.728,18.888,concentric,6,5.0,26365.0,403431.0,166814.0,31396.0,97.0
2026-04-09 22:25:48.767995,406569,2478724795,2478726226,-1.06384,0.095648,0.017568,8.4875,5.92375,-1.575,25.464,-4.464,21.464,concentric,6,5.0,26365.0,403431.0,166814.0,31396.0,97.0
2026-04-09 22:25:48.796625,406570,2478733800,2478734931,-1.06384,0.095648,0.017568,8.89875,5.74875,-3.07125,25.464,-4.464,21.464,concentric,6,5.0,26365.0,403431.0,166814.0,31396.0,97.0
2026-04-09 22:25:48.800999,406571,2478748285,2478749859,-1.098976,0.10736,0.021472,7.04375,6.3525,-5.41625,25.240002,-4.296,21.04,concentric,6,5.0,26365.0,403431.0,166814.0,31396.0,97.0
2026-04-09 22:25:48.802568,406572,2478757184,2478758603,-1.1224,0.08784,0.033184,6.37,7.42875,-6.46625,25.352001,-4.232,18.656,concentric,6,5.0,26365.0,403431.0,166814.0,31396.0,97.0
2026-04-09 22:25:48.833035,406582,2478766631,2478767348,-1.1224,0.08784,0.033184,5.52125,8.0675,-6.58875,25.352001,-4.232,18.656,concentric,6,5.0,26386.0,403431.0,166610.0,31210.0,90.0
2026-04-09 22:25:48.836152,406583,2478776042,2478778220,-1.1224,0.040992,0.005856,3.045,8.3825,-7.63875,25.352001,-4.232,18.656,concentric,6,5.0,26386.0,403431.0,166610.0,31210.0,90.0
2026-04-09 22:25:48.838044,406584,2478790616,2478791082,-1.108736,0.040992,0.005856,3.82375,7.9975,-7.77875,23.496,-4.032,20.400002,concentric,6,5.0,26386.0,403431.0,166610.0,31210.0,90.0
2026-04-09 22:25:48.861395,406585,2478799967,2478801948,-1.116544,0.027328,-0.040992,7.665,7.21875,-7.00875,25.376001,-4.312,18.648,concentric,6,5.0,26386.0,403431.0,166610.0,31210.0,90.0
2026-04-09 22:25:48.864771,406586,2478808902,2478810662,-1.116544,0.027328,-0.040992,10.605001,5.6525,-5.5825,25.376001,-4.312,18.648,concentric,6,5.0,26386.0,403431.0,166610.0,31210.0,90.0
2026-04-09 22:25:48.866323,406587,2478823414,2478825625,-1.104832,0.128832,0.062464,14.20125,4.94375,-5.48625,25.296001,-4.36,18.328001,concentric,6,5.0,26386.0,403431.0,166610.0,31210.0,90.0
2026-04-09 22:25:48.897639,406588,2478832358,2478834340,-1.104832,0.128832,0.062464,17.73625,6.51875,-7.14,25.296001,-4.36,18.328001,concentric,6,5.0,26386.0,403431.0,166610.0,31210.0,90.0
2026-04-09 22:25:48.901031,406589,2478841324,2478843033,-1.071648,0.173728,0.07808,16.47625,8.86375,-9.555,25.456001,-3.84,18.2,concentric,6,5.0,26386.0,403431.0,166610.0,31210.0,90.0
2026-04-09 22:25:48.902559,406590,2478850250,2478851757,-1.071648,0.173728,0.07808,9.45875,10.4825,-12.425,25.456001,-3.84,18.2,concentric,6,5.0,26386.0,403431.0,166610.0,31210.0,90.0
2026-04-09 22:25:48.934750,406601,2478865233,2478866707,-1.108736,0.132736,0.00976,1.79375,12.17125,-15.26875,25.008001,-4.432,17.776001,concentric,6,5.0,26375.0,403431.0,166612.0,31272.0,94.0
2026-04-09 22:25:48.940589,406602,2478874371,2478875526,-1.108736,0.132736,0.00976,-3.70125,12.69625,-16.10875,25.008001,-4.432,17.776001,concentric,6,5.0,26375.0,403431.0,166612.0,31272.0,94.0
2026-04-09 22:25:48.942323,406603,2478883313,2478884283,-1.153632,0.115168,-0.031232,-4.13875,12.8975,-15.855001,23.928001,-4.36,18.720001,concentric,6,5.0,26375.0,403431.0,166612.0,31272.0,94.0
2026-04-09 22:25:48.943845,406604,2478897823,2478899198,-1.136064,0.085888,0.083936,-3.2025,12.95,-15.190001,23.52,-4.392,18.704,concentric,6,5.0,26375.0,403431.0,166612.0,31272.0,94.0
2026-04-09 22:25:48.950684,406605,2478906898,2478907894,-1.136064,0.085888,0.083936,-2.98375,14.2275,-16.02125,23.52,-4.392,18.704,concentric,6,5.0,26375.0,403431.0,166612.0,31272.0,94.0
2026-04-09 22:25:49.002715,406606,2478915818,2478916657,-1.136064,0.085888,0.083936,-3.59625,13.78125,-17.7625,23.52,-4.392,18.704,concentric,6,5.0,26375.0,403431.0,166612.0,31272.0,94.0
2026-04-09 22:25:49.006337,406607,2478924755,2478925376,-1.097024,0.119072,0.027328,-2.72125,14.79625,-20.8775,23.36,-4.792,19.056002,concentric,6,5.0,26375.0,403431.0,166612.0,31272.0,94.0
2026-04-09 22:25:49.008793,406608,2478939665,2478940291,-1.145824,0.169824,-0.042944,-2.6425,14.56,-22.95125,24.616001,-4.352,17.656,concentric,6,5.0,26375.0,403431.0,166612.0,31272.0,94.0
2026-04-09 22:25:49.011280,406609,2478948885,2478951041,-1.145824,0.169824,-0.042944,-1.96,14.56,-23.28375,24.616001,-4.352,17.656,concentric,6,5.0,26375.0,403431.0,166612.0,31272.0,94.0
2026-04-09 22:25:49.013788,406610,2478957792,2478959722,-1.204384,0.150304,-0.025376,1.33875,13.13375,-24.395,24.28,-4.568,19.488,concentric,6,5.0,26375.0,403431.0,166612.0,31272.0,94.0
2026-04-09 22:25:49.038792,406620,2478972314,2478972684,-1.204384,0.150304,-0.025376,3.605,13.11625,-26.18875,24.28,-4.568,19.488,concentric,6,5.0,26418.0,403431.0,165992.0,30891.0,90.0
2026-04-09 22:25:49.041305,406621,2478981573,2478983464,-1.18096,0.105408,0.037088,0.7875,13.8425,-24.928751,23.104002,-4.344,18.144001,concentric,6,5.0,26418.0,403431.0,165992.0,30891.0,90.0
2026-04-09 22:25:49.044700,406622,2478990617,2478992224,-1.18096,0.105408,0.037088,-4.34875,13.51875,-24.78875,23.104002,-4.344,18.144001,concentric,6,5.0,26418.0,403431.0,165992.0,30891.0,90.0
2026-04-09 22:25:49.047118,406623,2478999561,2479001049,-1.167296,0.103456,0.0488,-9.8,12.71375,-25.92625,22.888,-4.288,17.968,concentric,6,5.0,26418.0,403431.0,165992.0,30891.0,90.0
2026-04-09 22:25:49.077367,406624,2479014213,2479015990,-1.167296,0.103456,0.0488,-9.86125,12.4775,-25.64625,22.888,-4.288,17.968,concentric,6,5.0,26418.0,403431.0,165992.0,30891.0,90.0
2026-04-09 22:25:49.078828,406625,2479023166,2479024702,-1.231712,0.148352,-0.052704,-7.93625,12.32875,-26.145,23.168001,-4.6,17.312,concentric,6,5.0,26418.0,403431.0,165992.0,30891.0,90.0
2026-04-09 22:25:49.084179,406626,2479032143,2479033412,-1.231712,0.148352,-0.052704,-5.4775,12.87125,-26.11,23.168001,-4.6,17.312,concentric,6,5.0,26418.0,403431.0,165992.0,30891.0,90.0
2026-04-09 22:25:49.090434,406627,2479046646,2479048374,-1.186816,0.177632,0.011712,-4.4975,14.21875,-25.87375,23.344002,-4.056,16.592001,concentric,6,5.0,26418.0,403431.0,165992.0,30891.0,90.0
2026-04-09 22:25:49.118971,406628,2479055583,2479057092,-1.186816,0.177632,0.011712,-5.31125,16.19625,-25.83,23.344002,-4.056,16.592001,concentric,6,5.0,26418.0,403431.0,165992.0,30891.0,90.0
2026-04-09 22:25:49.145214,406638,2479064515,2479065781,-1.13216,0.18544,0.066368,-6.34375,18.47125,-27.46625,22.792002,-4.192,17.400002,concentric,6,5.0,26567.0,403431.0,165108.0,30150.0,57.0
2026-04-09 22:25:49.149319,406639,2479079360,2479080733,-1.15168,0.115168,-0.021472,-10.64,21.09625,-28.735,22.744001,-4.752,16.112001,concentric,6,5.0,26567.0,403431.0,165108.0,30150.0,57.0
2026-04-09 22:25:49.151203,406640,2479088277,2479089436,-1.15168,0.115168,-0.021472,-18.7075,22.65375,-28.44625,22.744001,-4.752,16.112001,concentric,6,5.0,26567.0,403431.0,165108.0,30150.0,57.0
2026-04-09 22:25:49.152545,406641,2479097317,2479098182,-1.15168,0.115168,-0.089792,-22.39125,22.785,-28.25375,22.744001,-4.752,16.112001,concentric,6,5.0,26567.0,403431.0,165108.0,30150.0,57.0
2026-04-09 22:25:49.156855,406642,2479106375,2479106893,-1.196576,0.111264,-0.089792,-18.78625,22.68,-27.825,22.232,-4.56,15.6,concentric,6,5.0,26567.0,403431.0,165108.0,30150.0,57.0
2026-04-09 22:25:49.162925,406643,2479121374,2479121881,-1.177056,0.142496,0.001952,-14.035,22.12875,-27.76375,22.032001,-4.488,15.760001,concentric,6,5.0,26567.0,403431.0,165108.0,30150.0,57.0
2026-04-09 22:25:49.191466,406644,2479130945,2479132696,-1.177056,0.142496,0.001952,-11.1125,21.7875,-26.8275,22.032001,-4.488,15.760001,concentric,6,5.0,26567.0,403431.0,165108.0,30150.0,57.0
2026-04-09 22:25:49.195965,406645,2479139870,2479141386,-1.13216,0.154208,0.011712,-10.92,21.83125,-26.81875,21.728,-3.896,15.304001,concentric,6,5.0,26567.0,403431.0,165108.0,30150.0,57.0
2026-04-09 22:25:49.198362,406646,2479148818,2479150135,-1.13216,0.154208,0.011712,-12.2325,21.55125,-27.1075,21.728,-3.896,15.304001,concentric,6,5.0,26567.0,403431.0,165108.0,30150.0,57.0
2026-04-09 22:25:49.227697,406647,2479163334,2479165073,-1.16144,0.113216,-0.08784,-14.0,21.49,-27.02875,21.400002,-4.168,15.480001,concentric,6,5.0,26567.0,403431.0,165108.0,30150.0,57.0
2026-04-09 22:25:49.256274,406658,2479172297,2479173824,-1.16144,0.113216,-0.08784,-14.6475,20.65,-27.1075,21.400002,-4.168,15.480001,concentric,6,5.0,26828.0,403431.0,163502.0,28871.0,32.0
2026-04-09 22:25:49.258902,406659,2479181256,2479182521,-1.192672,0.142496,-0.085888,-11.83,19.241251,-26.27625,21.208,-5.056,15.248001,concentric,6,5.0,26828.0,403431.0,163502.0,28871.0,32.0
2026-04-09 22:25:49.261223,406660,2479195723,2479197441,-1.192672,0.142496,-0.085888,-7.65625,17.053751,-26.29375,21.208,-5.056,15.248001,concentric,6,5.0,26828.0,403431.0,163502.0,28871.0,32.0
2026-04-09 22:25:49.263787,406661,2479204818,2479206306,-1.10288,0.122976,-0.031232,-7.49875,15.5575,-27.08125,20.112001,-4.496,16.640001,concentric,6,5.0,26828.0,403431.0,163502.0,28871.0,32.0
2026-04-09 22:25:49.266296,406662,2479213809,2479215054,-1.10288,0.122976,-0.031232,-11.1825,15.00625,-25.71625,20.112001,-4.496,16.640001,concentric,6,5.0,26828.0,403431.0,163502.0,28871.0,32.0
2026-04-09 22:25:49.270082,406663,2479228446,2479230031,-1.110688,0.08784,-0.052704,-14.315001,15.12,-26.29375,19.824001,-4.704,16.400002,concentric,6,5.0,26828.0,403431.0,163502.0,28871.0,32.0
2026-04-09 22:25:49.305249,406664,2479237386,2479238781,-1.110688,0.08784,-0.052704,-13.78125,14.79625,-26.495,19.824001,-4.704,16.400002,concentric,6,5.0,26828.0,403431.0,163502.0,28871.0,32.0
2026-04-09 22:25:49.308807,406665,2479246393,2479247480,-1.120448,0.122976,-0.113216,-11.8125,13.76375,-25.795,20.048,-4.2,14.992001,concentric,6,5.0,26828.0,403431.0,163502.0,28871.0,32.0
2026-04-09 22:25:49.312000,406666,2479255305,2479256180,-1.120448,0.122976,-0.113216,-10.54375,13.39625,-26.355,20.048,-4.2,14.992001,concentric,6,5.0,26828.0,403431.0,163502.0,28871.0,32.0
2026-04-09 22:25:49.340443,406676,2479270027,2479271181,-1.089216,0.111264,-0.052704,-9.21375,13.5275,-27.29125,20.416,-4.656,14.648001,concentric,6,5.0,26844.0,403431.0,163271.0,28490.0,10.0
2026-04-09 22:25:49.342679,406677,2479279033,2479279917,-1.095072,0.11712,-0.052704,-9.0125,13.965,-27.04625,20.232,-4.2,13.592001,concentric,6,5.0,26844.0,403431.0,163271.0,28490.0,10.0
2026-04-09 22:25:49.345119,406678,2479287997,2479288825,-1.095072,0.11712,-0.052704,-11.34875,14.56875,-26.57375,20.232,-4.2,13.592001,concentric,6,5.0,26844.0,403431.0,163271.0,28490.0,10.0
2026-04-09 22:25:49.347566,406679,2479303078,2479303771,-1.0736,0.13664,-0.03904,-12.01375,16.03875,-26.705,20.304,-4.744,14.064001,concentric,6,5.0,26844.0,403431.0,163271.0,28490.0,10.0
2026-04-09 22:25:49.377763,406680,2479312392,2479314607,-1.0736,0.13664,-0.03904,-11.61125,17.96375,-28.8575,20.304,-4.744,14.064001,concentric,6,5.0,26844.0,403431.0,163271.0,28490.0,10.0
2026-04-09 22:25:49.381414,406681,2479321344,2479323324,-1.118496,0.056608,-0.203008,-16.40625,17.4825,-31.5175,19.696001,-4.992,14.344001,concentric,6,5.0,26844.0,403431.0,163271.0,28490.0,10.0
2026-04-09 22:25:49.383871,406682,2479330277,2479332027,-1.118496,0.056608,-0.203008,-23.68625,15.33875,-30.161251,19.696001,-4.992,14.344001,concentric,6,5.0,26844.0,403431.0,163271.0,28490.0,10.0
2026-04-09 22:25:49.386396,406683,2479344741,2479346960,-1.077504,-0.023424,-0.1464,-25.8825,10.185,-29.44375,19.936,-4.8,14.432001,concentric,6,5.0,26844.0,403431.0,163271.0,28490.0,10.0
2026-04-09 22:25:49.416612,406684,2479353705,2479355689,-1.077504,-0.023424,-0.1464,-20.6675,7.00875,-30.1,19.936,-4.8,14.432001,concentric,6,5.0,26844.0,403431.0,163271.0,28490.0,10.0
2026-04-09 22:25:49.420094,406685,2479362642,2479364430,-1.08336,0.11712,-0.066368,-2.91375,8.4,-28.02625,19.68,-4.584,15.224001,concentric,6,5.0,26844.0,403431.0,163271.0,28490.0,10.0
2026-04-09 22:25:49.446078,406695,2479377211,2479377814,-1.08336,0.11712,-0.066368,6.34375,10.675,-31.52625,19.68,-4.584,15.224001,concentric,6,5.0,26687.0,403431.0,164086.0,29104.0,23.0
2026-04-09 22:25:49.447646,406696,2479386480,2479388636,-0.96624,0.074176,-0.01952,0.42,12.5825,-36.2775,19.712002,-4.832,14.208001,concentric,6,5.0,26687.0,403431.0,164086.0,29104.0,23.0
2026-04-09 22:25:49.451874,406697,2479395407,2479397380,-0.96624,0.074176,-0.01952,-8.09375,17.10625,-40.39875,19.712002,-4.832,14.208001,concentric,6,5.0,26687.0,403431.0,164086.0,29104.0,23.0
2026-04-09 22:25:49.454328,406698,2479404344,2479406078,-1.046272,-0.011712,-0.066368,-16.835001,21.735,-42.9275,17.072,-4.808,16.880001,concentric,6,5.0,26687.0,403431.0,164086.0,29104.0,23.0
2026-04-09 22:25:49.482822,406699,2479418861,2479421039,-1.10288,0.027328,-0.236192,-19.20625,23.1175,-42.25375,17.072,-4.808,15.432001,concentric,6,5.0,26687.0,403431.0,164086.0,29104.0,23.0
2026-04-09 22:25:49.493200,406700,2479427764,2479429744,-1.10288,0.027328,-0.236192,-14.7175,20.23875,-41.08125,16.952002,-4.264,15.432001,concentric,6,5.0,26687.0,403431.0,164086.0,29104.0,23.0
2026-04-09 22:25:49.494908,406701,2479436658,2479438441,-1.10288,0.027328,-0.236192,-1.93375,16.87,-38.6925,16.952002,-4.264,15.432001,concentric,6,5.0,26687.0,403431.0,164086.0,29104.0,23.0
2026-04-09 22:25:49.496339,406702,2479451162,2479453332,-1.075552,0.017568,-0.245952,9.61625,12.55625,-38.77125,18.68,-4.096,13.232,concentric,6,5.0,26687.0,403431.0,164086.0,29104.0,23.0
2026-04-09 22:25:49.502941,406703,2479460097,2479462130,-1.01504,-0.037088,-0.0488,10.07125,8.42625,-39.1475,18.192001,-4.472,13.416,concentric,6,5.0,26687.0,403431.0,164086.0,29104.0,23.0
2026-04-09 22:25:49.533059,406714,2479469418,2479470877,-1.01504,-0.037088,-0.0488,8.54875,5.59125,-37.42375,18.192001,-4.472,13.416,concentric,6,5.0,26716.0,403431.0,163045.0,28020.0,2.0
2026-04-09 22:25:49.534789,406715,2479484025,2479485955,-0.99552,0.011712,-0.023424,6.475,6.2825,-39.0425,17.952002,-4.104,13.392,concentric,6,5.0,26716.0,403431.0,163045.0,28020.0,2.0
2026-04-09 22:25:49.536340,406716,2479492983,2479494684,-0.99552,0.011712,-0.023424,5.46875,7.7525,-38.5,17.952002,-4.104,13.392,concentric,6,5.0,26716.0,403431.0,163045.0,28020.0,2.0
2026-04-09 22:25:49.567540,406717,2479501963,2479503455,-1.057984,0.06832,-0.15616,6.9475,10.59625,-37.905,18.2,-4.0,13.528001,concentric,6,5.0,26716.0,403431.0,163045.0,28020.0,2.0
2026-04-09 22:25:49.569960,406718,2479510908,2479512188,-1.057984,0.06832,-0.15616,9.3625,9.3975,-39.45375,18.2,-4.0,13.528001,concentric,6,5.0,26716.0,403431.0,163045.0,28020.0,2.0
2026-04-09 22:25:49.605136,406719,2479525365,2479527056,-0.968192,0.007808,-0.206912,9.730001,6.06375,-37.6775,18.136002,-3.936,13.328001,concentric,6,5.0,26716.0,403431.0,163045.0,28020.0,2.0
2026-04-09 22:25:49.607622,406720,2479534263,2479535805,-0.968192,0.007808,-0.206912,8.417501,4.97875,-35.56,18.136002,-3.936,13.328001,concentric,6,5.0,26716.0,403431.0,163045.0,28020.0,2.0
2026-04-09 22:25:49.614905,406721,2479543281,2479544580,-1.013088,-0.142496,-0.031232,4.5675,4.80375,-37.4675,16.656,-3.72,14.544001,concentric,6,5.0,26716.0,403431.0,163045.0,28020.0,2.0
2026-04-09 22:25:49.616384,406722,2479557716,2479559474,-1.013088,-0.142496,-0.031232,3.33375,6.615,-34.57125,16.656,-3.72,14.544001,concentric,6,5.0,26716.0,403431.0,163045.0,28020.0,2.0
2026-04-09 22:25:49.643248,406732,2479566640,2479568450,-0.997472,0.074176,-0.021472,10.94625,8.75,-30.73875,17.92,-3.336,14.256001,concentric,6,5.0,26871.0,403431.0,161647.0,26789.0,-25.0
2026-04-09 22:25:49.644835,406733,2479575655,2479577183,-0.997472,0.074176,-0.021472,21.1575,10.605001,-34.1775,17.92,-3.336,14.256001,concentric,6,5.0,26871.0,403431.0,161647.0,26789.0,-25.0
2026-04-09 22:25:49.646397,406734,2479590191,2479592132,-1.00528,-0.031232,-0.17568,19.55625,9.56375,-37.30125,16.44,-3.448,14.56,concentric,6,5.0,26871.0,403431.0,161647.0,26789.0,-25.0
2026-04-09 22:25:49.650633,406735,2479599128,2479600851,-1.00528,-0.140544,-0.203008,8.855001,7.21,-34.43125,16.44,-3.448,14.56,concentric,6,5.0,26871.0,403431.0,161647.0,26789.0,-25.0
2026-04-09 22:25:49.653031,406736,2479608061,2479609603,-1.038464,-0.130784,-0.203008,5.9325,5.03125,-28.81375,17.12,-3.368,14.344001,concentric,6,5.0,26871.0,403431.0,161647.0,26789.0,-25.0
2026-04-09 22:25:49.681605,406737,2479622539,2479624592,-1.04432,-0.013664,-0.054656,8.5225,4.01625,-25.1125,17.616001,-3.472,13.064001,concentric,6,5.0,26871.0,403431.0,161647.0,26789.0,-25.0
2026-04-09 22:25:49.686096,406738,2479631465,2479633285,-1.04432,-0.013664,-0.054656,17.19375,4.38375,-22.12875,17.616001,-3.472,13.064001,concentric,6,5.0,26871.0,403431.0,161647.0,26789.0,-25.0
2026-04-09 22:25:49.687578,406739,2479640384,2479641970,-0.962336,-0.081984,-0.0976,26.460001,5.6875,-21.525,17.032001,-3.272,14.120001,concentric,6,5.0,26871.0,403431.0,161647.0,26789.0,-25.0
2026-04-09 22:25:49.692980,406740,2479649322,2479650699,-0.962336,-0.081984,-0.0976,24.99875,4.2,-23.1175,17.032001,-3.272,14.120001,concentric,6,5.0,26871.0,403431.0,161647.0,26789.0,-25.0
2026-04-09 22:25:49.721554,406741,2479663816,2479665586,-1.013088,-0.138592,-0.171776,15.1375,1.16375,-22.365,17.216002,-3.112,12.968,concentric,6,5.0,26871.0,403431.0,161647.0,26789.0,-25.0
2026-04-09 22:25:49.748591,406751,2479672872,2479674343,-1.013088,-0.138592,-0.171776,12.43375,-1.12,-19.15375,17.216002,-3.112,12.968,concentric,6,5.0,26989.0,403431.0,160812.0,26161.0,-34.0
2026-04-09 22:25:49.750166,406752,2479681816,2479683024,-1.038464,0.00976,-0.06832,22.2775,-0.06125,-16.16125,17.024,-3.096,13.56,concentric,6,5.0,26989.0,403431.0,160812.0,26161.0,-34.0
2026-04-09 22:25:49.754369,406753,2479696363,2479697966,-1.038464,0.00976,-0.06832,33.355,2.0825,-16.44125,17.024,-3.096,13.56,concentric,6,5.0,26989.0,403431.0,160812.0,26161.0,-34.0
2026-04-09 22:25:49.756128,406754,2479705303,2479706763,-0.954528,-0.181536,-0.076128,29.75,1.18125,-16.17,17.28,-2.888,13.176001,concentric,6,5.0,26989.0,403431.0,160812.0,26161.0,-34.0
2026-04-09 22:25:49.757645,406755,2479714355,2479715479,-0.954528,-0.181536,-0.076128,20.3875,0.3675,-13.51,17.28,-2.888,13.176001,concentric,6,5.0,26989.0,403431.0,160812.0,26161.0,-34.0
2026-04-09 22:25:49.788754,406756,2479728862,2479730429,-0.83936,-0.203008,-0.083936,15.88125,-0.1575,-11.99625,17.504002,-2.232,12.952001,concentric,6,5.0,26989.0,403431.0,160812.0,26161.0,-34.0
2026-04-09 22:25:49.793143,406757,2479737769,2479739122,-0.83936,-0.203008,-0.083936,16.31,-0.1225,-11.2,17.504002,-2.232,12.952001,concentric,6,5.0,26989.0,403431.0,160812.0,26161.0,-34.0
2026-04-09 22:25:49.794871,406758,2479746712,2479747811,-1.001376,0.03904,-0.261568,25.7425,-0.95375,-6.88625,17.112001,-2.664,15.376,concentric,6,5.0,26989.0,403431.0,160812.0,26161.0,-34.0
2026-04-09 22:25:49.796956,406759,2479755631,2479756540,-1.001376,0.03904,-0.261568,37.607502,-2.485,-3.0625,17.112001,-2.664,15.376,concentric,6,5.0,26989.0,403431.0,160812.0,26161.0,-34.0
