pc_time,serial_num,sensor_ts,host_ts,ax,ay,az,gx,gy,gz,mx,my,mz,phase,rpe,weight_kg,ppg_a,ppg_b,ppg_c,ppg_d,ppg_e
2026-04-09 22:25:49.852644,406770,2479770401,2479771752,-0.825696,-0.10736,0.001952,35.72625,-2.94,-4.92625,15.584001,-2.456,14.52,eccentric,6,5.0,27028.0,403431.0,160116.0,25492.0,-45.0
2026-04-09 22:25:49.856883,406771,2479779383,2479780514,-0.825696,-0.10736,0.001952,23.7125,-1.365,-11.698751,15.584001,-2.456,14.52,eccentric,6,5.0,27028.0,403431.0,160116.0,25492.0,-45.0
2026-04-09 22:25:49.859372,406772,2479788289,2479789208,-0.81984,-0.181536,0.10736,14.14,2.38875,-13.615,16.856,-2.512,12.856001,eccentric,6,5.0,27028.0,403431.0,160116.0,25492.0,-45.0
2026-04-09 22:25:49.863527,406773,2479802829,2479804210,-0.845216,0.031232,-0.132736,17.36,6.55375,-8.54875,16.952002,-2.432,13.192,eccentric,6,5.0,27028.0,403431.0,160116.0,25492.0,-45.0
2026-04-09 22:25:49.865053,406774,2479811869,2479812942,-0.845216,0.031232,-0.132736,24.24625,8.68875,-7.7875,16.952002,-2.432,13.192,eccentric,6,5.0,27028.0,403431.0,160116.0,25492.0,-45.0
2026-04-09 22:25:49.869484,406775,2479820786,2479821694,-0.792512,-0.033184,-0.062464,22.98625,10.0975,-11.36625,16.616001,-2.64,11.656,eccentric,6,5.0,27028.0,403431.0,160116.0,25492.0,-45.0
2026-04-09 22:25:49.906309,406776,2479835312,2479836606,-0.792512,-0.033184,-0.062464,18.66375,10.91125,-14.945,16.616001,-2.64,11.656,eccentric,6,5.0,27028.0,403431.0,160116.0,25492.0,-45.0
2026-04-09 22:25:49.908540,406777,2479844229,2479845327,-0.9272,-0.222528,-0.066368,11.2,11.76875,-15.417501,16.888,-2.232,13.096001,eccentric,6,5.0,27028.0,403431.0,160116.0,25492.0,-45.0
2026-04-09 22:25:49.913244,406778,2479853142,2479854028,-0.9272,-0.222528,-0.066368,6.58875,11.40125,-11.05125,16.888,-2.232,13.096001,eccentric,6,5.0,27028.0,403431.0,160116.0,25492.0,-45.0
2026-04-09 22:25:49.914856,406779,2479867632,2479868906,-0.825696,-0.109312,-0.144448,11.87375,8.925,-6.44875,16.752,-1.68,12.536,eccentric,6,5.0,27028.0,403431.0,160116.0,25492.0,-45.0
2026-04-09 22:25:49.938924,406789,2479876576,2479877689,-0.825696,-0.109312,-0.144448,17.31625,8.26,-6.62375,16.752,-1.68,12.536,eccentric,6,5.0,27281.0,403431.0,158638.0,24261.0,-57.0
2026-04-09 22:25:49.943113,406790,2479885596,2479886416,-0.769088,0.013664,0.080032,24.24625,9.24,-7.55125,15.824,-1.816,14.256001,eccentric,6,5.0,27281.0,403431.0,158638.0,24261.0,-57.0
2026-04-09 22:25:49.945634,406791,2479894555,2479895177,-0.769088,0.013664,0.080032,28.13125,12.705,-9.948751,15.824,-1.816,14.256001,eccentric,6,5.0,27281.0,403431.0,158638.0,24261.0,-57.0
2026-04-09 22:25:49.951799,406792,2479909481,2479910182,-0.942816,-0.072224,0.023424,23.0825,15.5575,-10.84125,15.808001,-1.968,13.960001,eccentric,6,5.0,27281.0,403431.0,158638.0,24261.0,-57.0
2026-04-09 22:25:49.980371,406793,2479918775,2479920987,-0.942816,-0.072224,0.023424,12.76625,16.45,-9.28375,15.808001,-1.968,13.960001,eccentric,6,5.0,27281.0,403431.0,158638.0,24261.0,-57.0
2026-04-09 22:25:49.994454,406794,2479927743,2479929682,-0.90768,-0.111264,-0.255712,3.45625,13.615,-5.005,15.904,-2.184,12.872001,eccentric,6,5.0,27281.0,403431.0,158638.0,24261.0,-57.0
2026-04-09 22:25:49.996050,406795,2479942242,2479942548,-0.880352,-0.07808,-0.042944,-1.51375,11.12125,-6.3525,16.560001,-1.712,13.008,eccentric,6,5.0,27281.0,403431.0,158638.0,24261.0,-57.0
2026-04-09 22:25:49.998486,406796,2479951409,2479953350,-0.880352,-0.07808,-0.042944,-2.07375,11.1475,-7.315,16.560001,-1.712,13.008,eccentric,6,5.0,27281.0,403431.0,158638.0,24261.0,-57.0
2026-04-09 22:25:50.002967,406797,2479960463,2479962055,-0.880352,0.0,0.121024,4.12125,12.495,-4.865,16.560001,-1.712,13.008,eccentric,6,5.0,27281.0,403431.0,158638.0,24261.0,-57.0
2026-04-09 22:25:50.060221,406807,2479969463,2479970723,-0.9272,0.001952,0.121024,7.6475,15.198751,-4.1825,15.440001,-1.976,14.208001,eccentric,6,5.0,27275.0,403431.0,158831.0,24547.0,-53.0
2026-04-09 22:25:50.065110,406808,2479984540,2479985640,-0.929152,-0.148352,-0.025376,7.63,19.2325,-5.88,16.384,-2.256,12.816001,eccentric,6,5.0,27275.0,403431.0,158831.0,24547.0,-53.0
2026-04-09 22:25:50.067514,406809,2479993453,2479994341,-0.929152,-0.148352,-0.025376,-1.93375,20.755,-4.05125,16.384,-2.256,12.816001,eccentric,6,5.0,27275.0,403431.0,158831.0,24547.0,-53.0
2026-04-09 22:25:50.070075,406810,2480002406,2480003089,-0.98576,-0.060512,-0.244,-21.175,21.62125,1.63625,15.776001,-1.736,14.328001,eccentric,6,5.0,27275.0,403431.0,158831.0,24547.0,-53.0
2026-04-09 22:25:50.072608,406811,2480011894,2480013876,-0.98576,-0.060512,-0.244,-32.69,20.8425,4.0775,15.776001,-1.736,14.328001,eccentric,6,5.0,27275.0,403431.0,158831.0,24547.0,-53.0
2026-04-09 22:25:50.075115,406812,2480026418,2480026744,-0.987712,-0.072224,-0.138592,-31.605,17.80625,2.59,15.648001,-2.368,14.968,eccentric,6,5.0,27275.0,403431.0,158831.0,24547.0,-53.0
2026-04-09 22:25:50.077582,406813,2480035690,2480037534,-0.987712,-0.072224,-0.138592,-21.455,15.16375,-0.14875,15.648001,-2.368,14.968,eccentric,6,5.0,27275.0,403431.0,158831.0,24547.0,-53.0
2026-04-09 22:25:50.107807,406814,2480044761,2480046246,-0.929152,-0.220576,-0.007808,-12.69625,12.15375,-2.24875,14.608001,-2.12,15.224001,eccentric,6,5.0,27275.0,403431.0,158831.0,24547.0,-53.0
2026-04-09 22:25:50.112127,406815,2480059240,2480061152,-0.929152,-0.220576,-0.007808,-10.92,8.365,-0.28875,14.608001,-2.12,15.224001,eccentric,6,5.0,27275.0,403431.0,158831.0,24547.0,-53.0
2026-04-09 22:25:50.113840,406816,2480068170,2480069877,-1.016992,-0.0976,-0.122976,-9.5725,7.07875,4.64625,16.048,-2.032,12.360001,eccentric,6,5.0,27275.0,403431.0,158831.0,24547.0,-53.0
2026-04-09 22:25:50.211306,406827,2480077157,2480078779,-1.016992,-0.0976,-0.122976,-5.31125,5.845,8.5925,16.048,-2.032,12.360001,eccentric,6,5.0,27256.0,403431.0,158568.0,24279.0,-69.0
2026-04-09 22:25:50.213885,406828,2480086099,2480087538,-0.94672,-0.072224,-0.173728,-2.8175,3.70125,9.03875,16.136002,-2.064,12.448001,eccentric,6,5.0,27256.0,403431.0,158568.0,24279.0,-69.0
2026-04-09 22:25:50.216335,406829,2480100643,2480102456,-0.94672,-0.072224,-0.173728,-0.16625,0.945,8.09375,16.136002,-2.064,12.448001,eccentric,6,5.0,27256.0,403431.0,158568.0,24279.0,-69.0
2026-04-09 22:25:50.218843,406830,2480109657,2480111176,-0.983808,-0.105408,-0.005856,4.12125,-0.3325,8.21625,16.392,-2.2,10.352,eccentric,6,5.0,27256.0,403431.0,158568.0,24279.0,-69.0
2026-04-09 22:25:50.221325,406831,2480118574,2480119871,-0.983808,-0.105408,-0.005856,9.948751,-0.175,9.765,16.392,-2.2,10.352,eccentric,6,5.0,27256.0,403431.0,158568.0,24279.0,-69.0
2026-04-09 22:25:50.223852,406832,2480133098,2480134881,-1.036512,-0.025376,-0.181536,13.62375,0.06125,12.355001,15.880001,-2.328,13.656001,eccentric,6,5.0,27256.0,403431.0,158568.0,24279.0,-69.0
2026-04-09 22:25:50.226371,406833,2480142053,2480143642,-0.935008,-0.134688,-0.08784,3.57875,-2.59,12.32,17.160002,-2.712,13.280001,eccentric,6,5.0,27256.0,403431.0,158568.0,24279.0,-69.0
2026-04-09 22:25:50.228871,406834,2480151013,2480152370,-0.935008,-0.134688,-0.08784,-9.065,-3.1325,11.8475,17.160002,-2.712,13.280001,eccentric,6,5.0,27256.0,403431.0,158568.0,24279.0,-69.0
2026-04-09 22:25:50.231429,406835,2480165571,2480167302,-1.069696,-0.007808,-0.02928,-8.6275,-3.115,11.27,17.384,-2.208,12.84,eccentric,6,5.0,27256.0,403431.0,158568.0,24279.0,-69.0
2026-04-09 22:25:50.259863,406845,2480174974,2480176043,-1.069696,-0.007808,-0.02928,-3.84125,-2.2225,12.90625,17.384,-2.208,12.84,eccentric,6,5.0,27137.0,403431.0,157730.0,22977.0,-78.0
2026-04-09 22:25:50.261435,406846,2480183941,2480184781,-1.065792,0.011712,-0.1952,-0.51625,-1.63625,14.28,17.488,-2.48,13.728001,eccentric,6,5.0,27137.0,403431.0,157730.0,22977.0,-78.0
2026-04-09 22:25:50.265676,406847,2480192903,2480193491,-1.065792,0.011712,-0.1952,-5.32,-3.98125,13.5275,17.488,-2.48,13.728001,eccentric,6,5.0,27137.0,403431.0,157730.0,22977.0,-78.0
2026-04-09 22:25:50.267356,406848,2480207831,2480208440,-1.001376,-0.171776,-0.115168,-12.95875,-7.46375,14.23625,17.328001,-2.52,14.320001,eccentric,6,5.0,27137.0,403431.0,157730.0,22977.0,-78.0
2026-04-09 22:25:50.268955,406849,2480217159,2480219216,-1.001376,-0.171776,-0.115168,-9.730001,-9.68625,14.67375,17.328001,-2.52,14.320001,eccentric,6,5.0,27137.0,403431.0,157730.0,22977.0,-78.0
2026-04-09 22:25:50.273045,406850,2480226143,2480227946,-1.098976,-0.040992,-0.076128,-0.32375,-10.03625,13.79875,16.976002,-2.392,14.512001,eccentric,6,5.0,27137.0,403431.0,157730.0,22977.0,-78.0
2026-04-09 22:25:50.278904,406851,2480235085,2480236663,-1.098976,-0.040992,-0.076128,6.09875,-10.64,17.6925,16.976002,-2.392,14.512001,eccentric,6,5.0,27137.0,403431.0,157730.0,22977.0,-78.0
2026-04-09 22:25:50.306606,406852,2480249616,2480251606,-1.040416,0.062464,-0.113216,9.835,-12.17125,21.98,16.768002,-3.168,14.088,eccentric,6,5.0,27137.0,403431.0,157730.0,22977.0,-78.0
2026-04-09 22:25:50.311082,406853,2480258534,2480260310,-1.040416,0.062464,-0.113216,4.34875,-12.705,21.60375,16.768002,-3.168,14.088,eccentric,6,5.0,27137.0,403431.0,157730.0,22977.0,-78.0
2026-04-09 22:25:50.312648,406854,2480267450,2480268987,-0.993568,-0.085888,-0.093696,-1.6275,-13.3175,21.23625,17.592001,-2.664,13.128,eccentric,6,5.0,27137.0,403431.0,157730.0,22977.0,-78.0
2026-04-09 22:25:50.343131,406864,2480282115,2480283990,-1.145824,0.060512,-0.119072,-6.895,-13.72,20.36125,17.592001,-2.664,12.232,eccentric,6,5.0,27182.0,403431.0,156967.0,22164.0,-76.0
2026-04-09 22:25:50.344854,406865,2480291074,2480292736,-1.145824,0.060512,-0.119072,-1.925,-12.41625,20.9475,18.168001,-2.52,12.232,eccentric,6,5.0,27182.0,403431.0,156967.0,22164.0,-76.0
2026-04-09 22:25:50.346419,406866,2480300064,2480301496,-1.145824,0.060512,-0.119072,5.38125,-14.542501,21.93625,18.168001,-2.52,12.232,eccentric,6,5.0,27182.0,403431.0,156967.0,22164.0,-76.0
2026-04-09 22:25:50.377479,406867,2480314660,2480316406,-0.979904,0.0,-0.052704,5.48625,-15.9775,21.735,17.504002,-2.464,14.688001,eccentric,6,5.0,27182.0,403431.0,156967.0,22164.0,-76.0
2026-04-09 22:25:50.381771,406868,2480323581,2480325082,-1.03456,-0.017568,-0.095648,2.9575,-16.6775,20.3175,18.496,-2.904,13.480001,eccentric,6,5.0,27182.0,403431.0,156967.0,22164.0,-76.0
2026-04-09 22:25:50.388184,406869,2480332488,2480333770,-1.03456,-0.017568,-0.095648,4.08625,-16.345,21.16625,18.496,-2.904,13.480001,eccentric,6,5.0,27182.0,403431.0,156967.0,22164.0,-76.0
2026-04-09 22:25:50.389716,406870,2480346972,2480348698,-1.208288,0.158112,-0.095648,11.235,-17.43875,23.975,18.960001,-3.104,14.056001,eccentric,6,5.0,27182.0,403431.0,156967.0,22164.0,-76.0
2026-04-09 22:25:50.422511,406871,2480355894,2480357391,-1.208288,0.158112,-0.095648,18.75125,-17.80625,26.41625,18.960001,-3.104,14.056001,eccentric,6,5.0,27182.0,403431.0,156967.0,22164.0,-76.0
2026-04-09 22:25:50.426944,406872,2480364827,2480366096,-0.923296,0.02928,0.017568,17.710001,-18.3575,25.62875,19.328001,-3.408,14.184001,eccentric,6,5.0,27182.0,403431.0,156967.0,22164.0,-76.0
2026-04-09 22:25:50.457414,406883,2480374382,2480375011,-0.923296,0.02928,0.017568,2.065,-16.94,20.57125,19.328001,-3.408,14.184001,eccentric,6,5.0,27313.0,403431.0,156455.0,21821.0,-82.0
2026-04-09 22:25:50.459026,406884,2480389212,2480389951,-0.895968,0.044896,0.099552,-4.1825,-12.565,17.6575,18.824001,-3.152,14.800001,eccentric,6,5.0,27313.0,403431.0,156455.0,21821.0,-82.0
2026-04-09 22:25:50.463233,406885,2480398720,2480400943,-0.895968,0.044896,0.099552,-3.42125,-6.90375,18.06875,18.824001,-3.152,14.800001,eccentric,6,5.0,27313.0,403431.0,156455.0,21821.0,-82.0
2026-04-09 22:25:50.464821,406886,2480407665,2480409646,-1.296128,0.23424,-0.251808,-5.1975,-5.1625,21.34125,19.664001,-3.944,14.208001,eccentric,6,5.0,27313.0,403431.0,156455.0,21821.0,-82.0
2026-04-09 22:25:50.466448,406887,2480416671,2480418376,-1.296128,0.23424,-0.251808,-1.75,-9.511251,27.22125,19.664001,-3.944,14.208001,eccentric,6,5.0,27313.0,403431.0,156455.0,21821.0,-82.0
2026-04-09 22:25:50.528827,406888,2480431219,2480433332,-0.997472,0.040992,-0.20496,-4.4625,-18.2175,27.22125,17.824001,-3.648,15.848001,eccentric,6,5.0,27313.0,403431.0,156455.0,21821.0,-82.0
2026-04-09 22:25:50.531063,406889,2480440157,2480442089,-0.997472,0.040992,-0.20496,-6.67625,-25.41,17.6575,17.824001,-3.648,15.848001,eccentric,6,5.0,27313.0,403431.0,156455.0,21821.0,-82.0
2026-04-09 22:25:50.533966,406890,2480449069,2480450777,-0.958432,-0.083936,0.027328,4.55875,-28.67375,14.00875,20.024,-3.24,14.544001,eccentric,6,5.0,27313.0,403431.0,156455.0,21821.0,-82.0
2026-04-09 22:25:50.536353,406891,2480463538,2480465666,-1.218048,0.26352,0.00976,15.05875,-30.065,20.90375,20.192001,-3.888,14.936001,eccentric,6,5.0,27313.0,403431.0,156455.0,21821.0,-82.0
2026-04-09 22:25:50.561299,406901,2480472451,2480474321,-1.218048,0.26352,0.00976,27.5625,-28.20125,29.3125,20.192001,-3.888,14.936001,eccentric,6,5.0,27209.0,403431.0,156968.0,22133.0,-83.0
2026-04-09 22:25:50.563862,406902,2480481884,2480483045,-1.218048,0.26352,0.00976,34.62375,-25.515,30.73875,20.192001,-3.888,14.936001,eccentric,6,5.0,27209.0,403431.0,156968.0,22133.0,-83.0
2026-04-09 22:25:50.566350,406903,2480490815,2480491746,-0.99552,0.099552,-0.062464,16.765,-24.7625,28.5425,20.592001,-3.752,14.920001,eccentric,6,5.0,27209.0,403431.0,156968.0,22133.0,-83.0
2026-04-09 22:25:50.568865,406904,2480505334,2480506698,-1.106784,0.072224,0.007808,1.925,-24.745,31.42125,20.096,-3.928,17.400002,eccentric,6,5.0,27209.0,403431.0,156968.0,22133.0,-83.0
2026-04-09 22:25:50.571363,406905,2480514369,2480515463,-1.106784,0.072224,0.007808,8.86375,-24.12375,31.815,20.096,-3.928,17.400002,eccentric,6,5.0,27209.0,403431.0,156968.0,22133.0,-83.0
2026-04-09 22:25:50.573855,406906,2480523338,2480524204,-1.301984,0.290848,-0.121024,18.85625,-24.43875,30.8875,20.240002,-3.928,18.880001,eccentric,6,5.0,27209.0,403431.0,156968.0,22133.0,-83.0
2026-04-09 22:25:50.578838,406907,2480537931,2480539198,-1.301984,0.290848,-0.121024,26.1975,-25.83875,35.07875,20.240002,-3.928,18.880001,eccentric,6,5.0,27209.0,403431.0,156968.0,22133.0,-83.0
2026-04-09 22:25:50.610204,406908,2480546844,2480547929,-1.059936,0.115168,0.035136,22.303751,-27.78125,35.2625,21.208,-4.16,17.776001,eccentric,6,5.0,27209.0,403431.0,156968.0,22133.0,-83.0
2026-04-09 22:25:50.612694,406909,2480555765,2480556639,-1.059936,0.115168,0.035136,8.33875,-27.65875,31.52625,21.208,-4.16,17.776001,eccentric,6,5.0,27209.0,403431.0,156968.0,22133.0,-83.0
2026-04-09 22:25:50.615081,406910,2480570257,2480571510,-1.089216,0.07808,0.07808,6.23,-24.605,28.665,21.888,-4.072,16.384,eccentric,6,5.0,27209.0,403431.0,156968.0,22133.0,-83.0
2026-04-09 22:25:50.641875,406920,2480579303,2480580278,-1.089216,0.07808,0.07808,9.28375,-20.60625,29.6275,21.888,-4.072,16.384,eccentric,6,5.0,27099.0,403431.0,157633.0,22684.0,-74.0
2026-04-09 22:25:50.642693,406921,2480588278,2480589003,-1.262944,0.296704,0.023424,11.2875,-17.185,33.4075,20.664001,-4.096,18.304,eccentric,6,5.0,27099.0,403431.0,157633.0,22684.0,-74.0
2026-04-09 22:25:50.644988,406922,2480597625,2480599798,-1.262944,0.296704,0.023424,14.096251,-14.805,36.89875,20.664001,-4.096,18.304,eccentric,6,5.0,27099.0,403431.0,157633.0,22684.0,-74.0
2026-04-09 22:25:50.675525,406923,2480612229,2480612722,-1.110688,0.148352,-0.083936,3.255,-16.51125,38.36875,21.424002,-4.832,18.768002,eccentric,6,5.0,27099.0,403431.0,157633.0,22684.0,-74.0
2026-04-09 22:25:50.678956,406924,2480621601,2480623487,-1.110688,0.148352,-0.083936,-9.3975,-17.605,39.357502,21.424002,-4.832,18.768002,eccentric,6,5.0,27099.0,403431.0,157633.0,22684.0,-74.0
2026-04-09 22:25:50.681379,406925,2480630520,2480632188,-1.09312,0.076128,-0.00976,-4.235,-17.47375,38.87625,22.896002,-4.736,15.576001,eccentric,6,5.0,27099.0,403431.0,157633.0,22684.0,-74.0
2026-04-09 22:25:50.687695,406926,2480645058,2480647093,-1.126304,0.267424,0.105408,1.46125,-16.6075,37.49375,23.080002,-5.408001,15.552001,eccentric,6,5.0,27099.0,403431.0,157633.0,22684.0,-74.0
2026-04-09 22:25:50.717756,406927,2480654010,2480655841,-1.126304,0.267424,0.105408,6.51,-15.9425,39.85625,23.080002,-5.408001,15.552001,eccentric,6,5.0,27099.0,403431.0,157633.0,22684.0,-74.0
2026-04-09 22:25:50.721425,406928,2480662949,2480664553,-1.126304,0.267424,-0.042944,12.845,-15.190001,41.74625,23.080002,-5.408001,15.552001,eccentric,6,5.0,27099.0,403431.0,157633.0,22684.0,-74.0
2026-04-09 22:25:50.723893,406929,2480671897,2480673260,-1.186816,0.265472,-0.042944,10.85875,-16.03875,42.5775,23.296001,-5.464,17.736,eccentric,6,5.0,27099.0,403431.0,157633.0,22684.0,-74.0
2026-04-09 22:25:50.751887,406940,2480686490,2480688177,-1.052128,0.179584,0.03904,-0.175,-17.272501,43.225,23.480001,-5.456,17.976002,eccentric,6,5.0,27137.0,403431.0,157651.0,22722.0,-81.0
2026-04-09 22:25:50.754815,406941,2480695578,2480696957,-1.052128,0.179584,0.03904,-0.02625,-16.9225,41.88625,23.480001,-5.456,17.976002,eccentric,6,5.0,27137.0,403431.0,157651.0,22722.0,-81.0
2026-04-09 22:25:50.756727,406942,2480704505,2480705663,-1.098976,0.228384,0.050752,7.25375,-16.31875,38.84125,23.512001,-6.048,16.696001,eccentric,6,5.0,27137.0,403431.0,157651.0,22722.0,-81.0
2026-04-09 22:25:50.761729,406943,2480719094,2480720610,-1.098976,0.228384,0.050752,9.275,-16.1525,39.05125,23.512001,-6.048,16.696001,eccentric,6,5.0,27137.0,403431.0,157651.0,22722.0,-81.0
2026-04-09 22:25:50.804065,406944,2480728035,2480729351,-1.138016,0.275232,0.044896,10.12375,-15.295,41.265,24.152,-5.84,18.848001,eccentric,6,5.0,27137.0,403431.0,157651.0,22722.0,-81.0
2026-04-09 22:25:50.807596,406945,2480737044,2480738047,-1.138016,0.275232,0.044896,6.23,-15.89,42.201252,24.152,-5.84,18.848001,eccentric,6,5.0,27137.0,403431.0,157651.0,22722.0,-81.0
2026-04-09 22:25:50.810094,406946,2480751577,2480752932,-1.130208,0.222528,-0.017568,0.46375,-16.87875,44.23125,24.240002,-6.192,18.880001,eccentric,6,5.0,27137.0,403431.0,157651.0,22722.0,-81.0
2026-04-09 22:25:50.812602,406947,2480760506,2480761582,-1.130208,0.222528,-0.017568,1.09375,-17.87625,44.8175,24.240002,-6.192,18.880001,eccentric,6,5.0,27137.0,403431.0,157651.0,22722.0,-81.0
2026-04-09 22:25:50.815084,406948,2480769426,2480770288,-1.095072,0.23424,0.072224,4.27875,-18.0425,43.12,24.104002,-6.768,19.04,eccentric,6,5.0,27137.0,403431.0,157651.0,22722.0,-81.0
2026-04-09 22:25:50.840014,406958,2480778603,2480779470,-1.095072,0.23424,0.072224,9.8,-18.34,42.83125,24.104002,-6.768,19.04,eccentric,6,5.0,26992.0,403431.0,158589.0,23350.0,-89.0
2026-04-09 22:25:50.842570,406959,2480793218,2480794379,-1.065792,0.290848,0.052704,11.59375,-18.76,41.60625,23.368002,-7.744,21.176,eccentric,6,5.0,26992.0,403431.0,158589.0,23350.0,-89.0
2026-04-09 22:25:50.845071,406960,2480802155,2480803135,-1.065792,0.290848,0.052704,10.167501,-19.57375,41.41375,23.368002,-7.744,21.176,eccentric,6,5.0,26992.0,403431.0,158589.0,23350.0,-89.0
2026-04-09 22:25:50.851325,406961,2480811153,2480811864,-1.052128,0.329888,0.0,9.66875,-21.44625,39.75125,23.832,-7.136,21.216002,eccentric,6,5.0,26992.0,403431.0,158589.0,23350.0,-89.0
2026-04-09 22:25:50.881529,406962,2480826095,2480826806,-1.079456,0.394304,0.00976,10.3075,-23.54625,34.965,25.624,-7.520001,20.84,eccentric,6,5.0,26992.0,403431.0,158589.0,23350.0,-89.0
2026-04-09 22:25:50.885123,406963,2480835403,2480837585,-1.079456,0.394304,0.00976,12.285,-25.3575,29.95125,25.624,-7.520001,20.84,eccentric,6,5.0,26992.0,403431.0,158589.0,23350.0,-89.0
2026-04-09 22:25:50.887614,406964,2480844367,2480846339,-1.08336,0.36112,0.046848,15.435,-25.3575,23.05625,25.624,-7.512001,21.632002,eccentric,6,5.0,26992.0,403431.0,158589.0,23350.0,-89.0
2026-04-09 22:25:50.917944,406965,2480853329,2480855051,-1.08336,0.36112,0.046848,13.86875,-25.97,15.0325,25.344002,-7.512001,21.632002,eccentric,6,5.0,26992.0,403431.0,158589.0,23350.0,-89.0
2026-04-09 22:25:50.921324,406966,2480867820,2480869942,-1.20048,0.277184,0.11712,9.79125,-25.94375,10.92,25.704,-7.024,21.224,eccentric,6,5.0,26992.0,403431.0,158589.0,23350.0,-89.0
2026-04-09 22:25:50.953808,406976,2480877306,2480878872,-1.20048,0.277184,0.11712,6.09,-23.70375,8.7675,25.704,-7.024,21.224,eccentric,6,5.0,26843.0,403431.0,159534.0,24129.0,-69.0
2026-04-09 22:25:50.956378,406977,2480886305,2480887682,-1.163392,0.201056,0.12688,4.165,-21.2975,8.46125,25.424002,-7.256001,22.84,eccentric,6,5.0,26843.0,403431.0,159534.0,24129.0,-69.0
2026-04-09 22:25:50.958860,406978,2480900908,2480902682,-1.163392,0.201056,0.12688,1.93375,-18.147501,10.08,25.424002,-7.256001,22.84,eccentric,6,5.0,26843.0,403431.0,159534.0,24129.0,-69.0
2026-04-09 22:25:50.961347,406979,2480910068,2480911453,-1.173152,0.206912,0.122976,1.61875,-15.295,12.845,24.888,-7.632,23.44,eccentric,6,5.0,26843.0,403431.0,159534.0,24129.0,-69.0
2026-04-09 22:25:50.963854,406980,2480919020,2480920196,-1.173152,0.206912,0.122976,0.09625,-12.95,14.7,24.888,-7.632,23.44,eccentric,6,5.0,26843.0,403431.0,159534.0,24129.0,-69.0
2026-04-09 22:25:50.968932,406981,2480927986,2480928975,-1.198528,0.220576,0.144448,-3.59625,-10.4475,16.905,25.216002,-8.256001,23.952002,eccentric,6,5.0,26843.0,403431.0,159534.0,24129.0,-69.0
2026-04-09 22:25:51.001519,406982,2480942482,2480943881,-1.198528,0.220576,0.144448,-4.82125,-7.74375,18.94375,25.216002,-8.256001,23.952002,eccentric,6,5.0,26843.0,403431.0,159534.0,24129.0,-69.0
2026-04-09 22:25:51.005149,406983,2480951444,2480952574,-1.206336,0.177632,0.076128,-7.7,-5.39875,20.965,26.560001,-8.352,22.392,eccentric,6,5.0,26843.0,403431.0,159534.0,24129.0,-69.0
2026-04-09 22:25:51.007599,406984,2480960428,2480961255,-1.206336,0.177632,0.076128,-9.02125,-4.59375,25.34,26.560001,-8.352,22.392,eccentric,6,5.0,26843.0,403431.0,159534.0,24129.0,-69.0
2026-04-09 22:25:51.063936,406995,2480974968,2480976348,-1.18096,0.173728,0.0976,-7.14,-4.57625,29.723751,26.528002,-8.112,22.792002,eccentric,6,5.0,26892.0,403431.0,159732.0,24350.0,-72.0
2026-04-09 22:25:51.068191,406996,2480983952,2480985082,-1.18096,0.173728,0.0976,-3.73625,-4.17375,32.3225,26.528002,-8.112,22.792002,eccentric,6,5.0,26892.0,403431.0,159732.0,24350.0,-72.0
2026-04-09 22:25:51.069895,406997,2480992905,2480993766,-1.169248,0.21472,0.083936,-1.65375,-3.01875,33.22375,26.888,-8.440001,23.480001,eccentric,6,5.0,26892.0,403431.0,159732.0,24350.0,-72.0
2026-04-09 22:25:51.071479,406998,2481007388,2481008670,-1.15168,0.162016,0.083936,-1.70625,-2.975,29.855,26.096,-8.576,25.136002,eccentric,6,5.0,26892.0,403431.0,159732.0,24350.0,-72.0
2026-04-09 22:25:51.106302,406999,2481016332,2481017452,-1.15168,0.162016,0.083936,-3.465,-2.7475,28.60375,26.096,-8.576,25.136002,eccentric,6,5.0,26892.0,403431.0,159732.0,24350.0,-72.0
2026-04-09 22:25:51.110689,407000,2481025305,2481026241,-1.139968,0.206912,0.124928,-1.93375,-2.54625,29.68,25.928001,-8.448,26.128002,eccentric,6,5.0,26892.0,403431.0,159732.0,24350.0,-72.0
2026-04-09 22:25:51.112393,407001,2481034261,2481035001,-1.139968,0.206912,0.124928,2.14375,-1.8375,31.15,25.928001,-8.448,26.128002,eccentric,6,5.0,26892.0,403431.0,159732.0,24350.0,-72.0
2026-04-09 22:25:51.114060,407002,2481049149,2481049979,-1.104832,0.244,0.115168,6.125,-0.88375,28.51625,26.424002,-9.376,23.416,eccentric,6,5.0,26892.0,403431.0,159732.0,24350.0,-72.0
2026-04-09 22:25:51.118212,407003,2481058073,2481058736,-1.104832,0.244,0.115168,5.08375,0.245,25.68125,26.424002,-9.376,23.416,eccentric,6,5.0,26892.0,403431.0,159732.0,24350.0,-72.0
2026-04-09 22:25:51.119874,407004,2481067324,2481069484,-1.091168,0.199104,0.101504,3.325,1.12,23.7125,27.44,-9.712001,24.016,eccentric,6,5.0,26892.0,403431.0,159732.0,24350.0,-72.0
2026-04-09 22:25:51.143952,407014,2481081956,2481082500,-1.091168,0.199104,0.101504,-1.1025,1.96875,21.56,27.44,-9.712001,24.016,eccentric,6,5.0,26806.0,403431.0,160414.0,24912.0,-63.0
2026-04-09 22:25:51.147762,407015,2481091530,2481093313,-1.081408,0.171776,0.091744,-0.67375,2.5025,20.23875,25.072,-9.728001,25.160002,eccentric,6,5.0,26806.0,403431.0,160414.0,24912.0,-63.0
2026-04-09 22:25:51.156172,407016,2481100557,2481102052,-1.081408,0.171776,0.091744,1.35625,1.6625,20.16,25.072,-9.728001,25.160002,eccentric,6,5.0,26806.0,403431.0,160414.0,24912.0,-63.0
2026-04-09 22:25:51.159242,407017,2481109499,2481110776,-1.052128,0.208864,0.083936,5.145,1.8725,18.57625,25.336,-10.192,25.096,eccentric,6,5.0,26806.0,403431.0,160414.0,24912.0,-63.0
2026-04-09 22:25:51.186303,407018,2481124026,2481125723,-1.052128,0.208864,0.083936,8.0325,2.40625,16.6425,25.336,-10.192,25.096,eccentric,6,5.0,26806.0,403431.0,160414.0,24912.0,-63.0
2026-04-09 22:25:51.190699,407019,2481132994,2481134417,-1.067744,0.232288,0.093696,7.9975,2.37125,14.84,27.056002,-10.032001,24.992,eccentric,6,5.0,26806.0,403431.0,160414.0,24912.0,-63.0
2026-04-09 22:25:51.192247,407020,2481141946,2481143095,-1.067744,0.232288,0.093696,7.5425,2.65125,12.34625,27.056002,-10.032001,24.992,eccentric,6,5.0,26806.0,403431.0,160414.0,24912.0,-63.0
2026-04-09 22:25:51.199306,407021,2481156458,2481158014,-1.061888,0.230336,0.111264,7.04375,2.485,7.6125,27.320002,-10.344001,23.632002,eccentric,6,5.0,26806.0,403431.0,160414.0,24912.0,-63.0
2026-04-09 22:25:51.227864,407022,2481165425,2481166776,-1.046272,0.226432,0.103456,8.12,3.01875,3.38625,27.320002,-10.344001,27.776001,eccentric,6,5.0,26806.0,403431.0,160414.0,24912.0,-63.0
2026-04-09 22:25:51.232681,407023,2481174330,2481175483,-1.046272,0.226432,0.103456,5.74,3.42125,1.4525,28.160002,-10.504001,27.776001,eccentric,6,5.0,26806.0,403431.0,160414.0,24912.0,-63.0
2026-04-09 22:25:51.269881,407033,2481183252,2481184213,-1.046272,0.226432,0.103456,2.1,3.35125,-2.065,28.160002,-10.504001,27.776001,eccentric,6,5.0,26708.0,403431.0,161263.0,25795.0,-45.0
2026-04-09 22:25:51.271509,407034,2481197857,2481199210,-1.020896,0.152256,0.091744,0.245,3.47375,-1.33,27.192001,-10.384001,24.384,eccentric,6,5.0,26708.0,403431.0,161263.0,25795.0,-45.0
2026-04-09 22:25:51.275632,407035,2481206790,2481207961,-1.001376,0.169824,0.12688,3.10625,3.59625,-2.26625,27.424002,-10.632001,24.12,eccentric,6,5.0,26708.0,403431.0,161263.0,25795.0,-45.0
2026-04-09 22:25:51.277302,407036,2481215715,2481216703,-1.001376,0.169824,0.12688,7.42875,3.92875,-3.98125,27.424002,-10.632001,24.12,eccentric,6,5.0,26708.0,403431.0,161263.0,25795.0,-45.0
2026-04-09 22:25:51.278906,407037,2481230196,2481231633,-1.007232,0.222528,0.130784,10.3425,6.36125,-1.32125,26.672,-10.832001,25.560001,eccentric,6,5.0,26708.0,403431.0,161263.0,25795.0,-45.0
2026-04-09 22:25:51.284634,407038,2481239119,2481240289,-1.007232,0.222528,0.130784,8.07625,7.51625,-3.40375,26.672,-10.832001,25.560001,eccentric,6,5.0,26708.0,403431.0,161263.0,25795.0,-45.0
2026-04-09 22:25:51.289273,407039,2481248044,2481249010,-1.003328,0.212768,0.122976,4.48875,8.198751,-4.165,27.312002,-9.912001,24.392002,eccentric,6,5.0,26708.0,403431.0,161263.0,25795.0,-45.0
2026-04-09 22:25:51.317774,407040,2481262519,2481263929,-1.003328,0.212768,0.122976,1.6975,8.23375,-4.29625,27.312002,-9.912001,24.392002,eccentric,6,5.0,26708.0,403431.0,161263.0,25795.0,-45.0
2026-04-09 22:25:51.322394,407041,2481271428,2481272607,-0.977952,0.210816,0.08784,-1.07625,9.66,-6.0725,27.584002,-10.504001,23.968,eccentric,6,5.0,26708.0,403431.0,161263.0,25795.0,-45.0
2026-04-09 22:25:51.348879,407052,2481280786,2481281376,-0.977952,0.210816,0.08784,-4.68125,9.87875,-7.875,27.584002,-10.504001,23.968,eccentric,6,5.0,26615.0,403431.0,162091.0,26590.0,-32.0
2026-04-09 22:25:51.352375,407053,2481290066,2481292203,-1.026752,0.173728,0.072224,-8.6625,9.33625,-9.625,27.208002,-10.936001,23.912,concentric,6,5.0,26615.0,403431.0,162091.0,26590.0,-32.0
2026-04-09 22:25:51.353905,407054,2481304590,2481305154,-1.026752,0.173728,0.072224,-8.33,8.33,-10.80625,27.208002,-10.936001,23.912,concentric,6,5.0,26615.0,403431.0,162091.0,26590.0,-32.0
2026-04-09 22:25:51.360461,407055,2481314027,2481315974,-1.020896,0.197152,0.130784,-1.5575,8.3475,-12.285,27.640001,-10.192,23.648,concentric,6,5.0,26615.0,403431.0,162091.0,26590.0,-32.0
2026-04-09 22:25:51.366398,407056,2481322974,2481324668,-1.020896,0.197152,0.130784,4.235,9.33625,-14.971251,27.640001,-10.192,23.648,concentric,6,5.0,26615.0,403431.0,162091.0,26590.0,-32.0
2026-04-09 22:25:51.427494,407057,2481337456,2481339527,-1.018944,0.232288,0.134688,4.6375,10.1325,-17.255,27.768002,-10.52,23.456001,concentric,6,5.0,26615.0,403431.0,162091.0,26590.0,-32.0
2026-04-09 22:25:51.429777,407058,2481346351,2481348212,-1.016992,0.199104,0.099552,1.6625,10.92875,-18.76,27.544,-9.92,23.584002,concentric,6,5.0,26615.0,403431.0,162091.0,26590.0,-32.0
2026-04-09 22:25:51.434379,407059,2481355304,2481356901,-1.016992,0.199104,0.099552,-3.50875,10.64,-20.58,27.544,-9.92,23.584002,concentric,6,5.0,26615.0,403431.0,162091.0,26590.0,-32.0
2026-04-09 22:25:51.436163,407060,2481364239,2481365629,-1.016992,0.199104,0.099552,-5.8275,10.22,-22.51375,27.544,-9.92,23.584002,concentric,6,5.0,26615.0,403431.0,162091.0,26590.0,-32.0
2026-04-09 22:25:51.461085,407070,2481379199,2481380786,-1.046272,0.167872,0.064416,-6.4225,10.22,-23.79125,27.624,-10.104,23.312,concentric,6,5.0,26519.0,403431.0,162699.0,27122.0,-35.0
2026-04-09 22:25:51.462630,407071,2481388156,2481389548,-1.079456,0.124928,0.0488,-6.02875,10.885,-24.96375,26.584002,-9.416,21.296001,concentric,6,5.0,26519.0,403431.0,162699.0,27122.0,-35.0
2026-04-09 22:25:51.466884,407072,2481397090,2481398399,-1.079456,0.124928,0.0488,-5.25875,10.57875,-24.61375,26.584002,-9.416,21.296001,concentric,6,5.0,26519.0,403431.0,162699.0,27122.0,-35.0
2026-04-09 22:25:51.468650,407073,2481411618,2481413307,-1.085312,0.140544,0.128832,-2.24,10.43,-23.68625,25.352001,-9.360001,24.024002,concentric,6,5.0,26519.0,403431.0,162699.0,27122.0,-35.0
2026-04-09 22:25:51.470171,407074,2481420599,2481422041,-1.085312,0.140544,0.128832,2.61625,10.42125,-23.33625,25.352001,-9.360001,24.024002,concentric,6,5.0,26519.0,403431.0,162699.0,27122.0,-35.0
2026-04-09 22:25:51.474914,407075,2481429613,2481430776,-1.08336,0.267424,0.10736,7.315,12.81,-23.80875,26.104002,-9.320001,23.936,concentric,6,5.0,26519.0,403431.0,162699.0,27122.0,-35.0
2026-04-09 22:25:51.502964,407076,2481444109,2481445748,-1.08336,0.267424,0.10736,9.2575,14.49875,-27.16875,26.104002,-9.320001,23.936,concentric,6,5.0,26519.0,403431.0,162699.0,27122.0,-35.0
2026-04-09 22:25:51.507316,407077,2481453014,2481454447,-1.08336,0.240096,0.05856,3.59625,15.72375,-29.89875,27.376001,-8.576,20.104,concentric,6,5.0,26519.0,403431.0,162699.0,27122.0,-35.0
2026-04-09 22:25:51.509669,407078,2481461959,2481463126,-1.08336,0.240096,0.05856,-6.18625,16.26625,-30.96625,27.376001,-8.576,20.104,concentric,6,5.0,26519.0,403431.0,162699.0,27122.0,-35.0
2026-04-09 22:25:51.513472,407079,2481470873,2481471850,-1.091168,0.17568,0.054656,-12.38125,17.5175,-33.285,27.432001,-8.456,22.2,concentric,6,5.0,26519.0,403431.0,162699.0,27122.0,-35.0
2026-04-09 22:25:51.544863,407089,2481485383,2481486836,-1.091168,0.17568,0.054656,-12.59125,18.15625,-36.513752,27.432001,-8.456,22.2,concentric,6,5.0,26591.0,403431.0,162288.0,26880.0,-38.0
2026-04-09 22:25:51.546430,407090,2481494368,2481495620,-1.128256,0.173728,0.015616,-6.93,18.585001,-37.5725,26.36,-8.288,21.432001,concentric,6,5.0,26591.0,403431.0,162288.0,26880.0,-38.0
2026-04-09 22:25:51.553005,407091,2481503299,2481504359,-1.128256,0.173728,0.015616,5.32875,18.17375,-38.1675,26.36,-8.288,21.432001,concentric,6,5.0,26591.0,403431.0,162288.0,26880.0,-38.0
2026-04-09 22:25:51.581585,407092,2481517794,2481519242,-1.089216,0.242048,0.0488,15.56625,18.26125,-40.5825,26.872002,-7.784,23.248001,concentric,6,5.0,26591.0,403431.0,162288.0,26880.0,-38.0
2026-04-09 22:25:51.586119,407093,2481526722,2481527942,-1.089216,0.325984,0.076128,20.09875,19.6175,-43.89,26.872002,-7.784,21.76,concentric,6,5.0,26591.0,403431.0,162288.0,26880.0,-38.0
2026-04-09 22:25:51.587585,407094,2481535595,2481536679,-1.079456,0.325984,0.076128,17.70125,21.2275,-48.92125,26.784,-7.576,21.76,concentric,6,5.0,26591.0,403431.0,162288.0,26880.0,-38.0
2026-04-09 22:25:51.593030,407095,2481550094,2481551576,-1.1224,0.255712,0.042944,8.75,22.23375,-53.89125,26.896002,-7.2,20.960001,concentric,6,5.0,26591.0,403431.0,162288.0,26880.0,-38.0
2026-04-09 22:25:51.621630,407096,2481559024,2481560295,-1.1224,0.255712,0.042944,-1.09375,22.82,-57.435,26.896002,-7.2,20.960001,concentric,6,5.0,26591.0,403431.0,162288.0,26880.0,-38.0
2026-04-09 22:25:51.626159,407097,2481567931,2481569010,-1.128256,0.173728,-0.007808,-7.70875,22.2075,-58.9575,26.352001,-6.592001,21.232,concentric,6,5.0,26591.0,403431.0,162288.0,26880.0,-38.0
2026-04-09 22:25:51.652598,407108,2481583044,2481583999,-1.128256,0.173728,-0.007808,-8.39125,21.21875,-59.0625,26.352001,-6.592001,21.232,concentric,6,5.0,26653.0,403431.0,161987.0,26810.0,-34.0
2026-04-09 22:25:51.655117,407109,2481592049,2481592710,-1.120448,0.171776,0.080032,-1.155,20.9475,-58.73,26.304,-6.304,20.312,concentric,6,5.0,26653.0,403431.0,161987.0,26810.0,-34.0
2026-04-09 22:25:51.657603,407110,2481601360,2481603541,-1.120448,0.171776,0.080032,4.41,20.825,-59.77125,26.304,-6.304,20.312,concentric,6,5.0,26653.0,403431.0,161987.0,26810.0,-34.0
2026-04-09 22:25:51.660096,407111,2481610319,2481612309,-1.13216,0.206912,0.050752,5.83625,21.428751,-60.095,25.552002,-6.056,19.52,concentric,6,5.0,26653.0,403431.0,161987.0,26810.0,-34.0
2026-04-09 22:25:51.707853,407112,2481624932,2481627217,-1.13216,0.206912,0.050752,1.365,21.81375,-59.64875,25.552002,-6.056,19.52,concentric,6,5.0,26653.0,403431.0,161987.0,26810.0,-34.0
2026-04-09 22:25:51.711341,407113,2481633888,2481635948,-1.149728,0.148352,0.031232,-4.0425,21.41125,-58.9575,26.36,-5.08,19.560001,concentric,6,5.0,26653.0,403431.0,161987.0,26810.0,-34.0
2026-04-09 22:25:51.714965,407114,2481642831,2481644673,-1.149728,0.148352,0.031232,-6.41375,20.93,-56.77875,26.36,-5.08,19.560001,concentric,6,5.0,26653.0,403431.0,161987.0,26810.0,-34.0
2026-04-09 22:25:51.717114,407115,2481651794,2481653358,-1.145824,0.15616,0.007808,-5.67,19.845,-54.5825,25.52,-5.36,19.704,concentric,6,5.0,26653.0,403431.0,161987.0,26810.0,-34.0
2026-04-09 22:25:51.719040,407116,2481666286,2481668268,-1.145824,0.15616,0.007808,0.98875,19.10125,-55.09,25.52,-5.36,19.704,concentric,6,5.0,26653.0,403431.0,161987.0,26810.0,-34.0
2026-04-09 22:25:51.721377,407117,2481675209,2481676972,-1.13216,0.171776,0.105408,7.39375,19.45125,-54.7225,25.776001,-4.712,19.0,concentric,6,5.0,26653.0,403431.0,161987.0,26810.0,-34.0
2026-04-09 22:25:51.748887,407127,2481684323,2481685786,-1.13216,0.171776,0.105408,8.785,20.825,-53.7775,25.776001,-4.712,19.0,concentric,6,5.0,26581.0,403431.0,162558.0,27279.0,-29.0
2026-04-09 22:25:51.751372,407128,2481698940,2481700756,-1.120448,0.140544,0.111264,3.43875,22.9075,-52.52625,23.592001,-4.256,19.816002,concentric,6,5.0,26581.0,403431.0,162558.0,27279.0,-29.0
2026-04-09 22:25:51.753878,407129,2481707899,2481709535,-1.16144,0.17568,-0.013664,-2.49375,24.0625,-49.53375,23.192001,-4.176,18.952002,concentric,6,5.0,26581.0,403431.0,162558.0,27279.0,-29.0
2026-04-09 22:25:51.757656,407130,2481716922,2481718330,-1.16144,0.17568,-0.013664,-3.87625,23.345,-47.8975,23.192001,-4.176,18.952002,concentric,6,5.0,26581.0,403431.0,162558.0,27279.0,-29.0
2026-04-09 22:25:51.787807,407131,2481731536,2481733237,-1.18096,0.16592,0.007808,-3.4825,21.5775,-52.07125,24.864,-4.272,17.752,concentric,6,5.0,26581.0,403431.0,162558.0,27279.0,-29.0
2026-04-09 22:25:51.792456,407132,2481740443,2481741926,-1.18096,0.16592,0.007808,-0.74375,21.175,-51.1875,24.864,-4.272,17.752,concentric,6,5.0,26581.0,403431.0,162558.0,27279.0,-29.0
2026-04-09 22:25:51.793848,407133,2481749432,2481750658,-1.167296,0.152256,0.197152,-0.53375,23.42375,-46.45375,24.848001,-3.392,16.848001,concentric,6,5.0,26581.0,403431.0,162558.0,27279.0,-29.0
2026-04-09 22:25:51.799291,407134,2481758340,2481759410,-1.167296,0.152256,0.197152,-1.155,28.210001,-47.25,24.848001,-3.392,16.848001,concentric,6,5.0,26581.0,403431.0,162558.0,27279.0,-29.0
2026-04-09 22:25:51.829241,407135,2481772875,2481774308,-1.177056,0.171776,0.115168,-7.39375,33.1275,-48.5625,24.024002,-3.464,17.248001,concentric,6,5.0,26581.0,403431.0,162558.0,27279.0,-29.0
2026-04-09 22:25:51.855170,407145,2481781832,2481783098,-1.177056,0.171776,0.115168,-16.905,36.435,-47.775,24.024002,-3.464,17.248001,concentric,6,5.0,26722.0,403431.0,161515.0,26478.0,-43.0
2026-04-09 22:25:51.857645,407146,2481790845,2481791930,-1.20048,0.10736,-0.105408,-24.89375,36.6625,-45.885,24.144001,-3.2,16.84,concentric,6,5.0,26722.0,403431.0,161515.0,26478.0,-43.0
2026-04-09 22:25:51.860131,407147,2481805352,2481806873,-1.20048,0.10736,-0.105408,-24.815,35.21875,-41.0375,24.144001,-3.2,16.84,concentric,6,5.0,26722.0,403431.0,161515.0,26478.0,-43.0
2026-04-09 22:25:51.862655,407148,2481814296,2481815646,-1.227808,0.111264,-0.037088,-14.4725,33.31125,-36.26,23.832,-3.384,17.728,concentric,6,5.0,26722.0,403431.0,161515.0,26478.0,-43.0
2026-04-09 22:25:51.865118,407149,2481823290,2481824334,-1.227808,0.111264,-0.037088,0.7525,31.82375,-33.451252,23.832,-3.384,17.728,concentric,6,5.0,26722.0,403431.0,161515.0,26478.0,-43.0
2026-04-09 22:25:51.895297,407150,2481837800,2481839227,-1.155584,0.230336,0.042944,10.54375,30.45875,-36.19875,22.800001,-3.376,17.576,concentric,6,5.0,26722.0,403431.0,161515.0,26478.0,-43.0
2026-04-09 22:25:51.898931,407151,2481846755,2481847999,-1.155584,0.230336,0.042944,9.8875,29.89,-39.01625,22.800001,-3.376,17.576,concentric,6,5.0,26722.0,403431.0,161515.0,26478.0,-43.0
2026-04-09 22:25:51.901326,407152,2481855658,2481856755,-1.165344,0.199104,0.01952,1.60125,30.275,-37.8,22.696001,-3.464,15.776001,concentric,6,5.0,26722.0,403431.0,161515.0,26478.0,-43.0
2026-04-09 22:25:51.931594,407153,2481870182,2481871752,-1.212192,0.105408,-0.033184,-6.545,30.26625,-37.607502,22.136002,-2.736,15.688001,concentric,6,5.0,26722.0,403431.0,161515.0,26478.0,-43.0
2026-04-09 22:25:51.935192,407154,2481879124,2481880456,-1.212192,0.105408,-0.033184,-6.58875,30.94,-35.91875,22.136002,-2.736,15.688001,concentric,6,5.0,26722.0,403431.0,161515.0,26478.0,-43.0
2026-04-09 22:25:51.966431,407165,2481888062,2481889186,-1.212192,0.124928,-0.046848,-3.91125,31.22,-34.50125,22.136002,-2.736,19.784,concentric,6,5.0,26919.0,403431.0,159708.0,24982.0,-49.0
2026-04-09 22:25:51.968875,407166,2481896980,2481897912,-1.159488,0.124928,-0.046848,0.07,31.43,-33.705,22.568,-3.424,19.376001,concentric,6,5.0,26919.0,403431.0,159708.0,24982.0,-49.0
2026-04-09 22:25:51.971424,407167,2481911503,2481912896,-1.206336,0.17568,0.023424,3.42125,31.911251,-32.515,22.176,-3.192,15.008,concentric,6,5.0,26919.0,403431.0,159708.0,24982.0,-49.0
2026-04-09 22:25:52.006670,407168,2481920520,2481921686,-1.206336,0.17568,0.023424,8.05875,34.5975,-31.7275,22.176,-3.192,15.008,concentric,6,5.0,26919.0,403431.0,159708.0,24982.0,-49.0
2026-04-09 22:25:52.013887,407169,2481929442,2481930424,-1.165344,0.148352,0.027328,9.87,38.885,-31.21125,21.552002,-2.952,13.648001,concentric,6,5.0,26919.0,403431.0,159708.0,24982.0,-49.0
2026-04-09 22:25:52.016360,407170,2481943912,2481945342,-1.165344,0.148352,0.027328,5.39875,42.63,-29.56625,21.552002,-2.952,13.648001,concentric,6,5.0,26919.0,403431.0,159708.0,24982.0,-49.0
2026-04-09 22:25:52.018926,407171,2481952819,2481954025,-1.1224,0.044896,-0.040992,-2.02125,45.14125,-27.5625,20.984001,-2.72,14.52,concentric,6,5.0,26919.0,403431.0,159708.0,24982.0,-49.0
2026-04-09 22:25:52.021418,407172,2481961763,2481962714,-1.1224,0.044896,-0.040992,-11.47125,45.5525,-27.1075,20.984001,-2.72,14.52,concentric,6,5.0,26919.0,403431.0,159708.0,24982.0,-49.0
2026-04-09 22:25:52.023910,407173,2481976263,2481977627,-1.159488,0.11712,-0.113216,-15.77625,45.07125,-24.36875,20.76,-3.224,13.864,concentric,6,5.0,26919.0,403431.0,159708.0,24982.0,-49.0
2026-04-09 22:25:52.048908,407183,2481985301,2481986374,-1.159488,0.11712,-0.113216,-9.82625,43.88125,-18.41875,20.76,-3.224,13.864,concentric,6,5.0,27420.0,403431.0,157338.0,23220.0,-68.0
2026-04-09 22:25:52.051366,407184,2481994332,2481995156,-1.139968,0.13664,-0.0976,-1.47,42.35875,-22.04125,20.024,-2.44,13.920001,concentric,6,5.0,27420.0,403431.0,157338.0,23220.0,-68.0
2026-04-09 22:25:52.053902,407185,2482008839,2482010187,-1.095072,0.134688,-0.080032,3.5175,40.88,-22.1375,20.024,-3.24,13.296001,concentric,6,5.0,27420.0,403431.0,157338.0,23220.0,-68.0
2026-04-09 22:25:52.058965,407186,2482017777,2482018892,-1.095072,0.134688,-0.080032,4.36625,38.482502,-20.335001,19.064001,-3.24,13.296001,concentric,6,5.0,27420.0,403431.0,157338.0,23220.0,-68.0
2026-04-09 22:25:52.089104,407187,2482026709,2482027574,-1.095072,0.134688,-0.080032,-1.67125,36.09375,-22.07625,19.064001,-3.24,13.296001,concentric,6,5.0,27420.0,403431.0,157338.0,23220.0,-68.0
2026-04-09 22:25:52.092724,407188,2482035617,2482036298,-1.153632,0.076128,-0.17568,-4.75125,33.1275,-21.945,18.68,-3.16,13.464001,concentric,6,5.0,27420.0,403431.0,157338.0,23220.0,-68.0
2026-04-09 22:25:52.095191,407189,2482050488,2482051205,-1.10288,0.035136,-0.144448,-3.75375,30.05625,-20.335001,19.008001,-3.152,12.888001,concentric,6,5.0,27420.0,403431.0,157338.0,23220.0,-68.0
2026-04-09 22:25:52.102675,407190,2482059811,2482062001,-1.10288,0.035136,-0.144448,1.26,26.495,-20.34375,19.008001,-3.152,12.888001,concentric,6,5.0,27420.0,403431.0,157338.0,23220.0,-68.0
2026-04-09 22:25:52.132819,407191,2482068720,2482070699,-1.10288,0.124928,-0.122976,6.16875,22.575,-19.1975,19.008001,-3.152,14.936001,concentric,6,5.0,27420.0,403431.0,157338.0,23220.0,-68.0
2026-04-09 22:25:52.166337,407201,2482083454,2482085601,-1.089216,0.124928,-0.122976,11.5675,20.0725,-18.8475,17.832,-3.032,14.856001,concentric,6,5.0,27466.0,403431.0,157100.0,22999.0,-79.0
2026-04-09 22:25:52.168923,407202,2482092505,2482094295,-1.134112,0.13664,-0.111264,11.55,18.48875,-19.425,18.68,-3.064,12.608001,concentric,6,5.0,27466.0,403431.0,157100.0,22999.0,-79.0
2026-04-09 22:25:52.171410,407203,2482101419,2482103035,-1.134112,0.13664,-0.111264,10.19375,18.54125,-18.34,18.68,-3.064,12.608001,concentric,6,5.0,27466.0,403431.0,157100.0,22999.0,-79.0
2026-04-09 22:25:52.173965,407204,2482110405,2482111758,-1.061888,0.02928,-0.10736,5.7225,17.5525,-18.1125,18.456001,-3.304,13.424001,concentric,6,5.0,27466.0,403431.0,157100.0,22999.0,-79.0
2026-04-09 22:25:52.176417,407205,2482124893,2482126722,-1.061888,0.02928,-0.10736,0.14,16.47625,-18.4625,18.456001,-3.304,13.424001,concentric,6,5.0,27466.0,403431.0,157100.0,22999.0,-79.0
2026-04-09 22:25:52.178900,407206,2482133817,2482135463,-1.110688,0.101504,-0.113216,1.19,15.14625,-17.33375,18.416,-3.088,13.432001,concentric,6,5.0,27466.0,403431.0,157100.0,22999.0,-79.0
2026-04-09 22:25:52.184014,407207,2482142760,2482144171,-1.110688,0.101504,-0.113216,7.245,14.542501,-15.39125,18.416,-3.088,13.432001,concentric,6,5.0,27466.0,403431.0,157100.0,22999.0,-79.0
2026-04-09 22:25:52.214178,407208,2482157212,2482159126,-1.050176,0.1464,-0.093696,10.0275,14.44625,-15.925,18.024,-3.12,14.000001,concentric,6,5.0,27466.0,403431.0,157100.0,22999.0,-79.0
2026-04-09 22:25:52.217686,407209,2482166122,2482167808,-1.050176,0.1464,-0.093696,8.46125,15.225,-16.6775,18.024,-3.12,14.000001,concentric,6,5.0,27466.0,403431.0,157100.0,22999.0,-79.0
2026-04-09 22:25:52.220190,407210,2482175043,2482176521,-1.036512,0.056608,-0.152256,0.315,15.47875,-18.26125,18.384,-3.0,11.976001,concentric,6,5.0,27466.0,403431.0,157100.0,22999.0,-79.0
2026-04-09 22:25:52.245194,407220,2482189575,2482191663,-1.079456,0.013664,-0.216672,-6.02,12.845,-18.57625,18.384,-2.8,10.504001,concentric,6,5.0,27532.0,403431.0,156413.0,22313.0,-81.0
2026-04-09 22:25:52.247748,407221,2482198502,2482200379,-1.079456,0.013664,-0.216672,-5.10125,8.68875,-18.4625,16.616001,-2.8,10.504001,concentric,6,5.0,27532.0,403431.0,156413.0,22313.0,-81.0
2026-04-09 22:25:52.253957,407222,2482207440,2482209126,-1.079456,0.013664,-0.216672,2.00375,3.38625,-17.28125,16.616001,-2.8,10.504001,concentric,6,5.0,27532.0,403431.0,156413.0,22313.0,-81.0
2026-04-09 22:25:52.258990,407223,2482216383,2482217846,-1.050176,0.042944,-0.1952,10.7275,-0.25375,-13.16875,16.824001,-3.328,12.304001,concentric,6,5.0,27532.0,403431.0,156413.0,22313.0,-81.0
2026-04-09 22:25:52.305527,407224,2482230899,2482232805,-0.968192,0.037088,-0.046848,12.46875,-1.88125,-11.5675,17.752,-3.288,12.392,concentric,6,5.0,27532.0,403431.0,156413.0,22313.0,-81.0
2026-04-09 22:25:52.308955,407225,2482239810,2482241500,-0.968192,0.037088,-0.046848,5.80125,-1.74125,-15.3475,17.752,-3.288,12.392,concentric,6,5.0,27532.0,403431.0,156413.0,22313.0,-81.0
2026-04-09 22:25:52.311362,407226,2482248722,2482250219,-0.968192,0.037088,-0.046848,1.2425,-0.90125,-17.5,17.752,-3.288,12.392,concentric,6,5.0,27532.0,403431.0,156413.0,22313.0,-81.0
2026-04-09 22:25:52.313897,407227,2482263206,2482265127,-1.013088,0.080032,-0.216672,1.18125,-0.4725,-18.147501,17.072,-3.168,11.912001,concentric,6,5.0,27532.0,403431.0,156413.0,22313.0,-81.0
2026-04-09 22:25:52.316417,407228,2482272117,2482273863,-1.08336,0.093696,-0.355264,7.49875,-1.18125,-16.065,17.936,-3.552,12.56,concentric,6,5.0,27532.0,403431.0,156413.0,22313.0,-81.0
2026-04-09 22:25:52.322675,407229,2482281050,2482282572,-1.08336,0.093696,-0.355264,15.4,-3.29875,-14.65625,17.936,-3.552,12.56,concentric,6,5.0,27532.0,403431.0,156413.0,22313.0,-81.0
2026-04-09 22:25:52.350221,407240,2482295644,2482297519,-1.057984,-0.11712,-0.130784,12.495,-7.88375,-17.185,17.36,-3.376,12.648001,concentric,6,5.0,27310.0,403431.0,156728.0,22184.0,-76.0
2026-04-09 22:25:52.352696,407241,2482304586,2482306231,-1.057984,-0.11712,-0.130784,9.4675,-10.8675,-16.6425,17.36,-3.376,12.648001,concentric,6,5.0,27310.0,403431.0,156728.0,22184.0,-76.0
2026-04-09 22:25:52.356479,407242,2482313522,2482314930,-1.032608,-0.003904,-0.007808,12.6,-8.77625,-14.665,17.896,-2.976,12.456,concentric,6,5.0,27310.0,403431.0,156728.0,22184.0,-76.0
2026-04-09 22:25:52.387946,407243,2482328091,2482329847,-1.032608,-0.003904,-0.007808,17.3775,-3.3075,-14.84875,17.896,-2.976,12.456,concentric,6,5.0,27310.0,403431.0,156728.0,22184.0,-76.0
2026-04-09 22:25:52.391427,407244,2482337038,2482338560,-0.99552,0.171776,-0.144448,18.85625,5.88875,-16.905,16.240002,-2.768,13.528001,concentric,6,5.0,27310.0,403431.0,156728.0,22184.0,-76.0
2026-04-09 22:25:52.393911,407245,2482345942,2482347273,-0.99552,0.171776,-0.144448,9.205,11.27,-21.315,16.240002,-2.768,13.528001,concentric,6,5.0,27310.0,403431.0,156728.0,22184.0,-76.0
2026-04-09 22:25:52.396398,407246,2482354897,2482355966,-1.079456,0.040992,-0.37088,-0.315,11.75125,-23.12625,16.832,-3.696,12.120001,concentric,6,5.0,27310.0,403431.0,156728.0,22184.0,-76.0
2026-04-09 22:25:52.426616,407247,2482369463,2482370884,-1.079456,0.040992,-0.230336,-2.1175,10.2375,-22.4525,16.832,-3.696,12.120001,concentric,6,5.0,27310.0,403431.0,156728.0,22184.0,-76.0
2026-04-09 22:25:52.431434,407248,2482378357,2482379582,-1.030656,-0.148352,-0.220576,2.84375,7.6825,-20.553751,17.320002,-3.392,14.144001,concentric,6,5.0,27310.0,403431.0,156728.0,22184.0,-76.0
2026-04-09 22:25:52.455145,407258,2482387475,2482388642,-1.030656,-0.148352,-0.220576,5.915,8.02375,-20.08125,17.320002,-3.392,14.144001,concentric,6,5.0,27252.0,403431.0,156608.0,21913.0,-76.0
2026-04-09 22:25:52.457654,407259,2482402039,2482403569,-0.923296,0.023424,0.074176,12.78375,14.2275,-19.83625,16.552,-3.208,11.912001,concentric,6,5.0,27252.0,403431.0,156608.0,21913.0,-76.0
2026-04-09 22:25:52.460187,407260,2482411151,2482412326,-0.98576,0.093696,-0.21472,16.58125,22.18125,-21.14875,16.104,-2.96,11.256001,concentric,6,5.0,27252.0,403431.0,156608.0,21913.0,-76.0
2026-04-09 22:25:52.462656,407261,2482420109,2482421042,-0.98576,0.093696,-0.21472,8.8725,25.725,-23.77375,16.104,-2.96,11.256001,concentric,6,5.0,27252.0,403431.0,156608.0,21913.0,-76.0
2026-04-09 22:25:52.492927,407262,2482434626,2482435944,-1.065792,-0.06832,-0.36112,-3.115,22.63625,-25.94375,16.584002,-2.824,12.8,concentric,6,5.0,27252.0,403431.0,156608.0,21913.0,-76.0
2026-04-09 22:25:52.505293,407263,2482443543,2482444645,-1.065792,-0.06832,-0.36112,-5.74875,16.2225,-24.395,16.584002,-2.824,12.8,concentric,6,5.0,27252.0,403431.0,156608.0,21913.0,-76.0
2026-04-09 22:25:52.507714,407264,2482452486,2482453374,-0.948672,-0.169824,-0.08784,3.31625,11.6725,-23.66875,16.552,-3.112,12.016001,concentric,6,5.0,27252.0,403431.0,156608.0,21913.0,-76.0
2026-04-09 22:25:52.510196,407265,2482461429,2482462089,-0.948672,-0.169824,-0.08784,10.535,11.12125,-21.84,16.552,-3.112,12.016001,concentric,6,5.0,27252.0,403431.0,156608.0,21913.0,-76.0
2026-04-09 22:25:52.540403,407266,2482476308,2482477034,-0.911584,0.046848,-0.033184,15.54875,16.905,-17.3775,15.792001,-2.576,13.184001,concentric,6,5.0,27252.0,403431.0,156608.0,21913.0,-76.0
2026-04-09 22:25:52.566430,407276,2482485749,2482487860,-0.911584,0.046848,-0.033184,16.4325,23.2575,-19.2675,15.792001,-2.576,13.184001,concentric,6,5.0,27292.0,403431.0,155989.0,21352.0,-85.0
2026-04-09 22:25:52.568966,407277,2482494729,2482496571,-1.018944,-0.001952,-0.271328,5.59125,26.57375,-22.44375,15.648001,-2.872,11.856001,concentric,6,5.0,27292.0,403431.0,155989.0,21352.0,-85.0
2026-04-09 22:25:52.571496,407278,2482509341,2482511483,-1.018944,-0.001952,-0.271328,-6.11625,22.75875,-22.05,15.648001,-2.872,11.856001,concentric,6,5.0,27292.0,403431.0,155989.0,21352.0,-85.0
2026-04-09 22:25:52.605382,407279,2482518317,2482520245,-1.01504,-0.158112,-0.501664,-4.9525,13.06375,-20.1425,14.792001,-2.712,11.776001,concentric,6,5.0,27292.0,403431.0,155989.0,21352.0,-85.0
2026-04-09 22:25:52.608960,407280,2482527252,2482528956,-1.01504,-0.158112,-0.501664,-0.67375,2.68625,-22.960001,14.792001,-2.712,11.776001,concentric,6,5.0,27292.0,403431.0,155989.0,21352.0,-85.0
2026-04-09 22:25:52.611447,407281,2482536300,2482537734,-0.976,-0.171776,-0.042944,6.95625,-3.045,-19.08375,16.0,-2.88,12.112,concentric,6,5.0,27292.0,403431.0,155989.0,21352.0,-85.0
2026-04-09 22:25:52.613994,407282,2482550776,2482552632,-0.880352,0.025376,-0.001952,24.22,-1.88125,-13.86,16.0,-2.88,11.864,concentric,6,5.0,27292.0,403431.0,155989.0,21352.0,-85.0
2026-04-09 22:25:52.616550,407283,2482559685,2482561331,-0.880352,0.025376,-0.001952,30.135,3.71,-15.1025,15.808001,-2.672,11.864,concentric,6,5.0,27292.0,403431.0,155989.0,21352.0,-85.0
2026-04-09 22:25:52.618908,407284,2482568609,2482570047,-0.880352,0.025376,-0.001952,15.49625,6.8425,-17.4125,15.808001,-2.672,11.864,concentric,6,5.0,27292.0,403431.0,155989.0,21352.0,-85.0
2026-04-09 22:25:52.657213,407295,2482583146,2482585369,-0.952576,-0.035136,-0.314272,-6.405,7.32375,-16.80875,15.744,-2.808,11.672001,concentric,6,5.0,27351.0,403431.0,155450.0,20819.0,-85.0
2026-04-09 22:25:52.657385,407296,2482592117,2482594102,-1.020896,-0.150304,-0.238144,-13.58,4.38375,-15.65375,14.496,-2.592,16.344,concentric,6,5.0,27351.0,403431.0,155450.0,20819.0,-85.0
2026-04-09 22:25:52.659037,407297,2482601095,2482602872,-1.020896,-0.150304,-0.238144,-6.37,-0.0175,-17.85875,14.496,-2.592,16.344,concentric,6,5.0,27351.0,403431.0,155450.0,20819.0,-85.0
2026-04-09 22:25:52.663968,407298,2482615629,2482617833,-0.83936,-0.111264,0.003904,11.655,0.83125,-17.9025,15.344001,-2.376,11.864,concentric,6,5.0,27351.0,403431.0,155450.0,20819.0,-85.0
2026-04-09 22:25:52.666387,407299,2482624609,2482626572,-0.83936,-0.111264,0.003904,18.61125,4.22625,-13.36125,15.344001,-2.376,11.864,concentric,6,5.0,27351.0,403431.0,155450.0,20819.0,-85.0
2026-04-09 22:25:52.701725,407300,2482633663,2482635305,-0.884256,-0.013664,-0.23424,14.91875,7.55125,-9.8875,15.392001,-2.792,11.920001,concentric,6,5.0,27351.0,403431.0,155450.0,20819.0,-85.0
2026-04-09 22:25:52.705191,407301,2482642594,2482644031,-0.884256,-0.013664,-0.23424,5.4075,8.39125,-10.167501,15.392001,-2.792,11.920001,concentric,6,5.0,27351.0,403431.0,155450.0,20819.0,-85.0
2026-04-09 22:25:52.707669,407302,2482657089,2482658938,-0.948672,-0.085888,-0.208864,-6.13375,3.10625,-11.3575,15.568001,-2.864,11.696,concentric,6,5.0,27351.0,403431.0,155450.0,20819.0,-85.0
2026-04-09 22:25:52.710162,407303,2482666037,2482667642,-0.948672,-0.085888,-0.208864,-3.15875,-0.34125,-12.18,15.568001,-2.864,11.696,concentric,6,5.0,27351.0,403431.0,155450.0,20819.0,-85.0
