pc_time,serial_num,sensor_ts,host_ts,ax,ay,az,gx,gy,gz,mx,my,mz,phase,rpe,weight_kg,ppg_a,ppg_b,ppg_c,ppg_d,ppg_e
2026-04-09 22:25:52.716433,407304,2482674956,2482676352,-0.88816,-0.105408,-0.128832,12.285,0.25375,-13.50125,13.040001,-3.032,13.032001,eccentric,6,5.0,27351.0,403431.0,155450.0,20819.0,-85.0
2026-04-09 22:25:52.774024,407314,2482689811,2482691280,-0.88816,-0.105408,-0.128832,16.23125,0.44625,-11.10375,13.040001,-3.032,13.032001,eccentric,6,5.0,27421.0,403431.0,154476.0,19876.0,-95.0
2026-04-09 22:25:52.778309,407315,2482698741,2482699958,-0.853024,-0.138592,-0.11712,8.91625,0.37625,-7.245,14.704,-3.112,11.928,eccentric,6,5.0,27421.0,403431.0,154476.0,19876.0,-95.0
2026-04-09 22:25:52.779882,407316,2482707641,2482708741,-0.853024,-0.138592,-0.11712,4.305,1.96875,-5.95,14.704,-3.112,11.928,eccentric,6,5.0,27421.0,403431.0,154476.0,19876.0,-95.0
2026-04-09 22:25:52.781419,407317,2482722332,2482723859,-0.923296,0.042944,-0.093696,6.4575,4.515,-6.9475,14.904,-2.824,11.736001,eccentric,6,5.0,27421.0,403431.0,154476.0,19876.0,-95.0
2026-04-09 22:25:52.784999,407318,2482731291,2482732678,-0.923296,-0.111264,-0.226432,10.94625,7.98875,-8.81125,14.904,-2.824,11.736001,eccentric,6,5.0,27421.0,403431.0,154476.0,19876.0,-95.0
2026-04-09 22:25:52.786464,407319,2482740235,2482741413,-0.894016,-0.111264,-0.226432,4.76875,7.21875,-9.835,15.568001,-2.616,11.320001,eccentric,6,5.0,27421.0,403431.0,154476.0,19876.0,-95.0
2026-04-09 22:25:52.791909,407320,2482749193,2482750152,-0.894016,-0.111264,-0.226432,-10.85875,3.84125,-6.36125,15.568001,-2.616,11.320001,eccentric,6,5.0,27421.0,403431.0,154476.0,19876.0,-95.0
2026-04-09 22:25:52.820422,407321,2482763667,2482765101,-0.972096,-0.21472,-0.2928,-14.18375,-2.0125,-2.82625,15.616001,-2.528,11.912001,eccentric,6,5.0,27421.0,403431.0,154476.0,19876.0,-95.0
2026-04-09 22:25:52.824210,407322,2482772585,2482773792,-0.911584,-0.023424,-0.103456,-5.915,-8.05,-0.56875,15.592001,-2.176,11.288,eccentric,6,5.0,27421.0,403431.0,154476.0,19876.0,-95.0
2026-04-09 22:25:52.826548,407323,2482781506,2482782482,-0.911584,-0.023424,-0.103456,10.64875,-10.885,0.77875,15.592001,-2.176,11.288,eccentric,6,5.0,27421.0,403431.0,154476.0,19876.0,-95.0
2026-04-09 22:25:52.851587,407333,2482796225,2482797481,-0.860832,0.00976,-0.05856,19.22375,-11.2525,-0.98875,14.968,-2.592,13.176001,eccentric,6,5.0,27717.0,403431.0,152680.0,18584.0,-106.0
2026-04-09 22:25:52.858243,407334,2482805243,2482806204,-0.860832,0.00976,-0.05856,10.22875,-8.44375,-1.47,14.968,-2.592,13.176001,eccentric,6,5.0,27717.0,403431.0,152680.0,18584.0,-106.0
2026-04-09 22:25:52.858905,407335,2482814189,2482814918,-0.923296,-0.11712,-0.122976,-1.05,-3.5525,-2.52,14.904,-2.88,12.416,eccentric,6,5.0,27717.0,403431.0,152680.0,18584.0,-106.0
2026-04-09 22:25:52.904280,407336,2482829096,2482829856,-0.923296,-0.11712,-0.122976,-7.83125,1.23375,-1.44375,14.904,-2.88,12.416,eccentric,6,5.0,27717.0,403431.0,152680.0,18584.0,-106.0
2026-04-09 22:25:52.906517,407337,2482838612,2482840637,-0.952576,-0.095648,-0.242048,-11.38375,2.00375,1.19875,15.400001,-2.848,11.912001,eccentric,6,5.0,27717.0,403431.0,152680.0,18584.0,-106.0
2026-04-09 22:25:52.912686,407338,2482847557,2482849349,-0.952576,-0.095648,-0.242048,-5.80125,-0.34125,4.87375,15.400001,-2.848,11.912001,eccentric,6,5.0,27717.0,403431.0,152680.0,18584.0,-106.0
2026-04-09 22:25:52.916472,407339,2482856495,2482858035,-0.923296,-0.031232,-0.17568,5.27625,-3.955,5.38125,15.872001,-2.688,12.256001,eccentric,6,5.0,27717.0,403431.0,152680.0,18584.0,-106.0
2026-04-09 22:25:52.919488,407340,2482871000,2482872972,-0.923296,-0.031232,-0.17568,7.315,-7.07,6.39625,15.872001,-2.688,12.256001,eccentric,6,5.0,27717.0,403431.0,152680.0,18584.0,-106.0
2026-04-09 22:25:52.922733,407341,2482879904,2482881666,-0.940864,-0.06832,-0.093696,2.24,-7.875,9.765,14.992001,-2.792,15.856001,eccentric,6,5.0,27717.0,403431.0,152680.0,18584.0,-106.0
2026-04-09 22:25:52.950230,407352,2482889515,2482890379,-0.940864,-0.06832,-0.093696,-4.27,-7.76125,6.46625,14.992001,-2.792,15.856001,eccentric,6,5.0,27869.0,403431.0,151476.0,17544.0,-126.0
2026-04-09 22:25:52.952665,407353,2482898499,2482899186,-0.954528,-0.119072,-0.20496,-7.455,-7.84,7.11375,16.504002,-2.616,11.688001,eccentric,6,5.0,27869.0,403431.0,151476.0,17544.0,-126.0
2026-04-09 22:25:52.955211,407354,2482913384,2482914120,-0.968192,-0.060512,-0.22448,-3.8675,-9.205,12.34625,16.184,-2.88,11.920001,eccentric,6,5.0,27869.0,403431.0,151476.0,17544.0,-126.0
2026-04-09 22:25:52.985471,407355,2482922737,2482924901,-0.968192,-0.060512,-0.22448,6.93,-12.6875,14.84875,16.184,-2.88,11.920001,eccentric,6,5.0,27869.0,403431.0,151476.0,17544.0,-126.0
2026-04-09 22:25:52.989016,407356,2482931667,2482933594,-0.968192,-0.060512,-0.365024,12.8275,-19.11875,15.96875,16.184,-2.88,11.920001,eccentric,6,5.0,27869.0,403431.0,151476.0,17544.0,-126.0
2026-04-09 22:25:52.992588,407357,2482946166,2482946481,-1.018944,-0.070272,-0.374784,12.81875,-27.78125,20.16875,16.688002,-2.696,13.072001,eccentric,6,5.0,27869.0,403431.0,151476.0,17544.0,-126.0
2026-04-09 22:25:52.997011,407358,2482955356,2482957290,-0.976,-0.091744,-0.080032,13.4925,-35.84875,25.10375,15.416,-2.624,15.176001,eccentric,6,5.0,27869.0,403431.0,151476.0,17544.0,-126.0
2026-04-09 22:25:53.026674,407359,2482964273,2482965995,-0.976,-0.091744,-0.080032,18.27875,-38.7275,25.33125,15.416,-2.624,15.176001,eccentric,6,5.0,27869.0,403431.0,151476.0,17544.0,-126.0
2026-04-09 22:25:53.030256,407360,2482973230,2482974683,-1.001376,0.003904,0.011712,25.62,-36.8725,25.13,17.072,-2.936,12.168,eccentric,6,5.0,27869.0,403431.0,151476.0,17544.0,-126.0
2026-04-09 22:25:53.059523,407370,2482988179,2482989756,-1.001376,0.003904,0.011712,28.28875,-37.9575,27.16,17.072,-2.936,12.168,eccentric,6,5.0,27614.0,403431.0,152540.0,17971.0,-114.0
2026-04-09 22:25:53.061197,407371,2482997214,2482998512,-0.962336,0.021472,-0.171776,22.47875,-38.92875,26.10125,17.544,-2.768,13.224001,eccentric,6,5.0,27614.0,403431.0,152540.0,17971.0,-114.0
2026-04-09 22:25:53.063642,407372,2483006235,2483007258,-0.962336,0.021472,-0.171776,12.9675,-38.61375,23.975,17.544,-2.768,13.224001,eccentric,6,5.0,27614.0,403431.0,152540.0,17971.0,-114.0
2026-04-09 22:25:53.065237,407373,2483020744,2483022150,-0.98576,-0.076128,-0.220576,2.54625,-39.33125,24.7975,17.928001,-3.016,13.480001,eccentric,6,5.0,27614.0,403431.0,152540.0,17971.0,-114.0
2026-04-09 22:25:53.072324,407374,2483029671,2483030890,-0.98576,-0.076128,-0.220576,-1.16375,-36.60125,25.725,17.928001,-3.016,13.480001,eccentric,6,5.0,27614.0,403431.0,152540.0,17971.0,-114.0
2026-04-09 22:25:53.103764,407375,2483038605,2483039600,-1.016992,0.02928,0.10736,5.67875,-29.89,25.62875,18.136002,-2.944,13.712001,eccentric,6,5.0,27614.0,403431.0,152540.0,17971.0,-114.0
2026-04-09 22:25:53.108193,407376,2483047538,2483048295,-1.016992,0.02928,0.10736,19.81,-19.74875,25.85625,18.136002,-2.944,13.712001,eccentric,6,5.0,27614.0,403431.0,152540.0,17971.0,-114.0
2026-04-09 22:25:53.109753,407377,2483062448,2483063181,-0.95648,0.101504,0.013664,25.62875,-11.33125,21.49875,18.888,-2.8,13.76,eccentric,6,5.0,27614.0,403431.0,152540.0,17971.0,-114.0
2026-04-09 22:25:53.115563,407378,2483071800,2483073969,-0.95648,0.101504,0.013664,14.44625,-8.82,17.185,18.888,-2.8,13.76,eccentric,6,5.0,27614.0,403431.0,152540.0,17971.0,-114.0
2026-04-09 22:25:53.155206,407379,2483080818,2483082670,-1.020896,0.050752,-0.074176,-0.5425,-8.67125,17.52625,17.152,-2.952,15.672001,eccentric,6,5.0,27614.0,403431.0,152540.0,17971.0,-114.0
2026-04-09 22:25:53.214982,407389,2483095271,2483095598,-1.050176,0.03904,-0.16592,-5.99375,-8.26875,16.44125,18.288,-3.056,14.080001,eccentric,6,5.0,27662.0,403431.0,151907.0,17301.0,-114.0
2026-04-09 22:25:53.217438,407390,2483104490,2483106342,-1.050176,0.03904,-0.16592,-7.5075,-6.55375,17.22,18.288,-3.056,14.080001,eccentric,6,5.0,27662.0,403431.0,151907.0,17301.0,-114.0
2026-04-09 22:25:53.218960,407391,2483113402,2483115051,-1.04432,-0.003904,-0.042944,-6.965,-8.33,19.241251,18.656,-3.368,13.864,eccentric,6,5.0,27662.0,403431.0,151907.0,17301.0,-114.0
2026-04-09 22:25:53.223262,407392,2483122349,2483123798,-1.04432,-0.003904,-0.042944,-5.1625,-9.9575,19.285,18.656,-3.368,13.864,eccentric,6,5.0,27662.0,403431.0,151907.0,17301.0,-114.0
2026-04-09 22:25:53.224904,407393,2483136855,2483138795,-1.020896,0.060512,-0.111264,1.09375,-12.5125,18.2875,17.912,-3.704,15.696001,eccentric,6,5.0,27662.0,403431.0,151907.0,17301.0,-114.0
2026-04-09 22:25:53.226459,407394,2483145752,2483147499,-1.020896,0.060512,-0.111264,7.70875,-16.35375,18.29625,17.912,-3.704,15.696001,eccentric,6,5.0,27662.0,403431.0,151907.0,17301.0,-114.0
2026-04-09 22:25:53.230735,407395,2483154669,2483156188,-1.098976,0.054656,-0.171776,6.18625,-22.05875,20.93875,18.872002,-3.72,12.952001,eccentric,6,5.0,27662.0,403431.0,151907.0,17301.0,-114.0
2026-04-09 22:25:53.232983,407396,2483169162,2483171073,-1.098976,0.054656,-0.171776,6.15125,-26.0925,26.565,18.872002,-3.72,12.952001,eccentric,6,5.0,27662.0,403431.0,151907.0,17301.0,-114.0
2026-04-09 22:25:53.234061,407397,2483178111,2483179809,-1.001376,-0.017568,-0.095648,4.43625,-31.29875,30.2575,18.856,-3.456,15.200001,eccentric,6,5.0,27662.0,403431.0,151907.0,17301.0,-114.0
2026-04-09 22:25:53.264046,407408,2483187148,2483188686,-1.001376,-0.017568,-0.095648,0.6125,-34.755,33.3025,18.856,-3.456,15.200001,eccentric,6,5.0,27582.0,403431.0,152599.0,17750.0,-105.0
2026-04-09 22:25:53.268241,407409,2483201775,2483203639,-1.036512,0.189344,0.040992,5.18,-37.5375,34.2825,20.032001,-3.768,15.160001,eccentric,6,5.0,27582.0,403431.0,152599.0,17750.0,-105.0
2026-04-09 22:25:53.269942,407410,2483210778,2483212428,-1.036512,0.189344,0.040992,21.8225,-36.23375,31.473751,20.032001,-3.768,15.160001,eccentric,6,5.0,27582.0,403431.0,152599.0,17750.0,-105.0
2026-04-09 22:25:53.271514,407411,2483219709,2483221192,-1.075552,0.251808,0.054656,32.90875,-31.29875,26.9325,20.320002,-3.904,15.52,eccentric,6,5.0,27582.0,403431.0,152599.0,17750.0,-105.0
2026-04-09 22:25:53.275598,407412,2483228649,2483229905,-1.075552,0.251808,0.054656,27.3875,-27.08125,23.8,20.320002,-3.904,15.52,eccentric,6,5.0,27582.0,403431.0,152599.0,17750.0,-105.0
2026-04-09 22:25:53.304129,407413,2483243238,2483244854,-1.018944,-0.007808,0.054656,4.82125,-25.8125,24.33375,20.568,-4.08,15.672001,eccentric,6,5.0,27582.0,403431.0,152599.0,17750.0,-105.0
2026-04-09 22:25:53.307769,407414,2483252193,2483253616,-1.018944,-0.007808,0.054656,-11.34875,-23.89625,30.0825,20.568,-4.08,15.672001,eccentric,6,5.0,27582.0,403431.0,152599.0,17750.0,-105.0
2026-04-09 22:25:53.310170,407415,2483261295,2483262322,-1.030656,0.138592,0.091744,-8.96,-20.02,33.215,20.608002,-4.248,15.944001,eccentric,6,5.0,27582.0,403431.0,152599.0,17750.0,-105.0
2026-04-09 22:25:53.340490,407416,2483275858,2483277225,-1.089216,0.365024,-0.066368,3.61375,-15.8375,32.68125,19.232,-4.648,18.44,eccentric,6,5.0,27582.0,403431.0,152599.0,17750.0,-105.0
2026-04-09 22:25:53.344014,407417,2483284781,2483285928,-1.089216,0.365024,-0.066368,21.6825,-11.41875,33.81,19.232,-4.648,18.44,eccentric,6,5.0,27582.0,403431.0,152599.0,17750.0,-105.0
2026-04-09 22:25:53.372726,407427,2483293826,2483294683,-0.901824,0.113216,0.093696,19.90625,-8.77625,24.1325,19.232,-4.368,15.624001,eccentric,6,5.0,27591.0,403431.0,152309.0,17303.0,-105.0
2026-04-09 22:25:53.375272,407428,2483308324,2483309616,-0.901824,0.113216,0.093696,1.5575,-6.95625,18.935,20.848001,-4.368,15.624001,eccentric,6,5.0,27591.0,403431.0,152309.0,17303.0,-105.0
2026-04-09 22:25:53.377708,407429,2483317280,2483318372,-0.981856,0.158112,0.119072,-5.6,-4.75125,22.49625,21.256,-4.576,16.352001,eccentric,6,5.0,27591.0,403431.0,152309.0,17303.0,-105.0
2026-04-09 22:25:53.380294,407430,2483326259,2483327068,-0.981856,0.158112,0.119072,-9.5025,-4.83,20.02,21.256,-4.576,16.352001,eccentric,6,5.0,27591.0,403431.0,152309.0,17303.0,-105.0
2026-04-09 22:25:53.382737,407431,2483335254,2483335777,-1.32736,0.452864,-0.23424,-0.20125,-5.06625,23.14375,19.488,-4.704,17.752,eccentric,6,5.0,27591.0,403431.0,152309.0,17303.0,-105.0
2026-04-09 22:25:53.412968,407432,2483350310,2483350749,-1.32736,0.452864,-0.23424,22.98625,-5.4775,29.35625,19.488,-4.704,17.752,eccentric,6,5.0,27591.0,403431.0,152309.0,17303.0,-105.0
2026-04-09 22:25:53.416563,407433,2483359621,2483361540,-1.057984,0.06832,0.101504,19.7575,-8.5575,22.46125,21.76,-4.648,16.816,eccentric,6,5.0,27591.0,403431.0,152309.0,17303.0,-105.0
2026-04-09 22:25:53.419076,407434,2483368568,2483370259,-1.057984,0.06832,0.101504,2.6425,-11.75125,17.36875,21.76,-4.648,16.816,eccentric,6,5.0,27591.0,403431.0,152309.0,17303.0,-105.0
2026-04-09 22:25:53.424008,407435,2483377544,2483378936,-1.06384,0.13664,0.023424,0.34125,-10.57,22.49625,21.992,-5.072,16.464,eccentric,6,5.0,27591.0,403431.0,152309.0,17303.0,-105.0
2026-04-09 22:25:53.451517,407445,2483392619,2483394013,-1.06384,0.13664,0.023424,-0.805,-8.6625,25.83,21.992,-5.072,16.464,eccentric,6,5.0,27598.0,403431.0,151897.0,17031.0,-114.0
2026-04-09 22:25:53.455792,407446,2483401585,2483402810,-1.114592,0.329888,0.124928,1.77625,-5.5125,25.6375,22.432001,-5.064,17.416,eccentric,6,5.0,27598.0,403431.0,151897.0,17031.0,-114.0
2026-04-09 22:25:53.458219,407447,2483410539,2483411543,-1.114592,0.329888,0.124928,7.88375,-2.8525,27.4225,22.432001,-5.064,17.416,eccentric,6,5.0,27598.0,403431.0,151897.0,17031.0,-114.0
2026-04-09 22:25:53.503044,407448,2483425064,2483426509,-1.091168,0.337696,-0.10736,5.04,-2.1875,29.11125,22.944,-5.512,18.216002,eccentric,6,5.0,27598.0,403431.0,151897.0,17031.0,-114.0
2026-04-09 22:25:53.506598,407449,2483433989,2483435205,-1.091168,0.173728,-0.033184,-3.1325,-5.18875,29.82875,22.944,-5.512,18.216002,eccentric,6,5.0,27598.0,403431.0,151897.0,17031.0,-114.0
2026-04-09 22:25:53.514570,407450,2483442914,2483443930,-1.052128,0.173728,-0.033184,-4.99625,-8.89875,30.84375,22.352001,-5.456,17.104,eccentric,6,5.0,27598.0,403431.0,151897.0,17031.0,-114.0
2026-04-09 22:25:53.516190,407451,2483457393,2483458837,-1.21024,0.27328,0.056608,-6.3525,-11.62875,32.22625,22.528002,-5.504,17.632,eccentric,6,5.0,27598.0,403431.0,151897.0,17031.0,-114.0
2026-04-09 22:25:53.517781,407452,2483466295,2483467517,-1.21024,0.27328,0.056608,-1.63625,-13.877501,34.39625,22.528002,-5.504,17.632,eccentric,6,5.0,27598.0,403431.0,151897.0,17031.0,-114.0
2026-04-09 22:25:53.521933,407453,2483475226,2483476213,-1.192672,0.329888,-0.072224,19.46875,-14.00875,37.19625,23.264002,-5.544,17.712,eccentric,6,5.0,27598.0,403431.0,151897.0,17031.0,-114.0
2026-04-09 22:25:53.525679,407454,2483484105,2483484976,-1.192672,0.329888,-0.072224,27.7375,-15.54,34.81625,23.264002,-5.544,17.712,eccentric,6,5.0,27598.0,403431.0,151897.0,17031.0,-114.0
2026-04-09 22:25:53.557691,407465,2483499214,2483499924,-1.120448,0.249856,0.085888,13.95625,-17.94625,32.34875,22.728,-6.112001,18.144001,eccentric,6,5.0,27389.0,403431.0,153183.0,17867.0,-111.0
2026-04-09 22:25:53.559659,407466,2483508623,2483510748,-1.120448,0.249856,0.085888,5.85375,-18.78625,34.46625,22.728,-6.112001,18.144001,eccentric,6,5.0,27389.0,403431.0,153183.0,17867.0,-111.0
2026-04-09 22:25:53.560578,407467,2483517590,2483519446,-1.095072,0.244,-0.023424,4.80375,-17.47375,36.2775,23.296001,-6.328,18.384,eccentric,6,5.0,27389.0,403431.0,153183.0,17867.0,-111.0
2026-04-09 22:25:53.591412,407468,2483532114,2483532442,-1.095072,0.244,-0.023424,2.59875,-17.0975,38.5875,23.296001,-6.328,18.384,eccentric,6,5.0,27389.0,403431.0,153183.0,17867.0,-111.0
2026-04-09 22:25:53.593860,407469,2483541379,2483543228,-1.134112,0.3904,0.08784,2.3975,-15.846251,41.39625,23.888,-6.496,19.072,eccentric,6,5.0,27389.0,403431.0,153183.0,17867.0,-111.0
2026-04-09 22:25:53.602049,407470,2483550412,2483551925,-1.134112,0.3904,0.08784,12.9325,-13.877501,43.12875,23.888,-6.496,19.072,eccentric,6,5.0,27389.0,403431.0,153183.0,17867.0,-111.0
2026-04-09 22:25:53.604704,407471,2483559328,2483560631,-1.138016,0.320128,0.0,24.92,-13.658751,42.56,24.04,-6.568,19.144001,eccentric,6,5.0,27389.0,403431.0,153183.0,17867.0,-111.0
2026-04-09 22:25:53.635459,407472,2483573891,2483575553,-1.138016,0.320128,0.0,19.460001,-15.37375,39.90875,24.04,-6.568,19.144001,eccentric,6,5.0,27389.0,403431.0,153183.0,17867.0,-111.0
2026-04-09 22:25:53.639555,407473,2483582856,2483584332,-1.03456,0.284992,0.103456,13.4925,-15.47875,38.2025,24.448002,-6.488,20.464,eccentric,6,5.0,27389.0,403431.0,153183.0,17867.0,-111.0
2026-04-09 22:25:53.663714,407483,2483591833,2483593129,-1.03456,0.284992,0.103456,11.64625,-13.011251,38.14125,24.448002,-6.488,20.464,eccentric,6,5.0,27365.0,403431.0,153226.0,17879.0,-112.0
2026-04-09 22:25:53.665391,407484,2483606575,2483608143,-1.09312,0.32208,0.089792,8.575,-11.655,38.5,24.592001,-7.088,19.432001,eccentric,6,5.0,27365.0,403431.0,153226.0,17879.0,-112.0
2026-04-09 22:25:53.669542,407485,2483615695,2483616861,-1.20048,0.392352,0.001952,7.35,-9.40625,40.3025,24.888,-7.08,20.216002,eccentric,6,5.0,27365.0,403431.0,153226.0,17879.0,-112.0
2026-04-09 22:25:53.671086,407486,2483624656,2483625591,-1.20048,0.392352,0.001952,9.68625,-8.12,41.93875,24.888,-7.08,20.216002,eccentric,6,5.0,27365.0,403431.0,153226.0,17879.0,-112.0
2026-04-09 22:25:53.676860,407487,2483633588,2483634292,-1.20048,0.392352,0.001952,11.75125,-9.38875,41.99125,24.888,-7.08,20.216002,eccentric,6,5.0,27365.0,403431.0,153226.0,17879.0,-112.0
2026-04-09 22:25:53.705455,407488,2483648458,2483649238,-1.091168,0.2928,0.046848,8.00625,-10.10625,40.81875,24.800001,-7.472,20.432001,eccentric,6,5.0,27365.0,403431.0,153226.0,17879.0,-112.0
2026-04-09 22:25:53.709031,407489,2483657366,2483657953,-1.114592,0.335744,0.083936,6.58,-9.5375,38.42125,25.128,-8.152,20.192001,eccentric,6,5.0,27365.0,403431.0,153226.0,17879.0,-112.0
2026-04-09 22:25:53.713324,407490,2483666531,2483668704,-1.114592,0.335744,0.083936,7.175,-9.345,37.1525,25.128,-8.152,20.192001,eccentric,6,5.0,27365.0,403431.0,153226.0,17879.0,-112.0
2026-04-09 22:25:53.741651,407491,2483681104,2483681537,-1.165344,0.402112,0.115168,6.44875,-9.7825,37.345,24.408,-8.072001,21.472,eccentric,6,5.0,27365.0,403431.0,153226.0,17879.0,-112.0
2026-04-09 22:25:53.812882,407501,2483690435,2483692345,-1.165344,0.402112,0.115168,7.27125,-8.6975,36.3125,24.408,-8.072001,21.472,eccentric,6,5.0,27232.0,403431.0,153969.0,18461.0,-101.0
2026-04-09 22:25:53.815300,407502,2483699754,2483701067,-1.177056,0.35136,0.017568,8.77625,-8.11125,34.2125,26.000002,-8.92,20.76,eccentric,6,5.0,27232.0,403431.0,153969.0,18461.0,-101.0
2026-04-09 22:25:53.817764,407503,2483708709,2483709759,-1.177056,0.35136,0.017568,7.1225,-9.9225,31.19375,26.000002,-8.92,20.76,eccentric,6,5.0,27232.0,403431.0,153969.0,18461.0,-101.0
2026-04-09 22:25:53.820295,407504,2483723282,2483724693,-1.169248,0.269376,0.0488,6.5975,-11.78625,30.03875,25.424002,-8.992001,21.592001,eccentric,6,5.0,27232.0,403431.0,153969.0,18461.0,-101.0
2026-04-09 22:25:53.823752,407505,2483732216,2483733426,-1.169248,0.269376,0.0488,8.95125,-12.32,30.49375,25.424002,-8.992001,21.592001,eccentric,6,5.0,27232.0,403431.0,153969.0,18461.0,-101.0
2026-04-09 22:25:53.825197,407506,2483741159,2483742170,-1.159488,0.298656,0.13664,11.12125,-12.64375,30.7825,24.712002,-9.056001,22.872002,eccentric,6,5.0,27232.0,403431.0,153969.0,18461.0,-101.0
2026-04-09 22:25:53.829567,407507,2483755642,2483757066,-1.16144,0.357216,0.122976,15.8025,-12.39,30.485,24.712002,-9.296001,21.688002,eccentric,6,5.0,27232.0,403431.0,153969.0,18461.0,-101.0
2026-04-09 22:25:53.831254,407508,2483764552,2483765756,-1.16144,0.357216,0.122976,19.64375,-9.93125,29.855,26.128002,-9.296001,21.688002,eccentric,6,5.0,27232.0,403431.0,153969.0,18461.0,-101.0
2026-04-09 22:25:53.832802,407509,2483773444,2483774438,-1.16144,0.357216,0.122976,15.77625,-8.6625,27.81625,26.128002,-9.296001,21.688002,eccentric,6,5.0,27232.0,403431.0,153969.0,18461.0,-101.0
2026-04-09 22:25:53.837117,407510,2483782417,2483783155,-1.177056,0.26352,0.105408,7.69125,-7.5075,27.685,25.288002,-9.504001,23.064001,eccentric,6,5.0,27232.0,403431.0,153969.0,18461.0,-101.0
2026-04-09 22:25:53.868319,407521,2483797494,2483798347,-1.106784,0.27328,0.124928,1.435,-7.16625,29.9775,25.464,-9.848001,23.936,eccentric,6,5.0,27172.0,403431.0,154390.0,18871.0,-107.0
2026-04-09 22:25:53.869990,407522,2483806462,2483807153,-1.106784,0.27328,0.124928,0.56,-6.825,31.045,25.464,-9.848001,23.936,eccentric,6,5.0,27172.0,403431.0,154390.0,18871.0,-107.0
2026-04-09 22:25:53.872565,407523,2483815863,2483817976,-1.085312,0.298656,0.111264,5.88875,-6.2825,29.88125,25.464,-9.664001,23.904001,eccentric,6,5.0,27172.0,403431.0,154390.0,18871.0,-107.0
2026-04-09 22:25:53.876851,407524,2483830389,2483831602,-1.085312,0.298656,0.111264,9.80875,-5.5475,27.95625,25.560001,-9.664001,23.904001,eccentric,6,5.0,27172.0,403431.0,154390.0,18871.0,-107.0
2026-04-09 22:25:53.908877,407525,2483839298,2483840402,-1.04432,0.320128,0.064416,8.21625,-5.8625,27.25625,26.728,-10.536,23.048,eccentric,6,5.0,27172.0,403431.0,154390.0,18871.0,-107.0
2026-04-09 22:25:53.911541,407526,2483848205,2483849129,-1.04432,0.320128,0.064416,5.2325,-5.92375,24.8675,26.728,-10.536,23.048,eccentric,6,5.0,27172.0,403431.0,154390.0,18871.0,-107.0
2026-04-09 22:25:53.913983,407527,2483857169,2483857881,-1.065792,0.368928,0.111264,7.27125,-5.39,21.55125,26.432001,-10.84,23.704,eccentric,6,5.0,27172.0,403431.0,154390.0,18871.0,-107.0
2026-04-09 22:25:53.921929,407528,2483872072,2483872827,-1.065792,0.368928,0.111264,10.64,-5.075,17.85,26.432001,-10.84,23.704,eccentric,6,5.0,27172.0,403431.0,154390.0,18871.0,-107.0
2026-04-09 22:25:53.925685,407529,2483881543,2483883631,-1.059936,0.343552,0.11712,10.75375,-5.6875,12.075,26.28,-10.960001,23.2,eccentric,6,5.0,27172.0,403431.0,154390.0,18871.0,-107.0
2026-04-09 22:25:54.004548,407539,2483890479,2483892658,-1.059936,0.343552,0.11712,6.3175,-6.02875,7.74375,26.28,-10.960001,23.2,eccentric,6,5.0,27029.0,403431.0,155773.0,19981.0,-110.0
2026-04-09 22:25:54.006173,407540,2483905023,2483905507,-1.067744,0.308416,0.113216,4.55875,-6.50125,3.82375,26.376001,-10.672001,24.720001,eccentric,6,5.0,27029.0,403431.0,155773.0,19981.0,-110.0
2026-04-09 22:25:54.007756,407541,2483914421,2483916307,-1.067744,0.308416,0.113216,3.77125,-6.2475,-1.155,26.376001,-10.672001,24.720001,eccentric,6,5.0,27029.0,403431.0,155773.0,19981.0,-110.0
2026-04-09 22:25:54.011956,407542,2483923356,2483925008,-1.08336,0.286944,0.10736,3.03625,-5.88,-5.94125,24.856,-10.504001,24.432001,eccentric,6,5.0,27029.0,403431.0,155773.0,19981.0,-110.0
2026-04-09 22:25:54.013684,407543,2483932305,2483933756,-1.08336,0.286944,0.10736,2.17,-4.375,-6.76375,24.856,-10.504001,24.432001,eccentric,6,5.0,27029.0,403431.0,155773.0,19981.0,-110.0
2026-04-09 22:25:54.015189,407544,2483946758,2483948700,-1.097024,0.265472,0.134688,1.015,-3.045,-7.18375,26.912,-10.808001,23.608002,eccentric,6,5.0,27029.0,403431.0,155773.0,19981.0,-110.0
2026-04-09 22:25:54.017717,407545,2483955652,2483957405,-1.097024,0.265472,0.119072,-4.47125,-2.65125,-7.76125,26.912,-10.808001,23.608002,eccentric,6,5.0,27029.0,403431.0,155773.0,19981.0,-110.0
2026-04-09 22:25:54.020440,407546,2483964683,2483966153,-1.065792,0.181536,0.109312,-9.80875,-3.01,-5.59125,25.032001,-11.112,24.888,eccentric,6,5.0,27029.0,403431.0,155773.0,19981.0,-110.0
2026-04-09 22:25:54.026603,407547,2483979192,2483981142,-1.065792,0.199104,0.109312,-9.91375,-3.10625,-2.485,25.816002,-10.960001,25.536001,eccentric,6,5.0,27029.0,403431.0,155773.0,19981.0,-110.0
2026-04-09 22:25:54.033518,407548,2483988107,2483989968,-1.065792,0.199104,0.109312,-6.2825,-4.3925,0.98875,25.816002,-10.960001,25.536001,eccentric,6,5.0,27029.0,403431.0,155773.0,19981.0,-110.0
2026-04-09 22:25:54.062787,407558,2483997195,2483998753,-1.069696,0.236192,0.122976,-2.8875,-3.5875,3.43875,26.584002,-11.392,24.872002,concentric,6,5.0,26946.0,403431.0,156716.0,20801.0,-102.0
2026-04-09 22:25:54.066173,407559,2484006134,2484007505,-1.069696,0.236192,0.122976,-0.1925,-2.9225,3.78875,26.584002,-11.392,24.872002,concentric,6,5.0,26946.0,403431.0,156716.0,20801.0,-102.0
2026-04-09 22:25:54.067727,407560,2484020666,2484022388,-1.042368,0.249856,0.103456,-1.1375,-2.23125,4.0425,25.832,-11.432,25.552002,concentric,6,5.0,26946.0,403431.0,156716.0,20801.0,-102.0
2026-04-09 22:25:54.071024,407561,2484029596,2484031115,-1.042368,0.249856,0.103456,-2.9225,-1.56625,3.8675,25.832,-11.432,25.552002,concentric,6,5.0,26946.0,403431.0,156716.0,20801.0,-102.0
2026-04-09 22:25:54.105086,407562,2484038603,2484039872,-1.03456,0.249856,0.109312,-3.5175,-1.54875,2.625,26.008001,-11.064,28.448002,concentric,6,5.0,26946.0,403431.0,156716.0,20801.0,-102.0
2026-04-09 22:25:54.109436,407563,2484053137,2484054815,-1.03456,0.249856,0.109312,-6.74625,-1.61875,1.30375,26.008001,-11.064,28.448002,concentric,6,5.0,26946.0,403431.0,156716.0,20801.0,-102.0
2026-04-09 22:25:54.111879,407564,2484062093,2484063537,-1.042368,0.236192,0.11712,-8.4525,-1.63625,0.56,27.016,-11.360001,23.728,concentric,6,5.0,26946.0,403431.0,156716.0,20801.0,-102.0
2026-04-09 22:25:54.116618,407565,2484071035,2484072254,-1.042368,0.236192,0.11712,-9.72125,-0.5775,-0.875,27.016,-11.360001,23.728,concentric,6,5.0,26946.0,403431.0,156716.0,20801.0,-102.0
2026-04-09 22:25:54.147563,407566,2484085539,2484087180,-1.03456,0.218624,0.066368,-9.905,0.63875,-2.26625,25.560001,-11.280001,25.968,concentric,6,5.0,26946.0,403431.0,156716.0,20801.0,-102.0
2026-04-09 22:25:54.193725,407577,2484094559,2484095921,-1.03456,0.218624,0.066368,-9.24875,0.6825,-3.59625,25.560001,-11.280001,25.968,concentric,6,5.0,26897.0,403431.0,157314.0,21352.0,-85.0
2026-04-09 22:25:54.195823,407578,2484103551,2484104692,-1.03456,0.236192,0.115168,-5.64375,0.76125,-4.68125,26.44,-11.864,22.912,concentric,6,5.0,26897.0,403431.0,157314.0,21352.0,-85.0
2026-04-09 22:25:54.200562,407579,2484118044,2484119598,-1.007232,0.25376,0.124928,-2.38,1.67125,-6.9825,27.248001,-11.528001,25.136002,concentric,6,5.0,26897.0,403431.0,157314.0,21352.0,-85.0
2026-04-09 22:25:54.201264,407580,2484127159,2484128348,-1.007232,0.25376,0.124928,-3.31625,2.38,-9.3275,27.248001,-11.528001,25.136002,concentric,6,5.0,26897.0,403431.0,157314.0,21352.0,-85.0
2026-04-09 22:25:54.202721,407581,2484136108,2484137058,-1.007232,0.25376,0.124928,-3.71875,3.35125,-12.52125,27.248001,-11.528001,25.136002,concentric,6,5.0,26897.0,403431.0,157314.0,21352.0,-85.0
2026-04-09 22:25:54.207082,407582,2484145184,2484145828,-1.009184,0.261568,0.091744,-5.32,4.8125,-14.8575,26.392002,-10.960001,24.848001,concentric,6,5.0,26897.0,403431.0,157314.0,21352.0,-85.0
2026-04-09 22:25:54.209556,407583,2484160457,2484160806,-1.022848,0.240096,0.083936,-6.67625,5.73125,-15.98625,26.552002,-11.416,24.488,concentric,6,5.0,26897.0,403431.0,157314.0,21352.0,-85.0
2026-04-09 22:25:54.213105,407584,2484169693,2484171599,-1.022848,0.240096,0.083936,-7.20125,6.72,-16.05625,26.552002,-11.416,24.488,concentric,6,5.0,26897.0,403431.0,157314.0,21352.0,-85.0
2026-04-09 22:25:54.241659,407585,2484178607,2484180315,-1.016992,0.222528,0.070272,-8.12875,7.41125,-16.54625,25.944002,-10.72,26.264002,concentric,6,5.0,26897.0,403431.0,157314.0,21352.0,-85.0
2026-04-09 22:25:54.246336,407586,2484187571,2484189108,-1.016992,0.222528,0.070272,-10.70125,7.69125,-16.5375,25.944002,-10.72,26.264002,concentric,6,5.0,26897.0,403431.0,157314.0,21352.0,-85.0
2026-04-09 22:25:54.277894,407596,2484202637,2484204124,-1.050176,0.20496,0.054656,-11.375,7.525,-16.1175,27.12,-10.768001,23.936,concentric,6,5.0,26810.0,403431.0,157692.0,21726.0,-91.0
2026-04-09 22:25:54.282010,407597,2484211601,2484212949,-1.050176,0.20496,0.054656,-8.79375,6.895,-15.9425,27.12,-10.768001,23.936,concentric,6,5.0,26810.0,403431.0,157692.0,21726.0,-91.0
2026-04-09 22:25:54.283768,407598,2484220588,2484221718,-1.050176,0.271328,0.140544,-5.5475,6.545,-16.03875,25.992,-10.528001,25.960001,concentric,6,5.0,26810.0,403431.0,157692.0,21726.0,-91.0
2026-04-09 22:25:54.285422,407599,2484235165,2484236612,-1.050176,0.271328,0.140544,-4.1475,8.435,-17.28125,25.992,-10.528001,25.960001,concentric,6,5.0,26810.0,403431.0,157692.0,21726.0,-91.0
2026-04-09 22:25:54.289408,407600,2484244090,2484245330,-1.069696,0.271328,0.085888,-7.63875,11.917501,-19.5475,26.248001,-10.400001,23.880001,concentric,6,5.0,26810.0,403431.0,157692.0,21726.0,-91.0
2026-04-09 22:25:54.318064,407601,2484253040,2484254099,-1.069696,0.271328,0.085888,-13.79875,13.5975,-20.8425,26.248001,-10.400001,23.880001,concentric,6,5.0,26810.0,403431.0,157692.0,21726.0,-91.0
2026-04-09 22:25:54.321904,407602,2484262019,2484262839,-1.130208,0.128832,-0.027328,-19.7575,12.06625,-19.06625,26.792002,-11.072001,23.688002,concentric,6,5.0,26810.0,403431.0,157692.0,21726.0,-91.0
2026-04-09 22:25:54.329601,407603,2484276494,2484277749,-1.130208,0.128832,-0.027328,-14.875,7.86625,-15.37375,26.792002,-11.072001,23.688002,concentric,6,5.0,26810.0,403431.0,157692.0,21726.0,-91.0
2026-04-09 22:25:54.331077,407604,2484285401,2484286488,-1.059936,0.220576,0.101504,-2.09125,7.7,-13.36125,25.064001,-10.288,26.608002,concentric,6,5.0,26810.0,403431.0,157692.0,21726.0,-91.0
2026-04-09 22:25:54.362059,407614,2484294710,2484295240,-1.059936,0.220576,0.101504,10.00125,10.3775,-16.9575,25.064001,-10.288,26.608002,concentric,6,5.0,26837.0,403431.0,157469.0,21525.0,-76.0
2026-04-09 22:25:54.363732,407615,2484309340,2484310412,-1.081408,0.372832,0.160064,12.95875,14.3325,-22.225,26.664001,-10.192,23.552002,concentric,6,5.0,26837.0,403431.0,157469.0,21525.0,-76.0
2026-04-09 22:25:54.365287,407616,2484318324,2484319128,-1.124352,0.255712,0.124928,4.025,19.45125,-26.1975,24.992,-10.616,23.480001,concentric,6,5.0,26837.0,403431.0,157469.0,21525.0,-76.0
2026-04-09 22:25:54.369704,407617,2484327344,2484327839,-1.124352,0.255712,0.124928,-12.8975,22.07625,-24.885,24.992,-10.616,23.480001,concentric,6,5.0,26837.0,403431.0,157469.0,21525.0,-76.0
2026-04-09 22:25:54.405136,407618,2484336784,2484338622,-1.124352,0.255712,0.124928,-24.0625,21.98,-23.33625,24.992,-10.616,23.480001,concentric,6,5.0,26837.0,403431.0,157469.0,21525.0,-76.0
2026-04-09 22:25:54.407416,407619,2484351276,2484353529,-1.124352,0.18544,-0.005856,-19.6175,21.6125,-28.56875,24.504002,-9.352,24.256,concentric,6,5.0,26837.0,403431.0,157469.0,21525.0,-76.0
2026-04-09 22:25:54.419652,407620,2484360357,2484362262,-1.085312,0.257664,0.01952,-12.71375,21.79625,-26.145,26.136002,-9.512,21.624,concentric,6,5.0,26837.0,403431.0,157469.0,21525.0,-76.0
2026-04-09 22:25:54.421213,407621,2484369306,2484370966,-1.085312,0.257664,0.01952,-4.8825,20.0025,-26.25875,26.136002,-9.512,21.624,concentric,6,5.0,26837.0,403431.0,157469.0,21525.0,-76.0
2026-04-09 22:25:54.427379,407622,2484383802,2484385879,-1.056032,0.32208,0.134688,3.50875,19.11,-28.53375,25.152,-9.304001,23.088001,concentric,6,5.0,26837.0,403431.0,157469.0,21525.0,-76.0
2026-04-09 22:25:54.487567,407633,2484392747,2484396590,-1.056032,0.32208,0.134688,12.18,19.94125,-30.87875,25.152,-9.304001,23.088001,concentric,6,5.0,26893.0,403431.0,156905.0,21066.0,-101.0
2026-04-09 22:25:54.489088,407634,2484401885,2484403278,-1.06384,0.36112,0.095648,11.9875,20.7025,-34.69375,26.232,-9.376,20.952002,concentric,6,5.0,26893.0,403431.0,156905.0,21066.0,-101.0
2026-04-09 22:25:54.493319,407635,2484410835,2484411989,-1.06384,0.36112,0.095648,6.72875,20.97375,-41.8075,26.232,-9.376,20.952002,concentric,6,5.0,26893.0,403431.0,156905.0,21066.0,-101.0
2026-04-09 22:25:54.495029,407636,2484425326,2484426908,-1.09312,0.281088,0.03904,-1.82875,19.7925,-42.86625,26.024002,-9.224,21.04,concentric,6,5.0,26893.0,403431.0,156905.0,21066.0,-101.0
2026-04-09 22:25:54.496663,407637,2484434257,2484435608,-1.09312,0.281088,0.03904,-3.29875,18.48875,-43.40875,26.024002,-9.224,21.04,concentric,6,5.0,26893.0,403431.0,156905.0,21066.0,-101.0
2026-04-09 22:25:54.500933,407638,2484443187,2484444377,-1.118496,0.288896,0.091744,1.855,17.63125,-46.095,24.832,-8.832001,20.584002,concentric,6,5.0,26893.0,403431.0,156905.0,21066.0,-101.0
2026-04-09 22:25:54.503254,407639,2484457705,2484459351,-1.118496,0.288896,0.12688,9.5025,18.20875,-46.9875,24.832,-8.832001,20.584002,concentric,6,5.0,26893.0,403431.0,156905.0,21066.0,-101.0
2026-04-09 22:25:54.533973,407640,2484466644,2484468084,-1.087264,0.38064,0.12688,12.5125,20.32625,-49.60375,25.736002,-7.936,20.960001,concentric,6,5.0,26893.0,403431.0,156905.0,21066.0,-101.0
2026-04-09 22:25:54.536235,407641,2484475568,2484476778,-1.087264,0.38064,0.12688,8.4875,22.9425,-51.8525,25.736002,-7.936,20.960001,concentric,6,5.0,26893.0,403431.0,156905.0,21066.0,-101.0
2026-04-09 22:25:54.544641,407642,2484489995,2484491687,-1.173152,0.310368,0.130784,1.785,25.7775,-53.0775,25.28,-8.024,19.768002,concentric,6,5.0,26893.0,403431.0,156905.0,21066.0,-101.0
2026-04-09 22:25:54.568770,407652,2484499042,2484500466,-1.18096,0.290848,-0.003904,-3.8325,25.9,-53.445,25.864,-7.672,16.336,concentric,6,5.0,26884.0,403431.0,156796.0,21024.0,-103.0
2026-04-09 22:25:54.570361,407653,2484508012,2484509195,-1.18096,0.290848,-0.003904,-4.375,24.63125,-52.1675,25.864,-7.672,16.336,concentric,6,5.0,26884.0,403431.0,156796.0,21024.0,-103.0
2026-04-09 22:25:54.574593,407654,2484522546,2484524173,-1.179008,0.294752,0.06832,-0.48125,23.98375,-50.9425,24.128,-7.8,21.576,concentric,6,5.0,26884.0,403431.0,156796.0,21024.0,-103.0
2026-04-09 22:25:54.576161,407655,2484531496,2484533000,-1.179008,0.294752,0.06832,3.08,22.9075,-51.415,24.128,-7.8,21.576,concentric,6,5.0,26884.0,403431.0,156796.0,21024.0,-103.0
2026-04-09 22:25:54.585736,407656,2484540448,2484541709,-1.192672,0.345504,0.183488,5.43375,23.59,-52.38625,23.208,-6.584,20.992,concentric,6,5.0,26884.0,403431.0,156796.0,21024.0,-103.0
2026-04-09 22:25:54.614277,407657,2484549356,2484550448,-1.192672,0.345504,0.183488,6.06375,26.32875,-52.49125,23.208,-6.584,20.992,concentric,6,5.0,26884.0,403431.0,156796.0,21024.0,-103.0
2026-04-09 22:25:54.618781,407658,2484563842,2484565372,-1.20048,0.324032,0.054656,0.9275,27.965,-53.3925,24.816002,-7.008,18.256,concentric,6,5.0,26884.0,403431.0,156796.0,21024.0,-103.0
2026-04-09 22:25:54.620332,407659,2484572775,2484574112,-1.20048,0.324032,0.054656,-7.63,27.79875,-54.27625,24.816002,-7.008,18.256,concentric,6,5.0,26884.0,403431.0,156796.0,21024.0,-103.0
2026-04-09 22:25:54.624473,407660,2484581705,2484582836,-1.23952,0.259616,-0.05856,-10.9025,26.5475,-52.7275,24.632002,-6.824,18.384,concentric,6,5.0,26884.0,403431.0,156796.0,21024.0,-103.0
2026-04-09 22:25:54.710359,407670,2484596172,2484597732,-1.23952,0.259616,-0.05856,-7.34125,25.0425,-50.435,24.632002,-6.824,18.384,concentric,6,5.0,26914.0,403431.0,156630.0,21036.0,-98.0
2026-04-09 22:25:54.712723,407671,2484605187,2484606452,-1.24928,0.261568,0.085888,0.6825,24.94625,-49.51625,23.848001,-6.288,17.736,concentric,6,5.0,26914.0,403431.0,156630.0,21036.0,-98.0
2026-04-09 22:25:54.715320,407672,2484614089,2484615177,-1.24928,0.261568,0.085888,8.54875,25.8125,-48.92125,23.848001,-6.288,17.736,concentric,6,5.0,26914.0,403431.0,156630.0,21036.0,-98.0
2026-04-09 22:25:54.717831,407673,2484628652,2484630140,-1.21024,0.290848,0.074176,8.155,26.6875,-48.51,23.488,-5.904,17.328001,concentric,6,5.0,26914.0,403431.0,156630.0,21036.0,-98.0
2026-04-09 22:25:54.720343,407674,2484637675,2484638846,-1.21024,0.290848,0.074176,2.7125,26.6525,-46.52375,23.488,-5.904,17.328001,concentric,6,5.0,26914.0,403431.0,156630.0,21036.0,-98.0
2026-04-09 22:25:54.725339,407675,2484646551,2484647588,-1.225856,0.244,-0.02928,-3.98125,24.4475,-44.7475,23.128,-6.032,16.752,concentric,6,5.0,26914.0,403431.0,156630.0,21036.0,-98.0
2026-04-09 22:25:54.727873,407676,2484661146,2484662501,-1.16144,0.277184,0.052704,-6.51,22.61,-43.3825,22.920002,-5.480001,16.832,concentric,6,5.0,26914.0,403431.0,156630.0,21036.0,-98.0
2026-04-09 22:25:54.730356,407677,2484670068,2484671198,-1.16144,0.277184,0.052704,-0.7175,23.8525,-43.02375,22.920002,-5.480001,16.832,concentric,6,5.0,26914.0,403431.0,156630.0,21036.0,-98.0
2026-04-09 22:25:54.732731,407678,2484678968,2484679913,-1.139968,0.296704,0.074176,2.47625,26.20625,-43.8025,22.920002,-5.480001,17.928001,concentric,6,5.0,26914.0,403431.0,156630.0,21036.0,-98.0
2026-04-09 22:25:54.735349,407679,2484688057,2484688730,-1.139968,0.296704,0.074176,5.13625,28.70875,-44.0125,21.296001,-5.648,17.928001,concentric,6,5.0,26914.0,403431.0,156630.0,21036.0,-98.0
2026-04-09 22:25:54.766491,407690,2484703080,2484703750,-1.091168,0.30256,-0.007808,7.02625,29.32125,-44.66875,21.008001,-5.368,17.68,concentric,6,5.0,27063.0,403431.0,155878.0,20616.0,-104.0
2026-04-09 22:25:54.769067,407691,2484712436,2484714616,-1.091168,0.30256,-0.007808,3.9375,28.49,-45.64875,21.008001,-5.368,17.68,concentric,6,5.0,27063.0,403431.0,155878.0,20616.0,-104.0
2026-04-09 22:25:54.771587,407692,2484721385,2484723318,-1.050176,0.284992,0.021472,-1.77625,27.4225,-48.06375,21.76,-5.088,17.352001,concentric,6,5.0,27063.0,403431.0,155878.0,20616.0,-104.0
2026-04-09 22:25:54.774101,407693,2484730453,2484732057,-1.050176,0.284992,0.021472,-1.42625,28.49,-49.4025,21.76,-5.088,17.352001,concentric,6,5.0,27063.0,403431.0,155878.0,20616.0,-104.0
2026-04-09 22:25:54.804280,407694,2484744919,2484747001,-1.057984,0.316224,-0.003904,0.48125,29.25125,-50.05875,20.808,-4.68,17.032001,concentric,6,5.0,27063.0,403431.0,155878.0,20616.0,-104.0
2026-04-09 22:25:54.807879,407695,2484753827,2484755693,-1.057984,0.316224,-0.003904,-1.015,30.42375,-50.47875,20.808,-4.68,17.032001,concentric,6,5.0,27063.0,403431.0,155878.0,20616.0,-104.0
2026-04-09 22:25:54.810355,407696,2484762750,2484764406,-1.003328,0.286944,0.040992,-0.02625,31.465,-51.58125,20.992,-5.416,14.744,concentric,6,5.0,27063.0,403431.0,155878.0,20616.0,-104.0
2026-04-09 22:25:54.840729,407697,2484777243,2484779310,-1.003328,0.286944,0.040992,-1.33,33.4075,-54.04,20.992,-5.416,14.744,concentric,6,5.0,27063.0,403431.0,155878.0,20616.0,-104.0
2026-04-09 22:25:54.844243,407698,2484786148,2484788027,-1.026752,0.265472,0.003904,-2.35375,35.41125,-53.97,20.608002,-4.136,14.904,concentric,6,5.0,27063.0,403431.0,155878.0,20616.0,-104.0
2026-04-09 22:25:54.846629,407699,2484795058,2484796725,-1.026752,0.265472,0.003904,-3.70125,35.3675,-54.9675,20.608002,-4.136,14.904,concentric,6,5.0,27063.0,403431.0,155878.0,20616.0,-104.0
2026-04-09 22:25:54.875302,407709,2484809607,2484811743,-1.057984,0.232288,-0.0976,-7.0525,34.0025,-53.2525,20.432001,-3.984,14.272,concentric,6,5.0,27300.0,403431.0,154464.0,19656.0,-99.0
2026-04-09 22:25:54.877829,407710,2484818633,2484820449,-1.057984,0.232288,-0.0976,-10.6575,30.835001,-51.275,20.432001,-3.984,14.272,concentric,6,5.0,27300.0,403431.0,154464.0,19656.0,-99.0
2026-04-09 22:25:54.880342,407711,2484827694,2484829190,-1.091168,0.199104,-0.081984,-12.88,27.74625,-50.7675,19.256,-3.816,15.912001,concentric,6,5.0,27300.0,403431.0,154464.0,19656.0,-99.0
2026-04-09 22:25:54.884104,407712,2484842193,2484844128,-1.061888,0.238144,-0.0488,-4.45375,27.02,-48.2475,20.272001,-3.808,14.224001,concentric,6,5.0,27300.0,403431.0,154464.0,19656.0,-99.0
2026-04-09 22:25:54.914246,407713,2484851115,2484852878,-1.061888,0.238144,-0.0488,0.93625,26.8275,-48.95625,20.272001,-3.808,14.224001,concentric,6,5.0,27300.0,403431.0,154464.0,19656.0,-99.0
2026-04-09 22:25:54.918998,407714,2484860060,2484861573,-1.130208,0.179584,-0.037088,0.105,28.630001,-49.60375,19.616001,-3.568,14.472001,concentric,6,5.0,27300.0,403431.0,154464.0,19656.0,-99.0
2026-04-09 22:25:54.920348,407715,2484868972,2484870290,-1.130208,0.179584,-0.037088,-5.90625,28.34125,-48.3175,19.616001,-3.568,14.472001,concentric,6,5.0,27300.0,403431.0,154464.0,19656.0,-99.0
2026-04-09 22:25:54.925268,407716,2484883477,2484885288,-1.095072,0.044896,-0.128832,-10.40375,27.67625,-46.235,19.064001,-3.944,13.736001,concentric,6,5.0,27300.0,403431.0,154464.0,19656.0,-99.0
2026-04-09 22:25:54.955542,407717,2484892425,2484894026,-1.095072,0.044896,-0.128832,-15.51375,26.59125,-44.35375,19.064001,-3.944,13.736001,concentric,6,5.0,27300.0,403431.0,154464.0,19656.0,-99.0
2026-04-09 22:25:55.025404,407727,2484901935,2484902756,-1.233664,0.130784,-0.148352,-15.95125,24.08,-40.285,19.136002,-3.664,13.688001,concentric,6,5.0,27431.0,403431.0,154085.0,19519.0,-110.0
2026-04-09 22:25:55.027799,407728,2484916511,2484917658,-1.233664,0.130784,-0.148352,-4.89125,20.8775,-36.19875,19.136002,-3.664,13.688001,concentric,6,5.0,27431.0,403431.0,154085.0,19519.0,-110.0
2026-04-09 22:25:55.030324,407729,2484925540,2484926427,-1.276608,0.191296,-0.11712,7.21,16.70375,-35.41125,19.208,-3.288,13.552001,concentric,6,5.0,27431.0,403431.0,154085.0,19519.0,-110.0
2026-04-09 22:25:55.032805,407730,2484934598,2484935192,-1.276608,0.191296,-0.11712,9.42375,12.5825,-33.46,19.208,-3.288,13.552001,concentric,6,5.0,27431.0,403431.0,154085.0,19519.0,-110.0
2026-04-09 22:25:55.035266,407731,2484943935,2484945956,-1.184864,-0.013664,-0.111264,0.04375,7.4375,-33.57375,17.856,-3.168,14.736001,concentric,6,5.0,27431.0,403431.0,154085.0,19519.0,-110.0
2026-04-09 22:25:55.037839,407732,2484958449,2484958795,-1.184864,-0.013664,-0.111264,-15.3475,1.91625,-31.43875,17.856,-3.168,14.736001,concentric,6,5.0,27431.0,403431.0,154085.0,19519.0,-110.0
2026-04-09 22:25:55.040362,407733,2484967652,2484969539,-1.098976,-0.011712,-0.013664,-23.835001,-1.1375,-25.655,18.616001,-3.456,13.464001,concentric,6,5.0,27431.0,403431.0,154085.0,19519.0,-110.0
2026-04-09 22:25:55.042852,407734,2484976574,2484978305,-1.098976,-0.011712,-0.013664,-18.0425,1.18125,-25.27,18.616001,-3.456,13.464001,concentric,6,5.0,27431.0,403431.0,154085.0,19519.0,-110.0
2026-04-09 22:25:55.045193,407735,2484991175,2484993270,-1.048224,0.183488,-0.011712,-3.78,5.87125,-28.28,18.048,-3.784,13.864,concentric,6,5.0,27431.0,403431.0,154085.0,19519.0,-110.0
2026-04-09 22:25:55.072743,407746,2485000551,2485002157,-1.048224,0.119072,-0.105408,3.29875,9.073751,-30.68625,18.048,-3.784,15.912001,concentric,6,5.0,27008.0,403431.0,156512.0,21143.0,-96.0
2026-04-09 22:25:55.076566,407747,2485009655,2485011015,-1.018944,0.119072,-0.105408,1.085,10.955,-34.62375,18.304,-3.416,14.864,concentric,6,5.0,27008.0,403431.0,156512.0,21143.0,-96.0
2026-04-09 22:25:55.080859,407748,2485018684,2485019861,-1.018944,0.119072,-0.105408,-4.48,12.0925,-35.98875,18.304,-3.416,14.864,concentric,6,5.0,27008.0,403431.0,156512.0,21143.0,-96.0
2026-04-09 22:25:55.083493,407749,2485033345,2485034845,-1.022848,-0.099552,-0.021472,-11.10375,12.39,-35.30625,16.976002,-3.904,14.888001,concentric,6,5.0,27008.0,403431.0,156512.0,21143.0,-96.0
2026-04-09 22:25:55.084193,407750,2485042374,2485043571,-0.942816,0.091744,0.001952,-10.98125,15.11125,-32.2525,16.976002,-3.456,12.752001,concentric,6,5.0,27008.0,403431.0,156512.0,21143.0,-96.0
2026-04-09 22:25:55.114303,407751,2485051524,2485052310,-0.942816,0.091744,0.001952,1.5225,19.18,-31.78875,16.976002,-3.456,12.752001,concentric,6,5.0,27008.0,403431.0,156512.0,21143.0,-96.0
2026-04-09 22:25:55.117925,407752,2485060946,2485063108,-0.91744,0.093696,-0.080032,14.1575,23.485,-37.28375,17.376001,-3.64,13.712001,concentric,6,5.0,27008.0,403431.0,156512.0,21143.0,-96.0
2026-04-09 22:25:55.120306,407753,2485075424,2485075946,-0.91744,0.093696,-0.080032,8.14625,22.505,-42.0,17.376001,-3.64,13.712001,concentric,6,5.0,27008.0,403431.0,156512.0,21143.0,-96.0
2026-04-09 22:25:55.126597,407754,2485084869,2485086716,-0.964288,-0.001952,-0.23424,-4.2875,18.3225,-39.75125,16.44,-2.576,13.840001,concentric,6,5.0,27008.0,403431.0,156512.0,21143.0,-96.0
2026-04-09 22:25:55.157762,407755,2485093860,2485095460,-0.964288,-0.001952,-0.23424,-6.0375,14.86625,-36.79375,16.44,-2.576,13.840001,concentric,6,5.0,27008.0,403431.0,156512.0,21143.0,-96.0
2026-04-09 22:25:55.182775,407765,2485108897,2485110412,-0.9272,-0.109312,-0.17568,-9.555,11.34,-39.48875,17.088001,-3.488,12.936001,concentric,6,5.0,27021.0,403431.0,155712.0,20363.0,-104.0
2026-04-09 22:25:55.185278,407766,2485117829,2485119134,-0.9272,-0.109312,-0.17568,-5.0925,9.24875,-37.2225,17.088001,-3.488,12.936001,concentric,6,5.0,27021.0,403431.0,155712.0,20363.0,-104.0
2026-04-09 22:25:55.187867,407767,2485126775,2485127877,-0.876448,0.001952,0.080032,9.0825,8.05,-32.15625,17.160002,-2.864,12.944,concentric,6,5.0,27021.0,403431.0,155712.0,20363.0,-104.0
2026-04-09 22:25:55.190280,407768,2485135808,2485136593,-0.876448,0.001952,0.080032,16.4325,9.0125,-34.09,17.160002,-2.864,12.944,concentric,6,5.0,27021.0,403431.0,155712.0,20363.0,-104.0
2026-04-09 22:25:55.192802,407769,2485150806,2485151510,-0.8784,0.070272,-0.003904,12.69625,11.7775,-36.0325,15.920001,-2.464,15.184001,concentric,6,5.0,27021.0,403431.0,155712.0,20363.0,-104.0
2026-04-09 22:25:55.222967,407770,2485160125,2485162401,-0.8784,0.070272,-0.003904,5.20625,12.83625,-33.451252,15.920001,-2.464,15.184001,concentric,6,5.0,27021.0,403431.0,155712.0,20363.0,-104.0
2026-04-09 22:25:55.226539,407771,2485169071,2485171113,-0.89792,-0.023424,-0.316224,0.27125,12.005,-32.96125,16.152,-2.88,13.52,concentric,6,5.0,27021.0,403431.0,155712.0,20363.0,-104.0
2026-04-09 22:25:55.229021,407772,2485177993,2485179799,-0.89792,-0.023424,-0.316224,-6.74625,9.80875,-36.46125,16.152,-2.88,13.52,concentric,6,5.0,27021.0,403431.0,155712.0,20363.0,-104.0
2026-04-09 22:25:55.235868,407773,2485192501,2485194697,-0.894016,-0.189344,-0.027328,-7.735,7.02625,-32.4275,16.568,-2.84,12.68,concentric,6,5.0,27021.0,403431.0,155712.0,20363.0,-104.0
2026-04-09 22:25:55.320287,407783,2485201993,2485203486,-0.901824,0.042944,-0.011712,6.475,7.945,-24.47375,15.064001,-2.4,12.8,concentric,6,5.0,27073.0,403431.0,155057.0,19647.0,-113.0
2026-04-09 22:25:55.323897,407784,2485211116,2485212200,-0.901824,0.042944,-0.011712,20.53625,8.93375,-23.555,15.064001,-2.4,12.8,concentric,6,5.0,27073.0,403431.0,155057.0,19647.0,-113.0
2026-04-09 22:25:55.325234,407785,2485225622,2485227075,-0.938912,-0.013664,-0.232288,20.74625,7.27125,-24.63125,16.744001,-2.304,12.360001,concentric,6,5.0,27073.0,403431.0,155057.0,19647.0,-113.0
2026-04-09 22:25:55.327904,407786,2485234665,2485235817,-0.938912,-0.013664,-0.232288,9.80875,1.88125,-24.2375,16.744001,-2.304,12.360001,concentric,6,5.0,27073.0,403431.0,155057.0,19647.0,-113.0
2026-04-09 22:25:55.330422,407787,2485243632,2485244535,-0.958432,-0.244,-0.206912,-0.90125,-4.6375,-23.84375,16.896,-2.416,12.576,concentric,6,5.0,27073.0,403431.0,155057.0,19647.0,-113.0
2026-04-09 22:25:55.332988,407788,2485252560,2485253236,-0.958432,-0.244,-0.206912,-0.09625,-8.225,-21.8925,16.896,-2.416,12.576,concentric,6,5.0,27073.0,403431.0,155057.0,19647.0,-113.0
2026-04-09 22:25:55.335227,407789,2485267488,2485268131,-0.925248,-0.040992,0.035136,11.6725,-8.28625,-16.54625,16.552,-2.488,12.920001,concentric,6,5.0,27073.0,403431.0,155057.0,19647.0,-113.0
2026-04-09 22:25:55.337799,407790,2485276759,2485278949,-0.925248,-0.040992,0.035136,30.66875,-2.68625,-9.7475,16.552,-2.488,12.920001,concentric,6,5.0,27073.0,403431.0,155057.0,19647.0,-113.0
2026-04-09 22:25:55.340266,407791,2485285701,2485287661,-0.913536,0.066368,0.113216,36.435,4.76,-11.515,15.808001,-2.024,14.256001,concentric,6,5.0,27073.0,403431.0,155057.0,19647.0,-113.0
2026-04-09 22:25:55.342769,407792,2485300178,2485300544,-0.913536,0.066368,0.113216,25.71625,8.95125,-15.35625,15.808001,-2.024,14.256001,concentric,6,5.0,27073.0,403431.0,155057.0,19647.0,-113.0
2026-04-09 22:25:55.370192,407803,2485309941,2485311406,-0.99552,-0.21472,-0.509472,0.27125,6.95625,-16.0475,15.304001,-2.16,14.024001,concentric,6,5.0,27299.0,403431.0,153498.0,18294.0,-109.0
2026-04-09 22:25:55.372740,407804,2485318973,2485320150,-0.99552,-0.21472,-0.509472,-21.0175,-1.95125,-15.95125,15.304001,-2.16,14.024001,concentric,6,5.0,27299.0,403431.0,153498.0,18294.0,-109.0
2026-04-09 22:25:55.375309,407805,2485327935,2485328872,-0.981856,-0.255712,-0.13664,-18.7075,-8.93375,-10.31625,14.992001,-2.2,14.440001,concentric,6,5.0,27299.0,403431.0,153498.0,18294.0,-109.0
2026-04-09 22:25:55.382741,407806,2485342500,2485343831,-0.952576,0.080032,0.232288,11.3575,-6.08125,2.7125,15.416,-2.432,13.144001,concentric,6,5.0,27299.0,403431.0,153498.0,18294.0,-109.0
2026-04-09 22:25:55.413102,407807,2485351474,2485352536,-0.952576,0.080032,0.232288,37.42375,2.59875,6.4225,15.416,-2.432,13.144001,concentric,6,5.0,27299.0,403431.0,153498.0,18294.0,-109.0
2026-04-09 22:25:55.416597,407808,2485360380,2485361235,-0.952576,0.080032,0.232288,36.53125,10.535,7.62125,15.416,-2.432,13.144001,concentric,6,5.0,27299.0,403431.0,153498.0,18294.0,-109.0
2026-04-09 22:25:55.419116,407809,2485374849,2485376112,-0.919392,-0.003904,-0.251808,8.04125,9.63375,4.13,16.448,-2.304,10.888001,concentric,6,5.0,27299.0,403431.0,153498.0,18294.0,-109.0
2026-04-09 22:25:55.425333,407810,2485383818,2485384842,-1.038464,-0.203008,-0.17568,-17.59625,3.15875,-4.48875,16.008001,-2.192,13.6,concentric,6,5.0,27299.0,403431.0,153498.0,18294.0,-109.0
2026-04-09 22:25:55.455556,407811,2485392781,2485393553,-1.038464,-0.203008,-0.17568,-17.71875,-3.80625,-12.01375,16.008001,-2.192,13.6,concentric,6,5.0,27299.0,403431.0,153498.0,18294.0,-109.0
2026-04-09 22:25:55.483974,407821,2485402792,2485404385,-0.964288,-0.183488,-0.1464,5.635,-4.1125,-7.7875,16.776001,-2.992,12.344001,concentric,6,5.0,27172.0,403431.0,154104.0,18785.0,-119.0
2026-04-09 22:25:55.486522,407822,2485417312,2485419400,-0.964288,-0.183488,-0.1464,25.147501,1.12,6.69375,16.776001,-2.992,12.344001,concentric,6,5.0,27172.0,403431.0,154104.0,18785.0,-119.0
2026-04-09 22:25:55.489015,407823,2485426241,2485428111,-0.884256,-0.035136,-0.060512,26.69625,2.91375,12.06625,15.112,-2.064,14.440001,concentric,6,5.0,27172.0,403431.0,154104.0,18785.0,-119.0
2026-04-09 22:25:55.491518,407824,2485435153,2485436823,-0.884256,-0.035136,-0.060512,24.85,4.89125,9.975,15.112,-2.064,14.440001,concentric,6,5.0,27172.0,403431.0,154104.0,18785.0,-119.0
2026-04-09 22:25:55.494149,407825,2485449629,2485451751,-0.91744,-0.08784,-0.148352,14.81375,3.1675,6.58875,15.688001,-3.032,15.008,concentric,6,5.0,27172.0,403431.0,154104.0,18785.0,-119.0
2026-04-09 22:25:55.500304,407826,2485458563,2485460516,-0.91744,-0.08784,-0.148352,3.40375,0.93625,3.66625,15.688001,-3.032,15.008,concentric,6,5.0,27172.0,403431.0,154104.0,18785.0,-119.0
2026-04-09 22:25:55.530874,407827,2485467510,2485469271,-0.96624,-0.099552,-0.208864,-1.23375,0.665,4.5325,16.432001,-2.576,14.312,concentric,6,5.0,27172.0,403431.0,154104.0,18785.0,-119.0
