pc_time,serial_num,sensor_ts,host_ts,ax,ay,az,gx,gy,gz,mx,my,mz,phase,rpe,weight_kg,ppg_a,ppg_b,ppg_c,ppg_d,ppg_e
2026-04-09 22:25:55.534960,407828,2485476418,2485477954,-0.96624,-0.099552,-0.208864,0.72625,0.4375,7.385,16.432001,-2.576,14.312,eccentric,6,5.0,27172.0,403431.0,154104.0,18785.0,-119.0
2026-04-09 22:25:55.536570,407829,2485490879,2485492846,-0.948672,-0.089792,-0.109312,6.4575,0.8575,8.198751,16.544,-2.848,12.216001,eccentric,6,5.0,27172.0,403431.0,154104.0,18785.0,-119.0
2026-04-09 22:25:55.541585,407830,2485499820,2485501681,-0.948672,-0.089792,-0.109312,12.6525,1.645,8.75875,16.544,-2.848,12.216001,eccentric,6,5.0,27172.0,403431.0,154104.0,18785.0,-119.0
2026-04-09 22:25:55.566605,407840,2485508782,2485510449,-0.86864,-0.099552,0.054656,15.47,3.75375,7.9975,14.792001,-2.184,14.648001,eccentric,6,5.0,27349.0,403431.0,152676.0,17641.0,-104.0
2026-04-09 22:25:55.603030,407841,2485523303,2485525433,-0.952576,-0.033184,-0.277184,12.04,6.36125,5.71375,15.056001,-2.72,14.144001,eccentric,6,5.0,27349.0,403431.0,152676.0,17641.0,-104.0
2026-04-09 22:25:55.606601,407842,2485532242,2485534190,-0.952576,-0.033184,-0.277184,0.69125,7.7,7.8575,15.056001,-2.72,14.144001,eccentric,6,5.0,27349.0,403431.0,152676.0,17641.0,-104.0
2026-04-09 22:25:55.610140,407843,2485541162,2485542889,-0.952576,-0.033184,-0.277184,-5.10125,5.2325,11.27,15.056001,-2.72,14.144001,eccentric,6,5.0,27349.0,403431.0,152676.0,17641.0,-104.0
2026-04-09 22:25:55.611568,407844,2485555615,2485557751,-1.016992,-0.085888,-0.152256,-3.1325,1.1725,6.72,17.144001,-2.624,12.824,eccentric,6,5.0,27349.0,403431.0,152676.0,17641.0,-104.0
2026-04-09 22:25:55.614047,407845,2485564535,2485566510,-0.948672,-0.199104,-0.03904,0.8925,-0.65625,3.50875,17.328001,-2.416,13.440001,eccentric,6,5.0,27349.0,403431.0,152676.0,17641.0,-104.0
2026-04-09 22:25:55.619052,407846,2485573467,2485575237,-0.948672,-0.199104,-0.03904,3.85875,-0.90125,4.795,17.328001,-2.416,13.440001,eccentric,6,5.0,27349.0,403431.0,152676.0,17641.0,-104.0
2026-04-09 22:25:55.646779,407847,2485587977,2485590219,-1.020896,-0.081984,-0.13664,6.97375,1.085,6.86875,15.456,-3.04,14.240001,eccentric,6,5.0,27349.0,403431.0,152676.0,17641.0,-104.0
2026-04-09 22:25:55.650303,407848,2485596894,2485598957,-1.020896,-0.081984,-0.13664,11.87375,3.5,9.59875,15.456,-3.04,14.240001,eccentric,6,5.0,27349.0,403431.0,152676.0,17641.0,-104.0
2026-04-09 22:25:55.680292,407859,2485606349,2485607779,-1.116544,0.080032,-0.187392,13.055,5.88,9.68625,17.104,-2.408,13.272,eccentric,6,5.0,27354.0,403431.0,152293.0,17277.0,-115.0
2026-04-09 22:25:55.690404,407860,2485615287,2485616536,-1.116544,0.080032,-0.187392,11.92625,6.60625,7.16625,17.104,-2.408,13.272,eccentric,6,5.0,27354.0,403431.0,152293.0,17277.0,-115.0
2026-04-09 22:25:55.692785,407861,2485629834,2485631527,-1.059936,-0.242048,-0.064416,7.595,5.39,4.05125,15.992001,-2.936,14.336,eccentric,6,5.0,27354.0,403431.0,152293.0,17277.0,-115.0
2026-04-09 22:25:55.695357,407862,2485638910,2485640297,-1.059936,-0.242048,-0.064416,2.87875,6.27375,4.19125,15.992001,-2.936,14.336,eccentric,6,5.0,27354.0,403431.0,152293.0,17277.0,-115.0
2026-04-09 22:25:55.701485,407863,2485647924,2485649031,-1.114592,-0.140544,0.005856,1.47,9.73875,6.60625,15.784,-2.2,14.232,eccentric,6,5.0,27354.0,403431.0,152293.0,17277.0,-115.0
2026-04-09 22:25:55.719656,407864,2485662433,2485664014,-1.114592,-0.140544,-0.08784,10.0275,16.56375,8.18125,15.784,-2.2,14.232,eccentric,6,5.0,27354.0,403431.0,152293.0,17277.0,-115.0
2026-04-09 22:25:55.722780,407865,2485671350,2485672731,-1.106784,0.191296,-0.091744,22.26875,24.3775,5.7225,16.032001,-2.536,14.624001,eccentric,6,5.0,27354.0,403431.0,152293.0,17277.0,-115.0
2026-04-09 22:25:55.723997,407866,2485680257,2485681423,-1.106784,0.191296,-0.091744,7.00875,25.34,-3.325,16.032001,-2.536,14.624001,eccentric,6,5.0,27354.0,403431.0,152293.0,17277.0,-115.0
2026-04-09 22:25:55.754335,407867,2485689242,2485690162,-1.042368,-0.154208,-0.15616,-25.26125,22.8025,-4.36625,16.872002,-3.056,12.200001,eccentric,6,5.0,27354.0,403431.0,152293.0,17277.0,-115.0
2026-04-09 22:25:55.780353,407877,2485703924,2485705150,-1.077504,-0.210816,-0.183488,-41.8775,19.78375,-0.1225,16.576,-3.2,12.704,eccentric,6,5.0,27391.0,403431.0,151751.0,16833.0,-114.0
2026-04-09 22:25:55.782817,407878,2485712925,2485713976,-1.077504,-0.210816,-0.183488,-34.0725,18.1125,-0.07875,16.576,-3.2,12.704,eccentric,6,5.0,27391.0,403431.0,151751.0,16833.0,-114.0
2026-04-09 22:25:55.785276,407879,2485721857,2485722675,-1.077504,-0.210816,-0.183488,-11.47125,17.40375,1.49625,16.576,-3.2,12.704,eccentric,6,5.0,27391.0,403431.0,151751.0,16833.0,-114.0
2026-04-09 22:25:55.789670,407880,2485736395,2485737617,-1.040416,0.015616,-0.160064,4.8475,15.645,2.4675,15.632001,-2.848,14.152,eccentric,6,5.0,27391.0,403431.0,151751.0,16833.0,-114.0
2026-04-09 22:25:55.791847,407881,2485745274,2485746344,-0.925248,-0.091744,-0.089792,4.13875,11.13,-0.6825,15.816001,-3.408,14.880001,eccentric,6,5.0,27391.0,403431.0,151751.0,16833.0,-114.0
2026-04-09 22:25:55.797676,407882,2485754191,2485755084,-0.925248,-0.091744,-0.089792,-5.67875,6.055,-2.52,15.816001,-3.408,14.880001,eccentric,6,5.0,27391.0,403431.0,151751.0,16833.0,-114.0
2026-04-09 22:25:55.825526,407883,2485768725,2485769994,-0.979904,-0.0488,-0.054656,-15.61,2.73875,-0.7875,16.528,-2.896,13.928,eccentric,6,5.0,27391.0,403431.0,151751.0,16833.0,-114.0
2026-04-09 22:25:55.829074,407884,2485777616,2485778723,-0.979904,-0.0488,-0.054656,-10.26375,3.3075,2.03875,16.528,-2.896,13.928,eccentric,6,5.0,27391.0,403431.0,151751.0,16833.0,-114.0
2026-04-09 22:25:55.831585,407885,2485786522,2485787406,-1.003328,-0.083936,-0.228384,-1.7325,3.99,2.2925,16.936,-3.4,12.960001,eccentric,6,5.0,27391.0,403431.0,151751.0,16833.0,-114.0
2026-04-09 22:25:55.861697,407886,2485801051,2485802354,-1.003328,-0.083936,-0.228384,-4.5675,-0.11375,3.6225,16.936,-3.4,12.960001,eccentric,6,5.0,27391.0,403431.0,151751.0,16833.0,-114.0
2026-04-09 22:25:55.924099,407896,2485810145,2485811117,-0.940864,-0.109312,-0.132736,-3.92875,-5.04875,5.8975,16.176,-2.872,12.768001,eccentric,6,5.0,27539.0,403431.0,150511.0,15740.0,-121.0
2026-04-09 22:25:55.926565,407897,2485819084,2485819924,-0.940864,-0.109312,-0.132736,-0.39375,-7.4025,5.5125,16.176,-2.872,12.768001,eccentric,6,5.0,27539.0,403431.0,150511.0,15740.0,-121.0
2026-04-09 22:25:55.929026,407898,2485828060,2485828702,-0.976,0.001952,-0.035136,2.8525,-9.975,7.58625,17.096,-3.168,12.408001,eccentric,6,5.0,27539.0,403431.0,150511.0,15740.0,-121.0
2026-04-09 22:25:55.931546,407899,2485842870,2485843654,-0.976,0.001952,-0.035136,3.78,-10.08875,9.3975,17.096,-3.168,12.408001,eccentric,6,5.0,27539.0,403431.0,150511.0,15740.0,-121.0
2026-04-09 22:25:55.934056,407900,2485851851,2485852408,-0.977952,0.03904,-0.142496,0.8225,-9.37125,8.89,17.088001,-3.072,13.200001,eccentric,6,5.0,27539.0,403431.0,150511.0,15740.0,-121.0
2026-04-09 22:25:55.936530,407901,2485861009,2485863168,-0.977952,0.03904,-0.142496,-6.79,-8.77625,3.54375,17.088001,-3.072,13.200001,eccentric,6,5.0,27539.0,403431.0,150511.0,15740.0,-121.0
2026-04-09 22:25:55.939039,407902,2485875589,2485876027,-1.036512,-0.052704,-0.124928,-12.495,-9.35375,0.51625,17.472,-2.92,13.368001,eccentric,6,5.0,27539.0,403431.0,150511.0,15740.0,-121.0
2026-04-09 22:25:55.941525,407903,2485885001,2485886837,-0.923296,-0.06832,-0.02928,-5.36375,-9.485,2.51125,17.464,-2.648,13.408001,eccentric,6,5.0,27539.0,403431.0,150511.0,15740.0,-121.0
2026-04-09 22:25:55.944017,407904,2485893951,2485895591,-0.923296,-0.06832,-0.02928,2.1175,-7.18375,1.4525,17.464,-2.648,13.408001,eccentric,6,5.0,27539.0,403431.0,150511.0,15740.0,-121.0
2026-04-09 22:25:55.946639,407905,2485902921,2485904367,-0.923296,-0.06832,-0.02928,1.40875,-3.78875,2.21375,17.464,-2.648,13.408001,eccentric,6,5.0,27539.0,403431.0,150511.0,15740.0,-121.0
2026-04-09 22:25:55.981689,407916,2485917511,2485919415,-1.022848,0.066368,-0.060512,-0.93625,2.03,5.66125,17.424002,-3.36,15.920001,eccentric,6,5.0,27666.0,403431.0,149481.0,14914.0,-119.0
2026-04-09 22:25:55.984030,407917,2485926450,2485928176,-1.04432,0.054656,-0.27328,2.23125,5.29375,5.775,17.328001,-3.128,14.432001,eccentric,6,5.0,27666.0,403431.0,149481.0,14914.0,-119.0
2026-04-09 22:25:55.986527,407918,2485935453,2485936893,-1.04432,0.054656,-0.27328,-0.5075,2.6075,1.79375,17.328001,-3.128,14.432001,eccentric,6,5.0,27666.0,403431.0,149481.0,14914.0,-119.0
2026-04-09 22:25:55.992863,407919,2485949973,2485951825,-0.944768,-0.119072,-0.15616,-7.62125,-3.49125,-0.86625,16.912,-2.664,14.632001,eccentric,6,5.0,27666.0,403431.0,149481.0,14914.0,-119.0
2026-04-09 22:25:56.023039,407920,2485958940,2485960541,-0.944768,-0.119072,-0.15616,-7.95375,-9.1175,-0.27125,16.912,-2.664,14.632001,eccentric,6,5.0,27666.0,403431.0,149481.0,14914.0,-119.0
2026-04-09 22:25:56.026595,407921,2485967942,2485969314,-1.03456,-0.001952,-0.1464,-2.96625,-10.92,2.87875,17.160002,-3.112,13.408001,eccentric,6,5.0,27666.0,403431.0,149481.0,14914.0,-119.0
2026-04-09 22:25:56.029078,407922,2485976919,2485978002,-1.03456,-0.001952,-0.1464,4.4975,-13.79875,9.49375,17.160002,-3.112,13.408001,eccentric,6,5.0,27666.0,403431.0,149481.0,14914.0,-119.0
2026-04-09 22:25:56.035294,407923,2485991429,2485992891,-1.124352,0.208864,-0.316224,13.86,-17.605,15.54,17.928001,-2.776,13.68,eccentric,6,5.0,27666.0,403431.0,149481.0,14914.0,-119.0
2026-04-09 22:25:56.065564,407924,2486000367,2486001588,-1.124352,0.208864,-0.316224,20.02875,-23.07375,11.94375,17.928001,-2.776,13.68,eccentric,6,5.0,27666.0,403431.0,149481.0,14914.0,-119.0
2026-04-09 22:25:56.091567,407934,2486009479,2486010397,-1.0248,-0.15616,-0.064416,11.36625,-30.80875,8.16375,18.800001,-3.152,13.784,eccentric,6,5.0,27636.0,403431.0,149894.0,15216.0,-119.0
2026-04-09 22:25:56.094137,407935,2486024014,2486025292,-1.0248,-0.15616,-0.089792,5.25875,-37.135,12.8275,18.800001,-3.152,13.784,eccentric,6,5.0,27636.0,403431.0,149894.0,15216.0,-119.0
2026-04-09 22:25:56.096590,407936,2486033022,2486034019,-1.0248,0.021472,-0.089792,14.8925,-37.388752,16.68625,18.784,-3.336,14.504001,eccentric,6,5.0,27636.0,403431.0,149894.0,15216.0,-119.0
2026-04-09 22:25:56.099048,407937,2486042037,2486042792,-1.0248,0.021472,-0.089792,29.4,-36.79375,18.62,18.784,-3.336,14.504001,eccentric,6,5.0,27636.0,403431.0,149894.0,15216.0,-119.0
2026-04-09 22:25:56.101583,407938,2486051468,2486053604,-1.071648,0.251808,-0.072224,34.97375,-34.93875,23.05625,18.304,-3.072,17.024,eccentric,6,5.0,27636.0,403431.0,149894.0,15216.0,-119.0
2026-04-09 22:25:56.106608,407939,2486066057,2486066480,-0.96624,0.050752,-0.046848,27.02,-34.46625,23.616251,18.864,-3.096,18.264,eccentric,6,5.0,27636.0,403431.0,149894.0,15216.0,-119.0
2026-04-09 22:25:56.136775,407940,2486075393,2486077289,-0.96624,0.050752,-0.046848,9.03,-35.4375,21.02625,18.864,-3.096,18.264,eccentric,6,5.0,27636.0,403431.0,149894.0,15216.0,-119.0
2026-04-09 22:25:56.140407,407941,2486084313,2486085965,-0.96624,0.050752,-0.066368,2.905,-34.16,19.5825,18.864,-3.096,18.264,eccentric,6,5.0,27636.0,403431.0,149894.0,15216.0,-119.0
2026-04-09 22:25:56.146763,407942,2486098816,2486100814,-0.991616,-0.011712,-0.066368,10.22,-31.56125,23.6425,19.792002,-3.12,15.800001,eccentric,6,5.0,27636.0,403431.0,149894.0,15216.0,-119.0
2026-04-09 22:25:56.171618,407952,2486108111,2486109550,-1.196576,0.206912,-0.052704,20.78125,-29.3125,28.09625,20.416,-3.032,15.432001,eccentric,6,5.0,27574.0,403431.0,150250.0,15170.0,-111.0
2026-04-09 22:25:56.206547,407953,2486117134,2486118247,-1.196576,0.206912,-0.052704,31.36875,-27.72875,28.56,20.416,-3.032,15.432001,eccentric,6,5.0,27574.0,403431.0,150250.0,15170.0,-111.0
2026-04-09 22:25:56.210854,407954,2486126054,2486126983,-0.991616,0.080032,0.07808,32.27,-27.37875,24.7975,18.68,-3.976,17.544,eccentric,6,5.0,27574.0,403431.0,150250.0,15170.0,-111.0
2026-04-09 22:25:56.217118,407955,2486140593,2486141913,-0.991616,0.080032,0.07808,19.15375,-26.985,26.215,18.68,-3.976,17.544,eccentric,6,5.0,27574.0,403431.0,150250.0,15170.0,-111.0
2026-04-09 22:25:56.219667,407956,2486149578,2486150648,-0.944768,0.101504,0.064416,11.41875,-24.03625,30.2575,20.712002,-3.872,16.016,eccentric,6,5.0,27574.0,403431.0,150250.0,15170.0,-111.0
2026-04-09 22:25:56.223866,407957,2486158504,2486159352,-0.944768,0.101504,0.064416,12.3375,-20.1775,30.5375,20.712002,-3.872,16.016,eccentric,6,5.0,27574.0,403431.0,150250.0,15170.0,-111.0
2026-04-09 22:25:56.226344,407958,2486172963,2486174308,-1.290272,0.27328,-0.142496,15.26875,-17.045,29.155,20.744001,-3.88,16.112001,eccentric,6,5.0,27574.0,403431.0,150250.0,15170.0,-111.0
2026-04-09 22:25:56.227878,407959,2486181961,2486183044,-1.290272,0.27328,-0.142496,21.16625,-14.533751,34.34375,20.744001,-3.88,16.112001,eccentric,6,5.0,27574.0,403431.0,150250.0,15170.0,-111.0
2026-04-09 22:25:56.234543,407960,2486190879,2486191752,-1.069696,0.093696,0.066368,16.38,-15.5225,33.32875,21.008001,-3.824,15.944001,eccentric,6,5.0,27574.0,403431.0,150250.0,15170.0,-111.0
2026-04-09 22:25:56.290892,407971,2486205353,2486206829,-1.026752,0.080032,0.027328,4.15625,-15.846251,25.45375,21.008001,-3.76,16.784,eccentric,6,5.0,27577.0,403431.0,150247.0,15127.0,-109.0
2026-04-09 22:25:56.292560,407972,2486214289,2486215568,-1.026752,0.080032,0.027328,2.7475,-14.6125,25.64625,21.160002,-3.76,16.784,eccentric,6,5.0,27577.0,403431.0,150247.0,15127.0,-109.0
2026-04-09 22:25:56.294051,407973,2486223220,2486224292,-1.026752,0.080032,0.027328,7.90125,-12.67875,28.7,21.160002,-3.76,16.784,eccentric,6,5.0,27577.0,403431.0,150247.0,15127.0,-109.0
2026-04-09 22:25:56.298372,407974,2486237730,2486239265,-1.155584,0.222528,0.056608,11.01625,-11.15625,27.16875,22.096,-3.464,16.656,eccentric,6,5.0,27577.0,403431.0,150247.0,15127.0,-109.0
2026-04-09 22:25:56.300035,407975,2486246785,2486247980,-1.124352,0.236192,-0.056608,12.95875,-8.4,28.28875,20.800001,-4.472,19.728,eccentric,6,5.0,27577.0,403431.0,150247.0,15127.0,-109.0
2026-04-09 22:25:56.301566,407976,2486255708,2486256704,-1.124352,0.236192,-0.056608,11.75125,-8.417501,31.59625,20.800001,-4.472,19.728,eccentric,6,5.0,27577.0,403431.0,150247.0,15127.0,-109.0
2026-04-09 22:25:56.307004,407977,2486264619,2486265468,-1.124352,0.236192,-0.056608,4.725,-11.12125,29.35625,20.800001,-4.472,19.728,eccentric,6,5.0,27577.0,403431.0,150247.0,15127.0,-109.0
2026-04-09 22:25:56.335447,407978,2486279094,2486280385,-1.016992,0.085888,0.06832,3.14125,-12.31125,27.973751,21.176,-4.232,17.496,eccentric,6,5.0,27577.0,403431.0,150247.0,15127.0,-109.0
2026-04-09 22:25:56.339057,407979,2486288002,2486289095,-1.057984,0.236192,0.070272,6.46625,-12.43375,27.772501,22.424002,-4.368,17.320002,eccentric,6,5.0,27577.0,403431.0,150247.0,15127.0,-109.0
2026-04-09 22:25:56.341523,407980,2486296889,2486297796,-1.057984,0.236192,0.070272,10.40375,-11.71625,26.985,22.424002,-4.368,17.320002,eccentric,6,5.0,27577.0,403431.0,150247.0,15127.0,-109.0
2026-04-09 22:25:56.370261,407990,2486311623,2486312811,-1.14192,0.310368,-0.00976,16.35375,-8.49625,27.86875,22.472,-4.448,17.168001,eccentric,6,5.0,27574.0,403431.0,150375.0,15305.0,-129.0
2026-04-09 22:25:56.372796,407991,2486320599,2486321530,-1.14192,0.310368,-0.00976,11.80375,-7.7175,27.9475,22.472,-4.448,17.168001,eccentric,6,5.0,27574.0,403431.0,150375.0,15305.0,-129.0
2026-04-09 22:25:56.375233,407992,2486329539,2486330277,-1.08336,0.160064,0.08784,-3.50875,-9.31,26.6,21.800001,-4.496,18.896002,eccentric,6,5.0,27574.0,403431.0,150375.0,15305.0,-129.0
2026-04-09 22:25:56.380265,407993,2486339006,2486341124,-1.08336,0.160064,0.08784,-6.86875,-10.52625,25.75125,21.800001,-4.496,18.896002,eccentric,6,5.0,27574.0,403431.0,150375.0,15305.0,-129.0
2026-04-09 22:25:56.410822,407994,2486353488,2486353987,-1.059936,0.189344,0.05856,-4.05125,-11.3225,23.82625,22.312,-5.088,19.088001,eccentric,6,5.0,27574.0,403431.0,150375.0,15305.0,-129.0
2026-04-09 22:25:56.414141,407995,2486362885,2486364767,-1.059936,0.189344,0.05856,-2.02125,-11.03375,23.52875,22.312,-5.088,19.088001,eccentric,6,5.0,27574.0,403431.0,150375.0,15305.0,-129.0
2026-04-09 22:25:56.416576,407996,2486371818,2486373458,-1.188768,0.349408,0.02928,2.05625,-9.9575,26.34625,22.920002,-4.872,18.008001,eccentric,6,5.0,27574.0,403431.0,150375.0,15305.0,-129.0
2026-04-09 22:25:56.446776,407997,2486386307,2486388401,-1.1712,0.25376,0.023424,-0.9275,-10.4825,25.585001,23.904001,-4.784,19.664001,eccentric,6,5.0,27574.0,403431.0,150375.0,15305.0,-129.0
2026-04-09 22:25:56.450441,407998,2486395223,2486397091,-1.1712,0.25376,0.023424,-6.685,-12.8275,23.75625,23.904001,-4.784,19.664001,eccentric,6,5.0,27574.0,403431.0,150375.0,15305.0,-129.0
2026-04-09 22:25:56.452792,407999,2486404113,2486405788,-1.1712,0.25376,0.023424,-11.38375,-15.225,19.43375,23.904001,-4.784,19.664001,eccentric,6,5.0,27574.0,403431.0,150375.0,15305.0,-129.0
2026-04-09 22:25:56.510403,408009,2486418727,2486420781,-1.14192,0.12688,0.085888,-11.92625,-17.2025,19.6525,23.344002,-5.224001,18.456001,eccentric,6,5.0,27489.0,403431.0,150814.0,15627.0,-118.0
2026-04-09 22:25:56.513067,408010,2486427661,2486429533,-1.147776,0.30256,0.070272,-5.8275,-18.27,22.26875,21.888,-5.072,19.984001,eccentric,6,5.0,27489.0,403431.0,150814.0,15627.0,-118.0
2026-04-09 22:25:56.515436,408011,2486436619,2486438251,-1.147776,0.30256,0.070272,-0.37625,-17.52625,20.92125,21.888,-5.072,19.984001,eccentric,6,5.0,27489.0,403431.0,150814.0,15627.0,-118.0
2026-04-09 22:25:56.519388,408012,2486445551,2486446974,-1.147776,0.30256,0.070272,0.11375,-15.3475,19.897501,21.888,-5.072,19.984001,eccentric,6,5.0,27489.0,403431.0,150814.0,15627.0,-118.0
2026-04-09 22:25:56.522159,408013,2486460024,2486461914,-1.157536,0.327936,0.074176,-7.11375,-14.5075,17.68375,23.976002,-5.336,19.792002,eccentric,6,5.0,27489.0,403431.0,150814.0,15627.0,-118.0
2026-04-09 22:25:56.558048,408014,2486468920,2486470615,-1.175104,0.189344,0.081984,-15.995,-14.67375,16.47625,24.496,-5.808,19.552,eccentric,6,5.0,27489.0,403431.0,150814.0,15627.0,-118.0
2026-04-09 22:25:56.561927,408015,2486477883,2486479375,-1.175104,0.189344,0.081984,-20.8425,-15.12,18.64625,24.496,-5.808,19.552,eccentric,6,5.0,27489.0,403431.0,150814.0,15627.0,-118.0
2026-04-09 22:25:56.564101,408016,2486492392,2486494308,-1.145824,0.1952,0.06832,-15.715,-17.0975,19.3725,23.920002,-5.536,20.832,eccentric,6,5.0,27489.0,403431.0,150814.0,15627.0,-118.0
2026-04-09 22:25:56.566587,408017,2486501324,2486503031,-1.145824,0.1952,0.06832,-9.975,-18.83875,19.285,23.920002,-5.536,20.832,eccentric,6,5.0,27489.0,403431.0,150814.0,15627.0,-118.0
2026-04-09 22:25:56.591960,408027,2486510411,2486511782,-1.128256,0.267424,0.046848,-6.36125,-19.62625,21.28875,24.592001,-6.664001,20.128,eccentric,6,5.0,27401.0,403431.0,151638.0,16067.0,-123.0
2026-04-09 22:25:56.594123,408028,2486524928,2486526721,-1.128256,0.267424,0.046848,-6.90375,-20.86,21.76125,24.592001,-6.664001,20.128,eccentric,6,5.0,27401.0,403431.0,151638.0,16067.0,-123.0
2026-04-09 22:25:56.599645,408029,2486533855,2486535438,-1.153632,0.279136,0.093696,-6.46625,-20.4575,20.6675,25.304,-6.176,23.136002,eccentric,6,5.0,27401.0,403431.0,151638.0,16067.0,-123.0
2026-04-09 22:25:56.601659,408030,2486542964,2486544253,-1.153632,0.279136,0.093696,-6.20375,-19.81875,18.4975,25.304,-6.176,23.136002,eccentric,6,5.0,27401.0,403431.0,151638.0,16067.0,-123.0
2026-04-09 22:25:56.604056,408031,2486557463,2486559225,-1.139968,0.23424,0.06832,-13.4225,-20.825,16.31,25.048,-6.016,22.248001,eccentric,6,5.0,27401.0,403431.0,151638.0,16067.0,-123.0
2026-04-09 22:25:56.609170,408032,2486566375,2486567928,-1.139968,0.181536,0.07808,-17.80625,-21.77,15.47,25.048,-6.016,22.248001,eccentric,6,5.0,27401.0,403431.0,151638.0,16067.0,-123.0
2026-04-09 22:25:56.639262,408033,2486575331,2486576661,-1.136064,0.181536,0.07808,-18.025,-23.178751,14.95375,24.592001,-6.4,22.12,eccentric,6,5.0,27401.0,403431.0,151638.0,16067.0,-123.0
2026-04-09 22:25:56.642801,408034,2486584269,2486585349,-1.136064,0.181536,0.07808,-15.67125,-22.9775,16.1875,24.592001,-6.4,22.12,eccentric,6,5.0,27401.0,403431.0,151638.0,16067.0,-123.0
2026-04-09 22:25:56.645305,408035,2486598748,2486600255,-1.149728,0.22448,0.119072,-7.035,-22.00625,16.94875,25.424002,-6.64,22.032001,eccentric,6,5.0,27401.0,403431.0,151638.0,16067.0,-123.0
2026-04-09 22:25:56.679245,408046,2486607681,2486609075,-1.143872,0.210816,0.158112,-0.27125,-19.39,15.61,25.68,-6.952,21.616001,eccentric,6,5.0,27255.0,403431.0,152600.0,16745.0,-109.0
2026-04-09 22:25:56.681523,408047,2486616783,2486617849,-1.143872,0.210816,0.158112,-0.39375,-15.9775,15.54,25.68,-6.952,21.616001,eccentric,6,5.0,27255.0,403431.0,152600.0,16745.0,-109.0
2026-04-09 22:25:56.686564,408048,2486631375,2486632781,-1.145824,0.173728,0.15616,-10.2025,-13.57125,16.73,25.888,-7.296001,22.648,eccentric,6,5.0,27255.0,403431.0,152600.0,16745.0,-109.0
2026-04-09 22:25:56.689090,408049,2486640318,2486641525,-1.145824,0.173728,0.15616,-21.91,-12.46,18.69875,25.888,-7.296001,22.648,eccentric,6,5.0,27255.0,403431.0,152600.0,16745.0,-109.0
2026-04-09 22:25:56.691612,408050,2486649237,2486650314,-1.186816,0.144448,0.119072,-27.536251,-11.82125,20.2825,25.128,-7.048,23.936,eccentric,6,5.0,27255.0,403431.0,152600.0,16745.0,-109.0
2026-04-09 22:25:56.722810,408051,2486663723,2486665213,-1.186816,0.144448,0.119072,-28.30625,-11.795,22.25125,25.128,-7.048,23.936,eccentric,6,5.0,27255.0,403431.0,152600.0,16745.0,-109.0
2026-04-09 22:25:56.725179,408052,2486672650,2486673939,-1.194624,0.206912,0.081984,-25.366251,-11.2,24.56125,26.176,-7.672,23.056002,eccentric,6,5.0,27255.0,403431.0,152600.0,16745.0,-109.0
2026-04-09 22:25:56.729614,408053,2486681577,2486682669,-1.194624,0.206912,0.081984,-19.775,-10.42125,25.76,26.176,-7.672,23.056002,eccentric,6,5.0,27255.0,403431.0,152600.0,16745.0,-109.0
2026-04-09 22:25:56.733238,408054,2486690500,2486691374,-1.15168,0.17568,0.132736,-14.23625,-10.2025,24.35125,26.744001,-7.84,22.816002,eccentric,6,5.0,27255.0,403431.0,152600.0,16745.0,-109.0
2026-04-09 22:25:56.762379,408055,2486705007,2486706255,-1.15168,0.17568,0.132736,-14.93625,-10.70125,23.1,26.744001,-7.84,22.816002,eccentric,6,5.0,27255.0,403431.0,152600.0,16745.0,-109.0
2026-04-09 22:25:56.827580,408065,2486714079,2486714971,-1.167296,0.162016,0.162016,-15.9775,-9.3275,23.26625,26.592001,-8.216001,21.416,eccentric,6,5.0,27263.0,403431.0,152935.0,17153.0,-116.0
2026-04-09 22:25:56.829157,408066,2486723063,2486723669,-1.167296,0.162016,0.162016,-14.27125,-9.0125,23.2925,26.592001,-8.216001,21.416,eccentric,6,5.0,27263.0,403431.0,152935.0,17153.0,-116.0
2026-04-09 22:25:56.833382,408067,2486737978,2486738642,-1.136064,0.119072,0.085888,-14.752501,-9.40625,24.08875,26.52,-8.68,23.664001,eccentric,6,5.0,27263.0,403431.0,152935.0,17153.0,-116.0
2026-04-09 22:25:56.835797,408068,2486747274,2486749449,-1.120448,0.163968,0.103456,-13.13375,-8.7675,26.2675,26.52,-8.68,23.320002,eccentric,6,5.0,27263.0,403431.0,152935.0,17153.0,-116.0
2026-04-09 22:25:56.839195,408069,2486756155,2486758143,-1.118496,0.163968,0.103456,-8.54,-7.84,26.678751,26.656002,-8.472,23.320002,eccentric,6,5.0,27263.0,403431.0,152935.0,17153.0,-116.0
2026-04-09 22:25:56.841524,408070,2486765076,2486766836,-1.118496,0.163968,0.103456,-7.16625,-8.1025,24.535,26.656002,-8.472,23.320002,eccentric,6,5.0,27263.0,403431.0,152935.0,17153.0,-116.0
2026-04-09 22:25:56.842544,408071,2486779575,2486781747,-1.087264,0.160064,0.122976,-6.8425,-7.98,23.52,26.824001,-9.248,24.056002,eccentric,6,5.0,27263.0,403431.0,152935.0,17153.0,-116.0
2026-04-09 22:25:56.844136,408072,2486788569,2486791026,-1.067744,0.142496,0.134688,-8.47875,-7.53375,23.26625,26.072,-9.352,25.776001,eccentric,6,5.0,27263.0,403431.0,152935.0,17153.0,-116.0
2026-04-09 22:25:56.848190,408073,2486797625,2486799756,-1.067744,0.142496,0.134688,-7.1225,-6.9125,23.625,26.072,-9.352,25.776001,eccentric,6,5.0,27263.0,403431.0,152935.0,17153.0,-116.0
2026-04-09 22:25:56.871505,408083,2486812890,2486814732,-1.050176,0.208864,0.154208,-0.20125,-5.69625,22.82875,25.640001,-8.992001,25.232,eccentric,6,5.0,27228.0,403431.0,153396.0,17587.0,-106.0
2026-04-09 22:25:56.874105,408084,2486821902,2486823441,-1.050176,0.208864,0.154208,6.7725,-3.89375,21.51625,25.640001,-8.992001,25.232,eccentric,6,5.0,27228.0,403431.0,153396.0,17587.0,-106.0
2026-04-09 22:25:56.876665,408085,2486830929,2486832158,-1.009184,0.191296,0.122976,8.155,-1.89875,19.39875,25.064001,-9.688001,25.776001,eccentric,6,5.0,27228.0,403431.0,153396.0,17587.0,-106.0
2026-04-09 22:25:56.881643,408086,2486839953,2486840835,-1.009184,0.191296,0.122976,2.59875,-1.33875,17.54375,25.064001,-9.688001,25.776001,eccentric,6,5.0,27228.0,403431.0,153396.0,17587.0,-106.0
2026-04-09 22:25:56.911797,408087,2486854466,2486855758,-1.030656,0.144448,0.122976,-2.38875,-0.98,15.72375,25.400002,-9.808001,25.848001,eccentric,6,5.0,27228.0,403431.0,153396.0,17587.0,-106.0
2026-04-09 22:25:56.916269,408088,2486863401,2486864480,-1.030656,0.144448,0.122976,-1.23375,-0.9975,14.49875,25.400002,-9.808001,25.848001,eccentric,6,5.0,27228.0,403431.0,153396.0,17587.0,-106.0
2026-04-09 22:25:56.919133,408089,2486872347,2486873156,-1.013088,0.152256,0.095648,3.675,-0.595,13.46625,27.168001,-10.416,24.872002,eccentric,6,5.0,27228.0,403431.0,153396.0,17587.0,-106.0
2026-04-09 22:25:56.949318,408090,2486886841,2486888044,-1.013088,0.152256,0.095648,8.44375,-0.0875,12.34625,27.168001,-10.416,24.872002,concentric,6,5.0,27228.0,403431.0,153396.0,17587.0,-106.0
2026-04-09 22:25:56.952864,408091,2486895784,2486896757,-0.99552,0.177632,0.134688,10.4825,0.5775,11.90875,25.560001,-10.304001,22.376001,concentric,6,5.0,27228.0,403431.0,153396.0,17587.0,-106.0
2026-04-09 22:25:56.955455,408092,2486904723,2486905451,-0.99552,0.177632,0.134688,8.925,1.37375,9.6775,25.560001,-10.304001,22.376001,concentric,6,5.0,27228.0,403431.0,153396.0,17587.0,-106.0
2026-04-09 22:25:56.985262,408103,2486919852,2486920429,-0.993568,0.212768,0.13664,7.9625,2.87,8.35625,26.664001,-10.512,24.688002,concentric,6,5.0,27052.0,403431.0,154455.0,18403.0,-114.0
2026-04-09 22:25:56.987890,408104,2486929552,2486931244,-0.979904,0.197152,0.111264,6.83375,3.10625,5.81875,25.488,-10.320001,26.000002,concentric,6,5.0,27052.0,403431.0,154455.0,18403.0,-114.0
2026-04-09 22:25:56.990418,408105,2486938620,2486940061,-0.979904,0.197152,0.111264,5.5475,3.42125,3.10625,25.488,-10.320001,26.000002,concentric,6,5.0,27052.0,403431.0,154455.0,18403.0,-114.0
2026-04-09 22:25:56.992852,408106,2486947598,2486948813,-0.979904,0.197152,0.111264,6.43125,4.095,1.67125,25.488,-10.320001,26.000002,concentric,6,5.0,27052.0,403431.0,154455.0,18403.0,-114.0
2026-04-09 22:25:57.023084,408107,2486962115,2486963726,-0.987712,0.1952,0.122976,7.63875,5.32,0.0875,25.664001,-10.536,26.544,concentric,6,5.0,27052.0,403431.0,154455.0,18403.0,-114.0
2026-04-09 22:25:57.026629,408108,2486971102,2486972443,-0.970144,0.197152,0.138592,7.7,6.57125,-2.16125,27.2,-10.496,24.368002,concentric,6,5.0,27052.0,403431.0,154455.0,18403.0,-114.0
2026-04-09 22:25:57.029040,408109,2486980057,2486981136,-0.970144,0.197152,0.138592,3.5,7.42,-3.8675,27.2,-10.496,24.368002,concentric,6,5.0,27052.0,403431.0,154455.0,18403.0,-114.0
2026-04-09 22:25:57.031568,408110,2486988960,2486989838,-0.981856,0.201056,0.128832,-0.60375,8.82875,-6.67625,26.6,-10.408001,24.288002,concentric,6,5.0,27052.0,403431.0,154455.0,18403.0,-114.0
2026-04-09 22:25:57.061830,408111,2487003484,2487004779,-0.981856,0.201056,0.128832,-2.205,11.13875,-9.59875,26.6,-10.408001,24.288002,concentric,6,5.0,27052.0,403431.0,154455.0,18403.0,-114.0
2026-04-09 22:25:57.122904,408121,2487012880,2487013593,-1.013088,0.206912,0.091744,-3.99875,12.01375,-11.57625,26.656002,-10.240001,24.240002,concentric,6,5.0,27098.0,403431.0,154347.0,18488.0,-110.0
2026-04-09 22:25:57.125349,408122,2487022234,2487024342,-1.013088,0.206912,0.091744,-4.69875,11.8475,-13.658751,26.656002,-10.240001,24.240002,concentric,6,5.0,27098.0,403431.0,154347.0,18488.0,-110.0
2026-04-09 22:25:57.127848,408123,2487036741,2487037214,-1.020896,0.197152,0.113216,-2.345,13.265,-16.2225,24.960001,-10.440001,26.912,concentric,6,5.0,27098.0,403431.0,154347.0,18488.0,-110.0
2026-04-09 22:25:57.130349,408124,2487046093,2487047984,-1.020896,0.197152,0.113216,1.18125,14.245,-18.025,24.960001,-10.440001,26.912,concentric,6,5.0,27098.0,403431.0,154347.0,18488.0,-110.0
2026-04-09 22:25:57.132838,408125,2487055019,2487056669,-1.050176,0.187392,0.08784,1.995,14.5075,-19.3725,26.800001,-9.816001,24.2,concentric,6,5.0,27098.0,403431.0,154347.0,18488.0,-110.0
2026-04-09 22:25:57.135372,408126,2487063951,2487065360,-1.050176,0.187392,0.08784,1.4525,14.16625,-20.27375,26.800001,-9.816001,24.2,concentric,6,5.0,27098.0,403431.0,154347.0,18488.0,-110.0
2026-04-09 22:25:57.138567,408127,2487078607,2487080356,-1.069696,0.167872,0.085888,1.75875,14.28,-20.6325,26.504002,-10.224001,23.968,concentric,6,5.0,27098.0,403431.0,154347.0,18488.0,-110.0
2026-04-09 22:25:57.143269,408128,2487087543,2487089079,-1.069696,0.167872,0.085888,3.6225,13.64125,-20.50125,26.504002,-10.224001,23.968,concentric,6,5.0,27098.0,403431.0,154347.0,18488.0,-110.0
2026-04-09 22:25:57.143357,408129,2487096570,2487097815,-1.071648,0.208864,0.115168,6.23875,13.02,-21.84,25.480001,-9.280001,24.712002,concentric,6,5.0,27098.0,403431.0,154347.0,18488.0,-110.0
2026-04-09 22:25:57.198302,408139,2487111134,2487112682,-1.089216,0.242048,0.121024,7.455,14.14,-23.9225,25.504002,-9.352,24.576,concentric,6,5.0,27053.0,403431.0,154788.0,18909.0,-100.0
2026-04-09 22:25:57.199992,408140,2487120546,2487121356,-1.089216,0.242048,0.121024,3.465,16.12625,-25.83875,25.504002,-9.352,24.576,concentric,6,5.0,27053.0,403431.0,154788.0,18909.0,-100.0
2026-04-09 22:25:57.201557,408141,2487129472,2487130119,-1.106784,0.162016,0.091744,-3.185,18.0075,-26.7575,26.392002,-9.208,23.336,concentric,6,5.0,27053.0,403431.0,154788.0,18909.0,-100.0
2026-04-09 22:25:57.205835,408142,2487138792,2487140914,-1.106784,0.162016,0.091744,-8.16375,18.655,-26.92375,26.392002,-9.208,23.336,concentric,6,5.0,27053.0,403431.0,154788.0,18909.0,-100.0
2026-04-09 22:25:57.207516,408143,2487153368,2487153776,-1.11264,0.1464,0.105408,-9.24,18.865,-26.27625,26.248001,-9.216001,24.624,concentric,6,5.0,27053.0,403431.0,154788.0,18909.0,-100.0
2026-04-09 22:25:57.209067,408144,2487162696,2487164537,-1.11264,0.1464,0.105408,-4.865,19.04,-25.3925,26.248001,-9.216001,24.624,concentric,6,5.0,27053.0,403431.0,154788.0,18909.0,-100.0
2026-04-09 22:25:57.214410,408145,2487171715,2487173258,-1.11264,0.216672,0.148352,1.25125,20.1425,-25.34875,26.160002,-9.064,23.696001,concentric,6,5.0,27053.0,403431.0,154788.0,18909.0,-100.0
2026-04-09 22:25:57.243002,408146,2487180641,2487181980,-1.11264,0.216672,0.148352,2.9575,20.79,-26.075,26.160002,-9.064,23.696001,concentric,6,5.0,27053.0,403431.0,154788.0,18909.0,-100.0
2026-04-09 22:25:57.247539,408147,2487195099,2487196875,-1.108736,0.242048,0.11712,-0.7175,22.46125,-27.34375,26.304,-8.784,22.456001,concentric,6,5.0,27053.0,403431.0,154788.0,18909.0,-100.0
2026-04-09 22:25:57.249101,408148,2487204010,2487205576,-1.108736,0.242048,0.11712,-6.58,24.272501,-28.91,26.304,-8.784,22.456001,concentric,6,5.0,27053.0,403431.0,154788.0,18909.0,-100.0
2026-04-09 22:25:57.277552,408159,2487213404,2487214766,-1.114592,0.183488,0.101504,-9.87875,25.2525,-29.645,24.992,-8.672001,23.936,concentric,6,5.0,26980.0,403431.0,155400.0,19422.0,-112.0
2026-04-09 22:25:57.279155,408160,2487228036,2487229782,-1.114592,0.183488,0.101504,-11.8125,26.04,-29.575,24.992,-8.672001,23.936,concentric,6,5.0,26980.0,403431.0,155400.0,19422.0,-112.0
2026-04-09 22:25:57.283266,408161,2487236976,2487238541,-1.118496,0.163968,0.072224,-11.06875,26.32875,-28.2975,24.968,-8.264,22.480001,concentric,6,5.0,26980.0,403431.0,155400.0,19422.0,-112.0
2026-04-09 22:25:57.289629,408162,2487245911,2487247237,-1.118496,0.163968,0.072224,-7.1575,26.59125,-27.685,24.968,-8.264,22.480001,concentric,6,5.0,26980.0,403431.0,155400.0,19422.0,-112.0
2026-04-09 22:25:57.318993,408163,2487260409,2487262213,-1.106784,0.212768,0.148352,-4.76,27.16,-28.5425,25.744001,-8.168,21.296001,concentric,6,5.0,26980.0,403431.0,155400.0,19422.0,-112.0
2026-04-09 22:25:57.323768,408164,2487269329,2487270951,-1.106784,0.236192,0.16592,-2.8875,29.61,-30.42375,25.744001,-8.168,21.296001,concentric,6,5.0,26980.0,403431.0,155400.0,19422.0,-112.0
2026-04-09 22:25:57.325055,408165,2487278238,2487279642,-1.11264,0.236192,0.16592,-4.61125,31.98125,-31.35125,25.656002,-7.608,20.056002,concentric,6,5.0,26980.0,403431.0,155400.0,19422.0,-112.0
2026-04-09 22:25:57.330770,408166,2487287168,2487288334,-1.11264,0.236192,0.16592,-8.91625,34.08125,-31.2025,25.656002,-7.608,20.056002,concentric,6,5.0,26980.0,403431.0,155400.0,19422.0,-112.0
2026-04-09 22:25:57.359300,408167,2487301652,2487303290,-1.116544,0.193248,0.050752,-11.92625,35.06125,-31.78875,23.688002,-7.912,23.096,concentric,6,5.0,26980.0,403431.0,155400.0,19422.0,-112.0
2026-04-09 22:25:57.363927,408168,2487310578,2487312002,-1.120448,0.183488,0.12688,-11.865,36.37375,-32.6725,25.328001,-7.664001,19.416,concentric,6,5.0,26980.0,403431.0,155400.0,19422.0,-112.0
2026-04-09 22:25:57.422179,408178,2487319561,2487320743,-1.120448,0.183488,0.12688,-10.96375,38.22875,-34.23875,25.328001,-7.664001,19.416,concentric,6,5.0,27009.0,403431.0,154943.0,19043.0,-108.0
2026-04-09 22:25:57.423915,408179,2487334087,2487335731,-1.1224,0.28304,0.216672,-10.6925,42.105,-35.32375,25.336,-7.512001,19.640001,concentric,6,5.0,27009.0,403431.0,154943.0,19043.0,-108.0
2026-04-09 22:25:57.425380,408180,2487342990,2487344429,-1.1224,0.28304,0.216672,-11.69,46.41875,-36.42625,25.336,-7.512001,19.640001,concentric,6,5.0,27009.0,403431.0,154943.0,19043.0,-108.0
2026-04-09 22:25:57.429680,408181,2487351950,2487353112,-1.110688,0.251808,0.093696,-20.0375,51.03,-38.57,24.712002,-7.624001,19.288,concentric,6,5.0,27009.0,403431.0,154943.0,19043.0,-108.0
2026-04-09 22:25:57.431282,408182,2487366403,2487368032,-1.110688,0.251808,0.093696,-30.24875,54.50375,-39.55875,24.712002,-7.624001,19.288,concentric,6,5.0,27009.0,403431.0,154943.0,19043.0,-108.0
2026-04-09 22:25:57.432822,408183,2487375393,2487376733,-1.173152,0.160064,-0.046848,-31.92,56.525,-42.1225,24.592001,-7.144001,18.768002,concentric,6,5.0,27009.0,403431.0,154943.0,19043.0,-108.0
2026-04-09 22:25:57.436996,408184,2487384345,2487385484,-1.173152,0.160064,-0.046848,-29.67125,55.37875,-42.51625,24.592001,-7.144001,18.768002,concentric,6,5.0,27009.0,403431.0,154943.0,19043.0,-108.0
2026-04-09 22:25:57.443287,408185,2487398841,2487400430,-1.169248,0.212768,0.037088,-23.397501,53.9875,-41.04625,24.720001,-7.056,17.784,concentric,6,5.0,27009.0,403431.0,154943.0,19043.0,-108.0
2026-04-09 22:25:57.471847,408186,2487407740,2487409162,-1.169248,0.212768,0.037088,-15.1375,53.62875,-42.9275,24.720001,-7.056,17.784,concentric,6,5.0,27009.0,403431.0,154943.0,19043.0,-108.0
2026-04-09 22:25:57.503480,408196,2487416948,2487417891,-1.15168,0.251808,0.062464,-12.18,53.24375,-45.6225,24.568,-6.672,18.104,concentric,6,5.0,27155.0,403431.0,153714.0,18133.0,-104.0
2026-04-09 22:25:57.514690,408197,2487425875,2487426650,-1.15168,0.251808,0.062464,-14.88375,54.53875,-46.83875,24.568,-6.672,18.104,concentric,6,5.0,27155.0,403431.0,153714.0,18133.0,-104.0
2026-04-09 22:25:57.516338,408198,2487440430,2487441558,-1.15168,0.208864,-0.017568,-19.2675,54.6,-47.7575,23.448002,-6.944,16.872002,concentric,6,5.0,27155.0,403431.0,153714.0,18133.0,-104.0
2026-04-09 22:25:57.518009,408199,2487449380,2487450335,-1.15168,0.208864,-0.017568,-19.6175,53.978752,-49.02625,23.448002,-6.944,16.872002,concentric,6,5.0,27155.0,403431.0,153714.0,18133.0,-104.0
2026-04-09 22:25:57.522150,408200,2487458334,2487459067,-1.18096,0.154208,-0.109312,-16.51125,52.05375,-48.51875,22.568,-6.256001,17.240002,concentric,6,5.0,27155.0,403431.0,153714.0,18133.0,-104.0
2026-04-09 22:25:57.523883,408201,2487473227,2487473978,-1.147776,0.171776,-0.085888,-11.57625,49.51625,-44.625,22.064001,-6.536,15.944001,concentric,6,5.0,27155.0,403431.0,153714.0,18133.0,-104.0
2026-04-09 22:25:57.525371,408202,2487482584,2487484743,-1.147776,0.171776,-0.085888,-5.57375,45.885,-42.16625,22.064001,-6.536,15.944001,concentric,6,5.0,27155.0,403431.0,153714.0,18133.0,-104.0
2026-04-09 22:25:57.534599,408203,2487491553,2487493470,-1.138016,0.179584,-0.005856,-2.91375,42.7875,-42.4375,22.104002,-6.416,17.08,concentric,6,5.0,27155.0,403431.0,153714.0,18133.0,-104.0
2026-04-09 22:25:57.563453,408204,2487500486,2487502187,-1.138016,0.179584,-0.005856,-0.91875,40.92375,-43.21625,22.104002,-6.416,17.08,concentric,6,5.0,27155.0,403431.0,153714.0,18133.0,-104.0
2026-04-09 22:25:57.592600,408215,2487515052,2487517127,-1.1712,0.208864,-0.056608,-0.62125,39.50625,-42.9625,22.384,-6.56,15.592001,concentric,6,5.0,27259.0,403431.0,153061.0,17800.0,-103.0
2026-04-09 22:25:57.594171,408216,2487524036,2487525844,-1.1712,0.208864,-0.056608,-1.67125,40.13625,-41.88625,22.384,-6.56,15.592001,concentric,6,5.0,27259.0,403431.0,153061.0,17800.0,-103.0
2026-04-09 22:25:57.598389,408217,2487532984,2487534615,-1.163392,0.16592,-0.070272,-2.65125,39.3925,-41.92125,21.656,-5.632,14.960001,concentric,6,5.0,27259.0,403431.0,153061.0,17800.0,-103.0
2026-04-09 22:25:57.598493,408218,2487547574,2487549607,-1.163392,0.16592,-0.070272,-5.32,38.24625,-40.74,21.656,-5.632,14.960001,concentric,6,5.0,27259.0,403431.0,153061.0,17800.0,-103.0
2026-04-09 22:25:57.601729,408219,2487556469,2487558348,-1.14192,0.140544,-0.076128,-5.03125,36.33,-38.5175,21.304,-5.696,14.576001,concentric,6,5.0,27259.0,403431.0,153061.0,17800.0,-103.0
2026-04-09 22:25:57.612695,408220,2487565413,2487567056,-1.14192,0.140544,-0.076128,0.035,35.3325,-38.38625,21.304,-5.696,14.576001,concentric,6,5.0,27259.0,403431.0,153061.0,17800.0,-103.0
2026-04-09 22:25:57.638246,408221,2487579928,2487581982,-1.19072,0.181536,-0.037088,5.705,35.77,-38.28125,20.800001,-5.624,16.024,concentric,6,5.0,27259.0,403431.0,153061.0,17800.0,-103.0
2026-04-09 22:25:57.642504,408222,2487588847,2487590677,-1.19072,0.181536,-0.037088,7.28875,36.44375,-38.1675,20.800001,-5.624,16.024,concentric,6,5.0,27259.0,403431.0,153061.0,17800.0,-103.0
2026-04-09 22:25:57.647046,408223,2487597758,2487599374,-1.1712,0.1952,-0.040992,3.9025,36.951252,-38.12375,20.256,-5.8,14.208001,concentric,6,5.0,27259.0,403431.0,153061.0,17800.0,-103.0
2026-04-09 22:25:57.650775,408224,2487606724,2487608088,-1.1712,0.1952,-0.040992,-1.68,37.975,-36.68875,20.256,-5.8,14.208001,concentric,6,5.0,27259.0,403431.0,153061.0,17800.0,-103.0
2026-04-09 22:25:57.713476,408234,2487621235,2487623160,-1.165344,0.083936,-0.111264,-4.64625,37.8875,-35.175,18.424002,-5.968,15.776001,concentric,6,5.0,27303.0,403431.0,152985.0,17753.0,-112.0
2026-04-09 22:25:57.717537,408235,2487630244,2487631953,-1.165344,0.083936,-0.111264,-1.19875,36.75,-34.02875,18.424002,-5.968,15.776001,concentric,6,5.0,27303.0,403431.0,152985.0,17753.0,-112.0
2026-04-09 22:25:57.720351,408236,2487639208,2487640759,-1.139968,0.12688,-0.07808,9.56375,35.60375,-32.94375,20.240002,-5.376,14.072001,concentric,6,5.0,27303.0,403431.0,152985.0,17753.0,-112.0
2026-04-09 22:25:57.721958,408237,2487653728,2487655666,-1.126304,0.206912,-0.070272,16.56375,34.86,-31.9025,19.84,-5.464,13.64,concentric,6,5.0,27303.0,403431.0,152985.0,17753.0,-112.0
2026-04-09 22:25:57.725843,408238,2487662654,2487664384,-1.126304,0.206912,-0.070272,15.33875,33.775,-29.33,19.84,-5.464,13.64,concentric,6,5.0,27303.0,403431.0,152985.0,17753.0,-112.0
2026-04-09 22:25:57.727605,408239,2487671607,2487673080,-1.098976,0.103456,-0.177632,7.4725,32.4975,-28.72625,19.304,-4.976,12.776001,concentric,6,5.0,27303.0,403431.0,152985.0,17753.0,-112.0
2026-04-09 22:25:57.729202,408240,2487686129,2487688069,-1.098976,0.103456,-0.177632,0.0875,30.54625,-28.23625,19.304,-4.976,12.776001,concentric,6,5.0,27303.0,403431.0,152985.0,17753.0,-112.0
2026-04-09 22:25:57.760252,408241,2487695166,2487696812,-1.143872,0.093696,-0.183488,3.535,28.385,-26.08375,19.728,-5.08,12.8,concentric,6,5.0,27303.0,403431.0,152985.0,17753.0,-112.0
2026-04-09 22:25:57.764739,408242,2487704154,2487705522,-1.143872,0.093696,-0.183488,14.70875,25.71625,-26.7925,19.728,-5.08,12.8,concentric,6,5.0,27303.0,403431.0,152985.0,17753.0,-112.0
2026-04-09 22:25:57.792649,408252,2487718786,2487720437,-1.104832,0.11712,-0.15616,21.875,22.741251,-27.1075,19.392,-5.432,15.440001,concentric,6,5.0,27083.0,403431.0,154315.0,17977.0,-115.0
2026-04-09 22:25:57.794190,408253,2487727791,2487729180,-1.104832,0.11712,-0.15616,24.4825,20.265,-26.15375,19.392,-5.432,15.440001,concentric,6,5.0,27083.0,403431.0,154315.0,17977.0,-115.0
2026-04-09 22:25:57.798833,408254,2487736747,2487737923,-1.10288,0.101504,-0.080032,24.3775,19.6,-25.01625,17.616001,-5.152,14.480001,concentric,6,5.0,27083.0,403431.0,154315.0,17977.0,-115.0
2026-04-09 22:25:57.801371,408255,2487745722,2487746620,-1.10288,0.101504,-0.080032,24.4125,20.95625,-25.24375,17.616001,-5.152,14.480001,concentric,6,5.0,27083.0,403431.0,154315.0,17977.0,-115.0
2026-04-09 22:25:57.834382,408256,2487760275,2487761548,-1.038464,0.089792,-0.124928,24.2025,21.875,-26.1625,18.584002,-4.88,14.024001,concentric,6,5.0,27083.0,403431.0,154315.0,17977.0,-115.0
2026-04-09 22:25:57.837966,408257,2487769167,2487770300,-1.038464,0.089792,-0.124928,24.6925,22.9775,-25.57625,18.584002,-4.88,14.024001,concentric,6,5.0,27083.0,403431.0,154315.0,17977.0,-115.0
2026-04-09 22:25:57.840428,408258,2487778096,2487778979,-1.097024,0.152256,-0.181536,27.06375,24.9375,-24.68375,18.184,-4.96,12.536,concentric,6,5.0,27083.0,403431.0,154315.0,17977.0,-115.0
2026-04-09 22:25:57.842907,408259,2487792589,2487793859,-1.081408,0.099552,-0.179584,26.845,23.178751,-24.70125,17.984001,-4.176,12.216001,concentric,6,5.0,27083.0,403431.0,154315.0,17977.0,-115.0
2026-04-09 22:25:57.845655,408260,2487801506,2487802592,-1.081408,0.099552,-0.179584,21.84,21.06125,-23.56375,17.984001,-4.176,12.216001,concentric,6,5.0,27083.0,403431.0,154315.0,17977.0,-115.0
2026-04-09 22:25:57.876419,408261,2487810434,2487811286,-1.081408,0.099552,-0.179584,23.31,19.99375,-24.10625,17.984001,-4.176,12.216001,concentric,6,5.0,27083.0,403431.0,154315.0,17977.0,-115.0
2026-04-09 22:25:57.907956,408272,2487825042,2487826274,-1.007232,0.02928,-0.083936,21.647501,19.92375,-28.3325,17.504002,-4.76,12.208,concentric,6,5.0,27138.0,403431.0,153545.0,17226.0,-115.0
2026-04-09 22:25:57.912897,408273,2487833953,2487835031,-1.095072,0.16592,-0.244,23.70375,21.0175,-27.13375,17.544,-4.056,12.120001,concentric,6,5.0,27138.0,403431.0,153545.0,17226.0,-115.0
2026-04-09 22:25:57.915355,408274,2487842963,2487843714,-1.095072,0.16592,-0.244,27.34375,20.39625,-24.85875,17.544,-4.056,12.120001,concentric,6,5.0,27138.0,403431.0,153545.0,17226.0,-115.0
2026-04-09 22:25:57.917842,408275,2487852333,2487854517,-1.046272,0.052704,-0.26352,26.13625,16.80875,-24.24625,16.400002,-4.08,13.304001,concentric,6,5.0,27138.0,403431.0,153545.0,17226.0,-115.0
2026-04-09 22:25:57.920437,408276,2487867032,2487867438,-1.046272,0.052704,-0.26352,20.0375,12.71375,-26.355,16.400002,-4.08,13.304001,concentric,6,5.0,27138.0,403431.0,153545.0,17226.0,-115.0
2026-04-09 22:25:57.922841,408277,2487876366,2487878229,-1.036512,-0.052704,-0.158112,15.645,9.52,-24.5525,17.320002,-4.28,12.328001,concentric,6,5.0,27138.0,403431.0,153545.0,17226.0,-115.0
2026-04-09 22:25:57.927923,408278,2487885281,2487886914,-1.036512,-0.052704,-0.158112,16.72125,6.965,-21.875,17.320002,-4.28,12.328001,concentric,6,5.0,27138.0,403431.0,153545.0,17226.0,-115.0
2026-04-09 22:25:57.958362,408279,2487899800,2487901862,-0.974048,0.02928,-0.109312,27.67625,8.015,-22.365,16.976002,-3.88,13.304001,concentric,6,5.0,27138.0,403431.0,153545.0,17226.0,-115.0
2026-04-09 22:25:57.961644,408280,2487908757,2487910616,-0.974048,0.02928,-0.109312,36.295002,8.995,-23.415,16.976002,-3.88,13.304001,concentric,6,5.0,27138.0,403431.0,153545.0,17226.0,-115.0
2026-04-09 22:25:58.019190,408290,2487918270,2487919371,-1.071648,0.158112,-0.407968,30.835001,7.63,-18.27,17.04,-4.0,12.320001,concentric,6,5.0,27282.0,403431.0,152368.0,16371.0,-126.0
2026-04-09 22:25:58.021656,408291,2487927354,2487928085,-1.071648,0.158112,-0.407968,25.3225,4.45375,-12.136251,17.04,-4.0,12.320001,concentric,6,5.0,27282.0,403431.0,152368.0,16371.0,-126.0
2026-04-09 22:25:58.024182,408292,2487942396,2487943082,-1.067744,-0.040992,-0.265472,22.89,-2.8175,-14.4375,15.144001,-4.304,14.376,concentric,6,5.0,27282.0,403431.0,152368.0,16371.0,-126.0
2026-04-09 22:25:58.026642,408293,2487951782,2487953843,-1.067744,-0.040992,0.015616,23.79125,-7.9625,-19.005,15.144001,-4.304,14.376,concentric,6,5.0,27282.0,403431.0,152368.0,16371.0,-126.0
2026-04-09 22:25:58.029126,408294,2487960717,2487962536,-0.929152,-0.062464,0.021472,26.565,-8.2075,-18.5675,16.856,-3.872,13.064001,concentric,6,5.0,27282.0,403431.0,152368.0,16371.0,-126.0
2026-04-09 22:25:58.032570,408295,2487969655,2487971225,-0.929152,-0.062464,0.021472,34.57125,-4.2175,-18.2175,16.856,-3.872,13.064001,concentric,6,5.0,27282.0,403431.0,152368.0,16371.0,-126.0
2026-04-09 22:25:58.034133,408296,2487984223,2487986170,-0.96624,0.15616,-0.18544,38.17625,0.315,-17.491251,14.912001,-3.44,13.448001,concentric,6,5.0,27282.0,403431.0,152368.0,16371.0,-126.0
2026-04-09 22:25:58.036951,408297,2487993225,2487994868,-1.040416,0.148352,-0.415776,32.76,1.61,-15.925,15.864,-3.264,13.528001,concentric,6,5.0,27282.0,403431.0,152368.0,16371.0,-126.0
2026-04-09 22:25:58.067816,408298,2488002169,2488003569,-1.040416,0.148352,-0.415776,22.82875,-2.70375,-15.4525,15.864,-3.264,13.528001,concentric,6,5.0,27282.0,403431.0,152368.0,16371.0,-126.0
2026-04-09 22:25:58.097539,408308,2488016821,2488018562,-0.903776,-0.105408,-0.033184,14.455,-9.21375,-18.50625,16.76,-3.656,12.52,concentric,6,5.0,27263.0,403431.0,152545.0,16393.0,-120.0
2026-04-09 22:25:58.103388,408309,2488025821,2488027262,-0.903776,-0.105408,-0.033184,13.440001,-9.1525,-22.1725,16.76,-3.656,12.52,concentric,6,5.0,27263.0,403431.0,152545.0,16393.0,-120.0
2026-04-09 22:25:58.105141,408310,2488034752,2488035964,-0.815936,-0.003904,0.076128,18.366251,-3.3775,-24.29875,16.672,-3.192,12.424001,concentric,6,5.0,27263.0,403431.0,152545.0,16393.0,-120.0
2026-04-09 22:25:58.106689,408311,2488043643,2488044784,-0.815936,-0.003904,0.076128,21.00875,5.81875,-27.23,16.672,-3.192,12.424001,concentric,6,5.0,27263.0,403431.0,152545.0,16393.0,-120.0
2026-04-09 22:25:58.110129,408312,2488058217,2488059740,-0.909632,0.113216,-0.298656,20.79,12.6525,-27.86875,15.648001,-3.288,13.64,concentric,6,5.0,27263.0,403431.0,152545.0,16393.0,-120.0
2026-04-09 22:25:58.111967,408313,2488067173,2488068493,-0.909632,0.113216,-0.298656,12.1975,12.59125,-22.96875,15.648001,-3.288,13.64,concentric,6,5.0,27263.0,403431.0,152545.0,16393.0,-120.0
2026-04-09 22:25:58.118791,408314,2488076094,2488077267,-1.01504,-0.062464,-0.501664,0.51625,4.80375,-16.82625,15.952001,-3.104,13.112,concentric,6,5.0,27263.0,403431.0,152545.0,16393.0,-120.0
2026-04-09 22:25:58.146883,408315,2488090554,2488092163,-1.01504,-0.062464,-0.501664,-2.0475,-4.9875,-15.7325,15.952001,-3.104,13.112,concentric,6,5.0,27263.0,403431.0,152545.0,16393.0,-120.0
2026-04-09 22:25:58.151398,408316,2488099457,2488100871,-0.884256,-0.296704,-0.00976,4.97875,-11.06,-18.20875,16.608002,-3.368,12.376,concentric,6,5.0,27263.0,403431.0,152545.0,16393.0,-120.0
2026-04-09 22:25:58.152922,408317,2488108305,2488109550,-0.884256,-0.296704,-0.00976,13.27375,-10.99,-16.9225,16.608002,-3.368,12.376,concentric,6,5.0,27263.0,403431.0,152545.0,16393.0,-120.0
2026-04-09 22:25:58.187734,408328,2488122970,2488124519,-0.903776,0.18544,-0.035136,29.942501,-4.22625,-10.96375,15.504001,-2.976,13.840001,concentric,6,5.0,27359.0,403431.0,151797.0,15787.0,-127.0
2026-04-09 22:25:58.189211,408329,2488132017,2488133325,-0.903776,0.18544,-0.035136,41.79,-0.32375,-11.78625,15.504001,-2.976,13.840001,concentric,6,5.0,27359.0,403431.0,151797.0,15787.0,-127.0
2026-04-09 22:25:58.193366,408330,2488140941,2488142115,-0.905728,0.031232,-0.329888,25.40125,-3.85875,-14.5775,16.784,-2.536,13.280001,concentric,6,5.0,27359.0,403431.0,151797.0,15787.0,-127.0
2026-04-09 22:25:58.198076,408331,2488155527,2488157170,-1.048224,-0.11712,-0.320128,-1.8025,-10.07125,-9.19625,16.560001,-3.144,12.392,concentric,6,5.0,27359.0,403431.0,151797.0,15787.0,-127.0
2026-04-09 22:25:58.226996,408332,2488164455,2488165894,-1.048224,-0.11712,-0.320128,-7.4025,-12.90625,-4.06875,16.560001,-3.144,12.392,concentric,6,5.0,27359.0,403431.0,151797.0,15787.0,-127.0
2026-04-09 22:25:58.230440,408333,2488173379,2488174575,-0.938912,-0.081984,-0.128832,9.80875,-14.6475,-5.285,16.560001,-3.088,12.68,concentric,6,5.0,27359.0,403431.0,151797.0,15787.0,-127.0
2026-04-09 22:25:58.232964,408334,2488182302,2488183265,-0.938912,-0.081984,-0.128832,32.4975,-14.42,-4.96125,16.68,-3.088,12.68,concentric,6,5.0,27359.0,403431.0,151797.0,15787.0,-127.0
2026-04-09 22:25:58.237959,408335,2488196764,2488198261,-0.835456,0.103456,0.101504,42.805,-10.386251,-3.3425,15.808001,-2.864,15.56,concentric,6,5.0,27359.0,403431.0,151797.0,15787.0,-127.0
2026-04-09 22:25:58.305627,408336,2488205687,2488206956,-0.835456,0.103456,0.101504,38.01875,-5.34625,-7.525,15.808001,-2.864,15.56,concentric,6,5.0,27359.0,403431.0,151797.0,15787.0,-127.0
2026-04-09 22:25:58.309176,408337,2488214590,2488215674,-0.935008,0.044896,-0.212768,23.42375,1.26875,-8.3475,16.424002,-2.84,12.52,concentric,6,5.0,27359.0,403431.0,151797.0,15787.0,-127.0
2026-04-09 22:25:58.337999,408347,2488229040,2488230747,-0.935008,0.044896,-0.212768,3.115,4.54125,-1.5575,16.424002,-2.84,12.52,concentric,6,5.0,27478.0,403431.0,150869.0,15003.0,-131.0
2026-04-09 22:25:58.340777,408348,2488237934,2488239476,-0.976,-0.158112,-0.212768,-8.8375,3.57875,-0.875,16.576,-2.8,12.872001,concentric,6,5.0,27478.0,403431.0,150869.0,15003.0,-131.0
2026-04-09 22:25:58.342931,408349,2488246835,2488248158,-0.976,-0.158112,-0.212768,-12.27625,1.575,-2.1,16.576,-2.8,12.872001,concentric,6,5.0,27478.0,403431.0,150869.0,15003.0,-131.0
2026-04-09 22:25:58.345366,408350,2488261321,2488263048,-0.91744,-0.134688,-0.105408,-5.10125,1.5575,3.15,15.928,-2.76,12.544001,concentric,6,5.0,27478.0,403431.0,150869.0,15003.0,-131.0
2026-04-09 22:25:58.347869,408351,2488270234,2488271756,-0.91744,-0.134688,-0.105408,10.63125,2.695,6.11625,15.928,-2.76,12.544001,concentric,6,5.0,27478.0,403431.0,150869.0,15003.0,-131.0
2026-04-09 22:25:58.350383,408352,2488279221,2488280496,-0.911584,0.0976,-0.11712,23.625,4.375,4.24375,16.12,-2.544,12.56,concentric,6,5.0,27478.0,403431.0,150869.0,15003.0,-131.0
2026-04-09 22:25:58.352937,408353,2488293746,2488295525,-0.9272,-0.005856,-0.212768,15.68,3.15875,3.31625,16.12,-3.008,12.848001,concentric,6,5.0,27478.0,403431.0,150869.0,15003.0,-131.0
2026-04-09 22:25:58.356840,408354,2488302792,2488304240,-0.9272,-0.005856,-0.212768,-0.315,2.05625,7.48125,16.2,-3.008,12.848001,concentric,6,5.0,27478.0,403431.0,150869.0,15003.0,-131.0
2026-04-09 22:25:58.359692,408355,2488311734,2488312970,-0.9272,-0.005856,-0.212768,-8.37375,2.26625,11.3925,16.2,-3.008,12.848001,concentric,6,5.0,27478.0,403431.0,150869.0,15003.0,-131.0
