pc_time,serial_num,sensor_ts,host_ts,ax,ay,az,gx,gy,gz,mx,my,mz,phase,rpe,weight_kg,ppg_a,ppg_b,ppg_c,ppg_d,ppg_e
2026-04-09 22:25:58.382828,408365,2488320892,2488321844,-0.968192,-0.173728,-0.105408,-7.945,2.1,9.6075,15.456,-2.392,14.008,eccentric,6,5.0,27625.0,403431.0,149677.0,14054.0,-115.0
2026-04-09 22:25:58.385385,408366,2488335455,2488336853,-0.909632,0.072224,-0.093696,1.95125,4.19125,10.3425,15.832001,-2.968,12.976001,eccentric,6,5.0,27625.0,403431.0,149677.0,14054.0,-115.0
2026-04-09 22:25:58.387888,408367,2488344467,2488345572,-0.909632,0.072224,-0.093696,15.61,5.845,10.8675,15.832001,-2.968,12.976001,eccentric,6,5.0,27625.0,403431.0,149677.0,14054.0,-115.0
2026-04-09 22:25:58.394155,408368,2488353412,2488354321,-0.909632,0.072224,-0.167872,13.62375,6.15125,8.198751,15.832001,-2.968,12.976001,eccentric,6,5.0,27625.0,403431.0,149677.0,14054.0,-115.0
2026-04-09 22:25:58.424350,408369,2488367896,2488369222,-0.950624,0.003904,-0.167872,1.2075,5.95875,9.4325,15.312,-3.144,13.744,eccentric,6,5.0,27625.0,403431.0,149677.0,14054.0,-115.0
2026-04-09 22:25:58.427915,408370,2488376862,2488377914,-1.011136,-0.089792,-0.242048,-7.81375,4.33125,13.81625,17.240002,-3.304,12.976001,eccentric,6,5.0,27625.0,403431.0,149677.0,14054.0,-115.0
2026-04-09 22:25:58.430444,408371,2488385771,2488386630,-1.011136,-0.089792,-0.242048,-6.69375,1.6625,14.7,17.240002,-3.304,12.976001,eccentric,6,5.0,27625.0,403431.0,149677.0,14054.0,-115.0
2026-04-09 22:25:58.460595,408372,2488400255,2488401543,-0.991616,-0.044896,-0.109312,-1.30375,0.035,14.3675,15.960001,-3.384,13.832001,eccentric,6,5.0,27625.0,403431.0,149677.0,14054.0,-115.0
2026-04-09 22:25:58.464189,408373,2488409234,2488410269,-0.991616,-0.044896,-0.109312,5.8275,-0.67375,16.40625,15.960001,-3.384,13.832001,eccentric,6,5.0,27625.0,403431.0,149677.0,14054.0,-115.0
2026-04-09 22:25:58.494123,408384,2488418141,2488419353,-0.979904,0.070272,-0.060512,8.02375,-0.2625,16.616251,16.800001,-3.36,12.68,eccentric,6,5.0,27735.0,403431.0,148736.0,13478.0,-121.0
2026-04-09 22:25:58.496582,408385,2488427116,2488428076,-0.979904,0.070272,-0.060512,6.895,1.365,13.93875,16.800001,-3.36,12.68,eccentric,6,5.0,27735.0,403431.0,148736.0,13478.0,-121.0
2026-04-09 22:25:58.499131,408386,2488441618,2488443102,-1.038464,0.013664,-0.18544,2.21375,3.15875,13.0025,15.824,-3.504,13.360001,eccentric,6,5.0,27735.0,403431.0,148736.0,13478.0,-121.0
2026-04-09 22:25:58.501650,408387,2488450588,2488451925,-1.038464,0.013664,-0.18544,-5.3725,2.73875,13.5275,15.824,-3.504,13.360001,eccentric,6,5.0,27735.0,403431.0,148736.0,13478.0,-121.0
2026-04-09 22:25:58.504183,408388,2488459518,2488460632,-1.042368,-0.091744,-0.199104,-12.8975,0.2275,14.0875,16.2,-3.856,14.128,eccentric,6,5.0,27735.0,403431.0,148736.0,13478.0,-121.0
2026-04-09 22:25:58.534528,408389,2488474058,2488475562,-1.042368,0.066368,-0.070272,-13.125,-1.82875,16.3625,16.2,-3.856,14.128,eccentric,6,5.0,27735.0,403431.0,148736.0,13478.0,-121.0
2026-04-09 22:25:58.537987,408390,2488482985,2488484271,-1.018944,0.066368,-0.070272,-3.19375,0.98,17.77125,17.2,-3.856,12.512001,eccentric,6,5.0,27735.0,403431.0,148736.0,13478.0,-121.0
2026-04-09 22:25:58.540494,408391,2488491957,2488492993,-1.018944,0.066368,-0.070272,3.9725,5.7925,15.61875,17.2,-3.856,12.512001,eccentric,6,5.0,27735.0,403431.0,148736.0,13478.0,-121.0
2026-04-09 22:25:58.603172,408392,2488506473,2488507905,-1.001376,0.080032,-0.169824,-7.105,4.7775,14.323751,17.320002,-4.096,13.072001,eccentric,6,5.0,27735.0,403431.0,148736.0,13478.0,-121.0
2026-04-09 22:25:58.610830,408393,2488515376,2488516603,-1.085312,-0.037088,-0.376736,-22.35625,-0.6125,18.375,17.400002,-4.04,12.120001,eccentric,6,5.0,27735.0,403431.0,148736.0,13478.0,-121.0
2026-04-09 22:25:58.635432,408403,2488524420,2488525388,-1.085312,-0.037088,-0.376736,-28.105,-8.39125,19.7925,17.400002,-4.04,12.120001,eccentric,6,5.0,27913.0,403431.0,147969.0,13304.0,-126.0
2026-04-09 22:25:58.637983,408404,2488533505,2488534113,-1.085312,-0.037088,-0.376736,-16.68625,-14.5775,19.62625,17.400002,-4.04,12.120001,eccentric,6,5.0,27913.0,403431.0,147969.0,13304.0,-126.0
2026-04-09 22:25:58.640483,408405,2488548264,2488549020,-1.01504,-0.05856,-0.091744,2.3275,-18.1825,18.89125,17.856,-3.672,14.936001,eccentric,6,5.0,27913.0,403431.0,147969.0,13304.0,-126.0
2026-04-09 22:25:58.642856,408406,2488557609,2488559777,-0.899872,0.111264,0.017568,9.695,-18.3225,18.13,18.128,-4.152,13.160001,eccentric,6,5.0,27913.0,403431.0,147969.0,13304.0,-126.0
2026-04-09 22:25:58.645383,408407,2488566623,2488568477,-0.899872,0.111264,0.017568,8.1025,-16.52,18.71625,18.128,-4.152,13.160001,eccentric,6,5.0,27913.0,403431.0,147969.0,13304.0,-126.0
2026-04-09 22:25:58.647959,408408,2488581221,2488583445,-0.997472,0.183488,-0.201056,1.02375,-14.533751,17.59625,17.696001,-4.248,13.568001,eccentric,6,5.0,27913.0,403431.0,147969.0,13304.0,-126.0
2026-04-09 22:25:58.650399,408409,2488590175,2488592218,-0.997472,0.183488,-0.201056,-6.06375,-13.48375,17.2375,17.696001,-4.248,13.568001,eccentric,6,5.0,27913.0,403431.0,147969.0,13304.0,-126.0
2026-04-09 22:25:58.652872,408410,2488599162,2488600987,-0.999424,0.035136,-0.130784,-7.16625,-15.295,17.10625,17.848001,-4.248,13.384001,eccentric,6,5.0,27913.0,403431.0,147969.0,13304.0,-126.0
2026-04-09 22:25:58.655455,408411,2488608119,2488609707,-0.999424,0.035136,-0.130784,-7.90125,-15.54,17.24625,17.848001,-4.248,13.384001,eccentric,6,5.0,27913.0,403431.0,147969.0,13304.0,-126.0
2026-04-09 22:25:58.685395,408421,2488623450,2488624805,-0.970144,0.085888,-0.01952,-4.5675,-15.3825,18.305,18.088001,-4.664,13.696001,eccentric,6,5.0,27820.0,403431.0,148856.0,13714.0,-131.0
2026-04-09 22:25:58.690430,408422,2488632394,2488633559,-0.970144,0.085888,-0.01952,-3.36,-14.0525,17.24625,18.088001,-4.664,13.696001,eccentric,6,5.0,27820.0,403431.0,148856.0,13714.0,-131.0
2026-04-09 22:25:58.692906,408423,2488641404,2488642266,-1.00528,0.162016,-0.144448,-5.7575,-13.93,17.15875,18.312,-4.456,13.792001,eccentric,6,5.0,27820.0,403431.0,148856.0,13714.0,-131.0
2026-04-09 22:25:58.697981,408424,2488655899,2488657192,-1.009184,0.095648,-0.173728,-10.61375,-16.26625,18.78625,18.696001,-5.008,12.624001,eccentric,6,5.0,27820.0,403431.0,148856.0,13714.0,-131.0
2026-04-09 22:25:58.728155,408425,2488664898,2488665934,-1.009184,0.095648,-0.173728,-18.27,-18.78625,21.55125,18.696001,-5.008,12.624001,eccentric,6,5.0,27820.0,403431.0,148856.0,13714.0,-131.0
2026-04-09 22:25:58.731753,408426,2488673916,2488674637,-1.009184,0.095648,-0.173728,-14.7175,-19.97625,21.2975,18.696001,-5.008,12.624001,eccentric,6,5.0,27820.0,403431.0,148856.0,13714.0,-131.0
2026-04-09 22:25:58.734147,408427,2488683247,2488685387,-1.007232,0.08784,-0.017568,-7.385,-19.460001,17.7975,18.44,-5.08,14.632001,eccentric,6,5.0,27820.0,403431.0,148856.0,13714.0,-131.0
2026-04-09 22:25:58.739216,408428,2488697768,2488698225,-1.026752,0.222528,-0.066368,-4.9875,-18.06,19.59125,18.424002,-4.792,15.408001,eccentric,6,5.0,27820.0,403431.0,148856.0,13714.0,-131.0
2026-04-09 22:25:58.769434,408429,2488707128,2488709024,-1.026752,0.222528,-0.066368,-2.82625,-15.505,23.9575,18.424002,-4.792,15.408001,eccentric,6,5.0,27820.0,403431.0,148856.0,13714.0,-131.0
2026-04-09 22:25:58.781842,408430,2488716053,2488717723,-0.991616,0.113216,-0.083936,-3.75375,-16.1,22.12875,19.376001,-4.904,13.960001,eccentric,6,5.0,27820.0,403431.0,148856.0,13714.0,-131.0
2026-04-09 22:25:58.809181,408441,2488730654,2488732644,-0.991616,0.113216,-0.083936,-7.42,-18.69875,20.01125,19.376001,-4.904,13.960001,eccentric,6,5.0,27854.0,403431.0,148587.0,13350.0,-114.0
2026-04-09 22:25:58.811713,408442,2488739629,2488741357,-0.958432,0.10736,-0.072224,-10.08,-19.495,20.0025,19.016,-5.616,16.016,eccentric,6,5.0,27854.0,403431.0,148587.0,13350.0,-114.0
2026-04-09 22:25:58.814179,408443,2488748594,2488750142,-0.958432,0.10736,-0.072224,-10.89375,-20.13375,21.175,19.016,-5.616,16.016,eccentric,6,5.0,27854.0,403431.0,148587.0,13350.0,-114.0
2026-04-09 22:25:58.816678,408444,2488757556,2488758889,-1.065792,0.275232,-0.130784,-7.84875,-19.1975,25.13875,19.368,-5.936,14.384001,eccentric,6,5.0,27854.0,403431.0,148587.0,13350.0,-114.0
2026-04-09 22:25:58.819168,408445,2488772007,2488773881,-1.065792,0.275232,-0.130784,-0.07,-19.985,23.72125,19.368,-5.936,14.384001,eccentric,6,5.0,27854.0,403431.0,148587.0,13350.0,-114.0
2026-04-09 22:25:58.824280,408446,2488780988,2488782622,-1.04432,0.191296,-0.091744,-7.76125,-23.44125,19.495,20.496,-5.84,15.328001,eccentric,6,5.0,27854.0,403431.0,148587.0,13350.0,-114.0
2026-04-09 22:25:58.854449,408447,2488789967,2488791332,-1.04432,0.191296,-0.091744,-9.77375,-25.69,20.6675,20.496,-5.84,15.328001,eccentric,6,5.0,27854.0,403431.0,148587.0,13350.0,-114.0
2026-04-09 22:25:58.857963,408448,2488804449,2488806214,-0.931104,0.124928,0.056608,-3.03625,-26.8275,17.4825,20.720001,-5.512,14.856001,eccentric,6,5.0,27854.0,403431.0,148587.0,13350.0,-114.0
2026-04-09 22:25:58.860405,408449,2488813369,2488814906,-0.931104,0.124928,0.056608,2.5025,-24.78,13.60625,20.720001,-5.512,14.856001,eccentric,6,5.0,27854.0,403431.0,148587.0,13350.0,-114.0
2026-04-09 22:25:58.920703,408459,2488822474,2488823907,-0.972096,0.296704,0.12688,7.84875,-21.16625,14.07,20.896002,-5.752,15.6,eccentric,6,5.0,27856.0,403431.0,148612.0,13250.0,-136.0
2026-04-09 22:25:58.923275,408460,2488837062,2488838932,-0.999424,0.363072,-0.056608,7.735,-13.55375,14.3325,20.184,-5.44,17.416,eccentric,6,5.0,27856.0,403431.0,148612.0,13250.0,-136.0
2026-04-09 22:25:58.925437,408461,2488845982,2488847624,-0.999424,0.363072,-0.056608,8.14625,-7.2975,11.10375,20.184,-5.44,17.416,eccentric,6,5.0,27856.0,403431.0,148612.0,13250.0,-136.0
2026-04-09 22:25:58.927891,408462,2488854895,2488856304,-0.999424,0.363072,-0.056608,-4.38375,-6.7375,6.265,20.184,-5.44,17.416,eccentric,6,5.0,27856.0,403431.0,148612.0,13250.0,-136.0
2026-04-09 22:25:58.930428,408463,2488863787,2488865047,-1.020896,0.189344,-0.062464,-16.07375,-6.93,7.81375,21.064001,-5.504,16.152,eccentric,6,5.0,27856.0,403431.0,148612.0,13250.0,-136.0
2026-04-09 22:25:58.932876,408464,2488878251,2488879997,-1.036512,0.191296,-0.003904,-18.68125,-8.56625,8.02375,20.088001,-6.000001,18.736,eccentric,6,5.0,27856.0,403431.0,148612.0,13250.0,-136.0
2026-04-09 22:25:58.935424,408465,2488887228,2488888779,-1.036512,0.191296,-0.003904,-17.24625,-10.78,4.935,20.088001,-6.000001,18.736,eccentric,6,5.0,27856.0,403431.0,148612.0,13250.0,-136.0
2026-04-09 22:25:58.937995,408466,2488896242,2488897517,-1.130208,0.365024,-0.13664,-1.9075,-11.03375,6.85125,20.096,-6.032,18.144001,eccentric,6,5.0,27856.0,403431.0,148612.0,13250.0,-136.0
2026-04-09 22:25:58.968114,408467,2488910753,2488912478,-1.130208,0.365024,-0.13664,8.925,-14.06125,8.7675,20.096,-6.032,18.144001,eccentric,6,5.0,27856.0,403431.0,148612.0,13250.0,-136.0
2026-04-09 22:25:58.971619,408468,2488919660,2488921209,-1.036512,0.173728,0.02928,-5.4075,-19.460001,4.01625,22.096,-5.976,16.320002,eccentric,6,5.0,27856.0,403431.0,148612.0,13250.0,-136.0
2026-04-09 22:25:59.000373,408478,2488928639,2488929915,-1.036512,0.173728,0.02928,-13.46625,-22.225,2.80875,22.096,-5.976,16.320002,eccentric,6,5.0,27841.0,403431.0,148625.0,13350.0,-126.0
2026-04-09 22:25:59.002862,408479,2488943260,2488944907,-1.14192,0.220576,0.052704,-8.93375,-22.65375,5.53,22.328001,-5.928001,16.696001,eccentric,6,5.0,27841.0,403431.0,148625.0,13350.0,-126.0
2026-04-09 22:25:59.005363,408480,2488952290,2488953727,-1.14192,0.220576,0.052704,-2.2575,-22.925,10.3075,22.328001,-5.928001,16.696001,eccentric,6,5.0,27841.0,403431.0,148625.0,13350.0,-126.0
2026-04-09 22:25:59.007853,408481,2488961221,2488962443,-1.3176,0.343552,-0.148352,15.61875,-22.2075,15.015,22.424002,-5.992,17.008001,eccentric,6,5.0,27841.0,403431.0,148625.0,13350.0,-126.0
2026-04-09 22:25:59.038040,408482,2488975771,2488977494,-1.3176,0.343552,0.074176,17.99875,-27.15125,17.12375,22.424002,-5.992,17.008001,eccentric,6,5.0,27841.0,403431.0,148625.0,13350.0,-126.0
2026-04-09 22:25:59.041700,408483,2488984680,2488986189,-1.100928,0.148352,0.074176,-2.28375,-33.83625,15.96,23.368002,-6.032,19.272001,eccentric,6,5.0,27841.0,403431.0,148625.0,13350.0,-126.0
2026-04-09 22:25:59.044066,408484,2488993579,2488994870,-1.100928,0.148352,0.074176,-5.0225,-35.53375,14.9625,23.368002,-6.032,19.272001,eccentric,6,5.0,27841.0,403431.0,148625.0,13350.0,-126.0
2026-04-09 22:25:59.046632,408485,2489002490,2489003556,-1.110688,0.169824,0.064416,0.88375,-31.89375,16.2925,23.632002,-5.776001,17.744001,eccentric,6,5.0,27841.0,403431.0,148625.0,13350.0,-126.0
2026-04-09 22:25:59.077398,408486,2489016957,2489018577,-1.262944,0.386496,0.0488,2.555,-29.68875,20.43125,23.816002,-6.864,15.6,eccentric,6,5.0,27841.0,403431.0,148625.0,13350.0,-126.0
2026-04-09 22:25:59.139091,408497,2489025993,2489027290,-1.262944,0.386496,0.0488,5.52125,-26.60875,20.825,23.816002,-6.864,15.6,eccentric,6,5.0,27812.0,403431.0,148718.0,13493.0,-143.0
2026-04-09 22:25:59.141649,408498,2489034950,2489036017,-1.262944,0.386496,0.0488,9.42375,-23.555,21.525,23.816002,-6.864,15.6,eccentric,6,5.0,27812.0,403431.0,148718.0,13493.0,-143.0
2026-04-09 22:25:59.144138,408499,2489049482,2489050936,-1.179008,0.230336,-0.033184,0.37625,-27.536251,21.84875,24.104002,-6.008,18.664001,eccentric,6,5.0,27812.0,403431.0,148718.0,13493.0,-143.0
2026-04-09 22:25:59.146636,408500,2489058383,2489059641,-1.13216,0.12688,0.070272,-5.46875,-30.695,22.645,24.624,-6.36,19.008001,eccentric,6,5.0,27812.0,403431.0,148718.0,13493.0,-143.0
2026-04-09 22:25:59.149143,408501,2489067276,2489068356,-1.13216,0.12688,0.070272,6.06375,-30.28375,19.355,24.624,-6.36,19.008001,eccentric,6,5.0,27812.0,403431.0,148718.0,13493.0,-143.0
2026-04-09 22:25:59.151691,408502,2489081726,2489083264,-1.139968,0.296704,0.050752,10.05375,-30.40625,16.23125,24.656002,-6.32,18.992,eccentric,6,5.0,27812.0,403431.0,148718.0,13493.0,-143.0
2026-04-09 22:25:59.157917,408503,2489090766,2489092032,-1.139968,0.296704,0.050752,14.0875,-29.98625,18.27875,24.656002,-6.32,18.992,eccentric,6,5.0,27812.0,403431.0,148718.0,13493.0,-143.0
2026-04-09 22:25:59.160404,408504,2489099795,2489100802,-1.21024,0.333792,0.060512,15.925,-27.15125,18.7425,23.632002,-5.872,20.848001,eccentric,6,5.0,27812.0,403431.0,148718.0,13493.0,-143.0
2026-04-09 22:25:59.162888,408505,2489108742,2489109571,-1.21024,0.333792,0.060512,11.24375,-26.46875,16.42375,23.632002,-5.872,20.848001,eccentric,6,5.0,27812.0,403431.0,148718.0,13493.0,-143.0
2026-04-09 22:25:59.222923,408515,2489124104,2489124570,-1.167296,0.18544,0.064416,-0.77,-28.02625,15.39125,24.056002,-6.520001,21.28,eccentric,6,5.0,27748.0,403431.0,148877.0,13749.0,-120.0
2026-04-09 22:25:59.225390,408516,2489133526,2489135471,-1.167296,0.18544,0.064416,-7.07875,-29.995,16.415,24.056002,-6.520001,21.28,eccentric,6,5.0,27748.0,403431.0,148877.0,13749.0,-120.0
2026-04-09 22:25:59.227939,408517,2489142542,2489144196,-1.15168,0.16592,0.05856,-1.6975,-30.135,13.93875,25.104002,-5.784,20.44,eccentric,6,5.0,27748.0,403431.0,148877.0,13749.0,-120.0
2026-04-09 22:25:59.230374,408518,2489151453,2489152945,-1.15168,0.16592,0.05856,5.425,-31.08,13.18625,25.104002,-5.784,20.44,eccentric,6,5.0,27748.0,403431.0,148877.0,13749.0,-120.0
2026-04-09 22:25:59.232879,408519,2489165958,2489167857,-1.157536,0.247904,0.013664,11.025,-32.59375,15.575,25.760002,-6.424,20.968,eccentric,6,5.0,27748.0,403431.0,148877.0,13749.0,-120.0
2026-04-09 22:25:59.235557,408520,2489174896,2489176622,-1.157536,0.247904,0.013664,17.7275,-33.03125,17.045,25.760002,-6.424,20.968,eccentric,6,5.0,27748.0,403431.0,148877.0,13749.0,-120.0
2026-04-09 22:25:59.238702,408521,2489183835,2489185423,-1.136064,0.230336,0.070272,22.19,-33.670002,16.38875,26.232,-6.608,21.376001,eccentric,6,5.0,27748.0,403431.0,148877.0,13749.0,-120.0
2026-04-09 22:25:59.240331,408522,2489198357,2489200366,-1.159488,0.245952,0.148352,24.01,-33.3025,15.3125,26.008001,-7.144001,23.536001,eccentric,6,5.0,27748.0,403431.0,148877.0,13749.0,-120.0
2026-04-09 22:25:59.273056,408523,2489207362,2489209088,-1.159488,0.245952,0.148352,27.1775,-31.59625,13.06375,26.008001,-7.144001,23.536001,eccentric,6,5.0,27748.0,403431.0,148877.0,13749.0,-120.0
2026-04-09 22:25:59.276705,408524,2489216299,2489217785,-1.159488,0.245952,0.148352,26.39,-28.2975,8.82,26.008001,-7.144001,23.536001,eccentric,6,5.0,27748.0,403431.0,148877.0,13749.0,-120.0
2026-04-09 22:25:59.301593,408534,2489230827,2489232733,-1.167296,0.191296,0.181536,20.265,-24.28125,8.4,26.136002,-6.6,23.696001,eccentric,6,5.0,27504.0,403431.0,150566.0,15010.0,-129.0
2026-04-09 22:25:59.304189,408535,2489239801,2489241501,-1.179008,0.12688,0.08784,15.015,-20.553751,12.46,26.344002,-6.888001,22.84,eccentric,6,5.0,27504.0,403431.0,150566.0,15010.0,-129.0
2026-04-09 22:25:59.306666,408536,2489248750,2489250259,-1.179008,0.12688,0.08784,9.5375,-17.22,14.56875,26.344002,-6.888001,22.84,eccentric,6,5.0,27504.0,403431.0,150566.0,15010.0,-129.0
2026-04-09 22:25:59.309177,408537,2489263415,2489265180,-1.177056,0.08784,0.121024,9.66875,-15.846251,16.59875,24.584002,-6.848001,24.320002,eccentric,6,5.0,27504.0,403431.0,150566.0,15010.0,-129.0
2026-04-09 22:25:59.315839,408538,2489272493,2489273888,-1.177056,0.08784,0.121024,10.8325,-14.58625,19.39,24.584002,-6.848001,24.320002,eccentric,6,5.0,27504.0,403431.0,150566.0,15010.0,-129.0
2026-04-09 22:25:59.345610,408539,2489281426,2489282715,-1.175104,0.169824,0.154208,15.7325,-12.66125,22.3475,27.52,-7.304,23.032001,eccentric,6,5.0,27504.0,403431.0,150566.0,15010.0,-129.0
2026-04-09 22:25:59.349174,408540,2489290376,2489291448,-1.175104,0.169824,0.154208,13.72875,-10.73625,24.56125,27.52,-7.304,23.032001,eccentric,6,5.0,27504.0,403431.0,150566.0,15010.0,-129.0
2026-04-09 22:25:59.351657,408541,2489304966,2489306330,-1.130208,0.12688,0.154208,13.1775,-8.89875,24.10625,26.184002,-7.112001,23.016,eccentric,6,5.0,27504.0,403431.0,150566.0,15010.0,-129.0
2026-04-09 22:25:59.355409,408542,2489313877,2489315038,-1.130208,0.12688,0.154208,8.61875,-5.95,25.0075,26.184002,-7.112001,23.016,eccentric,6,5.0,27504.0,403431.0,150566.0,15010.0,-129.0
2026-04-09 22:25:59.385588,408543,2489322906,2489323759,-1.106784,0.138592,0.132736,7.21875,-3.15875,28.805,26.272001,-8.08,24.696001,eccentric,6,5.0,27504.0,403431.0,150566.0,15010.0,-129.0
2026-04-09 22:25:59.416637,408554,2489337441,2489338670,-1.106784,0.179584,0.105408,9.87875,-2.03,29.575,26.272001,-8.08,24.696001,eccentric,6,5.0,27568.0,403431.0,150699.0,15318.0,-114.0
2026-04-09 22:25:59.419192,408555,2489346321,2489347390,-1.09312,0.179584,0.105408,10.386251,-1.70625,26.81,27.344002,-8.112,24.36,eccentric,6,5.0,27568.0,403431.0,150699.0,15318.0,-114.0
2026-04-09 22:25:59.421704,408556,2489355283,2489356109,-1.09312,0.179584,0.105408,13.0375,-1.75875,23.8525,27.344002,-8.112,24.36,eccentric,6,5.0,27568.0,403431.0,150699.0,15318.0,-114.0
2026-04-09 22:25:59.424128,408557,2489369864,2489371051,-1.0736,0.17568,0.066368,14.07875,-1.785,21.62125,26.464,-7.944,25.264002,eccentric,6,5.0,27568.0,403431.0,150699.0,15318.0,-114.0
2026-04-09 22:25:59.429184,408558,2489378917,2489379775,-1.091168,0.160064,0.101504,14.9975,-2.3975,21.04375,26.144001,-8.408,24.264002,eccentric,6,5.0,27568.0,403431.0,150699.0,15318.0,-114.0
2026-04-09 22:25:59.431632,408559,2489387929,2489388505,-1.091168,0.160064,0.101504,19.90625,-2.5375,18.71625,26.144001,-8.408,24.264002,eccentric,6,5.0,27568.0,403431.0,150699.0,15318.0,-114.0
2026-04-09 22:25:59.440456,408560,2489397653,2489399282,-1.091168,0.160064,0.101504,25.0075,-2.86125,15.00625,26.144001,-8.408,24.264002,eccentric,6,5.0,27568.0,403431.0,150699.0,15318.0,-114.0
2026-04-09 22:25:59.503103,408561,2489412477,2489414261,-1.071648,0.158112,0.158112,30.03,-2.3275,13.57125,26.504002,-8.784,23.992,eccentric,6,5.0,27568.0,403431.0,150699.0,15318.0,-114.0
2026-04-09 22:25:59.506703,408562,2489421399,2489422994,-1.046272,0.1464,0.152256,33.451252,-1.3475,12.41625,27.256,-8.480001,24.6,eccentric,6,5.0,27568.0,403431.0,150699.0,15318.0,-114.0
2026-04-09 22:25:59.541694,408572,2489430501,2489431734,-1.046272,0.1464,0.152256,31.3075,0.27125,10.5175,27.256,-8.480001,24.6,eccentric,6,5.0,27213.0,403431.0,153447.0,17398.0,-105.0
2026-04-09 22:25:59.544200,408573,2489439584,2489440410,-1.079456,0.142496,0.119072,27.83375,0.81375,10.49125,27.304,-8.120001,22.648,eccentric,6,5.0,27213.0,403431.0,153447.0,17398.0,-105.0
2026-04-09 22:25:59.546701,408574,2489454104,2489455294,-1.079456,0.142496,0.119072,24.815,1.575,8.89875,27.304,-8.120001,22.648,eccentric,6,5.0,27213.0,403431.0,153447.0,17398.0,-105.0
2026-04-09 22:25:59.549330,408575,2489463132,2489463997,-1.059936,0.138592,0.134688,21.35875,2.66,9.52875,27.480001,-8.968,24.504002,eccentric,6,5.0,27213.0,403431.0,153447.0,17398.0,-105.0
2026-04-09 22:25:59.552869,408576,2489472178,2489472723,-1.059936,0.138592,0.134688,20.44875,3.40375,11.05125,27.480001,-8.968,24.504002,eccentric,6,5.0,27213.0,403431.0,153447.0,17398.0,-105.0
2026-04-09 22:25:59.558951,408577,2489481587,2489483472,-1.059936,0.144448,0.134688,19.985,4.8475,11.27,27.448002,-9.112,24.864,eccentric,6,5.0,27213.0,403431.0,153447.0,17398.0,-105.0
2026-04-09 22:25:59.560928,408578,2489496109,2489496441,-1.059936,0.144448,0.134688,18.08625,5.90625,11.261251,27.448002,-9.112,24.864,eccentric,6,5.0,27213.0,403431.0,153447.0,17398.0,-105.0
2026-04-09 22:25:59.566697,408579,2489505508,2489507311,-1.05408,0.177632,0.109312,15.190001,6.95625,11.27875,27.640001,-9.224,24.344002,eccentric,6,5.0,27213.0,403431.0,153447.0,17398.0,-105.0
2026-04-09 22:25:59.569183,408580,2489514477,2489516033,-1.05408,0.177632,0.109312,12.3025,7.0875,10.84125,27.640001,-9.224,24.344002,eccentric,6,5.0,27213.0,403431.0,153447.0,17398.0,-105.0
2026-04-09 22:25:59.600385,408590,2489529145,2489530979,-1.04432,0.160064,0.085888,9.3625,7.455,10.255,27.472002,-9.360001,24.640001,eccentric,6,5.0,27061.0,403431.0,154668.0,18523.0,-108.0
2026-04-09 22:25:59.602909,408591,2489538216,2489539745,-1.04432,0.160064,0.105408,6.7025,7.175,8.785,27.472002,-9.360001,24.640001,eccentric,6,5.0,27061.0,403431.0,154668.0,18523.0,-108.0
2026-04-09 22:25:59.605486,408592,2489547288,2489548463,-1.038464,0.158112,0.105408,6.93,7.4025,6.265,27.536001,-9.728001,21.936,eccentric,6,5.0,27061.0,403431.0,154668.0,18523.0,-108.0
2026-04-09 22:25:59.607909,408593,2489556211,2489557170,-1.038464,0.158112,0.105408,7.93625,8.44375,4.62875,27.536001,-9.728001,21.936,eccentric,6,5.0,27061.0,403431.0,154668.0,18523.0,-108.0
2026-04-09 22:25:59.611649,408594,2489570757,2489572142,-1.050176,0.179584,0.12688,10.045,8.0325,3.49125,27.376001,-9.568001,24.936,eccentric,6,5.0,27061.0,403431.0,154668.0,18523.0,-108.0
2026-04-09 22:25:59.641841,408595,2489579723,2489580834,-1.057984,0.191296,0.130784,12.8625,8.79375,1.5925,27.488,-8.608001,24.888,eccentric,6,5.0,27061.0,403431.0,154668.0,18523.0,-108.0
2026-04-09 22:25:59.645412,408596,2489588646,2489589528,-1.057984,0.191296,0.130784,13.62375,9.30125,-0.30625,27.488,-8.608001,24.888,eccentric,6,5.0,27061.0,403431.0,154668.0,18523.0,-108.0
2026-04-09 22:25:59.647909,408597,2489603162,2489604444,-1.030656,0.18544,0.064416,12.64375,9.63375,-2.52,27.312002,-9.768001,24.416,eccentric,6,5.0,27061.0,403431.0,154668.0,18523.0,-108.0
2026-04-09 22:25:59.652936,408598,2489612212,2489613215,-1.030656,0.18544,0.064416,11.90875,10.26375,-5.3025,27.312002,-9.768001,24.416,eccentric,6,5.0,27061.0,403431.0,154668.0,18523.0,-108.0
2026-04-09 22:25:59.683094,408599,2489621215,2489621937,-1.048224,0.1952,0.080032,8.84625,10.07125,-8.1725,26.144001,-9.552,25.480001,concentric,6,5.0,27061.0,403431.0,154668.0,18523.0,-108.0
2026-04-09 22:25:59.717181,408609,2489630672,2489632757,-1.048224,0.1952,0.080032,7.56875,9.89625,-11.19125,26.144001,-9.552,25.480001,concentric,6,5.0,26976.0,403431.0,155214.0,19046.0,-105.0
2026-04-09 22:25:59.719865,408610,2489645259,2489645663,-1.057984,0.162016,0.105408,6.58875,9.24875,-13.448751,27.224,-9.464001,24.064001,concentric,6,5.0,26976.0,403431.0,155214.0,19046.0,-105.0
2026-04-09 22:25:59.725438,408611,2489654522,2489656495,-1.057984,0.162016,0.105408,5.215,9.05625,-14.2625,27.224,-9.464001,24.064001,concentric,6,5.0,26976.0,403431.0,155214.0,19046.0,-105.0
2026-04-09 22:25:59.727905,408612,2489663513,2489665267,-1.050176,0.15616,0.113216,4.43625,9.5375,-14.34125,25.912,-9.296001,25.248001,concentric,6,5.0,26976.0,403431.0,155214.0,19046.0,-105.0
2026-04-09 22:25:59.730429,408613,2489678018,2489680225,-1.050176,0.15616,0.113216,3.92875,10.36,-15.21625,25.912,-9.296001,25.248001,concentric,6,5.0,26976.0,403431.0,155214.0,19046.0,-105.0
2026-04-09 22:25:59.732928,408614,2489686952,2489688921,-1.077504,0.173728,0.081984,2.91375,11.585,-15.32125,26.128002,-8.320001,24.952002,concentric,6,5.0,26976.0,403431.0,155214.0,19046.0,-105.0
2026-04-09 22:25:59.737955,408615,2489695876,2489697637,-1.077504,0.173728,0.081984,2.5025,10.7975,-15.51375,26.128002,-8.320001,24.952002,concentric,6,5.0,26976.0,403431.0,155214.0,19046.0,-105.0
2026-04-09 22:25:59.768107,408616,2489710357,2489712643,-1.071648,0.199104,0.0488,2.555,11.64625,-16.59875,26.088001,-9.024,23.560001,concentric,6,5.0,26976.0,403431.0,155214.0,19046.0,-105.0
2026-04-09 22:25:59.771706,408617,2489719309,2489721341,-1.085312,0.203008,0.162016,2.31875,12.845,-17.955,26.088001,-8.656,22.176,concentric,6,5.0,26976.0,403431.0,155214.0,19046.0,-105.0
2026-04-09 22:25:59.840412,408628,2489728530,2489730132,-1.085312,0.203008,0.162016,0.945,13.22125,-19.7575,26.248001,-8.656,22.176,concentric,6,5.0,26932.0,403431.0,155654.0,19475.0,-113.0
2026-04-09 22:25:59.842929,408629,2489737571,2489738914,-1.085312,0.203008,0.162016,-1.715,14.21,-21.315,26.248001,-8.656,22.176,concentric,6,5.0,26932.0,403431.0,155654.0,19475.0,-113.0
2026-04-09 22:25:59.845438,408630,2489752055,2489753857,-1.10288,0.193248,0.074176,-3.57,14.39375,-22.9775,25.784,-8.704,23.312,concentric,6,5.0,26932.0,403431.0,155654.0,19475.0,-113.0
2026-04-09 22:25:59.847926,408631,2489761002,2489762624,-1.110688,0.216672,0.050752,-6.81625,14.14,-22.93375,25.384,-8.496,22.776001,concentric,6,5.0,26932.0,403431.0,155654.0,19475.0,-113.0
2026-04-09 22:25:59.856774,408632,2489769906,2489771305,-1.110688,0.216672,0.050752,-6.58,14.525,-24.6225,25.384,-8.496,22.776001,concentric,6,5.0,26932.0,403431.0,155654.0,19475.0,-113.0
2026-04-09 22:25:59.859130,408633,2489784403,2489786273,-1.091168,0.240096,0.074176,-5.41625,15.53125,-27.195,25.432001,-8.392,23.816002,concentric,6,5.0,26932.0,403431.0,155654.0,19475.0,-113.0
2026-04-09 22:25:59.861721,408634,2489793348,2489795049,-1.091168,0.240096,0.074176,-3.59625,16.40625,-29.61875,25.432001,-8.392,23.816002,concentric,6,5.0,26932.0,403431.0,155654.0,19475.0,-113.0
2026-04-09 22:25:59.864183,408635,2489802267,2489803776,-1.087264,0.242048,0.191296,-2.31875,18.76875,-32.9875,26.312002,-7.440001,21.672,concentric,6,5.0,26932.0,403431.0,155654.0,19475.0,-113.0
2026-04-09 22:25:59.866712,408636,2489816819,2489818731,-1.087264,0.242048,0.191296,-4.90875,19.7575,-35.63,26.312002,-7.440001,21.672,concentric,6,5.0,26932.0,403431.0,155654.0,19475.0,-113.0
2026-04-09 22:25:59.895422,408646,2489825744,2489827458,-1.079456,0.247904,0.033184,-8.35625,20.22125,-36.3825,25.048,-7.68,24.176,concentric,6,5.0,26924.0,403431.0,156017.0,19638.0,-98.0
2026-04-09 22:25:59.898326,408647,2489834715,2489836171,-1.079456,0.247904,0.033184,-11.305,20.30875,-36.855,25.048,-7.68,24.176,concentric,6,5.0,26924.0,403431.0,156017.0,19638.0,-98.0
2026-04-09 22:25:59.900516,408648,2489849246,2489851166,-1.106784,0.238144,-0.023424,-13.055,19.29375,-38.17625,23.552002,-7.104001,23.952002,concentric,6,5.0,26924.0,403431.0,156017.0,19638.0,-98.0
2026-04-09 22:25:59.902948,408649,2489858181,2489859903,-1.106784,0.238144,-0.023424,-10.89375,19.67,-41.4225,23.552002,-7.104001,23.952002,concentric,6,5.0,26924.0,403431.0,156017.0,19638.0,-98.0
2026-04-09 22:25:59.909240,408650,2489867147,2489868673,-1.116544,0.261568,0.06832,-7.9975,18.795,-46.54125,26.056002,-6.824,21.088001,concentric,6,5.0,26924.0,403431.0,156017.0,19638.0,-98.0
2026-04-09 22:25:59.939382,408651,2489876165,2489877389,-1.116544,0.261568,0.06832,-7.63,18.8475,-50.30375,26.056002,-6.824,21.088001,concentric,6,5.0,26924.0,403431.0,156017.0,19638.0,-98.0
2026-04-09 22:25:59.942910,408652,2489890600,2489892323,-1.118496,0.277184,0.134688,-9.21375,19.80125,-53.0425,25.640001,-6.168,20.68,concentric,6,5.0,26924.0,403431.0,156017.0,19638.0,-98.0
2026-04-09 22:25:59.945355,408653,2489899494,2489901036,-1.118496,0.21472,0.007808,-13.51875,19.59125,-55.20375,25.640001,-6.168,20.68,concentric,6,5.0,26924.0,403431.0,156017.0,19638.0,-98.0
2026-04-09 22:25:59.949143,408654,2489908491,2489909764,-1.134112,0.210816,0.007808,-19.985,19.29375,-55.08125,25.416,-6.696,20.168001,concentric,6,5.0,26924.0,403431.0,156017.0,19638.0,-98.0
2026-04-09 22:25:59.980757,408655,2489922969,2489924709,-1.179008,0.18544,-0.003904,-21.866251,18.7075,-53.87375,24.896002,-6.208,19.960001,concentric,6,5.0,26924.0,403431.0,156017.0,19638.0,-98.0
2026-04-09 22:26:00.015428,408666,2489932061,2489933494,-1.179008,0.18544,-0.003904,-17.42125,18.34875,-53.62,24.896002,-6.208,19.960001,concentric,6,5.0,26894.0,403431.0,156067.0,19542.0,-104.0
2026-04-09 22:26:00.015585,408667,2489941020,2489942174,-1.186816,0.251808,0.0976,-11.87375,17.70125,-54.18,25.28,-5.328,18.984001,concentric,6,5.0,26894.0,403431.0,156067.0,19542.0,-104.0
2026-04-09 22:26:00.016696,408668,2489955514,2489957178,-1.186816,0.251808,0.0976,-9.4675,19.4075,-55.93,25.28,-5.328,18.984001,concentric,6,5.0,26894.0,403431.0,156067.0,19542.0,-104.0
2026-04-09 22:26:00.019140,408669,2489964437,2489965921,-1.1712,0.203008,0.105408,-12.075,21.30625,-56.735,23.584002,-5.432,20.696001,concentric,6,5.0,26894.0,403431.0,156067.0,19542.0,-104.0
2026-04-09 22:26:00.021703,408670,2489973492,2489974678,-1.1712,0.203008,0.105408,-20.23,22.925,-57.041252,23.584002,-5.432,20.696001,concentric,6,5.0,26894.0,403431.0,156067.0,19542.0,-104.0
2026-04-09 22:26:00.033787,408671,2489982483,2489983509,-1.214144,0.181536,0.02928,-26.59125,24.36,-56.02625,23.840002,-4.872,20.560001,concentric,6,5.0,26894.0,403431.0,156067.0,19542.0,-104.0
2026-04-09 22:26:00.039297,408672,2489996956,2489998413,-1.214144,0.181536,0.02928,-24.78,24.1325,-55.67625,23.840002,-4.872,20.560001,concentric,6,5.0,26894.0,403431.0,156067.0,19542.0,-104.0
2026-04-09 22:26:00.069440,408673,2490005920,2490007204,-1.218048,0.160064,-0.013664,-21.84875,24.07125,-55.3,23.784,-4.552,19.216002,concentric,6,5.0,26894.0,403431.0,156067.0,19542.0,-104.0
2026-04-09 22:26:00.106904,408674,2490014830,2490015947,-1.218048,0.160064,-0.013664,-16.1525,24.36,-54.7575,23.784,-4.552,19.216002,concentric,6,5.0,26894.0,403431.0,156067.0,19542.0,-104.0
2026-04-09 22:26:00.132847,408684,2490029382,2490030909,-1.196576,0.230336,0.122976,-9.9925,25.82125,-54.46875,24.424002,-4.112,17.992,concentric,6,5.0,26891.0,403431.0,156232.0,19672.0,-118.0
2026-04-09 22:26:00.135420,408685,2490038403,2490039630,-1.196576,0.230336,0.122976,-7.875,28.37625,-56.44625,24.424002,-4.112,17.992,concentric,6,5.0,26891.0,403431.0,156232.0,19672.0,-118.0
2026-04-09 22:26:00.138015,408686,2490047303,2490048380,-1.177056,0.187392,0.103456,-12.36375,31.5525,-56.175,23.816002,-4.624,17.824001,concentric,6,5.0,26891.0,403431.0,156232.0,19672.0,-118.0
2026-04-09 22:26:00.140469,408687,2490061803,2490063264,-1.214144,0.121024,-0.033184,-19.95875,33.06625,-52.955,23.416,-4.064,16.192001,concentric,6,5.0,26891.0,403431.0,156232.0,19672.0,-118.0
2026-04-09 22:26:00.142943,408688,2490070699,2490071960,-1.214144,0.121024,-0.033184,-21.8575,32.26125,-55.95625,23.416,-4.064,16.192001,concentric,6,5.0,26891.0,403431.0,156232.0,19672.0,-118.0
2026-04-09 22:26:00.145417,408689,2490079693,2490080741,-1.214144,0.121024,-0.033184,-20.71125,31.43,-53.85625,23.416,-4.064,16.192001,concentric,6,5.0,26891.0,403431.0,156232.0,19672.0,-118.0
2026-04-09 22:26:00.147912,408690,2490088759,2490089520,-1.194624,0.111264,-0.025376,-15.1725,29.75,-49.638752,22.064001,-3.88,17.376001,concentric,6,5.0,26891.0,403431.0,156232.0,19672.0,-118.0
2026-04-09 22:26:00.150600,408691,2490103709,2490104441,-1.14192,0.158112,0.083936,-9.835,28.51625,-48.0375,22.232,-3.576,17.536001,concentric,6,5.0,26891.0,403431.0,156232.0,19672.0,-118.0
2026-04-09 22:26:00.155420,408692,2490113102,2490115344,-1.14192,0.158112,0.083936,-3.17625,29.46125,-46.6025,22.232,-3.576,17.536001,concentric,6,5.0,26891.0,403431.0,156232.0,19672.0,-118.0
2026-04-09 22:26:00.185580,408693,2490122096,2490124062,-1.124352,0.193248,0.056608,-0.49,31.053751,-45.31625,21.816002,-3.704,18.368,concentric,6,5.0,26891.0,403431.0,156232.0,19672.0,-118.0
2026-04-09 22:26:00.211598,408703,2490136663,2490137529,-1.124352,0.193248,0.056608,-1.9425,32.96125,-45.12375,21.816002,-3.704,18.368,concentric,6,5.0,27016.0,403431.0,155502.0,19141.0,-111.0
2026-04-09 22:26:00.214206,408704,2490145574,2490146241,-1.108736,0.181536,0.0,-6.4225,34.475,-44.205,22.112001,-3.288,15.648001,concentric,6,5.0,27016.0,403431.0,155502.0,19141.0,-111.0
2026-04-09 22:26:00.216662,408705,2490154863,2490157035,-1.108736,0.181536,0.0,-12.7575,36.1025,-44.52,22.112001,-3.288,15.648001,concentric,6,5.0,27016.0,403431.0,155502.0,19141.0,-111.0
2026-04-09 22:26:00.219194,408706,2490163802,2490165787,-1.138016,0.179584,0.015616,-10.885,38.12375,-44.065,22.216002,-3.136,15.744,concentric,6,5.0,27016.0,403431.0,155502.0,19141.0,-111.0
2026-04-09 22:26:00.221685,408707,2490178391,2490180692,-1.138016,0.179584,0.015616,-9.23125,38.85,-45.2375,22.216002,-3.136,15.744,concentric,6,5.0,27016.0,403431.0,155502.0,19141.0,-111.0
2026-04-09 22:26:00.251893,408708,2490187368,2490189434,-1.136064,0.15616,-0.050752,-11.042501,39.375,-46.71625,21.36,-3.464,15.576001,concentric,6,5.0,27016.0,403431.0,155502.0,19141.0,-111.0
2026-04-09 22:26:00.255487,408709,2490196298,2490198137,-1.136064,0.15616,-0.050752,-10.386251,39.095,-46.12125,21.36,-3.464,15.576001,concentric,6,5.0,27016.0,403431.0,155502.0,19141.0,-111.0
2026-04-09 22:26:00.257912,408710,2490210888,2490213028,-1.175104,0.103456,-0.101504,-8.54,36.951252,-45.10625,21.368002,-3.4,15.016001,concentric,6,5.0,27016.0,403431.0,155502.0,19141.0,-111.0
2026-04-09 22:26:00.262989,408711,2490219820,2490221732,-1.175104,0.103456,-0.101504,-5.76625,33.451252,-44.24,21.368002,-3.4,15.016001,concentric,6,5.0,27016.0,403431.0,155502.0,19141.0,-111.0
2026-04-09 22:26:00.295512,408721,2490228768,2490230525,-1.163392,0.128832,-0.017568,-3.7975,31.5525,-42.13125,19.28,-3.448,16.240002,concentric,6,5.0,27024.0,403431.0,155207.0,19107.0,-108.0
2026-04-09 22:26:00.297932,408722,2490238366,2490239388,-1.163392,0.128832,-0.017568,-2.02125,31.08875,-39.78625,19.28,-3.448,16.240002,concentric,6,5.0,27024.0,403431.0,155207.0,19107.0,-108.0
2026-04-09 22:26:00.300420,408723,2490252887,2490254309,-1.147776,0.154208,-0.02928,-1.6975,31.66625,-37.9225,18.896002,-2.584,15.344001,concentric,6,5.0,27024.0,403431.0,155207.0,19107.0,-108.0
2026-04-09 22:26:00.304269,408724,2490261820,2490263018,-1.10288,0.134688,-0.070272,-4.13875,32.235,-36.28625,18.848001,-3.288,16.36,concentric,6,5.0,27024.0,403431.0,155207.0,19107.0,-108.0
2026-04-09 22:26:00.334454,408725,2490270875,2490271786,-1.10288,0.134688,-0.070272,-8.07625,31.955,-35.21,18.848001,-3.288,16.36,concentric,6,5.0,27024.0,403431.0,155207.0,19107.0,-108.0
2026-04-09 22:26:00.340560,408726,2490285382,2490286701,-1.143872,0.11712,-0.132736,-9.6075,32.85625,-33.94125,19.608002,-2.776,13.832001,concentric,6,5.0,27024.0,403431.0,155207.0,19107.0,-108.0
2026-04-09 22:26:00.342997,408727,2490294295,2490295384,-1.143872,0.11712,-0.132736,-8.84625,31.4825,-32.795002,19.608002,-2.776,13.832001,concentric,6,5.0,27024.0,403431.0,155207.0,19107.0,-108.0
2026-04-09 22:26:00.345551,408728,2490303243,2490304094,-1.110688,0.083936,-0.042944,-8.37375,29.6975,-32.445,18.76,-2.8,14.248001,concentric,6,5.0,27024.0,403431.0,155207.0,19107.0,-108.0
2026-04-09 22:26:00.414478,408729,2490317733,2490319037,-1.110688,0.083936,-0.042944,-5.03125,29.05875,-31.9375,18.76,-2.8,14.248001,concentric,6,5.0,27024.0,403431.0,155207.0,19107.0,-108.0
2026-04-09 22:26:00.418037,408730,2490326647,2490327720,-1.089216,0.101504,-0.003904,-7.21875,28.62125,-30.26625,19.272001,-3.032,13.432001,concentric,6,5.0,27024.0,403431.0,155207.0,19107.0,-108.0
2026-04-09 22:26:00.445581,408741,2490335664,2490336602,-1.089216,0.101504,-0.003904,-11.13875,30.4325,-26.66125,19.272001,-3.032,13.432001,concentric,6,5.0,27243.0,403431.0,153875.0,18340.0,-111.0
2026-04-09 22:26:00.447950,408742,2490344582,2490345316,-1.118496,0.099552,-0.150304,-10.5,31.10625,-23.84375,18.632,-3.616,13.128,concentric,6,5.0,27243.0,403431.0,153875.0,18340.0,-111.0
2026-04-09 22:26:00.450640,408743,2490359461,2490360208,-1.118496,0.099552,-0.150304,-12.73125,27.81625,-22.75,18.632,-3.616,13.128,concentric,6,5.0,27243.0,403431.0,153875.0,18340.0,-111.0
2026-04-09 22:26:00.452986,408744,2490368870,2490371012,-1.036512,0.050752,-0.103456,-12.495,24.22875,-20.8775,18.528002,-2.904,13.224001,concentric,6,5.0,27243.0,403431.0,153875.0,18340.0,-111.0
2026-04-09 22:26:00.455514,408745,2490377882,2490379709,-1.036512,0.050752,-0.103456,-8.505,21.210001,-21.09625,18.528002,-2.904,13.224001,concentric,6,5.0,27243.0,403431.0,153875.0,18340.0,-111.0
2026-04-09 22:26:00.458039,408746,2490392389,2490394649,-1.059936,0.076128,-0.05856,-2.9575,19.46875,-21.07,18.28,-3.208,13.216001,concentric,6,5.0,27243.0,403431.0,153875.0,18340.0,-111.0
2026-04-09 22:26:00.460487,408747,2490401361,2490403389,-1.059936,0.076128,-0.122976,0.74375,18.03375,-18.94375,18.28,-3.208,13.216001,concentric,6,5.0,27243.0,403431.0,153875.0,18340.0,-111.0
2026-04-09 22:26:00.463023,408748,2490410429,2490412199,-1.028704,0.072224,-0.122976,-0.81375,15.23375,-17.57,17.968,-2.984,12.704,concentric,6,5.0,27243.0,403431.0,153875.0,18340.0,-111.0
2026-04-09 22:26:00.465412,408749,2490419391,2490420941,-1.028704,0.072224,-0.122976,-6.265,10.99,-16.63375,17.968,-2.984,12.704,concentric,6,5.0,27243.0,403431.0,153875.0,18340.0,-111.0
2026-04-09 22:26:00.496739,408759,2490434364,2490435931,-1.040416,0.044896,-0.099552,-6.85125,8.93375,-15.26875,18.68,-3.24,12.856001,concentric,6,5.0,27304.0,403431.0,153633.0,18108.0,-109.0
2026-04-09 22:26:00.499264,408760,2490443310,2490444684,-1.05408,0.021472,-0.189344,-7.48125,6.23875,-14.805,17.144001,-3.088,16.344,concentric,6,5.0,27304.0,403431.0,153633.0,18108.0,-109.0
2026-04-09 22:26:00.501712,408761,2490452328,2490453418,-1.05408,0.021472,-0.189344,-8.015,2.975,-13.22125,17.144001,-3.088,16.344,concentric,6,5.0,27304.0,403431.0,153633.0,18108.0,-109.0
2026-04-09 22:26:00.531973,408762,2490466874,2490468357,-1.028704,0.023424,-0.066368,-3.84125,-0.3325,-11.1825,16.128,-3.24,15.496,concentric,6,5.0,27304.0,403431.0,153633.0,18108.0,-109.0
2026-04-09 22:26:00.535573,408763,2490475824,2490477057,-1.028704,0.023424,-0.066368,2.3625,-1.61875,-12.81875,16.128,-3.24,15.496,concentric,6,5.0,27304.0,403431.0,153633.0,18108.0,-109.0
2026-04-09 22:26:00.538024,408764,2490484745,2490485814,-1.061888,0.050752,-0.095648,9.38875,-1.05,-13.4925,18.048,-3.6,12.696001,concentric,6,5.0,27304.0,403431.0,153633.0,18108.0,-109.0
2026-04-09 22:26:00.540556,408765,2490493649,2490494647,-1.061888,0.050752,-0.095648,11.27,-0.35875,-12.71375,18.048,-3.6,12.696001,concentric,6,5.0,27304.0,403431.0,153633.0,18108.0,-109.0
2026-04-09 22:26:00.573231,408766,2490508147,2490509590,-1.075552,-0.007808,-0.173728,1.05875,-1.47875,-13.62375,18.184,-3.784,12.816001,concentric,6,5.0,27304.0,403431.0,153633.0,18108.0,-109.0
2026-04-09 22:26:00.576758,408767,2490517068,2490518286,-1.075552,-0.007808,-0.173728,-5.81875,-2.28375,-12.32,18.184,-3.784,12.816001,concentric,6,5.0,27304.0,403431.0,153633.0,18108.0,-109.0
2026-04-09 22:26:00.579188,408768,2490525916,2490527011,-1.032608,-0.03904,-0.181536,-6.965,-5.11875,-11.62,17.016,-4.064,12.896001,concentric,6,5.0,27304.0,403431.0,153633.0,18108.0,-109.0
2026-04-09 22:26:00.604251,408778,2490540509,2490542016,-1.032608,-0.03904,-0.181536,-3.10625,-7.76125,-12.3025,17.016,-4.064,12.896001,concentric,6,5.0,27139.0,403431.0,154211.0,18274.0,-118.0
2026-04-09 22:26:00.606713,408779,2490549488,2490550806,-0.991616,-0.003904,-0.06832,5.76625,-7.06125,-14.34125,16.296001,-3.664,13.936001,concentric,6,5.0,27139.0,403431.0,154211.0,18274.0,-118.0
2026-04-09 22:26:00.609400,408780,2490558432,2490559536,-0.991616,-0.003904,-0.06832,12.88875,-4.095,-14.95375,16.296001,-3.664,13.936001,concentric,6,5.0,27139.0,403431.0,154211.0,18274.0,-118.0
2026-04-09 22:26:00.617089,408781,2490573014,2490574489,-1.05408,0.109312,-0.230336,17.1325,-1.3825,-13.265,16.392,-3.848,14.408001,concentric,6,5.0,27139.0,403431.0,154211.0,18274.0,-118.0
2026-04-09 22:26:00.645709,408782,2490581951,2490583180,-1.05408,0.109312,-0.138592,15.11125,-1.89875,-15.9075,16.392,-3.848,14.408001,concentric,6,5.0,27139.0,403431.0,154211.0,18274.0,-118.0
2026-04-09 22:26:00.649235,408783,2490590873,2490591919,-1.079456,-0.066368,-0.138592,8.23375,-2.275,-20.60625,17.528002,-3.144,15.184001,concentric,6,5.0,27139.0,403431.0,154211.0,18274.0,-118.0
2026-04-09 22:26:00.651749,408784,2490605339,2490606825,-0.993568,-0.130784,-0.050752,5.20625,-3.26375,-22.28625,17.320002,-3.656,13.040001,concentric,6,5.0,27139.0,403431.0,154211.0,18274.0,-118.0
2026-04-09 22:26:00.656862,408785,2490614242,2490615522,-0.993568,-0.130784,-0.050752,0.46375,-3.22875,-20.9475,17.320002,-3.656,13.040001,concentric,6,5.0,27139.0,403431.0,154211.0,18274.0,-118.0
2026-04-09 22:26:00.665570,408786,2490623193,2490624245,-0.960384,0.054656,0.0,6.7375,-1.6975,-18.83,16.352001,-3.688,14.432001,concentric,6,5.0,27139.0,403431.0,154211.0,18274.0,-118.0
2026-04-09 22:26:00.734155,408797,2490632616,2490633006,-0.960384,0.054656,0.0,15.015,4.34875,-21.58625,16.352001,-3.688,14.432001,concentric,6,5.0,27199.0,403431.0,153495.0,17698.0,-112.0
2026-04-09 22:26:00.736697,408798,2490647429,2490647954,-1.001376,0.07808,-0.242048,21.63,8.75,-25.0425,17.104,-3.84,13.048,concentric,6,5.0,27199.0,403431.0,153495.0,17698.0,-112.0
2026-04-09 22:26:00.739201,408799,2490656808,2490658709,-1.001376,0.07808,-0.242048,16.485,10.386251,-27.055,17.104,-3.84,13.048,concentric,6,5.0,27199.0,403431.0,153495.0,17698.0,-112.0
2026-04-09 22:26:00.741700,408800,2490665708,2490667382,-0.94672,-0.189344,-0.0976,-1.47875,9.61625,-26.495,16.768002,-3.552,12.976001,concentric,6,5.0,27199.0,403431.0,153495.0,17698.0,-112.0
2026-04-09 22:26:00.744200,408801,2490674769,2490676080,-0.94672,-0.189344,-0.0976,-14.62125,8.37375,-25.865,16.768002,-3.552,12.976001,concentric,6,5.0,27199.0,403431.0,153495.0,17698.0,-112.0
2026-04-09 22:26:00.746662,408802,2490689245,2490690988,-0.892064,-0.099552,-0.150304,-9.63375,5.64375,-24.98125,16.424002,-3.648,12.872001,concentric,6,5.0,27199.0,403431.0,153495.0,17698.0,-112.0
2026-04-09 22:26:00.749394,408803,2490698193,2490699738,-0.892064,-0.099552,-0.150304,10.12375,3.73625,-20.3,16.424002,-3.648,12.872001,concentric,6,5.0,27199.0,403431.0,153495.0,17698.0,-112.0
2026-04-09 22:26:00.753011,408804,2490707111,2490708443,-0.894016,0.06832,-0.089792,23.835001,1.19,-22.6275,16.448,-2.848,12.672001,concentric,6,5.0,27199.0,403431.0,153495.0,17698.0,-112.0
2026-04-09 22:26:00.782061,408805,2490721602,2490723348,-0.894016,0.06832,-0.089792,23.02125,-0.665,-23.63375,16.448,-2.848,12.672001,concentric,6,5.0,27199.0,403431.0,153495.0,17698.0,-112.0
2026-04-09 22:26:00.809178,408815,2490730525,2490732574,-0.854976,-0.007808,-0.242048,14.27125,0.27125,-19.3025,16.784,-2.872,13.064001,concentric,6,5.0,27477.0,403431.0,152061.0,16872.0,-127.0
2026-04-09 22:26:00.811763,408816,2490739454,2490741271,-0.854976,-0.007808,-0.242048,-0.4375,-2.91375,-18.22625,16.784,-2.872,13.064001,concentric,6,5.0,27477.0,403431.0,152061.0,16872.0,-127.0
2026-04-09 22:26:00.814159,408817,2490753988,2490756346,-0.796416,-0.236192,0.066368,-19.74,-4.01625,-20.30875,16.704,-3.16,12.8,concentric,6,5.0,27477.0,403431.0,152061.0,16872.0,-127.0
2026-04-09 22:26:00.816691,408818,2490763064,2490765120,-0.796416,0.099552,0.074176,-18.57625,0.58625,-20.50125,16.704,-3.16,12.8,concentric,6,5.0,27477.0,403431.0,152061.0,16872.0,-127.0
2026-04-09 22:26:00.819271,408819,2490772032,2490773849,-0.815936,0.099552,0.074176,7.28875,8.89875,-17.5875,16.992,-3.336,12.824,concentric,6,5.0,27477.0,403431.0,152061.0,16872.0,-127.0
2026-04-09 22:26:00.842700,408820,2490786555,2490788781,-0.812032,0.037088,-0.12688,24.64,14.28,-21.0875,16.752,-3.296,12.568001,concentric,6,5.0,27477.0,403431.0,152061.0,16872.0,-127.0
2026-04-09 22:26:00.844163,408821,2490795463,2490797496,-0.812032,0.037088,-0.12688,16.905,14.971251,-25.31375,16.752,-3.296,12.568001,concentric,6,5.0,27477.0,403431.0,152061.0,16872.0,-127.0
2026-04-09 22:26:00.846792,408822,2490804394,2490806219,-0.929152,-0.121024,-0.417728,-5.73125,10.75375,-19.6,16.512001,-3.248,13.048,concentric,6,5.0,27477.0,403431.0,152061.0,16872.0,-127.0
2026-04-09 22:26:00.876993,408823,2490813397,2490814936,-0.929152,-0.121024,-0.417728,-18.12125,4.13,-11.8825,16.512001,-3.248,13.048,concentric,6,5.0,27477.0,403431.0,152061.0,16872.0,-127.0
2026-04-09 22:26:00.880562,408824,2490827946,2490829848,-0.899872,-0.265472,-0.076128,-14.81375,-5.36375,-13.405,16.408,-3.544,12.52,concentric,6,5.0,27477.0,403431.0,152061.0,16872.0,-127.0
2026-04-09 22:26:00.908014,408834,2490836951,2490838624,-0.899872,-0.265472,-0.076128,3.15875,-10.92,-13.72,16.408,-3.544,12.52,concentric,6,5.0,27478.0,403431.0,152101.0,16853.0,-115.0
2026-04-09 22:26:00.910479,408835,2490846014,2490847340,-0.843264,0.064416,0.083936,24.01,-9.89625,-8.1025,15.496,-3.28,14.424001,concentric,6,5.0,27478.0,403431.0,152101.0,16853.0,-115.0
2026-04-09 22:26:00.912989,408836,2490860587,2490862297,-0.843264,0.064416,0.083936,38.47375,-7.385,-2.52,15.496,-3.28,14.424001,concentric,6,5.0,27478.0,403431.0,152101.0,16853.0,-115.0
2026-04-09 22:26:00.916415,408837,2490869504,2490871006,-0.854976,0.023424,-0.148352,30.10875,-4.6725,-5.01375,15.744,-2.912,14.056001,concentric,6,5.0,27478.0,403431.0,152101.0,16853.0,-115.0
2026-04-09 22:26:00.921989,408838,2490878456,2490879698,-0.854976,0.023424,-0.148352,7.91,-5.03125,-6.125,15.744,-2.912,14.056001,concentric,6,5.0,27478.0,403431.0,152101.0,16853.0,-115.0
2026-04-09 22:26:00.953185,408839,2490892952,2490894644,-0.95648,-0.121024,-0.119072,-11.9875,-5.775,-1.6625,17.232,-2.824,12.856001,concentric,6,5.0,27478.0,403431.0,152101.0,16853.0,-115.0
2026-04-09 22:26:00.955568,408840,2490901867,2490903352,-0.95648,-0.121024,-0.119072,-11.2175,-5.55625,1.9075,17.232,-2.824,12.856001,concentric,6,5.0,27478.0,403431.0,152101.0,16853.0,-115.0
2026-04-09 22:26:00.957961,408841,2490910792,2490912058,-0.909632,-0.083936,-0.05856,3.73625,-4.61125,2.0825,16.648,-3.488,13.536,concentric,6,5.0,27478.0,403431.0,152101.0,16853.0,-115.0
2026-04-09 22:26:00.961778,408842,2490919713,2490920801,-0.909632,-0.083936,-0.05856,13.15125,-2.40625,5.03125,16.648,-3.488,13.536,concentric,6,5.0,27478.0,403431.0,152101.0,16853.0,-115.0
2026-04-09 22:26:01.030463,408853,2490934515,2490935833,-0.882304,0.074176,-0.027328,15.8725,0.455,7.14875,15.888001,-2.912,14.76,concentric,6,5.0,27533.0,403431.0,151030.0,15783.0,-114.0
2026-04-09 22:26:01.032940,408854,2490943539,2490944627,-0.882304,-0.01952,-0.128832,10.01875,2.6775,4.025,15.888001,-2.912,14.76,concentric,6,5.0,27533.0,403431.0,151030.0,15783.0,-114.0
2026-04-09 22:26:01.035431,408855,2490952448,2490953324,-0.876448,-0.027328,-0.128832,-2.79125,5.285,2.47625,16.880001,-3.24,13.144001,concentric,6,5.0,27533.0,403431.0,151030.0,15783.0,-114.0
2026-04-09 22:26:01.037970,408856,2490966929,2490968200,-0.935008,-0.072224,-0.093696,-13.62375,6.65,4.34,16.784,-2.8,12.960001,concentric,6,5.0,27533.0,403431.0,151030.0,15783.0,-114.0
2026-04-09 22:26:01.040523,408857,2490975983,2490976934,-0.935008,-0.072224,-0.093696,-14.16625,8.855001,8.12,16.784,-2.8,12.960001,concentric,6,5.0,27533.0,403431.0,151030.0,15783.0,-114.0
2026-04-09 22:26:01.043008,408858,2490984927,2490985742,-0.886208,0.0,-0.124928,-5.7225,10.94625,11.76,15.952001,-3.272,12.888001,concentric,6,5.0,27533.0,403431.0,151030.0,15783.0,-114.0
2026-04-09 22:26:01.045465,408859,2490994484,2490996576,-0.886208,0.0,-0.124928,-2.05625,10.5875,13.09875,15.952001,-3.272,12.888001,concentric,6,5.0,27533.0,403431.0,151030.0,15783.0,-114.0
2026-04-09 22:26:01.076342,408860,2491009188,2491011478,-0.901824,0.001952,-0.167872,-6.5975,7.70875,12.7225,16.992,-3.088,12.896001,concentric,6,5.0,27533.0,403431.0,151030.0,15783.0,-114.0
2026-04-09 22:26:01.079752,408861,2491018122,2491020306,-0.901824,0.001952,-0.167872,-9.70375,5.5125,12.87125,16.992,-3.088,12.896001,concentric,6,5.0,27533.0,403431.0,151030.0,15783.0,-114.0
2026-04-09 22:26:01.082345,408862,2491027115,2491029011,-0.958432,0.025376,-0.128832,-7.2975,5.94125,13.5275,16.936,-3.784,12.552001,concentric,6,5.0,27533.0,403431.0,151030.0,15783.0,-114.0
