pc_time,serial_num,sensor_ts,host_ts,ax,ay,az,gx,gy,gz,mx,my,mz,phase,rpe,weight_kg,ppg_a,ppg_b,ppg_c,ppg_d,ppg_e
2026-04-09 22:16:09.572593,302634,1899552564,1899554197,-1.085312,0.40992,0.244,-59.8675,36.46125,-80.99,18.792002,-19.976002,23.920002,inter_set_rest,6,5.0,42113.0,373505.0,112980.0,762.0,-136.0
2026-04-09 22:16:09.575059,302635,1899567024,1899569118,-1.13216,0.359168,0.240096,-63.86625,33.24125,-73.395,19.192001,-19.824001,24.704,inter_set_rest,6,5.0,42113.0,373505.0,112980.0,762.0,-136.0
2026-04-09 22:16:09.576647,302636,1899575938,1899577876,-1.13216,0.359168,0.240096,-65.555,29.8375,-65.03875,19.192001,-19.824001,24.704,inter_set_rest,6,5.0,42113.0,373505.0,112980.0,762.0,-136.0
2026-04-09 22:16:09.607738,302637,1899584910,1899586613,-1.182912,0.306464,0.230336,-62.7025,26.01375,-54.99375,18.28,-19.296001,25.112001,inter_set_rest,6,5.0,42113.0,373505.0,112980.0,762.0,-136.0
2026-04-09 22:16:09.612167,302638,1899599374,1899601549,-1.182912,0.306464,0.230336,-55.5625,21.30625,-43.82,18.28,-19.296001,25.112001,inter_set_rest,6,5.0,42113.0,373505.0,112980.0,762.0,-136.0
2026-04-09 22:16:09.638110,302649,1899608448,1899610302,-1.173152,0.255712,0.242048,-45.36,15.74125,-31.465,18.496,-19.168001,24.832,inter_set_rest,6,5.0,43740.0,361866.0,106437.0,206.0,-128.0
2026-04-09 22:16:09.642626,302650,1899617358,1899619030,-1.173152,0.255712,0.242048,-32.27,9.4325,-18.96125,18.496,-19.168001,24.832,inter_set_rest,6,5.0,43740.0,361866.0,106437.0,206.0,-128.0
2026-04-09 22:16:09.644942,302651,1899626345,1899627796,-1.128256,0.218624,0.242048,-16.73875,3.325,-6.76375,18.616001,-19.240002,26.264002,inter_set_rest,6,5.0,43740.0,361866.0,106437.0,206.0,-128.0
2026-04-09 22:16:09.648771,302652,1899640915,1899642784,-1.128256,0.218624,0.242048,1.12,-2.65125,5.67875,18.616001,-19.240002,26.264002,inter_set_rest,6,5.0,43740.0,361866.0,106437.0,206.0,-128.0
2026-04-09 22:16:09.651190,302653,1899649834,1899651502,-1.091168,0.210816,0.245952,20.51875,-8.70625,17.08,17.728,-19.016,26.2,inter_set_rest,6,5.0,43740.0,361866.0,106437.0,206.0,-128.0
2026-04-09 22:16:09.681410,302654,1899658805,1899660231,-1.091168,0.210816,0.245952,40.1275,-13.9825,27.8775,17.728,-19.016,26.2,inter_set_rest,6,5.0,43740.0,361866.0,106437.0,206.0,-128.0
2026-04-09 22:16:09.685888,302655,1899673278,1899675126,-1.05408,0.25376,0.25376,58.555,-18.865,38.24625,18.224,-19.68,24.448002,inter_set_rest,6,5.0,43740.0,361866.0,106437.0,206.0,-128.0
2026-04-09 22:16:09.688482,302656,1899682191,1899683830,-1.05408,0.25376,0.25376,73.40375,-23.86125,47.18,18.224,-19.68,24.448002,inter_set_rest,6,5.0,43740.0,361866.0,106437.0,206.0,-128.0
2026-04-09 22:16:09.721872,302657,1899691236,1899692589,-0.991616,0.281088,0.232288,83.34375,-28.23625,55.30875,17.024,-20.328001,24.496,inter_set_rest,6,5.0,43740.0,361866.0,106437.0,206.0,-128.0
2026-04-09 22:16:09.748334,302667,1899706198,1899707583,-0.987712,0.296704,0.183488,90.86,-31.7275,62.36125,17.240002,-20.664001,24.44,inter_set_rest,6,5.0,43789.0,362426.0,107015.0,246.0,-136.0
2026-04-09 22:16:09.750030,302668,1899715153,1899716338,-0.987712,0.296704,0.183488,96.45125,-33.4425,66.8675,17.240002,-20.664001,24.44,inter_set_rest,6,5.0,43789.0,362426.0,107015.0,246.0,-136.0
2026-04-09 22:16:09.751596,302669,1899724060,1899725104,-0.987712,0.296704,0.148352,100.3975,-34.1775,69.97375,17.240002,-20.664001,24.44,inter_set_rest,6,5.0,43789.0,362426.0,107015.0,246.0,-136.0
2026-04-09 22:16:09.755856,302670,1899733070,1899733860,-1.071648,0.320128,0.148352,103.565,-34.1425,71.35625,16.656,-20.6,23.392,inter_set_rest,6,5.0,43789.0,362426.0,107015.0,246.0,-136.0
2026-04-09 22:16:09.757589,302671,1899748162,1899748871,-1.097024,0.349408,0.152256,105.183754,-34.99125,70.06125,15.832001,-21.064001,24.408,inter_set_rest,6,5.0,43789.0,362426.0,107015.0,246.0,-136.0
2026-04-09 22:16:09.759169,302672,1899757521,1899759698,-1.097024,0.349408,0.152256,105.67375,-36.995,67.85625,15.832001,-21.064001,24.408,inter_set_rest,6,5.0,43789.0,362426.0,107015.0,246.0,-136.0
2026-04-09 22:16:09.790291,302673,1899766462,1899768420,-1.007232,0.368928,0.142496,104.895,-40.7925,63.74375,15.064001,-21.072,24.448002,inter_set_rest,6,5.0,43789.0,362426.0,107015.0,246.0,-136.0
2026-04-09 22:16:09.792535,302674,1899775388,1899777144,-1.007232,0.368928,0.142496,104.527504,-44.65125,59.0975,15.064001,-21.072,24.448002,inter_set_rest,6,5.0,43789.0,362426.0,107015.0,246.0,-136.0
2026-04-09 22:16:09.796395,302675,1899789885,1899792038,-0.895968,0.365024,0.121024,104.335,-48.4575,53.36625,14.904,-21.336,24.176,inter_set_rest,6,5.0,43789.0,362426.0,107015.0,246.0,-136.0
2026-04-09 22:16:09.800471,302676,1899798804,1899800733,-0.895968,0.365024,0.121024,104.7025,-50.96875,46.725,14.904,-21.336,24.176,inter_set_rest,6,5.0,43789.0,362426.0,107015.0,246.0,-136.0
2026-04-09 22:16:09.829631,302686,1899807816,1899809602,-0.815936,0.347456,0.089792,106.33875,-53.725,40.64375,13.768001,-20.960001,24.856,inter_set_rest,6,5.0,42887.0,372268.0,112875.0,718.0,-153.0
2026-04-09 22:16:09.832591,302687,1899822497,1899824555,-0.815936,0.347456,0.089792,108.98125,-55.6325,35.53375,13.768001,-20.960001,24.856,inter_set_rest,6,5.0,42887.0,372268.0,112875.0,718.0,-153.0
2026-04-09 22:16:09.839574,302688,1899831430,1899833259,-0.80032,0.337696,0.044896,111.32625,-56.21875,29.785,12.656,-21.088001,25.368002,inter_set_rest,6,5.0,42887.0,372268.0,112875.0,718.0,-153.0
2026-04-09 22:16:09.843261,302689,1899840429,1899841970,-0.80032,0.337696,0.044896,112.175,-56.93625,23.35375,12.656,-21.088001,25.368002,inter_set_rest,6,5.0,42887.0,372268.0,112875.0,718.0,-153.0
2026-04-09 22:16:09.876499,302690,1899854947,1899856909,-0.806176,0.343552,0.001952,114.205,-58.21375,15.855001,12.488001,-21.848001,24.208002,inter_set_rest,6,5.0,42887.0,372268.0,112875.0,718.0,-153.0
2026-04-09 22:16:09.878907,302691,1899863870,1899865601,-0.806176,0.343552,0.001952,117.32875,-60.0075,6.79,12.488001,-21.848001,24.208002,inter_set_rest,6,5.0,42887.0,372268.0,112875.0,718.0,-153.0
2026-04-09 22:16:09.884027,302692,1899872796,1899874307,-0.813984,0.365024,-0.040992,120.30375,-62.1425,-3.3075,13.872001,-21.392,25.664001,inter_set_rest,6,5.0,42887.0,372268.0,112875.0,718.0,-153.0
2026-04-09 22:16:09.911876,302693,1899887299,1899889199,-0.837408,0.396256,-0.081984,125.36125,-64.09375,-13.60625,13.992001,-20.952002,22.944,inter_set_rest,6,5.0,42887.0,372268.0,112875.0,718.0,-153.0
2026-04-09 22:16:09.916495,302694,1899896245,1899897925,-0.837408,0.396256,-0.081984,131.4775,-65.75625,-24.5525,13.992001,-20.952002,22.944,inter_set_rest,6,5.0,42887.0,372268.0,112875.0,718.0,-153.0
2026-04-09 22:16:09.942966,302705,1899905160,1899906605,-0.86864,0.433344,-0.11712,138.36375,-67.22625,-35.3325,13.992001,-20.952002,20.896002,inter_set_rest,6,5.0,41693.0,387001.0,121897.0,1975.0,-143.0
2026-04-09 22:16:09.947162,302706,1899914097,1899915275,-0.872544,0.433344,-0.11712,146.2475,-68.64375,-46.025,13.856001,-20.472,21.864,inter_set_rest,6,5.0,41693.0,387001.0,121897.0,1975.0,-143.0
2026-04-09 22:16:09.948905,302707,1899928709,1899930262,-0.913536,0.46848,-0.148352,154.28876,-69.93875,-55.72,13.592001,-19.752,22.784,inter_set_rest,6,5.0,41693.0,387001.0,121897.0,1975.0,-143.0
2026-04-09 22:16:09.950518,302708,1899937771,1899938979,-0.913536,0.46848,-0.148352,162.58376,-70.525,-64.365,13.592001,-19.752,22.784,inter_set_rest,6,5.0,41693.0,387001.0,121897.0,1975.0,-143.0
2026-04-09 22:16:09.956679,302709,1899946754,1899947687,-0.942816,0.50752,-0.177632,172.05125,-70.35875,-72.6425,13.936001,-18.336,24.240002,inter_set_rest,6,5.0,41693.0,387001.0,121897.0,1975.0,-143.0
2026-04-09 22:16:09.964390,302710,1899961307,1899962643,-0.942816,0.50752,-0.177632,181.5975,-69.7725,-81.03375,13.936001,-18.336,24.240002,inter_set_rest,6,5.0,41693.0,387001.0,121897.0,1975.0,-143.0
2026-04-09 22:16:10.021585,302711,1899970415,1899971352,-0.964288,0.550464,-0.1952,190.28625,-68.25,-88.97875,14.984001,-17.84,21.6,inter_set_rest,6,5.0,41693.0,387001.0,121897.0,1975.0,-143.0
2026-04-09 22:16:10.023776,302712,1899979336,1899980087,-0.964288,0.550464,-0.1952,197.21625,-65.96625,-96.24125,14.984001,-17.84,21.6,inter_set_rest,6,5.0,41693.0,387001.0,121897.0,1975.0,-143.0
2026-04-09 22:16:10.028440,302713,1899988819,1899990856,-0.977952,0.599264,-0.197152,201.705,-62.95625,-104.02,15.768001,-16.592001,20.736,inter_set_rest,6,5.0,41693.0,387001.0,121897.0,1975.0,-143.0
2026-04-09 22:16:10.030181,302714,1900003349,1900003717,-0.977952,0.599264,-0.197152,202.92125,-58.40625,-112.49,15.768001,-16.592001,20.736,inter_set_rest,6,5.0,41693.0,387001.0,121897.0,1975.0,-143.0
2026-04-09 22:16:10.055971,302724,1900012600,1900014509,-0.977952,0.66368,-0.181536,199.9725,-53.576252,-120.5925,16.384,-15.408001,20.104,inter_set_rest,6,5.0,39804.0,403413.0,133994.0,5767.0,-131.0
2026-04-09 22:16:10.057711,302725,1900021537,1900023222,-0.977952,0.66368,-0.181536,191.1875,-47.39,-128.44125,16.384,-15.408001,20.104,inter_set_rest,6,5.0,39804.0,403413.0,133994.0,5767.0,-131.0
2026-04-09 22:16:10.059178,302726,1900036163,1900038160,-0.977952,0.718336,-0.160064,175.51625,-40.635,-136.59625,16.872002,-13.816001,19.832,inter_set_rest,6,5.0,39804.0,403413.0,133994.0,5767.0,-131.0
2026-04-09 22:16:10.063402,302727,1900045102,1900046861,-0.977952,0.718336,-0.160064,154.1575,-32.61125,-145.69624,16.872002,-13.816001,19.832,inter_set_rest,6,5.0,39804.0,403413.0,133994.0,5767.0,-131.0
2026-04-09 22:16:10.065128,302728,1900054130,1900055626,-0.983808,0.76128,-0.132736,126.65625,-23.6425,-154.0875,16.336,-12.712001,20.728,inter_set_rest,6,5.0,39804.0,403413.0,133994.0,5767.0,-131.0
2026-04-09 22:16:10.067863,302729,1900063099,1900064365,-0.983808,0.76128,-0.132736,93.31875,-13.97375,-161.79625,16.336,-12.712001,20.728,inter_set_rest,6,5.0,39804.0,403413.0,133994.0,5767.0,-131.0
2026-04-09 22:16:10.096995,302730,1900077580,1900079312,-0.987712,0.81008,-0.093696,54.11,-4.3575,-168.1575,16.792002,-11.360001,21.808,inter_set_rest,6,5.0,39804.0,403413.0,133994.0,5767.0,-131.0
2026-04-09 22:16:10.101412,302731,1900086512,1900088009,-0.999424,0.860832,-0.050752,8.77625,5.88,-173.775,17.632,-10.480001,19.304,inter_set_rest,6,5.0,39804.0,403413.0,133994.0,5767.0,-131.0
2026-04-09 22:16:10.102919,302732,1900095421,1900096693,-0.999424,0.860832,-0.050752,-41.3,16.178751,-177.31876,17.632,-10.480001,19.304,inter_set_rest,6,5.0,39804.0,403413.0,133994.0,5767.0,-131.0
2026-04-09 22:16:10.131634,302742,1900110701,1900111860,-1.036512,0.882304,-0.001952,-93.695,26.005,-177.8,18.28,-9.528001,19.632002,inter_set_rest,6,5.0,38325.0,403431.0,145829.0,12313.0,-148.0
2026-04-09 22:16:10.134087,302743,1900119657,1900120629,-1.036512,0.882304,-0.001952,-142.07375,34.02,-175.70876,18.28,-9.528001,19.632002,inter_set_rest,6,5.0,38325.0,403431.0,145829.0,12313.0,-148.0
2026-04-09 22:16:10.136606,302744,1900128750,1900129345,-1.050176,0.726144,-0.003904,-184.79124,39.0425,-169.16376,16.488,-9.440001,20.224,inter_set_rest,6,5.0,38325.0,403431.0,145829.0,12313.0,-148.0
2026-04-09 22:16:10.140392,302745,1900137996,1900140148,-1.050176,0.726144,-0.003904,-209.02,41.90375,-159.76625,16.488,-9.440001,20.224,inter_set_rest,6,5.0,38325.0,403431.0,145829.0,12313.0,-148.0
2026-04-09 22:16:10.170555,302746,1900152555,1900153035,-1.052128,0.540704,0.0,-204.70625,42.46375,-147.60374,17.968,-9.136001,18.992,inter_set_rest,6,5.0,38325.0,403431.0,145829.0,12313.0,-148.0
2026-04-09 22:16:10.174208,302747,1900162025,1900163817,-1.052128,0.540704,0.0,-176.12,39.08625,-134.72375,17.968,-9.136001,18.992,inter_set_rest,6,5.0,38325.0,403431.0,145829.0,12313.0,-148.0
2026-04-09 22:16:10.176713,302748,1900170988,1900172525,-1.028704,0.489952,0.00976,-138.22375,33.565,-118.92125,17.528002,-8.968,19.096,inter_set_rest,6,5.0,38325.0,403431.0,145829.0,12313.0,-148.0
2026-04-09 22:16:10.249884,302749,1900185512,1900187413,-1.028704,0.489952,0.00976,-102.66375,29.04125,-101.99875,17.528002,-8.968,19.096,inter_set_rest,6,5.0,38325.0,403431.0,145829.0,12313.0,-148.0
2026-04-09 22:16:10.250759,302750,1900194461,1900196153,-1.016992,0.462624,-0.001952,-69.65,24.5875,-81.24375,17.872002,-8.576,19.104,inter_set_rest,6,5.0,38325.0,403431.0,145829.0,12313.0,-148.0
2026-04-09 22:16:10.250899,302751,1900203386,1900204847,-1.016992,0.462624,-0.001952,-42.06125,21.595,-56.90125,17.872002,-8.576,19.104,inter_set_rest,6,5.0,38325.0,403431.0,145829.0,12313.0,-148.0
2026-04-09 22:16:10.251037,302762,1900212429,1900213552,-1.026752,0.46848,0.005856,-17.272501,19.18875,-32.576252,17.968,-8.464001,19.104,inter_set_rest,6,5.0,40626.0,403431.0,134914.0,5636.0,-149.0
2026-04-09 22:16:10.251078,302763,1900226929,1900228457,-1.067744,0.558272,0.054656,9.56375,17.3775,-7.805,17.632,-8.216001,20.240002,inter_set_rest,6,5.0,40626.0,403431.0,134914.0,5636.0,-149.0
2026-04-09 22:16:10.251112,302764,1900235956,1900237249,-1.067744,0.558272,0.054656,35.48125,15.9425,17.6225,17.632,-8.216001,20.240002,inter_set_rest,6,5.0,40626.0,403431.0,134914.0,5636.0,-149.0
2026-04-09 22:16:10.251145,302765,1900244867,1900245994,-1.067744,0.558272,0.054656,53.9175,15.26875,40.25875,17.632,-8.216001,20.240002,inter_set_rest,6,5.0,40626.0,403431.0,134914.0,5636.0,-149.0
2026-04-09 22:16:10.280898,302766,1900259382,1900260918,-1.087264,0.5856,0.0976,63.0175,15.9775,60.31375,17.616001,-8.408,19.024,inter_set_rest,6,5.0,40626.0,403431.0,134914.0,5636.0,-149.0
2026-04-09 22:16:10.285923,302767,1900268301,1900269622,-1.145824,0.56608,0.160064,65.152504,17.99875,78.35625,17.880001,-9.416,18.216002,inter_set_rest,6,5.0,40626.0,403431.0,134914.0,5636.0,-149.0
2026-04-09 22:16:10.286683,302768,1900277211,1900278356,-1.145824,0.56608,0.160064,64.16375,21.07875,94.77125,17.880001,-9.416,18.216002,inter_set_rest,6,5.0,40626.0,403431.0,134914.0,5636.0,-149.0
2026-04-09 22:16:10.320581,302769,1900291732,1900293268,-1.221952,0.534848,0.183488,62.6325,23.6425,110.7925,18.056002,-9.824,17.912,inter_set_rest,6,5.0,40626.0,403431.0,134914.0,5636.0,-149.0
2026-04-09 22:16:10.324182,302770,1900300682,1900301963,-1.221952,0.534848,0.183488,61.81,26.76625,125.34375,18.056002,-9.824,17.912,inter_set_rest,6,5.0,40626.0,403431.0,134914.0,5636.0,-149.0
2026-04-09 22:16:10.349102,302780,1900309656,1900310850,-1.257088,0.51728,0.16592,61.08375,29.9075,139.195,17.408,-10.624001,17.936,inter_set_rest,6,5.0,39547.0,403431.0,142930.0,9862.0,-154.0
2026-04-09 22:16:10.351653,302781,1900318639,1900319584,-1.257088,0.51728,0.16592,59.2025,32.4625,152.7575,17.408,-10.624001,17.936,inter_set_rest,6,5.0,39547.0,403431.0,142930.0,9862.0,-154.0
2026-04-09 22:16:10.354145,302782,1900333187,1900334559,-1.282464,0.532896,0.148352,54.705,35.34125,163.4325,17.528002,-11.608001,17.84,inter_set_rest,6,5.0,39547.0,403431.0,142930.0,9862.0,-154.0
2026-04-09 22:16:10.356550,302783,1900342179,1900343347,-1.282464,0.532896,0.148352,47.59125,38.08875,171.07124,17.528002,-11.608001,17.84,inter_set_rest,6,5.0,39547.0,403431.0,142930.0,9862.0,-154.0
2026-04-09 22:16:10.359170,302784,1900351232,1900352066,-1.292224,0.534848,0.124928,37.24875,40.60875,177.135,16.608002,-12.944,17.488,inter_set_rest,6,5.0,39547.0,403431.0,142930.0,9862.0,-154.0
2026-04-09 22:16:10.393097,302785,1900365693,1900366997,-1.292224,0.534848,0.124928,24.12375,42.84875,181.74625,16.608002,-12.944,17.488,inter_set_rest,6,5.0,39547.0,403431.0,142930.0,9862.0,-154.0
2026-04-09 22:16:10.396626,302786,1900374607,1900375700,-1.303936,0.509472,0.0976,9.66,44.275,184.96625,16.744001,-13.68,16.560001,inter_set_rest,6,5.0,39547.0,403431.0,142930.0,9862.0,-154.0
2026-04-09 22:16:10.399139,302787,1900383508,1900384464,-1.303936,0.509472,0.0976,-3.2725,44.65125,186.34875,16.744001,-13.68,16.560001,inter_set_rest,6,5.0,39547.0,403431.0,142930.0,9862.0,-154.0
2026-04-09 22:16:10.401748,302788,1900397953,1900399367,-1.313696,0.484096,0.080032,-14.875,43.61875,187.845,15.624001,-15.008,17.0,inter_set_rest,6,5.0,39547.0,403431.0,142930.0,9862.0,-154.0
2026-04-09 22:16:10.407914,302789,1900406928,1900408135,-1.313696,0.484096,0.070272,-25.05125,42.4025,187.97626,15.624001,-15.008,17.0,inter_set_rest,6,5.0,39547.0,403431.0,142930.0,9862.0,-154.0
2026-04-09 22:16:10.436707,302799,1900415887,1900416935,-1.315648,0.452864,0.070272,-33.59125,39.27,187.17125,15.448001,-16.208,18.36,inter_set_rest,6,5.0,39899.0,403431.0,142645.0,9563.0,-129.0
2026-04-09 22:16:10.439141,302800,1900430433,1900431884,-1.284416,0.404064,0.060512,-40.10125,35.04375,185.40375,12.544001,-17.944,18.160002,inter_set_rest,6,5.0,39899.0,403431.0,142645.0,9563.0,-129.0
2026-04-09 22:16:10.450423,302801,1900439353,1900440593,-1.284416,0.404064,0.060512,-43.2425,30.45875,182.7,12.544001,-17.944,18.160002,inter_set_rest,6,5.0,39899.0,403431.0,142645.0,9563.0,-129.0
2026-04-09 22:16:10.452907,302802,1900448331,1900449328,-1.237568,0.37088,0.044896,-43.4175,25.83875,178.26375,13.320001,-18.856,16.824001,inter_set_rest,6,5.0,39899.0,403431.0,142645.0,9563.0,-129.0
2026-04-09 22:16:10.456763,302803,1900457309,1900458039,-1.237568,0.37088,0.044896,-40.845,20.9825,172.935,13.320001,-18.856,16.824001,inter_set_rest,6,5.0,39899.0,403431.0,142645.0,9563.0,-129.0
2026-04-09 22:16:10.486863,302804,1900472199,1900472968,-1.165344,0.36112,0.031232,-37.35375,17.29,166.32875,13.192,-19.632002,17.344002,inter_set_rest,6,5.0,39899.0,403431.0,142645.0,9563.0,-129.0
2026-04-09 22:16:10.490388,302805,1900481650,1900483729,-1.165344,0.36112,0.031232,-33.915,13.30875,158.76,13.192,-19.632002,17.344002,inter_set_rest,6,5.0,39899.0,403431.0,142645.0,9563.0,-129.0
2026-04-09 22:16:10.492947,302806,1900490556,1900492418,-1.08336,0.357216,0.021472,-31.29875,10.22875,150.35126,11.872001,-20.912,17.264,inter_set_rest,6,5.0,39899.0,403431.0,142645.0,9563.0,-129.0
2026-04-09 22:16:10.524532,302807,1900505074,1900507360,-1.08336,0.357216,0.021472,-30.68625,7.525,141.715,11.872001,-20.912,17.264,inter_set_rest,6,5.0,39899.0,403431.0,142645.0,9563.0,-129.0
2026-04-09 22:16:10.551571,302818,1900514097,1900516128,-0.989664,0.355264,0.015616,-31.36875,5.0575,131.97626,11.016001,-21.152,17.608002,inter_set_rest,6,5.0,39993.0,403431.0,142391.0,9551.0,-123.0
2026-04-09 22:16:10.554138,302819,1900523035,1900524813,-0.989664,0.355264,0.015616,-34.65875,4.1825,122.29875,11.016001,-21.152,17.608002,inter_set_rest,6,5.0,39993.0,403431.0,142391.0,9551.0,-123.0
2026-04-09 22:16:10.556631,302820,1900531985,1900533533,-0.923296,0.347456,-0.00976,-38.75375,2.5025,112.332504,10.320001,-21.416,17.384,inter_set_rest,6,5.0,39993.0,403431.0,142391.0,9551.0,-123.0
2026-04-09 22:16:10.559172,302821,1900546553,1900548536,-0.923296,0.347456,-0.00976,-43.89,1.53125,102.62875,10.320001,-21.416,17.384,inter_set_rest,6,5.0,39993.0,403431.0,142391.0,9551.0,-123.0
2026-04-09 22:16:10.561631,302822,1900555509,1900557335,-0.905728,0.33184,-0.040992,-49.51625,1.19,92.0325,9.84,-22.080002,21.176,inter_set_rest,6,5.0,39993.0,403431.0,142391.0,9551.0,-123.0
2026-04-09 22:16:10.565338,302823,1900564497,1900566047,-0.905728,0.33184,-0.040992,-54.451252,0.735,79.31875,9.84,-22.080002,21.176,inter_set_rest,6,5.0,39993.0,403431.0,142391.0,9551.0,-123.0
2026-04-09 22:16:10.619322,302824,1900578974,1900580971,-0.870592,0.318176,-0.081984,-59.115,-0.56,65.625,8.608001,-22.912,19.208,inter_set_rest,6,5.0,39993.0,403431.0,142391.0,9551.0,-123.0
2026-04-09 22:16:10.622969,302825,1900587901,1900589697,-0.792512,0.2928,-0.099552,-63.41125,-1.23375,51.42375,8.608001,-22.912,17.160002,inter_set_rest,6,5.0,39993.0,403431.0,142391.0,9551.0,-123.0
2026-04-09 22:16:10.625368,302826,1900596829,1900598399,-0.796416,0.2928,-0.099552,-66.80625,-1.4525,36.60125,8.928,-23.320002,17.464,inter_set_rest,6,5.0,39993.0,403431.0,142391.0,9551.0,-123.0
2026-04-09 22:16:10.650367,302836,1900611365,1900613365,-0.755424,0.294752,-0.10736,-67.55,-1.155,21.105,9.080001,-23.904001,19.144001,inter_set_rest,6,5.0,39591.0,403431.0,141259.0,9389.0,-143.0
2026-04-09 22:16:10.652933,302837,1900620337,1900622041,-0.755424,0.294752,-0.10736,-66.08875,-0.95375,5.08375,9.080001,-23.904001,19.144001,inter_set_rest,6,5.0,39591.0,403431.0,141259.0,9389.0,-143.0
2026-04-09 22:16:10.655411,302838,1900629312,1900630778,-0.730048,0.294752,-0.128832,-63.665,-0.07875,-10.465,8.968,-23.664001,19.296001,inter_set_rest,6,5.0,39591.0,403431.0,141259.0,9389.0,-143.0
2026-04-09 22:16:10.657899,302839,1900638314,1900639501,-0.730048,0.294752,-0.128832,-61.1275,0.69125,-26.22375,8.968,-23.664001,19.296001,inter_set_rest,6,5.0,39591.0,403431.0,141259.0,9389.0,-143.0
2026-04-09 22:16:10.660376,302840,1900652882,1900654482,-0.698816,0.296704,-0.1464,-59.115,2.17,-41.4225,9.256001,-23.688002,19.528002,inter_set_rest,6,5.0,39591.0,403431.0,141259.0,9389.0,-143.0
2026-04-09 22:16:10.662956,302841,1900661858,1900663209,-0.698816,0.296704,-0.1464,-57.65375,3.98125,-55.7725,9.256001,-23.688002,19.528002,inter_set_rest,6,5.0,39591.0,403431.0,141259.0,9389.0,-143.0
2026-04-09 22:16:10.671671,302842,1900670799,1900671905,-0.679296,0.320128,-0.134688,-57.75,6.405,-70.00875,10.208,-23.456001,19.624,inter_set_rest,6,5.0,39591.0,403431.0,141259.0,9389.0,-143.0
2026-04-09 22:16:10.701839,302843,1900685287,1900686859,-0.679296,0.320128,-0.134688,-59.43,9.03,-83.405,10.208,-23.456001,19.624,inter_set_rest,6,5.0,39591.0,403431.0,141259.0,9389.0,-143.0
2026-04-09 22:16:10.705424,302844,1900694209,1900695573,-0.687104,0.345504,-0.10736,-63.3675,13.1075,-96.15375,10.912001,-22.920002,19.216002,inter_set_rest,6,5.0,39591.0,403431.0,141259.0,9389.0,-143.0
2026-04-09 22:16:10.707931,302845,1900703151,1900704293,-0.687104,0.345504,-0.10736,-68.50375,16.68625,-106.9425,10.912001,-22.920002,19.216002,inter_set_rest,6,5.0,39591.0,403431.0,141259.0,9389.0,-143.0
2026-04-09 22:16:10.736703,302855,1900717722,1900719382,-0.743712,0.37088,-0.080032,-73.71875,20.02875,-117.5475,11.728001,-23.056002,20.144001,inter_set_rest,6,5.0,38846.0,403431.0,139896.0,9042.0,-144.0
2026-04-09 22:16:10.739149,302856,1900726701,1900728167,-0.743712,0.37088,-0.080032,-79.51125,22.5575,-126.525,11.728001,-23.056002,20.144001,inter_set_rest,6,5.0,38846.0,403431.0,139896.0,9042.0,-144.0
2026-04-09 22:16:10.741577,302857,1900735635,1900736901,-0.806176,0.394304,-0.062464,-85.4,24.395,-134.19,10.568001,-21.816002,21.992,inter_set_rest,6,5.0,38846.0,403431.0,139896.0,9042.0,-144.0
2026-04-09 22:16:10.771890,302858,1900750149,1900751841,-0.880352,0.40992,-0.03904,-91.105,26.03125,-141.12,11.192,-21.952002,22.408,inter_set_rest,6,5.0,38846.0,403431.0,139896.0,9042.0,-144.0
2026-04-09 22:16:10.775447,302859,1900759067,1900760541,-0.880352,0.40992,-0.03904,-96.355,27.2825,-146.83376,11.192,-21.952002,22.408,inter_set_rest,6,5.0,38846.0,403431.0,139896.0,9042.0,-144.0
2026-04-09 22:16:10.777932,302860,1900767976,1900769288,-0.880352,0.40992,-0.03904,-99.277504,28.5075,-150.17625,11.192,-21.952002,22.408,inter_set_rest,6,5.0,38846.0,403431.0,139896.0,9042.0,-144.0
2026-04-09 22:16:10.780364,302861,1900776917,1900777981,-0.95648,0.40992,-0.023424,-98.83125,28.8925,-152.22375,12.912001,-21.344002,20.672,inter_set_rest,6,5.0,38846.0,403431.0,139896.0,9042.0,-144.0
2026-04-09 22:16:10.810675,302862,1900791426,1900792891,-1.022848,0.407968,-0.035136,-94.38625,28.647501,-152.10126,13.880001,-20.84,20.888,inter_set_rest,6,5.0,38846.0,403431.0,139896.0,9042.0,-144.0
2026-04-09 22:16:10.814182,302863,1900800322,1900801592,-1.022848,0.407968,-0.035136,-87.8325,29.6275,-150.955,13.880001,-20.84,20.888,inter_set_rest,6,5.0,38846.0,403431.0,139896.0,9042.0,-144.0
2026-04-09 22:16:10.816689,302864,1900809266,1900810329,-1.095072,0.417728,-0.025376,-80.15875,32.34875,-148.56625,15.152,-20.256,20.320002,inter_set_rest,6,5.0,38846.0,403431.0,139896.0,9042.0,-144.0
2026-04-09 22:16:10.844688,302875,1900824005,1900825356,-1.095072,0.417728,-0.025376,-72.87,35.9275,-145.20625,15.152,-20.256,20.320002,inter_set_rest,6,5.0,39629.0,403431.0,139748.0,8457.0,-134.0
2026-04-09 22:16:10.848717,302876,1900833029,1900834121,-1.14192,0.427488,0.050752,-65.96625,39.22625,-139.4225,15.040001,-19.192001,21.632002,inter_set_rest,6,5.0,39629.0,403431.0,139748.0,8457.0,-134.0
2026-04-09 22:16:10.849166,302877,1900842045,1900842867,-1.14192,0.427488,0.050752,-57.18125,43.076252,-132.0375,15.040001,-19.192001,21.632002,inter_set_rest,6,5.0,39629.0,403431.0,139748.0,8457.0,-134.0
2026-04-09 22:16:10.879753,302878,1900856626,1900857813,-1.159488,0.44896,0.0976,-47.52125,46.64625,-122.63125,14.832001,-18.976002,20.824001,inter_set_rest,6,5.0,39629.0,403431.0,139748.0,8457.0,-134.0
2026-04-09 22:16:10.882940,302879,1900865549,1900866518,-1.159488,0.44896,0.0976,-37.87,51.0475,-112.28875,14.832001,-18.976002,20.824001,inter_set_rest,6,5.0,39629.0,403431.0,139748.0,8457.0,-134.0
2026-04-09 22:16:10.885435,302880,1900874513,1900875241,-1.143872,0.493856,0.20496,-30.58125,56.7,-102.69875,16.024,-18.976002,19.968,inter_set_rest,6,5.0,39629.0,403431.0,139748.0,8457.0,-134.0
2026-04-09 22:16:10.887994,302881,1900883986,1900885975,-1.143872,0.493856,0.20496,-26.705,63.39375,-91.9625,16.024,-18.976002,19.968,inter_set_rest,6,5.0,39629.0,403431.0,139748.0,8457.0,-134.0
2026-04-09 22:16:10.922409,302882,1900898584,1900898903,-1.124352,0.579744,0.349408,-26.38125,70.21,-81.2525,15.528001,-18.424002,20.560001,inter_set_rest,6,5.0,39629.0,403431.0,139748.0,8457.0,-134.0
2026-04-09 22:16:10.927571,302883,1900907756,1900909660,-1.124352,0.579744,0.349408,-31.7975,76.44,-70.98,15.528001,-18.424002,20.560001,inter_set_rest,6,5.0,39629.0,403431.0,139748.0,8457.0,-134.0
2026-04-09 22:16:10.955417,302893,1900916817,1900918586,-1.077504,0.681248,0.51728,-43.91625,82.36375,-60.15625,15.816001,-18.312,17.384,inter_set_rest,6,5.0,38783.0,403431.0,147923.0,13192.0,-129.0
2026-04-09 22:16:10.957924,302894,1900931349,1900933579,-1.026752,0.774944,0.698816,-65.59875,87.57,-46.94375,14.424001,-18.384,19.424002,inter_set_rest,6,5.0,38783.0,403431.0,147923.0,13192.0,-129.0
2026-04-09 22:16:10.960408,302895,1900940280,1900942301,-1.026752,0.774944,0.698816,-95.2,91.7175,-34.37875,14.424001,-18.384,19.424002,inter_set_rest,6,5.0,38783.0,403431.0,147923.0,13192.0,-129.0
2026-04-09 22:16:10.962931,302896,1900949283,1900951154,-1.026752,0.696864,0.804224,-128.17876,93.1875,-22.7325,14.424001,-18.384,19.424002,inter_set_rest,6,5.0,38783.0,403431.0,147923.0,13192.0,-129.0
2026-04-09 22:16:10.965795,302897,1900958230,1900959845,-1.009184,0.687104,0.804224,-158.40125,92.4525,-12.9325,14.512001,-18.992,19.52,inter_set_rest,6,5.0,38783.0,403431.0,147923.0,13192.0,-129.0
2026-04-09 22:16:10.995684,302898,1900972759,1900974801,-1.011136,0.603168,0.804224,-179.3225,88.41,-3.03625,14.568001,-19.28,20.808,inter_set_rest,6,5.0,38783.0,403431.0,147923.0,13192.0,-129.0
2026-04-09 22:16:10.999201,302899,1900981772,1900983540,-1.011136,0.603168,0.804224,-189.98,80.08,6.195,14.568001,-19.28,20.808,inter_set_rest,6,5.0,38783.0,403431.0,147923.0,13192.0,-129.0
2026-04-09 22:16:11.002876,302900,1900990719,1900992245,-1.013088,0.550464,0.694912,-193.38374,69.44,14.72625,15.088,-20.424002,20.856,inter_set_rest,6,5.0,38783.0,403431.0,147923.0,13192.0,-129.0
2026-04-09 22:16:11.007202,302901,1901005232,1901007154,-1.013088,0.550464,0.694912,-190.24251,57.61,21.13125,15.088,-20.424002,20.856,inter_set_rest,6,5.0,38783.0,403431.0,147923.0,13192.0,-129.0
2026-04-09 22:16:11.034170,302911,1901014717,1901015981,-1.052128,0.50752,0.733952,-179.64626,41.29125,26.3725,14.248001,-21.512001,20.320002,inter_set_rest,6,5.0,40447.0,403431.0,136266.0,5802.0,-158.0
2026-04-09 22:16:11.036712,302912,1901023739,1901024724,-1.052128,0.50752,0.733952,-160.81625,24.0975,32.52375,14.248001,-21.512001,20.320002,inter_set_rest,6,5.0,40447.0,403431.0,136266.0,5802.0,-158.0
2026-04-09 22:16:11.039182,302913,1901032661,1901033437,-1.042368,0.36112,0.612928,-134.98625,9.84375,39.5675,13.52,-22.12,21.048,inter_set_rest,6,5.0,40447.0,403431.0,136266.0,5802.0,-158.0
2026-04-09 22:16:11.069385,302914,1901047672,1901048354,-1.042368,0.36112,0.612928,-107.7125,-1.2075,42.32375,13.52,-22.12,21.048,inter_set_rest,6,5.0,40447.0,403431.0,136266.0,5802.0,-158.0
2026-04-09 22:16:11.073000,302915,1901056966,1901059097,-1.050176,0.27328,0.476288,-79.1175,-9.23125,42.805,12.448001,-22.088001,19.832,inter_set_rest,6,5.0,40447.0,403431.0,136266.0,5802.0,-158.0
2026-04-09 22:16:11.075521,302916,1901065881,1901067816,-1.050176,0.27328,0.476288,-50.225,-16.45,45.255,12.448001,-22.088001,19.832,inter_set_rest,6,5.0,40447.0,403431.0,136266.0,5802.0,-158.0
2026-04-09 22:16:11.079198,302917,1901080383,1901080709,-1.079456,0.288896,0.402112,-20.53625,-23.625,48.23,13.376,-22.832,21.344002,inter_set_rest,6,5.0,40447.0,403431.0,136266.0,5802.0,-158.0
2026-04-09 22:16:11.109358,302918,1901089586,1901091480,-1.079456,0.288896,0.324032,6.71125,-30.178751,52.84125,13.376,-22.832,21.344002,inter_set_rest,6,5.0,40447.0,403431.0,136266.0,5802.0,-158.0
2026-04-09 22:16:11.112980,302919,1901098518,1901100196,-1.061888,0.415776,0.324032,28.35875,-35.805,59.64,13.488001,-23.160002,21.136002,inter_set_rest,6,5.0,40447.0,403431.0,136266.0,5802.0,-158.0
2026-04-09 22:16:11.115394,302920,1901107445,1901108829,-1.061888,0.415776,0.324032,42.62125,-38.0975,65.9925,13.488001,-23.160002,21.136002,inter_set_rest,6,5.0,40447.0,403431.0,136266.0,5802.0,-158.0
2026-04-09 22:16:11.145431,302931,1901122224,1901123949,-1.05408,0.501664,0.245952,46.96125,-38.29875,70.55125,12.904,-22.896002,21.080002,inter_set_rest,6,5.0,39321.0,403431.0,146312.0,11601.0,-139.0
2026-04-09 22:16:11.147912,302932,1901131171,1901132659,-1.075552,0.51728,0.201056,44.275,-36.9075,74.340004,11.832001,-23.464,23.328001,inter_set_rest,6,5.0,39321.0,403431.0,146312.0,11601.0,-139.0
2026-04-09 22:16:11.150415,302933,1901140211,1901141409,-1.075552,0.51728,0.201056,39.01625,-34.23,78.12875,11.832001,-23.464,23.328001,inter_set_rest,6,5.0,39321.0,403431.0,146312.0,11601.0,-139.0
2026-04-09 22:16:11.156738,302934,1901154706,1901156396,-1.059936,0.474336,0.158112,33.36375,-31.33375,81.01625,11.112,-23.768002,22.376001,inter_set_rest,6,5.0,39321.0,403431.0,146312.0,11601.0,-139.0
2026-04-09 22:16:11.163937,302935,1901163658,1901165114,-1.059936,0.474336,0.158112,29.53125,-28.0175,83.67625,11.112,-23.768002,22.376001,inter_set_rest,6,5.0,39321.0,403431.0,146312.0,11601.0,-139.0
2026-04-09 22:16:11.219476,302936,1901172578,1901173830,-1.001376,0.454816,0.132736,24.9025,-24.54375,86.03875,10.360001,-24.528002,21.688002,inter_set_rest,6,5.0,39321.0,403431.0,146312.0,11601.0,-139.0
2026-04-09 22:16:11.226825,302937,1901181485,1901182585,-1.001376,0.454816,0.132736,19.04,-20.3875,87.6225,10.360001,-24.528002,21.688002,inter_set_rest,6,5.0,39321.0,403431.0,146312.0,11601.0,-139.0
2026-04-09 22:16:11.229216,302938,1901195937,1901197459,-0.931104,0.445056,0.0976,14.63875,-16.35375,88.13,10.744,-24.752,21.352001,inter_set_rest,6,5.0,39321.0,403431.0,146312.0,11601.0,-139.0
2026-04-09 22:16:11.231659,302939,1901204861,1901206158,-0.931104,0.445056,0.0976,13.2825,-11.92625,88.61125,10.744,-24.752,21.352001,inter_set_rest,6,5.0,39321.0,403431.0,146312.0,11601.0,-139.0
2026-04-09 22:16:11.260467,302949,1901213864,1901214908,-0.8784,0.509472,0.033184,16.79125,-6.405,88.41875,9.864,-25.696001,21.2,inter_set_rest,6,5.0,38596.0,403431.0,150062.0,14940.0,-135.0
2026-04-09 22:16:11.262941,302950,1901228427,1901229873,-0.8784,0.509472,0.033184,22.82,0.2275,88.6025,9.864,-25.696001,21.2,inter_set_rest,6,5.0,38596.0,403431.0,150062.0,14940.0,-135.0
2026-04-09 22:16:11.265422,302951,1901237421,1901238665,-0.874496,0.648064,-0.033184,23.12625,8.93375,87.3425,9.368,-25.656002,21.088001,inter_set_rest,6,5.0,38596.0,403431.0,150062.0,14940.0,-135.0
2026-04-09 22:16:11.267895,302952,1901246451,1901247413,-0.874496,0.648064,-0.033184,13.615,16.3275,86.6425,9.368,-25.656002,21.088001,inter_set_rest,6,5.0,38596.0,403431.0,150062.0,14940.0,-135.0
2026-04-09 22:16:11.270421,302953,1901260936,1901262363,-0.854976,0.657824,-0.099552,1.09375,24.1325,86.5725,7.968,-25.864,21.920002,inter_set_rest,6,5.0,38596.0,403431.0,150062.0,14940.0,-135.0
2026-04-09 22:16:11.272980,302954,1901269905,1901271112,-0.854976,0.657824,-0.099552,-8.04125,31.24625,86.59875,7.968,-25.864,21.920002,inter_set_rest,6,5.0,38596.0,403431.0,150062.0,14940.0,-135.0
2026-04-09 22:16:11.277991,302955,1901278829,1901279900,-0.794464,0.675392,-0.152256,-12.4425,38.98125,86.5025,7.520001,-25.808,20.976002,inter_set_rest,6,5.0,38596.0,403431.0,150062.0,14940.0,-135.0
2026-04-09 22:16:11.308148,302956,1901293316,1901294901,-0.772992,0.767136,-0.203008,-18.52375,47.4075,86.59875,7.112001,-26.888,21.824001,inter_set_rest,6,5.0,38596.0,403431.0,150062.0,14940.0,-135.0
2026-04-09 22:16:11.311790,302957,1901302238,1901303617,-0.772992,0.767136,-0.203008,-25.92625,56.420002,85.89,7.112001,-26.888,21.824001,inter_set_rest,6,5.0,38596.0,403431.0,150062.0,14940.0,-135.0
2026-04-09 22:16:11.314198,302958,1901311128,1901312285,-0.757376,0.806176,-0.210816,-36.56625,65.38875,85.46125,7.112001,-27.672,19.112001,inter_set_rest,6,5.0,38596.0,403431.0,150062.0,14940.0,-135.0
2026-04-09 22:16:11.344158,302968,1901320154,1901321010,-0.757376,0.806176,-0.210816,-47.04875,72.61625,83.39625,6.048,-27.672,19.112001,inter_set_rest,6,5.0,37552.0,403431.0,148500.0,14777.0,-132.0
2026-04-09 22:16:11.346666,302969,1901334753,1901336076,-0.716384,0.813984,-0.193248,-56.30625,79.91375,82.38125,3.056,-27.288002,23.616001,inter_set_rest,6,5.0,37552.0,403431.0,148500.0,14777.0,-132.0
2026-04-09 22:16:11.349137,302970,1901343709,1901344805,-0.716384,0.813984,-0.193248,-65.1875,87.15875,82.355,3.056,-27.288002,23.616001,inter_set_rest,6,5.0,37552.0,403431.0,148500.0,14777.0,-132.0
2026-04-09 22:16:11.352980,302971,1901352682,1901353554,-0.681248,0.776896,-0.197152,-73.45625,93.45,82.22375,2.192,-27.944002,22.52,inter_set_rest,6,5.0,37552.0,403431.0,148500.0,14777.0,-132.0
2026-04-09 22:16:11.383202,302972,1901367146,1901368454,-0.681248,0.776896,-0.197152,-79.12625,99.0325,81.24375,2.192,-27.944002,22.52,inter_set_rest,6,5.0,37552.0,403431.0,148500.0,14777.0,-132.0
2026-04-09 22:16:11.386785,302973,1901376050,1901377155,-0.667584,0.772992,-0.22448,-80.8675,105.74375,81.9525,3.176,-28.176,21.960001,inter_set_rest,6,5.0,37552.0,403431.0,148500.0,14777.0,-132.0
2026-04-09 22:16:11.389167,302974,1901384949,1901385852,-0.667584,0.772992,-0.22448,-79.84375,111.71125,83.0725,3.176,-28.176,21.960001,inter_set_rest,6,5.0,37552.0,403431.0,148500.0,14777.0,-132.0
2026-04-09 22:16:11.419419,302975,1901399464,1901400766,-0.700768,0.81008,-0.238144,-77.25375,118.090004,84.2625,1.368,-29.176,23.456001,inter_set_rest,6,5.0,37552.0,403431.0,148500.0,14777.0,-132.0
2026-04-09 22:16:11.423035,302976,1901408367,1901409441,-0.700768,0.81008,-0.238144,-75.95875,125.0025,84.9625,1.368,-29.176,23.456001,inter_set_rest,6,5.0,37552.0,403431.0,148500.0,14777.0,-132.0
2026-04-09 22:16:11.452412,302986,1901417978,1901420322,-0.710528,0.84912,-0.1952,-77.30625,131.43375,85.1725,0.76,-29.176,22.376001,inter_set_rest,6,5.0,37110.0,403431.0,147631.0,14457.0,-138.0
2026-04-09 22:16:11.454317,302987,1901426940,1901429046,-0.710528,0.84912,-0.1952,-83.825,137.22626,85.365,0.76,-29.176,22.376001,inter_set_rest,6,5.0,37110.0,403431.0,147631.0,14457.0,-138.0
2026-04-09 22:16:11.457878,302988,1901441492,1901441975,-0.70272,0.827648,-0.154208,-93.77375,142.51125,86.28375,-0.248,-29.808,22.976002,inter_set_rest,6,5.0,37110.0,403431.0,147631.0,14457.0,-138.0
2026-04-09 22:16:11.459146,302989,1901450907,1901452771,-0.70272,0.827648,-0.154208,-104.7725,147.81375,86.86125,-0.248,-29.808,22.976002,inter_set_rest,6,5.0,37110.0,403431.0,147631.0,14457.0,-138.0
2026-04-09 22:16:11.461638,302990,1901459871,1901461548,-0.737856,0.815936,-0.142496,-113.33875,152.425,88.66375,-2.904,-30.352001,26.264002,inter_set_rest,6,5.0,37110.0,403431.0,147631.0,14457.0,-138.0
2026-04-09 22:16:11.524394,302991,1901474406,1901476518,-0.782752,0.796416,-0.140544,-115.57,156.31,91.93625,-2.664,-30.656002,25.960001,inter_set_rest,6,5.0,37110.0,403431.0,147631.0,14457.0,-138.0
2026-04-09 22:16:11.527953,302992,1901483301,1901485197,-0.782752,0.796416,-0.140544,-114.6075,159.2675,94.22,-2.664,-30.656002,25.960001,inter_set_rest,6,5.0,37110.0,403431.0,147631.0,14457.0,-138.0
2026-04-09 22:16:11.530402,302993,1901492233,1901493885,-0.772992,0.759328,-0.109312,-115.5175,162.53125,94.64,-4.32,-30.640001,25.800001,inter_set_rest,6,5.0,37110.0,403431.0,147631.0,14457.0,-138.0
2026-04-09 22:16:11.532976,302994,1901501161,1901502566,-0.772992,0.759328,-0.109312,-119.805,166.46875,96.22375,-4.32,-30.640001,25.800001,inter_set_rest,6,5.0,37110.0,403431.0,147631.0,14457.0,-138.0
2026-04-09 22:16:11.585444,303005,1901516263,1901517979,-0.823744,0.757376,-0.025376,-124.04875,169.47,97.4225,-5.256,-31.248001,27.2,inter_set_rest,6,5.0,36475.0,403431.0,146346.0,13803.0,-132.0
2026-04-09 22:16:11.587923,303006,1901525278,1901526708,-0.823744,0.757376,-0.025376,-127.58375,172.165,97.86875,-5.256,-31.248001,27.2,inter_set_rest,6,5.0,36475.0,403431.0,146346.0,13803.0,-132.0
2026-04-09 22:16:11.590392,303007,1901534288,1901535434,-0.866688,0.735904,0.103456,-131.20625,171.8325,98.74375,-7.064,-30.872002,29.768002,inter_set_rest,6,5.0,36475.0,403431.0,146346.0,13803.0,-132.0
2026-04-09 22:16:11.593037,303008,1901548823,1901550362,-0.866688,0.735904,0.103456,-135.91376,169.46126,99.925,-7.064,-30.872002,29.768002,inter_set_rest,6,5.0,36475.0,403431.0,146346.0,13803.0,-132.0
2026-04-09 22:16:11.595458,303009,1901557821,1901559052,-0.851072,0.69296,0.189344,-140.9275,162.785,101.7625,-6.888001,-30.648,29.824001,inter_set_rest,6,5.0,36475.0,403431.0,146346.0,13803.0,-132.0
2026-04-09 22:16:11.597925,303010,1901566712,1901567768,-0.851072,0.69296,0.189344,-144.87375,153.79,104.0375,-6.888001,-30.648,29.824001,inter_set_rest,6,5.0,36475.0,403431.0,146346.0,13803.0,-132.0
2026-04-09 22:16:11.600408,303011,1901575685,1901576546,-0.817888,0.65392,0.163968,-145.145,144.2,103.7575,-9.624001,-30.176,32.352,inter_set_rest,6,5.0,36475.0,403431.0,146346.0,13803.0,-132.0
2026-04-09 22:16:11.602903,303012,1901590260,1901591524,-0.817888,0.65392,0.163968,-143.87625,135.89626,101.99,-9.624001,-30.176,32.352,inter_set_rest,6,5.0,36475.0,403431.0,146346.0,13803.0,-132.0
2026-04-09 22:16:11.605465,303013,1901599205,1901600357,-0.860832,0.632448,0.169824,-138.6875,126.63,99.96,-10.072001,-30.048002,34.264,inter_set_rest,6,5.0,36475.0,403431.0,146346.0,13803.0,-132.0
2026-04-09 22:16:11.609205,303014,1901608241,1901609070,-0.860832,0.632448,0.169824,-129.08,117.27625,96.495,-10.072001,-30.048002,34.264,inter_set_rest,6,5.0,36475.0,403431.0,146346.0,13803.0,-132.0
2026-04-09 22:16:11.636734,303024,1901623369,1901624598,-0.899872,0.542656,0.212768,-117.652504,108.12375,91.4375,-11.280001,-30.304,36.184002,inter_set_rest,6,5.0,36477.0,403431.0,145979.0,13456.0,-139.0
2026-04-09 22:16:11.639231,303025,1901632432,1901633387,-0.915488,0.47824,0.277184,-104.99125,99.88125,85.61875,-11.280001,-30.000002,34.36,inter_set_rest,6,5.0,36477.0,403431.0,145979.0,13456.0,-139.0
2026-04-09 22:16:11.642105,303026,1901641408,1901642166,-0.915488,0.47824,0.277184,-92.05,91.39375,78.925,-10.864,-30.000002,34.36,inter_set_rest,6,5.0,36477.0,403431.0,145979.0,13456.0,-139.0
2026-04-09 22:16:11.671909,303027,1901650814,1901652936,-0.915488,0.47824,0.277184,-80.33375,83.755,72.8525,-10.864,-30.000002,34.36,inter_set_rest,6,5.0,36477.0,403431.0,145979.0,13456.0,-139.0
2026-04-09 22:16:11.675507,303028,1901665338,1901665803,-0.89792,0.462624,0.329888,-70.81375,76.71125,67.64625,-11.872001,-29.416002,35.672,inter_set_rest,6,5.0,36477.0,403431.0,145979.0,13456.0,-139.0
2026-04-09 22:16:11.677959,303029,1901674661,1901676606,-0.913536,0.450912,0.329888,-61.87125,70.83125,62.30875,-11.104,-29.448002,36.624,inter_set_rest,6,5.0,36477.0,403431.0,145979.0,13456.0,-139.0
2026-04-09 22:16:11.684200,303030,1901683611,1901685308,-0.913536,0.450912,0.329888,-50.513752,63.8925,57.26875,-11.104,-29.448002,36.624,inter_set_rest,6,5.0,36477.0,403431.0,145979.0,13456.0,-139.0
2026-04-09 22:16:11.714393,303031,1901698180,1901700235,-0.911584,0.50752,0.277184,-34.965,58.68625,50.4,-11.944,-28.36,35.992,inter_set_rest,6,5.0,36477.0,403431.0,145979.0,13456.0,-139.0
2026-04-09 22:16:11.718032,303032,1901707106,1901708934,-0.911584,0.50752,0.277184,-19.53875,54.10125,43.96875,-11.944,-28.36,35.992,inter_set_rest,6,5.0,36477.0,403431.0,145979.0,13456.0,-139.0
2026-04-09 22:16:11.742933,303042,1901716691,1901717723,-0.815936,0.513376,0.230336,-11.8125,50.6975,38.9375,-12.632001,-28.824001,36.704002,inter_set_rest,6,5.0,35841.0,403431.0,147726.0,14853.0,-121.0
2026-04-09 22:16:11.745466,303043,1901725675,1901726582,-0.815936,0.513376,0.230336,-12.46,48.97375,31.36,-12.632001,-28.824001,36.704002,inter_set_rest,6,5.0,35841.0,403431.0,147726.0,14853.0,-121.0
2026-04-09 22:16:11.747964,303044,1901740223,1901741571,-0.784704,0.573888,0.325984,-19.215,49.857502,22.00625,-13.184001,-28.528002,36.672,inter_set_rest,6,5.0,35841.0,403431.0,147726.0,14853.0,-121.0
2026-04-09 22:16:11.750507,303045,1901749205,1901750311,-0.784704,0.573888,0.325984,-31.31625,43.28625,16.26625,-13.184001,-28.528002,36.672,inter_set_rest,6,5.0,35841.0,403431.0,147726.0,14853.0,-121.0
2026-04-09 22:16:11.780714,303046,1901758141,1901758995,-0.74176,0.433344,0.51728,-37.68625,31.1325,9.3975,-13.104001,-28.464,38.176003,inter_set_rest,6,5.0,35841.0,403431.0,147726.0,14853.0,-121.0
2026-04-09 22:16:11.784290,303047,1901772646,1901773979,-0.74176,0.540704,0.521184,-27.30875,20.95625,2.75625,-13.104001,-28.464,38.176003,inter_set_rest,6,5.0,35841.0,403431.0,147726.0,14853.0,-121.0
2026-04-09 22:16:11.787624,303048,1901781569,1901782675,-0.618784,0.540704,0.521184,-1.75875,8.5225,1.77625,-11.864,-28.744001,37.224003,inter_set_rest,6,5.0,35841.0,403431.0,147726.0,14853.0,-121.0
2026-04-09 22:16:11.824049,303049,1901790503,1901791381,-0.618784,0.540704,0.521184,26.25,-0.4725,0.91875,-11.864,-28.744001,37.224003,inter_set_rest,6,5.0,35841.0,403431.0,147726.0,14853.0,-121.0
2026-04-09 22:16:11.826332,303050,1901799524,1901800164,-0.534848,0.685152,0.26352,50.53125,-5.6525,-1.61,-13.184001,-28.616001,37.752003,inter_set_rest,6,5.0,35841.0,403431.0,147726.0,14853.0,-121.0
2026-04-09 22:16:11.831071,303051,1901814411,1901815058,-0.425536,0.841312,0.066368,73.28125,-6.81625,-3.115,-12.328001,-29.616001,36.144,inter_set_rest,6,5.0,35841.0,403431.0,147726.0,14853.0,-121.0
2026-04-09 22:16:11.856703,303062,1901823677,1901825835,-0.425536,0.841312,0.066368,96.81875,-6.72,-4.0775,-12.328001,-29.616001,36.144,inter_set_rest,6,5.0,33663.0,403431.0,146628.0,15003.0,-141.0
2026-04-09 22:16:11.861031,303063,1901832629,1901834559,-0.425536,0.841312,-0.06832,118.4225,-3.8325,-6.50125,-12.328001,-29.616001,36.144,inter_set_rest,6,5.0,33663.0,403431.0,146628.0,15003.0,-141.0
2026-04-09 22:16:11.862694,303064,1901847256,1901849500,-0.437248,1.165344,-0.06832,140.525,0.385,-4.8125,-13.032001,-29.240002,36.224003,inter_set_rest,6,5.0,33663.0,403431.0,146628.0,15003.0,-141.0
2026-04-09 22:16:11.864256,303065,1901856236,1901858209,-0.404064,1.370304,-0.10736,150.71,5.1625,0.105,-13.320001,-29.760002,34.712,inter_set_rest,6,5.0,33663.0,403431.0,146628.0,15003.0,-141.0
2026-04-09 22:16:11.868325,303066,1901865177,1901866938,-0.404064,1.370304,-0.10736,138.46,10.96375,6.99125,-13.320001,-29.760002,34.712,inter_set_rest,6,5.0,33663.0,403431.0,146628.0,15003.0,-141.0
2026-04-09 22:16:11.896974,303067,1901874127,1901875688,-0.32208,1.225856,-0.115168,109.1125,16.38,18.2875,-13.120001,-29.776001,34.432003,inter_set_rest,6,5.0,33663.0,403431.0,146628.0,15003.0,-141.0
2026-04-09 22:16:11.901494,303068,1901888613,1901890575,-0.32208,1.225856,-0.115168,72.7125,22.12875,27.72,-13.120001,-29.776001,34.432003,inter_set_rest,6,5.0,33663.0,403431.0,146628.0,15003.0,-141.0
2026-04-09 22:16:11.902945,303069,1901897623,1901899280,-0.247904,0.952576,-0.140544,45.3075,24.63125,32.2525,-13.024,-29.960001,33.656002,inter_set_rest,6,5.0,33663.0,403431.0,146628.0,15003.0,-141.0
2026-04-09 22:16:11.908433,303070,1901906530,1901908056,-0.247904,0.952576,-0.140544,36.4,26.4075,33.845,-13.024,-29.960001,33.656002,inter_set_rest,6,5.0,33663.0,403431.0,146628.0,15003.0,-141.0
2026-04-09 22:16:11.963484,303080,1901921182,1901923082,-0.070272,0.747616,-0.316224,29.39125,36.82,30.94875,-13.8,-29.752,35.592003,inter_set_rest,6,5.0,35195.0,403431.0,145348.0,13714.0,-132.0
2026-04-09 22:16:11.965598,303081,1901930130,1901931812,-0.070272,0.747616,-0.316224,15.435,46.52375,29.89,-13.8,-29.752,35.592003,inter_set_rest,6,5.0,35195.0,403431.0,145348.0,13714.0,-132.0
2026-04-09 22:16:11.969058,303082,1901939055,1901940492,-0.001952,0.667584,-0.179584,4.83,50.5925,31.675,-13.976001,-29.888,33.696003,inter_set_rest,6,5.0,35195.0,403431.0,145348.0,13714.0,-132.0
2026-04-09 22:16:11.970470,303083,1901953618,1901955440,-0.017568,0.456768,-0.037088,-5.9325,50.575,25.34875,-13.976001,-29.888,34.152,inter_set_rest,6,5.0,35195.0,403431.0,145348.0,13714.0,-132.0
2026-04-09 22:16:11.973014,303084,1901962686,1901964207,-0.017568,0.456768,-0.037088,-17.465,47.78375,12.495,-13.472001,-30.272001,34.152,inter_set_rest,6,5.0,35195.0,403431.0,145348.0,13714.0,-132.0
2026-04-09 22:16:11.975505,303085,1901971684,1901972914,-0.017568,0.456768,-0.037088,-24.0975,43.513752,2.38,-13.472001,-30.272001,34.152,inter_set_rest,6,5.0,35195.0,403431.0,145348.0,13714.0,-132.0
2026-04-09 22:16:11.980430,303086,1901980646,1901981748,-0.072224,0.427488,0.203008,-33.69625,37.58125,-8.12,-13.128,-29.920002,33.568,inter_set_rest,6,5.0,35195.0,403431.0,145348.0,13714.0,-132.0
2026-04-09 22:16:12.010733,303087,1901995202,1901996672,-0.1952,0.583648,0.191296,-41.50125,30.26625,-18.375,-13.688001,-30.024002,34.744003,inter_set_rest,6,5.0,35195.0,403431.0,145348.0,13714.0,-132.0
2026-04-09 22:16:12.014212,303088,1902004093,1902005364,-0.1952,0.583648,0.191296,-30.66875,23.1,-24.15875,-13.688001,-30.024002,34.744003,inter_set_rest,6,5.0,35195.0,403431.0,145348.0,13714.0,-132.0
2026-04-09 22:16:12.016674,303089,1902013001,1902014076,-0.1952,0.583648,0.191296,1.51375,16.02125,-28.175,-13.688001,-30.024002,34.744003,inter_set_rest,6,5.0,35195.0,403431.0,145348.0,13714.0,-132.0
2026-04-09 22:16:12.041718,303099,1902027712,1902029078,-0.347456,0.747616,0.017568,37.205,11.34,-34.29125,-12.992001,-30.512001,33.584003,inter_set_rest,6,5.0,30747.0,403431.0,142383.0,12721.0,-133.0
2026-04-09 22:16:12.050044,303100,1902036659,1902037811,-0.441152,1.040416,-0.144448,61.495,10.7275,-35.3325,-13.352,-30.800001,34.424,inter_set_rest,6,5.0,30747.0,403431.0,142383.0,12721.0,-133.0
2026-04-09 22:16:12.050442,303101,1902045578,1902046533,-0.441152,1.040416,-0.144448,66.675,12.95875,-35.6125,-13.352,-30.800001,34.424,inter_set_rest,6,5.0,30747.0,403431.0,142383.0,12721.0,-133.0
2026-04-09 22:16:12.083250,303102,1902060085,1902061434,-0.642208,1.253184,-0.26352,54.52125,14.035,-35.735,-13.272,-31.112001,34.184002,inter_set_rest,6,5.0,30747.0,403431.0,142383.0,12721.0,-133.0
2026-04-09 22:16:12.086780,303103,1902069004,1902070182,-0.642208,1.253184,-0.26352,38.78,16.178751,-32.0425,-13.272,-31.112001,34.184002,inter_set_rest,6,5.0,30747.0,403431.0,142383.0,12721.0,-133.0
2026-04-09 22:16:12.122137,303104,1902077900,1902078871,-0.876448,1.4152,-0.415776,24.5525,17.08875,-30.4675,-12.344001,-31.376001,33.504,inter_set_rest,6,5.0,30747.0,403431.0,142383.0,12721.0,-133.0
2026-04-09 22:16:12.125922,303105,1902092394,1902093761,-0.876448,1.4152,-0.415776,13.81625,20.02875,-35.857502,-12.344001,-31.376001,33.504,inter_set_rest,6,5.0,30747.0,403431.0,142383.0,12721.0,-133.0
2026-04-09 22:16:12.128764,303106,1902101353,1902102443,-1.138016,1.497184,-0.271328,13.2825,15.155,-34.30875,-12.672001,-31.520002,31.808,inter_set_rest,6,5.0,30747.0,403431.0,142383.0,12721.0,-133.0
2026-04-09 22:16:12.130429,303107,1902110269,1902111175,-1.138016,1.497184,-0.271328,28.28,8.32125,-21.30625,-12.672001,-31.520002,31.808,inter_set_rest,6,5.0,30747.0,403431.0,142383.0,12721.0,-133.0
2026-04-09 22:16:12.157883,303118,1902119743,1902121939,-0.981856,1.294176,-0.199104,44.30125,2.905,-12.97625,-12.472,-31.552002,31.832,inter_set_rest,6,5.0,32708.0,403431.0,146121.0,14890.0,-141.0
2026-04-09 22:16:12.160451,303119,1902134346,1902134796,-0.853024,1.255136,-0.38064,64.40875,-0.74375,-4.75125,-12.472,-31.552002,34.608,inter_set_rest,6,5.0,32708.0,403431.0,146121.0,14890.0,-141.0
2026-04-09 22:16:12.162979,303120,1902143664,1902145669,-0.853024,1.255136,-0.38064,79.35375,-0.1575,3.605,-12.976001,-30.832,34.608,inter_set_rest,6,5.0,32708.0,403431.0,146121.0,14890.0,-141.0
2026-04-09 22:16:12.165480,303121,1902152674,1902154388,-0.853024,1.255136,-0.38064,70.81375,4.27,7.0525,-12.976001,-30.832,34.608,inter_set_rest,6,5.0,32708.0,403431.0,146121.0,14890.0,-141.0
2026-04-09 22:16:12.167933,303122,1902161620,1902163160,-0.765184,1.247328,-0.349408,43.26,9.94,7.6825,-13.256001,-30.984001,32.408,inter_set_rest,6,5.0,32708.0,403431.0,146121.0,14890.0,-141.0
2026-04-09 22:16:12.199024,303123,1902176131,1902178046,-0.65392,1.01504,-0.16592,6.615,16.345,4.47125,-13.400001,-31.368002,33.672,inter_set_rest,6,5.0,32708.0,403431.0,146121.0,14890.0,-141.0
2026-04-09 22:16:12.204159,303124,1902185051,1902186749,-0.65392,1.01504,-0.16592,-27.825,22.015,2.40625,-13.400001,-31.368002,33.672,inter_set_rest,6,5.0,32708.0,403431.0,146121.0,14890.0,-141.0
2026-04-09 22:16:12.206450,303125,1902193962,1902195439,-0.65392,1.01504,-0.16592,-47.22375,23.10875,1.89875,-13.400001,-31.368002,33.672,inter_set_rest,6,5.0,32708.0,403431.0,146121.0,14890.0,-141.0
2026-04-09 22:16:12.212052,303126,1902208450,1902210381,-0.54656,0.753472,-0.007808,-43.49625,21.56875,0.25375,-12.104001,-31.104002,34.472,inter_set_rest,6,5.0,32708.0,403431.0,146121.0,14890.0,-141.0
2026-04-09 22:16:12.266721,303136,1902217375,1902219497,-0.441152,0.708576,0.021472,-11.3925,18.13875,-1.155,-13.192,-30.896002,33.984,inter_set_rest,6,5.0,35567.0,403431.0,146655.0,14423.0,-137.0
2026-04-09 22:16:12.270983,303137,1902226352,1902228241,-0.441152,0.708576,0.021472,31.08,12.7575,0.27125,-13.192,-30.896002,33.984,inter_set_rest,6,5.0,35567.0,403431.0,146655.0,14423.0,-137.0
2026-04-09 22:16:12.272698,303138,1902240829,1902243146,-0.374784,0.806176,0.040992,60.7425,5.67,3.01875,-13.120001,-31.160002,32.312,inter_set_rest,6,5.0,35567.0,403431.0,146655.0,14423.0,-137.0
2026-04-09 22:16:12.274254,303139,1902249739,1902251845,-0.374784,0.806176,0.040992,68.1625,-1.25125,7.9975,-13.120001,-31.160002,32.312,inter_set_rest,6,5.0,35567.0,403431.0,146655.0,14423.0,-137.0
2026-04-09 22:16:12.278469,303140,1902258756,1902260600,-0.359168,0.812032,-0.007808,58.26625,-8.5925,15.26875,-13.56,-30.848001,31.488,inter_set_rest,6,5.0,35567.0,403431.0,146655.0,14423.0,-137.0
2026-04-09 22:16:12.281394,303141,1902273307,1902275558,-0.359168,0.812032,-0.007808,39.1125,-15.4525,20.5275,-13.56,-30.848001,31.488,inter_set_rest,6,5.0,35567.0,403431.0,146655.0,14423.0,-137.0
2026-04-09 22:16:12.284775,303142,1902282267,1902284359,-0.314272,0.70272,-0.167872,23.58125,-22.505,24.43875,-13.512001,-30.192001,31.896002,inter_set_rest,6,5.0,35567.0,403431.0,146655.0,14423.0,-137.0
2026-04-09 22:16:12.313218,303143,1902291274,1902293084,-0.314272,0.70272,-0.167872,20.9475,-24.053751,27.30875,-13.512001,-30.192001,31.896002,inter_set_rest,6,5.0,35567.0,403431.0,146655.0,14423.0,-137.0
2026-04-09 22:16:12.322316,303144,1902300222,1902301783,-0.27328,0.71248,-0.247904,25.13,-27.125,29.61875,-14.264001,-30.624,30.936,inter_set_rest,6,5.0,35567.0,403431.0,146655.0,14423.0,-137.0
2026-04-09 22:16:12.323962,303145,1902314685,1902316681,-0.27328,0.71248,-0.363072,19.74,-29.04125,27.51875,-14.264001,-30.624,30.936,inter_set_rest,6,5.0,35567.0,403431.0,146655.0,14423.0,-137.0
2026-04-09 22:16:12.348016,303155,1902323710,1902325451,-0.279136,0.669536,-0.363072,9.38875,-33.22375,23.37125,-14.072001,-31.104002,30.256,inter_set_rest,6,5.0,33679.0,403431.0,141598.0,11750.0,-135.0
2026-04-09 22:16:12.352287,303156,1902332735,1902334197,-0.279136,0.669536,-0.363072,-11.94375,-30.96625,18.366251,-14.072001,-31.104002,30.256,inter_set_rest,6,5.0,33679.0,403431.0,141598.0,11750.0,-135.0
2026-04-09 22:16:12.353776,303157,1902347245,1902349129,-0.261568,0.6832,-0.335744,-34.06375,-32.725,17.91125,-15.344001,-30.720001,32.52,inter_set_rest,6,5.0,33679.0,403431.0,141598.0,11750.0,-135.0
2026-04-09 22:16:12.362063,303158,1902356189,1902357829,-0.228384,0.540704,-0.220576,-53.165,-38.08,13.2475,-15.608001,-30.968002,33.120003,inter_set_rest,6,5.0,33679.0,403431.0,141598.0,11750.0,-135.0
2026-04-09 22:16:12.367740,303159,1902365130,1902366539,-0.228384,0.540704,-0.220576,-70.6825,-46.1125,2.695,-15.608001,-30.968002,33.120003,inter_set_rest,6,5.0,33679.0,403431.0,141598.0,11750.0,-135.0
2026-04-09 22:16:12.419196,303160,1902379620,1902381452,-0.21472,0.609024,-0.081984,-81.54125,-54.67875,-9.5025,-15.208001,-30.616001,33.68,inter_set_rest,6,5.0,33679.0,403431.0,141598.0,11750.0,-135.0
2026-04-09 22:16:12.421442,303161,1902388543,1902390174,-0.21472,0.609024,-0.081984,-79.94875,-62.763752,-21.34125,-15.208001,-30.616001,33.68,inter_set_rest,6,5.0,33679.0,403431.0,141598.0,11750.0,-135.0
2026-04-09 22:16:12.426028,303162,1902397465,1902398868,-0.310368,0.66368,-0.105408,-65.345,-71.84625,-35.70875,-14.64,-30.888002,32.504,inter_set_rest,6,5.0,33679.0,403431.0,141598.0,11750.0,-135.0
2026-04-09 22:16:12.427758,303163,1902411956,1902413815,-0.310368,0.66368,-0.105408,-48.09,-83.43125,-51.94,-14.64,-30.888002,32.504,inter_set_rest,6,5.0,33679.0,403431.0,141598.0,11750.0,-135.0
2026-04-09 22:16:12.457835,303174,1902421458,1902422813,-0.528992,0.851072,-0.345504,-32.96125,-92.98625,-65.58125,-13.840001,-30.920002,31.592001,inter_set_rest,6,5.0,31583.0,403431.0,141967.0,12245.0,-130.0
2026-04-09 22:16:12.459238,303175,1902430606,1902431603,-0.528992,0.851072,-0.345504,-20.27375,-97.825,-76.51,-13.840001,-30.920002,31.592001,inter_set_rest,6,5.0,31583.0,403431.0,141967.0,12245.0,-130.0
2026-04-09 22:16:12.461701,303176,1902439646,1902440329,-0.802272,0.933056,-0.3904,-7.4375,-103.18875,-84.37625,-13.696001,-30.976002,32.792,inter_set_rest,6,5.0,31583.0,403431.0,141967.0,12245.0,-130.0
2026-04-09 22:16:12.465987,303177,1902454662,1902455294,-0.802272,0.933056,-0.3904,15.085,-104.97375,-89.20625,-13.696001,-30.976002,32.792,inter_set_rest,6,5.0,31583.0,403431.0,141967.0,12245.0,-130.0
2026-04-09 22:16:12.468428,303178,1902464038,1902466098,-0.960384,1.413248,-0.347456,62.7725,-103.88875,-77.735,-14.104001,-31.712002,31.456001,inter_set_rest,6,5.0,31583.0,403431.0,141967.0,12245.0,-130.0
2026-04-09 22:16:12.496992,303179,1902473046,1902474843,-0.960384,1.413248,-0.347456,127.8375,-104.1075,-43.0325,-14.104001,-31.712002,31.456001,inter_set_rest,6,5.0,31583.0,403431.0,141967.0,12245.0,-130.0
2026-04-09 22:16:12.501506,303180,1902482055,1902483584,-0.851072,1.76656,-0.240096,172.13875,-102.83,-14.21875,-13.032001,-31.656002,28.464,inter_set_rest,6,5.0,31583.0,403431.0,141967.0,12245.0,-130.0
2026-04-09 22:16:12.503817,303181,1902496659,1902498487,-0.636352,1.534272,-0.269376,183.95125,-98.14875,1.0325,-13.272,-31.344002,26.432001,inter_set_rest,6,5.0,31583.0,403431.0,141967.0,12245.0,-130.0
2026-04-09 22:16:12.507527,303182,1902505601,1902507201,-0.636352,1.534272,-0.269376,172.17375,-88.73375,14.945,-13.272,-31.344002,26.432001,inter_set_rest,6,5.0,31583.0,403431.0,141967.0,12245.0,-130.0
2026-04-09 22:16:12.537875,303183,1902514523,1902515915,-0.636352,1.534272,-0.269376,141.5925,-71.925,27.125,-13.272,-31.344002,26.432001,inter_set_rest,6,5.0,31583.0,403431.0,141967.0,12245.0,-130.0
2026-04-09 22:16:12.579773,303193,1902529391,1902530832,-0.488,1.391776,-0.099552,96.495,-51.065,36.91625,-13.432001,-30.888002,28.048002,inter_set_rest,6,5.0,35202.0,403431.0,146407.0,14180.0,-128.0
2026-04-09 22:16:12.581509,303194,1902538324,1902539557,-0.427488,1.091168,0.171776,40.92375,-29.1375,42.41125,-14.456,-30.720001,26.776001,inter_set_rest,6,5.0,35202.0,403431.0,146407.0,14180.0,-128.0
2026-04-09 22:16:12.583095,303195,1902547243,1902548300,-0.427488,1.091168,0.171776,-16.03,-10.87625,39.4275,-14.456,-30.720001,26.776001,inter_set_rest,6,5.0,35202.0,403431.0,146407.0,14180.0,-128.0
2026-04-09 22:16:12.587329,303196,1902556216,1902557046,-0.388448,0.560224,0.339648,-61.06625,5.5475,32.6375,-14.456,-30.680002,26.976002,inter_set_rest,6,5.0,35202.0,403431.0,146407.0,14180.0,-128.0
2026-04-09 22:16:12.590247,303197,1902570742,1902571939,-0.388448,0.560224,0.339648,-89.80125,15.9775,23.75625,-14.6,-30.680002,26.976002,inter_set_rest,6,5.0,35202.0,403431.0,146407.0,14180.0,-128.0
2026-04-09 22:16:12.596095,303198,1902579723,1902580650,-0.474336,0.359168,0.521184,-99.58375,20.27375,14.542501,-14.776001,-30.584002,28.032001,inter_set_rest,6,5.0,35202.0,403431.0,146407.0,14180.0,-128.0
2026-04-09 22:16:12.598378,303199,1902588678,1902589424,-0.474336,0.359168,0.521184,-79.03875,18.27,8.6625,-14.776001,-30.584002,28.032001,inter_set_rest,6,5.0,35202.0,403431.0,146407.0,14180.0,-128.0
2026-04-09 22:16:12.605104,303200,1902603690,1902604390,-0.499712,0.554368,0.456768,-32.17375,10.52625,5.27625,-14.952001,-30.688002,28.616001,inter_set_rest,6,5.0,35202.0,403431.0,146407.0,14180.0,-128.0
2026-04-09 22:16:12.633370,303201,1902613059,1902615165,-0.499712,0.554368,0.456768,13.16,1.0325,1.88125,-14.952001,-30.688002,28.616001,inter_set_rest,6,5.0,35202.0,403431.0,146407.0,14180.0,-128.0
2026-04-09 22:16:12.666821,303211,1902622703,1902623941,-0.388448,0.737856,0.286944,46.17375,-8.12875,-0.14875,-15.136001,-30.912,27.416,inter_set_rest,6,5.0,36183.0,403431.0,143933.0,12252.0,-130.0
2026-04-09 22:16:12.671074,303212,1902631698,1902632647,-0.388448,0.737856,0.286944,64.5225,-15.015,-4.17375,-15.136001,-30.912,27.416,inter_set_rest,6,5.0,36183.0,403431.0,143933.0,12252.0,-130.0
2026-04-09 22:16:12.672775,303213,1902646315,1902647607,-0.382592,0.91744,-0.007808,69.16875,-22.05875,-6.99125,-14.912001,-30.576002,27.2,inter_set_rest,6,5.0,36183.0,403431.0,143933.0,12252.0,-130.0
2026-04-09 22:16:12.674432,303214,1902655274,1902656355,-0.382592,0.91744,-0.007808,63.53375,-22.715,-8.81125,-14.912001,-30.576002,27.2,inter_set_rest,6,5.0,36183.0,403431.0,143933.0,12252.0,-130.0
2026-04-09 22:16:12.678777,303215,1902664266,1902665058,-0.40992,1.003328,-0.154208,38.40375,-17.272501,-13.09875,-14.736001,-30.800001,30.232002,inter_set_rest,6,5.0,36183.0,403431.0,143933.0,12252.0,-130.0
2026-04-09 22:16:12.680952,303216,1902673217,1902673892,-0.40992,1.003328,-0.154208,2.24,-14.00875,-17.1325,-14.736001,-30.800001,30.232002,inter_set_rest,6,5.0,36183.0,403431.0,143933.0,12252.0,-130.0
2026-04-09 22:16:12.731732,303217,1902688146,1902688856,-0.447008,0.915488,-0.160064,-32.025,-10.6225,-21.02625,-15.368001,-30.728,28.408,inter_set_rest,6,5.0,36183.0,403431.0,143933.0,12252.0,-130.0
2026-04-09 22:16:12.733919,303218,1902697568,1902699622,-0.46848,0.765184,-0.103456,-53.71625,-9.45875,-22.05875,-14.584001,-30.448002,28.072,inter_set_rest,6,5.0,36183.0,403431.0,143933.0,12252.0,-130.0
2026-04-09 22:16:12.738554,303219,1902706583,1902708330,-0.46848,0.765184,-0.103456,-61.83625,-9.26625,-21.14875,-14.584001,-30.448002,28.072,inter_set_rest,6,5.0,36183.0,403431.0,143933.0,12252.0,-130.0
2026-04-09 22:16:12.740282,303220,1902715533,1902717087,-0.46848,0.765184,-0.103456,-53.83,-11.095,-20.0375,-14.584001,-30.448002,28.072,inter_set_rest,6,5.0,36183.0,403431.0,143933.0,12252.0,-130.0
2026-04-09 22:16:12.769940,303231,1902730529,1902732036,-0.454816,0.739808,-0.046848,-34.43125,-14.11375,-19.11,-14.352,-30.616001,28.600002,inter_set_rest,6,5.0,33410.0,403431.0,141359.0,11322.0,-132.0
2026-04-09 22:16:12.770071,303232,1902739509,1902740791,-0.454816,0.8784,0.013664,-14.42875,-17.6575,-18.9,-14.344001,-30.448002,27.912,inter_set_rest,6,5.0,33410.0,403431.0,141359.0,11322.0,-132.0
2026-04-09 22:16:12.773560,303233,1902748541,1902749543,-0.454816,0.8784,0.013664,-5.55625,-19.460001,-18.9,-14.344001,-30.448002,27.912,inter_set_rest,6,5.0,33410.0,403431.0,141359.0,11322.0,-132.0
2026-04-09 22:16:12.775252,303234,1902763057,1902764481,-0.40992,0.864736,0.023424,-14.9625,-20.3525,-21.07875,-13.488001,-30.864002,28.552002,inter_set_rest,6,5.0,33410.0,403431.0,141359.0,11322.0,-132.0
2026-04-09 22:16:12.776806,303235,1902772053,1902773172,-0.40992,0.864736,0.023424,-42.0525,-20.8775,-29.44375,-13.488001,-30.864002,28.552002,inter_set_rest,6,5.0,33410.0,403431.0,141359.0,11322.0,-132.0
2026-04-09 22:16:12.782143,303236,1902781029,1902781895,-0.50752,0.589504,-0.001952,-66.28125,-20.16,-39.17375,-13.224001,-31.384,28.560001,inter_set_rest,6,5.0,33410.0,403431.0,141359.0,11322.0,-132.0
2026-04-09 22:16:12.810749,303237,1902795516,1902796801,-0.50752,0.589504,-0.001952,-67.3575,-17.053751,-44.26625,-13.224001,-31.384,28.560001,inter_set_rest,5,5.0,33410.0,403431.0,141359.0,11322.0,-132.0
2026-04-09 22:16:12.817832,303238,1902804472,1902805530,-0.6832,0.620736,0.033184,-44.02125,-12.60875,-44.84375,-13.64,-31.128002,27.336,inter_set_rest,5,5.0,33410.0,403431.0,141359.0,11322.0,-132.0
2026-04-09 22:16:12.817986,303239,1902813371,1902814264,-0.6832,0.620736,0.033184,-8.715,-8.25125,-42.2625,-13.64,-31.128002,27.336,inter_set_rest,5,5.0,33410.0,403431.0,141359.0,11322.0,-132.0
2026-04-09 22:16:12.870269,303249,1902822700,1902823012,-0.884256,0.948672,0.144448,24.99875,-2.31,-36.02375,-13.144001,-31.488,28.680002,inter_set_rest,5,5.0,35100.0,403431.0,140825.0,10360.0,-138.0
2026-04-09 22:16:12.871748,303250,1902837497,1902837930,-0.841312,1.389824,0.349408,54.5825,-1.28625,-14.805,-13.144001,-31.640001,26.392002,inter_set_rest,5,5.0,35100.0,403431.0,140825.0,10360.0,-138.0
2026-04-09 22:16:12.875139,303251,1902846847,1902848695,-0.841312,1.389824,0.349408,75.29375,-3.4825,7.9975,-13.784,-31.640001,26.392002,inter_set_rest,5,5.0,35100.0,403431.0,140825.0,10360.0,-138.0
2026-04-09 22:16:12.876690,303252,1902855840,1902857428,-0.841312,1.389824,0.349408,82.4075,-8.95125,13.1075,-13.784,-31.640001,26.392002,inter_set_rest,5,5.0,35100.0,403431.0,140825.0,10360.0,-138.0
2026-04-09 22:16:12.881027,303253,1902864900,1902866151,-0.724192,1.120448,0.261568,76.18625,-13.15125,6.02,-15.384001,-31.072002,29.160002,inter_set_rest,5,5.0,35100.0,403431.0,140825.0,10360.0,-138.0
2026-04-09 22:16:12.883466,303254,1902879418,1902881088,-0.66368,1.0248,0.099552,54.67875,-15.365,4.0425,-14.096001,-30.704002,27.144001,inter_set_rest,5,5.0,35100.0,403431.0,140825.0,10360.0,-138.0
2026-04-09 22:16:12.911866,303255,1902888337,1902889788,-0.66368,1.0248,0.099552,24.17625,-12.87125,7.1925,-14.096001,-30.704002,27.144001,inter_set_rest,5,5.0,35100.0,403431.0,140825.0,10360.0,-138.0
2026-04-09 22:16:12.916405,303256,1902897273,1902898461,-0.66368,0.940864,0.023424,-5.50375,-7.42875,9.415,-14.096001,-30.704002,27.144001,inter_set_rest,5,5.0,35100.0,403431.0,140825.0,10360.0,-138.0
2026-04-09 22:16:12.918000,303257,1902911823,1902913401,-0.65392,0.940864,0.023424,-21.1225,-3.64875,6.9825,-14.584001,-31.160002,28.632002,inter_set_rest,5,5.0,35100.0,403431.0,140825.0,10360.0,-138.0
2026-04-09 22:16:12.925243,303258,1902920764,1902922138,-0.593408,0.757376,0.035136,-21.41125,-0.11375,2.1,-13.920001,-31.160002,27.52,inter_set_rest,5,5.0,35100.0,403431.0,140825.0,10360.0,-138.0
2026-04-09 22:16:12.947696,303268,1902929760,1902930889,-0.593408,0.757376,0.035136,-10.75375,2.7475,0.27125,-13.920001,-31.160002,27.52,inter_set_rest,5,5.0,37438.0,403431.0,141995.0,10330.0,-152.0
2026-04-09 22:16:12.949239,303269,1902944268,1902945819,-0.544608,0.815936,0.031232,1.5225,3.68375,1.96,-14.488001,-31.072002,27.376001,inter_set_rest,5,5.0,37438.0,403431.0,141995.0,10330.0,-152.0
2026-04-09 22:16:12.954627,303270,1902953238,1902954565,-0.544608,0.815936,0.031232,7.88375,2.91375,3.7975,-14.488001,-31.072002,27.376001,inter_set_rest,5,5.0,37438.0,403431.0,141995.0,10330.0,-152.0
2026-04-09 22:16:12.983200,303271,1902962229,1902963304,-0.52704,0.831552,0.02928,-1.575,1.67125,5.0225,-14.264001,-31.04,28.272001,inter_set_rest,5,5.0,37438.0,403431.0,141995.0,10330.0,-152.0
2026-04-09 22:16:12.987573,303272,1902971178,1902972003,-0.52704,0.831552,0.02928,-17.42125,-0.44625,8.33875,-14.264001,-31.04,28.272001,inter_set_rest,5,5.0,37438.0,403431.0,141995.0,10330.0,-152.0
2026-04-09 22:16:13.022890,303273,1902985629,1902986904,-0.519232,0.726144,0.0,-24.91125,-1.56625,11.97,-14.424001,-31.000002,27.768002,inter_set_rest,5,5.0,37438.0,403431.0,141995.0,10330.0,-152.0
2026-04-09 22:16:13.027312,303274,1902994591,1902995669,-0.519232,0.726144,0.0,-20.405,-3.3775,12.76625,-14.424001,-31.000002,27.768002,inter_set_rest,5,5.0,37438.0,403431.0,141995.0,10330.0,-152.0
2026-04-09 22:16:13.028980,303275,1903003534,1903004368,-0.499712,0.675392,-0.0488,-4.6025,-8.98625,11.48875,-14.056001,-30.640001,27.416,inter_set_rest,5,5.0,37438.0,403431.0,141995.0,10330.0,-152.0
2026-04-09 22:16:13.030660,303276,1903017975,1903019265,-0.484096,0.681248,-0.124928,17.01875,-8.84625,7.65625,-14.056001,-30.640001,29.672,inter_set_rest,5,5.0,37438.0,403431.0,141995.0,10330.0,-152.0
2026-04-09 22:16:13.058959,303287,1903027204,1903028187,-0.484096,0.681248,-0.124928,28.9275,-9.14375,3.94625,-14.344001,-30.056002,29.672,inter_set_rest,5,5.0,37648.0,403431.0,140153.0,9387.0,-136.0
2026-04-09 22:16:13.060593,303288,1903036157,1903037016,-0.484096,0.681248,-0.124928,33.92375,-4.235,0.42875,-14.344001,-30.056002,29.672,inter_set_rest,5,5.0,37648.0,403431.0,140153.0,9387.0,-136.0
2026-04-09 22:16:13.064868,303289,1903050736,1903052018,-0.40016,0.6832,-0.337696,29.07625,4.80375,-2.75625,-15.464001,-30.560001,27.608002,inter_set_rest,5,5.0,37648.0,403431.0,140153.0,9387.0,-136.0
2026-04-09 22:16:13.066352,303290,1903059671,1903060744,-0.404064,0.74176,-0.160064,21.6125,15.2075,2.24,-14.68,-30.392002,26.880001,inter_set_rest,5,5.0,37648.0,403431.0,140153.0,9387.0,-136.0
2026-04-09 22:16:13.070892,303291,1903068589,1903069445,-0.404064,0.74176,-0.160064,18.05125,21.63,4.6725,-14.68,-30.392002,26.880001,inter_set_rest,5,5.0,37648.0,403431.0,140153.0,9387.0,-136.0
2026-04-09 22:16:13.099539,303292,1903083124,1903084354,-0.45872,0.749568,0.163968,19.005,17.66625,2.7825,-14.712001,-30.392002,27.368002,inter_set_rest,5,5.0,37648.0,403431.0,140153.0,9387.0,-136.0
2026-04-09 22:16:13.103943,303293,1903092049,1903093070,-0.45872,0.749568,0.163968,27.44,10.36,-0.07875,-14.712001,-30.392002,27.368002,inter_set_rest,5,5.0,37648.0,403431.0,140153.0,9387.0,-136.0
2026-04-09 22:16:13.105542,303294,1903100935,1903101764,-0.495808,0.833504,0.347456,39.85625,-2.77375,-1.47,-14.488001,-30.760002,26.472002,inter_set_rest,5,5.0,37648.0,403431.0,140153.0,9387.0,-136.0
2026-04-09 22:16:13.112201,303295,1903109897,1903110487,-0.495808,0.833504,0.347456,52.24625,-17.70125,-3.22,-14.488001,-30.760002,26.472002,inter_set_rest,5,5.0,37648.0,403431.0,140153.0,9387.0,-136.0
2026-04-09 22:16:13.168957,303305,1903125058,1903125380,-0.486048,0.929152,0.27328,60.97,-32.87375,-6.41375,-15.128,-30.512001,25.560001,inter_set_rest,5,5.0,37065.0,403431.0,141320.0,10297.0,-146.0
2026-04-09 22:16:13.170562,303306,1903134295,1903136164,-0.486048,0.929152,0.27328,66.8675,-45.7625,-8.0325,-15.128,-30.512001,25.560001,inter_set_rest,5,5.0,37065.0,403431.0,141320.0,10297.0,-146.0
2026-04-09 22:16:13.174786,303307,1903143255,1903144855,-0.482144,1.124352,0.128832,71.5925,-55.3525,-9.948751,-14.432001,-30.008001,25.144001,inter_set_rest,5,5.0,37065.0,403431.0,141320.0,10297.0,-146.0
2026-04-09 22:16:13.176499,303308,1903157724,1903159803,-0.482144,1.124352,0.128832,60.025,-59.7975,-11.261251,-14.432001,-30.008001,25.144001,inter_set_rest,5,5.0,37065.0,403431.0,141320.0,10297.0,-146.0
2026-04-09 22:16:13.178060,303309,1903166684,1903168592,-0.450912,1.194624,0.103456,45.54375,-62.2825,-12.215,-14.144001,-29.912,24.256,inter_set_rest,5,5.0,37065.0,403431.0,141320.0,10297.0,-146.0
2026-04-09 22:16:13.181359,303310,1903175644,1903177314,-0.450912,1.194624,0.103456,34.09875,-62.055,-12.1275,-14.144001,-29.912,24.256,inter_set_rest,5,5.0,37065.0,403431.0,141320.0,10297.0,-146.0
2026-04-09 22:16:13.188422,303311,1903184574,1903186045,-0.47824,1.206336,0.177632,19.25,-61.67875,-13.41375,-13.992001,-30.04,24.408,inter_set_rest,5,5.0,37065.0,403431.0,141320.0,10297.0,-146.0
2026-04-09 22:16:13.217047,303312,1903199076,1903200951,-0.484096,1.085312,0.167872,-5.4775,-62.02875,-9.91375,-13.840001,-30.616001,23.896002,inter_set_rest,5,5.0,37065.0,403431.0,141320.0,10297.0,-146.0
2026-04-09 22:16:13.221557,303313,1903207996,1903209620,-0.484096,1.085312,0.167872,-22.75875,-60.90875,-7.97125,-13.840001,-30.616001,23.896002,inter_set_rest,5,5.0,37065.0,403431.0,141320.0,10297.0,-146.0
2026-04-09 22:16:13.223124,303314,1903216912,1903218314,-0.484096,1.085312,0.167872,-34.18625,-59.40375,-10.255,-13.840001,-30.616001,23.896002,inter_set_rest,5,5.0,37065.0,403431.0,141320.0,10297.0,-146.0
2026-04-09 22:16:13.249776,303324,1903231473,1903233563,-0.411872,0.962336,0.193248,-46.20875,-55.92125,-10.9025,-13.336,-30.448002,24.68,inter_set_rest,5,5.0,35203.0,403431.0,147533.0,14555.0,-148.0
2026-04-09 22:16:13.251476,303325,1903240438,1903242314,-0.44896,0.860832,0.0,-65.695,-47.94125,-6.67625,-13.696001,-30.456001,27.760002,inter_set_rest,5,5.0,35203.0,403431.0,147533.0,14555.0,-148.0
2026-04-09 22:16:13.253049,303326,1903249364,1903251047,-0.44896,0.860832,0.0,-76.46625,-36.076252,-8.23375,-13.696001,-30.456001,27.760002,inter_set_rest,5,5.0,35203.0,403431.0,147533.0,14555.0,-148.0
2026-04-09 22:16:13.283350,303327,1903263882,1903265937,-0.45872,0.728096,-0.191296,-72.96625,-21.97125,-17.78,-13.392,-30.976002,26.032001,inter_set_rest,5,5.0,35203.0,403431.0,147533.0,14555.0,-148.0
2026-04-09 22:16:13.287642,303328,1903272821,1903274691,-0.45872,0.728096,-0.191296,-64.3125,-9.80875,-27.92125,-13.392,-30.976002,26.032001,inter_set_rest,5,5.0,35203.0,403431.0,147533.0,14555.0,-148.0
2026-04-09 22:16:13.322635,303329,1903281754,1903283403,-0.534848,0.71248,-0.218624,-55.39625,0.42875,-34.1425,-12.68,-30.688002,25.696001,inter_set_rest,5,5.0,35203.0,403431.0,147533.0,14555.0,-148.0
2026-04-09 22:16:13.326394,303330,1903296338,1903298308,-0.534848,0.71248,-0.218624,-30.2925,9.7125,-30.835001,-12.68,-30.688002,25.696001,inter_set_rest,5,5.0,35203.0,403431.0,147533.0,14555.0,-148.0
2026-04-09 22:16:13.328872,303331,1903305265,1903306990,-0.651968,0.837408,-0.179584,-7.0,17.5,-27.65,-12.616,-30.888002,25.672,inter_set_rest,5,5.0,35203.0,403431.0,147533.0,14555.0,-148.0
2026-04-09 22:16:13.329301,303332,1903314187,1903315644,-0.651968,0.837408,-0.179584,7.7,18.366251,-24.15875,-12.616,-30.888002,25.672,inter_set_rest,5,5.0,35203.0,403431.0,147533.0,14555.0,-148.0
2026-04-09 22:16:13.333582,303333,1903323126,1903324350,-0.687104,0.804224,-0.033184,21.04375,12.32,-16.89625,-13.064001,-31.048002,26.000002,inter_set_rest,5,5.0,35203.0,403431.0,147533.0,14555.0,-148.0
2026-04-09 22:16:13.359318,303344,1903337741,1903339358,-0.687104,0.804224,-0.033184,33.74,4.4975,-14.2625,-13.064001,-31.048002,26.000002,inter_set_rest,5,5.0,37312.0,403431.0,144155.0,11682.0,-141.0
2026-04-09 22:16:13.363536,303345,1903346659,1903348086,-0.710528,0.76128,0.226432,48.79,-5.9675,-12.3025,-13.152,-31.184002,24.096,inter_set_rest,5,5.0,37312.0,403431.0,144155.0,11682.0,-141.0
2026-04-09 22:16:13.365120,303346,1903355642,1903356856,-0.710528,0.76128,0.226432,67.8125,-16.30125,-12.71375,-13.152,-31.184002,24.096,inter_set_rest,5,5.0,37312.0,403431.0,144155.0,11682.0,-141.0
2026-04-09 22:16:13.372516,303347,1903370174,1903371808,-0.71248,0.85888,0.154208,82.52125,-23.87,-14.105001,-13.920001,-30.880001,24.304,inter_set_rest,5,5.0,37312.0,403431.0,144155.0,11682.0,-141.0
2026-04-09 22:16:13.401967,303348,1903379092,1903380518,-0.71248,0.95648,-0.017568,81.76,-26.81875,-12.2675,-13.920001,-30.880001,24.304,inter_set_rest,5,5.0,37312.0,403431.0,144155.0,11682.0,-141.0
2026-04-09 22:16:13.404771,303349,1903388081,1903389205,-0.718336,0.95648,-0.017568,63.822502,-26.9325,-5.9325,-12.656,-30.872002,24.512001,inter_set_rest,5,5.0,37312.0,403431.0,144155.0,11682.0,-141.0
2026-04-09 22:16:13.408473,303350,1903402660,1903404077,-0.691008,0.833504,0.054656,32.05125,-26.3725,-1.75875,-11.904,-30.464,23.896002,inter_set_rest,5,5.0,37312.0,403431.0,144155.0,11682.0,-141.0
2026-04-09 22:16:13.413417,303351,1903411698,1903412860,-0.691008,0.833504,0.054656,5.66125,-25.445,-2.0475,-11.904,-30.464,23.896002,inter_set_rest,5,5.0,37312.0,403431.0,144155.0,11682.0,-141.0
2026-04-09 22:16:13.441974,303352,1903420828,1903421612,-0.667584,0.6832,0.1464,-4.15625,-26.425,-4.2525,-12.480001,-30.680002,22.904001,inter_set_rest,5,5.0,37312.0,403431.0,144155.0,11682.0,-141.0
2026-04-09 22:16:13.471838,303362,1903430440,1903432627,-0.667584,0.6832,0.1464,-0.63875,-30.5375,-4.935,-12.480001,-30.680002,22.904001,inter_set_rest,5,5.0,39724.0,403431.0,135806.0,6266.0,-148.0
2026-04-09 22:16:13.476059,303363,1903444951,1903445470,-0.665632,0.642208,0.142496,12.90625,-37.9225,-4.06875,-11.76,-30.192001,22.656,inter_set_rest,5,5.0,39724.0,403431.0,135806.0,6266.0,-148.0
2026-04-09 22:16:13.477773,303364,1903454341,1903456241,-0.665632,0.642208,0.142496,34.08125,-46.3925,-1.3825,-11.76,-30.192001,22.656,inter_set_rest,5,5.0,39724.0,403431.0,135806.0,6266.0,-148.0
2026-04-09 22:16:13.479311,303365,1903463379,1903465033,-0.69296,0.735904,0.093696,60.6725,-56.2975,3.43875,-13.088,-29.944002,24.256,inter_set_rest,5,5.0,39724.0,403431.0,135806.0,6266.0,-148.0
2026-04-09 22:16:13.482955,303366,1903472388,1903473789,-0.69296,0.735904,0.093696,87.5175,-66.26375,9.9225,-13.088,-29.944002,24.256,inter_set_rest,5,5.0,39724.0,403431.0,135806.0,6266.0,-148.0
2026-04-09 22:16:13.489654,303367,1903486887,1903488734,-0.675392,0.732,-0.152256,109.051254,-76.97375,16.6425,-12.336,-29.28,21.112001,inter_set_rest,5,5.0,39724.0,403431.0,135806.0,6266.0,-148.0
2026-04-09 22:16:13.518181,303368,1903495834,1903497435,-0.675392,0.732,-0.152256,126.14,-80.91125,19.74,-12.336,-29.28,21.112001,inter_set_rest,5,5.0,39724.0,403431.0,135806.0,6266.0,-148.0
2026-04-09 22:16:13.522763,303369,1903504788,1903506133,-0.554368,0.65392,-0.347456,115.027504,-73.045,17.45625,-12.832001,-29.128002,20.016,inter_set_rest,5,5.0,39724.0,403431.0,135806.0,6266.0,-148.0
2026-04-09 22:16:13.524249,303370,1903519279,1903521062,-0.554368,0.65392,-0.0976,97.8425,-69.2825,24.54375,-12.832001,-29.128002,20.016,inter_set_rest,5,5.0,39724.0,403431.0,135806.0,6266.0,-148.0
2026-04-09 22:16:13.549322,303380,1903528682,1903529841,-0.515328,0.841312,-0.103456,87.3775,-67.375,34.18625,-12.056001,-28.832,20.304,inter_set_rest,5,5.0,43951.0,364538.0,108157.0,264.0,-138.0
2026-04-09 22:16:13.553530,303381,1903537694,1903538652,-0.515328,0.841312,-0.103456,78.61,-69.4575,33.13625,-12.056001,-28.832,20.304,inter_set_rest,5,5.0,43951.0,364538.0,108157.0,264.0,-138.0
2026-04-09 22:16:13.555976,303382,1903546612,1903547428,-0.513376,0.75152,-0.00976,66.605,-75.29375,27.16,-12.080001,-28.544,18.736,inter_set_rest,5,5.0,43951.0,364538.0,108157.0,264.0,-138.0
2026-04-09 22:16:13.584530,303383,1903561136,1903562380,-0.558272,0.72224,0.066368,52.395,-83.86,24.6925,-11.312,-28.480001,15.488001,inter_set_rest,5,5.0,43951.0,364538.0,108157.0,264.0,-138.0
2026-04-09 22:16:13.588127,303384,1903570061,1903571125,-0.558272,0.72224,0.066368,44.45875,-92.60125,23.94,-11.312,-28.480001,15.488001,inter_set_rest,5,5.0,43951.0,364538.0,108157.0,264.0,-138.0
2026-04-09 22:16:13.621696,303385,1903578972,1903579836,-0.558272,0.72224,0.066368,46.0425,-102.01625,18.725,-11.312,-28.480001,15.488001,inter_set_rest,5,5.0,43951.0,364538.0,108157.0,264.0,-138.0
2026-04-09 22:16:13.623923,303386,1903593453,1903594723,-0.5856,0.675392,0.101504,51.63375,-111.88625,9.135,-10.280001,-27.528002,18.28,inter_set_rest,5,5.0,43951.0,364538.0,108157.0,264.0,-138.0
2026-04-09 22:16:13.628586,303387,1903602407,1903603478,-0.568032,0.620736,0.119072,59.08,-121.3275,-2.44125,-9.544001,-27.640001,17.0,inter_set_rest,5,5.0,43951.0,364538.0,108157.0,264.0,-138.0
2026-04-09 22:16:13.630324,303388,1903611324,1903612180,-0.568032,0.620736,0.119072,69.02875,-129.71,-14.11375,-9.544001,-27.640001,17.0,inter_set_rest,5,5.0,43951.0,364538.0,108157.0,264.0,-138.0
2026-04-09 22:16:13.658571,303399,1903625812,1903627426,-0.568032,0.650016,0.121024,81.26125,-136.78,-24.98125,-9.024,-27.400002,15.648001,inter_set_rest,5,5.0,42479.0,365541.0,107822.0,353.0,-149.0
2026-04-09 22:16:13.660245,303400,1903634831,1903636184,-0.568032,0.650016,0.121024,94.75375,-141.5925,-34.79,-9.024,-27.400002,15.648001,inter_set_rest,5,5.0,42479.0,365541.0,107822.0,353.0,-149.0
2026-04-09 22:16:13.661862,303401,1903643879,1903644934,-0.562176,0.739808,0.095648,106.3475,-145.39876,-44.03875,-7.992001,-26.848001,15.792001,inter_set_rest,5,5.0,42479.0,365541.0,107822.0,353.0,-149.0
2026-04-09 22:16:13.665922,303402,1903658513,1903659829,-0.562176,0.739808,0.095648,112.2625,-147.42,-53.025,-7.992001,-26.848001,15.792001,inter_set_rest,5,5.0,42479.0,365541.0,107822.0,353.0,-149.0
2026-04-09 22:16:13.669640,303403,1903667455,1903668532,-0.544608,0.796416,0.062464,112.945,-147.39375,-60.2525,-6.704001,-26.528002,14.704,inter_set_rest,5,5.0,42479.0,365541.0,107822.0,353.0,-149.0
2026-04-09 22:16:13.701751,303404,1903676385,1903677224,-0.544608,0.796416,0.062464,111.11625,-145.31125,-66.027504,-6.704001,-26.528002,14.704,inter_set_rest,5,5.0,42479.0,365541.0,107822.0,353.0,-149.0
2026-04-09 22:16:13.709884,303405,1903685294,1903685926,-0.523136,0.813984,0.02928,106.225,-139.755,-71.933754,-5.472,-25.664001,12.984,inter_set_rest,5,5.0,42479.0,365541.0,107822.0,353.0,-149.0
2026-04-09 22:16:13.711621,303406,1903700122,1903700956,-0.523136,0.813984,0.037088,97.90375,-133.245,-77.93625,-5.472,-25.664001,12.984,inter_set_rest,5,5.0,42479.0,365541.0,107822.0,353.0,-149.0
2026-04-09 22:16:13.713885,303407,1903709046,1903709688,-0.489952,0.796416,0.037088,87.4125,-125.4925,-83.37,-3.432,-24.968,11.280001,inter_set_rest,5,5.0,42479.0,365541.0,107822.0,353.0,-149.0
2026-04-09 22:16:13.748034,303408,1903718287,1903720517,-0.489952,0.796416,0.037088,75.5125,-116.375,-88.85625,-3.432,-24.968,11.280001,inter_set_rest,5,5.0,42479.0,365541.0,107822.0,353.0,-149.0
2026-04-09 22:16:13.774793,303418,1903733129,1903733516,-0.488,0.806176,0.03904,64.155,-107.26625,-94.28125,-1.696,-24.44,12.128,inter_set_rest,5,5.0,39052.0,390876.0,121747.0,2282.0,-143.0
2026-04-09 22:16:13.776536,303419,1903742606,1903744346,-0.530944,0.853024,0.003904,53.5675,-97.97375,-99.37375,-0.016,-24.656002,11.904,inter_set_rest,5,5.0,39052.0,390876.0,121747.0,2282.0,-143.0
2026-04-09 22:16:13.778296,303420,1903751550,1903753058,-0.530944,0.853024,0.003904,44.7825,-89.32875,-104.09875,-0.016,-24.656002,11.904,inter_set_rest,5,5.0,39052.0,390876.0,121747.0,2282.0,-143.0
2026-04-09 22:16:13.786134,303421,1903760472,1903761773,-0.530944,0.86864,-0.023424,34.36125,-81.97,-108.815,-0.016,-24.656002,11.904,inter_set_rest,5,5.0,39052.0,390876.0,121747.0,2282.0,-143.0
2026-04-09 22:16:13.787802,303422,1903775126,1903776776,-0.558272,0.864736,-0.023424,22.49625,-75.1275,-113.58375,1.104,-24.256,9.704,inter_set_rest,5,5.0,39052.0,390876.0,121747.0,2282.0,-143.0
2026-04-09 22:16:13.789355,303423,1903784145,1903785486,-0.612928,0.8784,-0.064416,10.5875,-67.50625,-117.31125,2.408,-24.208002,12.6,inter_set_rest,5,5.0,39052.0,390876.0,121747.0,2282.0,-143.0
2026-04-09 22:16:13.795136,303424,1903793084,1903794176,-0.612928,0.8784,-0.064416,0.02625,-60.585,-119.95375,2.408,-24.208002,12.6,inter_set_rest,5,5.0,39052.0,390876.0,121747.0,2282.0,-143.0
2026-04-09 22:16:13.831646,303425,1903807566,1903809073,-0.708576,0.913536,-0.119072,-12.5825,-54.7225,-123.47125,1.912,-23.768002,16.248001,inter_set_rest,5,5.0,39052.0,390876.0,121747.0,2282.0,-143.0
2026-04-09 22:16:13.833858,303426,1903816520,1903817803,-0.708576,0.913536,-0.119072,-24.29,-49.72625,-128.2925,1.912,-23.768002,16.248001,inter_set_rest,5,5.0,39052.0,390876.0,121747.0,2282.0,-143.0
2026-04-09 22:16:13.838630,303427,1903825421,1903826516,-0.856928,0.976,-0.138592,-32.83,-45.955,-133.6825,3.304,-24.072,16.232,inter_set_rest,5,5.0,39052.0,390876.0,121747.0,2282.0,-143.0
2026-04-09 22:16:13.862753,303437,1903834329,1903835257,-0.856928,0.976,-0.138592,-39.92625,-43.77625,-139.11626,3.304,-24.072,16.232,inter_set_rest,5,5.0,37548.0,403431.0,133391.0,5983.0,-142.0
2026-04-09 22:16:13.864297,303438,1903848881,1903850281,-0.958432,0.960384,-0.128832,-49.0875,-41.48375,-144.55,4.576,-23.36,14.784,inter_set_rest,5,5.0,37548.0,403431.0,133391.0,5983.0,-142.0
2026-04-09 22:16:13.868508,303439,1903857813,1903859035,-0.958432,0.960384,-0.128832,-58.415,-39.725,-148.21625,4.576,-23.36,14.784,inter_set_rest,5,5.0,37548.0,403431.0,133391.0,5983.0,-142.0
2026-04-09 22:16:13.870989,303440,1903866689,1903867789,-0.987712,0.884256,-0.121024,-65.89625,-39.12125,-149.1525,6.216,-23.76,15.344001,inter_set_rest,5,5.0,37548.0,403431.0,133391.0,5983.0,-142.0
2026-04-09 22:16:13.919617,303441,1903881176,1903882713,-0.95648,0.796416,-0.0976,-67.4975,-38.31625,-145.59125,6.216,-23.76,17.392,inter_set_rest,5,5.0,37548.0,403431.0,133391.0,5983.0,-142.0
2026-04-09 22:16:13.923146,303442,1903890123,1903891457,-0.964288,0.796416,-0.0976,-65.065,-37.17875,-139.06375,7.440001,-23.28,16.408,inter_set_rest,5,5.0,37548.0,403431.0,133391.0,5983.0,-142.0
2026-04-09 22:16:13.925597,303443,1903899045,1903900194,-0.964288,0.796416,-0.0976,-58.96625,-36.33875,-129.86751,7.440001,-23.28,16.408,inter_set_rest,5,5.0,37548.0,403431.0,133391.0,5983.0,-142.0
2026-04-09 22:16:13.928030,303444,1903913507,1903915094,-0.981856,0.730048,-0.062464,-51.17875,-35.30625,-117.46,7.168,-22.976002,17.560001,inter_set_rest,5,5.0,37548.0,403431.0,133391.0,5983.0,-142.0
2026-04-09 22:16:13.933078,303445,1903922445,1903923763,-1.03456,0.675392,-0.056608,-43.855,-34.93,-104.965004,7.904,-23.000002,17.192001,inter_set_rest,5,5.0,37548.0,403431.0,133391.0,5983.0,-142.0
2026-04-09 22:16:13.960735,303456,1903931925,1903932610,-1.03456,0.675392,-0.056608,-34.6325,-35.98875,-93.10875,7.904,-23.000002,17.192001,inter_set_rest,5,5.0,37759.0,403431.0,137014.0,7514.0,-140.0
2026-04-09 22:16:13.966876,303457,1903941243,1903943412,-1.03456,0.630496,-0.081984,-23.5025,-36.995,-83.545,7.904,-23.000002,17.192001,inter_set_rest,5,5.0,37759.0,403431.0,137014.0,7514.0,-140.0
2026-04-09 22:16:13.969234,303458,1903955806,1903956284,-1.077504,0.630496,-0.081984,-10.99875,-40.11875,-76.67625,10.368,-22.392,16.384,inter_set_rest,5,5.0,37759.0,403431.0,137014.0,7514.0,-140.0
2026-04-09 22:16:13.970743,303459,1903965186,1903967094,-1.0736,0.593408,-0.0976,1.12875,-44.17875,-72.371254,10.176001,-22.648,17.272001,inter_set_rest,5,5.0,37759.0,403431.0,137014.0,7514.0,-140.0
2026-04-09 22:16:13.975589,303460,1903974101,1903975795,-1.0736,0.593408,-0.0976,13.02875,-46.97,-69.15125,10.176001,-22.648,17.272001,inter_set_rest,5,5.0,37759.0,403431.0,137014.0,7514.0,-140.0
2026-04-09 22:16:14.008281,303461,1903988565,1903990699,-1.048224,0.558272,-0.10736,24.57,-48.50125,-67.0075,10.88,-22.216002,17.304,inter_set_rest,5,5.0,37759.0,403431.0,137014.0,7514.0,-140.0
2026-04-09 22:16:14.011833,303462,1903997472,1903999365,-1.048224,0.558272,-0.10736,36.54875,-49.4025,-65.70375,10.88,-22.216002,17.304,inter_set_rest,5,5.0,37759.0,403431.0,137014.0,7514.0,-140.0
2026-04-09 22:16:14.014322,303463,1904006379,1904008094,-1.009184,0.5368,-0.08784,48.36125,-49.2975,-64.645,10.456,-21.648,19.136002,inter_set_rest,5,5.0,37759.0,403431.0,137014.0,7514.0,-140.0
2026-04-09 22:16:14.016844,303464,1904015331,1904016814,-1.009184,0.5368,-0.08784,57.79375,-48.4575,-63.91875,10.456,-21.648,19.136002,inter_set_rest,5,5.0,37759.0,403431.0,137014.0,7514.0,-140.0
2026-04-09 22:16:14.073517,303474,1904030280,1904031894,-0.970144,0.511424,-0.074176,63.00875,-46.3925,-63.245,13.120001,-20.656,16.744001,inter_set_rest,5,5.0,37845.0,403431.0,138634.0,8373.0,-137.0
2026-04-09 22:16:14.075593,303475,1904039234,1904040663,-0.970144,0.511424,-0.074176,64.18125,-43.39125,-61.53875,13.120001,-20.656,16.744001,inter_set_rest,5,5.0,37845.0,403431.0,138634.0,8373.0,-137.0
2026-04-09 22:16:14.078079,303476,1904048151,1904049457,-0.94672,0.472384,-0.080032,64.5225,-39.725,-60.025,13.696001,-20.352001,16.584002,inter_set_rest,5,5.0,37845.0,403431.0,138634.0,8373.0,-137.0
2026-04-09 22:16:14.084306,303477,1904062747,1904064501,-0.90768,0.4392,-0.08784,63.6475,-34.22125,-59.19375,13.440001,-19.880001,17.504002,inter_set_rest,5,5.0,37845.0,403431.0,138634.0,8373.0,-137.0
2026-04-09 22:16:14.086883,303478,1904071779,1904073218,-0.90768,0.4392,-0.08784,61.9325,-28.53375,-58.89625,13.440001,-19.880001,17.504002,inter_set_rest,5,5.0,37845.0,403431.0,138634.0,8373.0,-137.0
2026-04-09 22:16:14.089293,303479,1904080789,1904081920,-0.90768,0.4392,-0.08784,59.15,-22.505,-58.19625,13.440001,-19.880001,17.504002,inter_set_rest,5,5.0,37845.0,403431.0,138634.0,8373.0,-137.0
2026-04-09 22:16:14.091821,303480,1904089717,1904090738,-0.882304,0.421632,-0.091744,54.83625,-16.1175,-58.17875,13.392,-19.304,18.048,inter_set_rest,5,5.0,37845.0,403431.0,138634.0,8373.0,-137.0
2026-04-09 22:16:14.122450,303481,1904104241,1904105653,-0.929152,0.411872,-0.093696,48.107502,-9.68625,-58.02125,14.104001,-18.768002,17.272001,inter_set_rest,5,5.0,37845.0,403431.0,138634.0,8373.0,-137.0
2026-04-09 22:16:14.125845,303482,1904113143,1904114348,-0.929152,0.411872,-0.093696,40.29375,-3.70125,-58.05625,14.104001,-18.768002,17.272001,inter_set_rest,5,5.0,37845.0,403431.0,138634.0,8373.0,-137.0
2026-04-09 22:16:14.129163,303483,1904122070,1904123054,-0.929152,0.398208,-0.105408,30.5375,1.3125,-57.86375,14.104001,-18.768002,17.272001,inter_set_rest,5,5.0,37845.0,403431.0,138634.0,8373.0,-137.0
2026-04-09 22:16:14.153984,303493,1904136681,1904138042,-1.00528,0.398208,-0.105408,19.9325,4.83,-57.505,13.568001,-18.648,21.576,inter_set_rest,5,5.0,37673.0,403431.0,138852.0,8591.0,-138.0
2026-04-09 22:16:14.155658,303494,1904145622,1904146794,-1.079456,0.36112,-0.13664,9.7125,6.90375,-56.74375,13.184001,-18.272001,17.216002,inter_set_rest,5,5.0,37673.0,403431.0,138852.0,8591.0,-138.0
2026-04-09 22:16:14.159678,303495,1904154604,1904155530,-1.079456,0.36112,-0.13664,0.04375,7.4025,-55.88625,13.184001,-18.272001,17.216002,inter_set_rest,5,5.0,37673.0,403431.0,138852.0,8591.0,-138.0
2026-04-09 22:16:14.219251,303496,1904169132,1904170455,-1.106784,0.304512,-0.15616,-6.335,7.4375,-54.22375,14.232,-17.872002,17.376001,inter_set_rest,5,5.0,37673.0,403431.0,138852.0,8591.0,-138.0
2026-04-09 22:16:14.221475,303497,1904178096,1904179135,-1.106784,0.304512,-0.15616,-7.315,5.60875,-52.28125,14.232,-17.872002,17.376001,inter_set_rest,5,5.0,37673.0,403431.0,138852.0,8591.0,-138.0
2026-04-09 22:16:14.226053,303498,1904187022,1904187837,-1.106784,0.271328,-0.160064,-3.50875,4.64625,-50.0325,13.208,-17.560001,19.416,inter_set_rest,5,5.0,37673.0,403431.0,138852.0,8591.0,-138.0
2026-04-09 22:16:14.227826,303499,1904201509,1904202743,-1.106784,0.271328,-0.160064,2.7475,3.56125,-47.6175,13.208,-17.560001,19.416,inter_set_rest,5,5.0,37673.0,403431.0,138852.0,8591.0,-138.0
2026-04-09 22:16:14.229282,303500,1904210382,1904211471,-1.097024,0.249856,-0.142496,10.78,2.33625,-43.93375,13.360001,-17.808,15.56,inter_set_rest,5,5.0,37673.0,403431.0,138852.0,8591.0,-138.0
2026-04-09 22:16:14.233588,303501,1904219302,1904220193,-1.097024,0.249856,-0.142496,19.11875,1.61875,-39.357502,13.360001,-17.808,15.56,inter_set_rest,5,5.0,37673.0,403431.0,138852.0,8591.0,-138.0
2026-04-09 22:16:14.235353,303502,1904228271,1904228941,-1.0736,0.249856,-0.119072,27.195,0.4375,-34.41375,13.296001,-17.448,17.952002,inter_set_rest,5,5.0,37673.0,403431.0,138852.0,8591.0,-138.0
2026-04-09 22:16:14.266742,303513,1904243279,1904243978,-1.036512,0.27328,-0.10736,34.825,-0.18375,-30.30125,15.472001,-16.536001,18.952002,inter_set_rest,5,5.0,38095.0,403431.0,139786.0,8946.0,-153.0
2026-04-09 22:16:14.268459,303514,1904252657,1904254831,-1.036512,0.27328,-0.10736,42.2275,-0.4725,-26.45125,15.472001,-16.536001,18.952002,inter_set_rest,5,5.0,38095.0,403431.0,139786.0,8946.0,-153.0
2026-04-09 22:16:14.272354,303515,1904261610,1904263548,-1.036512,0.27328,-0.10736,48.6675,-0.1575,-23.905,15.472001,-16.536001,18.952002,inter_set_rest,5,5.0,38095.0,403431.0,139786.0,8946.0,-153.0
2026-04-09 22:16:14.274786,303516,1904271385,1904272359,-1.0248,0.300608,-0.083936,51.1175,0.58625,-22.95125,15.440001,-17.176,15.272,inter_set_rest,5,5.0,38095.0,403431.0,139786.0,8946.0,-153.0
2026-04-09 22:16:14.304446,303517,1904285913,1904287281,-0.993568,0.314272,-0.074176,49.76125,0.49,-22.785,15.496,-16.616001,16.256,inter_set_rest,5,5.0,38095.0,403431.0,139786.0,8946.0,-153.0
2026-04-09 22:16:14.309784,303518,1904294822,1904295978,-0.993568,0.314272,-0.074176,46.22625,1.1025,-23.23125,15.496,-16.616001,16.256,inter_set_rest,5,5.0,38095.0,403431.0,139786.0,8946.0,-153.0
2026-04-09 22:16:14.311346,303519,1904303754,1904304701,-0.962336,0.314272,-0.076128,42.00875,2.00375,-24.36875,15.992001,-15.568001,15.800001,inter_set_rest,5,5.0,38095.0,403431.0,139786.0,8946.0,-153.0
2026-04-09 22:16:14.341574,303520,1904318290,1904319690,-0.962336,0.314272,-0.076128,36.67125,2.10875,-25.13,15.992001,-15.568001,15.800001,inter_set_rest,5,5.0,38095.0,403431.0,139786.0,8946.0,-153.0
2026-04-09 22:16:14.346146,303521,1904327200,1904328384,-0.960384,0.314272,-0.072224,30.5025,2.6075,-26.897501,16.304,-15.736001,15.888001,inter_set_rest,5,5.0,38095.0,403431.0,139786.0,8946.0,-153.0
2026-04-09 22:16:14.371032,303531,1904336235,1904337141,-0.960384,0.314272,-0.072224,24.99,3.57875,-29.18125,16.304,-15.736001,15.888001,inter_set_rest,5,5.0,38061.0,403431.0,140169.0,9227.0,-138.0
2026-04-09 22:16:14.372808,303532,1904350767,1904352046,-0.96624,0.33184,-0.0488,20.195,4.34875,-32.97875,16.264,-16.08,18.232,inter_set_rest,5,5.0,38061.0,403431.0,140169.0,9227.0,-138.0
2026-04-09 22:16:14.374443,303533,1904359803,1904360847,-0.96624,0.33184,-0.0488,15.505,5.95,-36.77625,16.264,-16.08,18.232,inter_set_rest,5,5.0,38061.0,403431.0,140169.0,9227.0,-138.0
2026-04-09 22:16:14.378563,303534,1904368845,1904369631,-0.997472,0.35136,-0.027328,10.9375,8.085,-40.3375,15.952001,-15.088,17.104,inter_set_rest,5,5.0,38061.0,403431.0,140169.0,9227.0,-138.0
2026-04-09 22:16:14.380093,303535,1904377822,1904378352,-0.997472,0.35136,-0.027328,5.88,10.0275,-44.388752,15.952001,-15.088,17.104,inter_set_rest,5,5.0,38061.0,403431.0,140169.0,9227.0,-138.0
2026-04-09 22:16:14.410359,303536,1904392806,1904393286,-1.05408,0.368928,-0.003904,1.53125,11.68125,-48.615,15.512001,-15.112,18.448,inter_set_rest,5,5.0,38061.0,403431.0,140169.0,9227.0,-138.0
2026-04-09 22:16:14.414825,303537,1904402188,1904404056,-1.05408,0.368928,-0.003904,-2.40625,13.83375,-51.59,15.512001,-15.112,18.448,inter_set_rest,5,5.0,38061.0,403431.0,140169.0,9227.0,-138.0
2026-04-09 22:16:14.417266,303538,1904411190,1904412764,-1.134112,0.382592,0.02928,-6.5275,14.91,-54.27625,16.560001,-14.880001,16.456001,inter_set_rest,5,5.0,38061.0,403431.0,140169.0,9227.0,-138.0
2026-04-09 22:16:14.421330,303539,1904420119,1904421476,-1.134112,0.382592,0.02928,-10.815,16.5725,-56.53375,16.560001,-14.880001,16.456001,inter_set_rest,5,5.0,38061.0,403431.0,140169.0,9227.0,-138.0
2026-04-09 22:16:14.474466,303549,1904435245,1904436478,-1.251232,0.388448,0.064416,-16.44125,17.36,-57.89875,16.592001,-14.744,15.888001,inter_set_rest,5,5.0,38379.0,403431.0,143498.0,10867.0,-133.0
2026-04-09 22:16:14.478590,303550,1904444177,1904445219,-1.24928,0.363072,0.066368,-22.46125,16.7125,-57.697502,17.04,-14.080001,16.584002,inter_set_rest,5,5.0,38379.0,403431.0,143498.0,10867.0,-133.0
2026-04-09 22:16:14.480298,303551,1904453133,1904453920,-1.24928,0.363072,0.066368,-27.991251,15.82,-56.06125,17.04,-14.080001,16.584002,inter_set_rest,5,5.0,38379.0,403431.0,143498.0,10867.0,-133.0
2026-04-09 22:16:14.481981,303552,1904467744,1904468995,-1.145824,0.349408,0.060512,-32.10375,15.4875,-51.03,15.320001,-13.784,17.048,inter_set_rest,5,5.0,38379.0,403431.0,143498.0,10867.0,-133.0
2026-04-09 22:16:14.486130,303553,1904476690,1904477755,-1.145824,0.349408,0.060512,-34.57125,16.2925,-43.6625,15.320001,-13.784,17.048,inter_set_rest,5,5.0,38379.0,403431.0,143498.0,10867.0,-133.0
2026-04-09 22:16:14.489411,303554,1904485647,1904486538,-1.032608,0.308416,0.064416,-35.74375,16.91375,-35.175,16.248001,-14.288001,17.224,inter_set_rest,5,5.0,38379.0,403431.0,143498.0,10867.0,-133.0
2026-04-09 22:16:14.522973,303555,1904494608,1904495287,-1.032608,0.308416,0.064416,-35.63,17.61375,-25.34875,16.248001,-14.288001,17.224,inter_set_rest,5,5.0,38379.0,403431.0,143498.0,10867.0,-133.0
2026-04-09 22:16:14.527331,303556,1904509433,1904510209,-0.96624,0.236192,0.066368,-36.39125,18.48875,-14.2625,16.968,-14.424001,16.048,inter_set_rest,5,5.0,38379.0,403431.0,143498.0,10867.0,-133.0
2026-04-09 22:16:14.529009,303557,1904518946,1904520988,-0.96624,0.236192,0.066368,-36.91625,18.78625,-3.6225,16.968,-14.424001,16.048,inter_set_rest,5,5.0,38379.0,403431.0,143498.0,10867.0,-133.0
2026-04-09 22:16:14.530768,303558,1904527854,1904529672,-0.935008,0.222528,0.05856,-34.0375,18.47125,7.37625,16.496,-14.968,15.728001,inter_set_rest,5,5.0,38379.0,403431.0,143498.0,10867.0,-133.0
2026-04-09 22:16:14.561897,303569,1904542609,1904543077,-0.935008,0.222528,0.05856,-26.95,18.0775,18.4975,16.496,-14.968,15.728001,inter_set_rest,5,5.0,38673.0,403431.0,145963.0,12301.0,-145.0
2026-04-09 22:16:14.569820,303570,1904552096,1904553878,-0.909632,0.257664,0.0488,-20.265,16.77375,26.5825,16.512001,-15.080001,18.168001,inter_set_rest,5,5.0,38673.0,403431.0,145963.0,12301.0,-145.0
2026-04-09 22:16:14.571499,303571,1904561073,1904562659,-0.909632,0.257664,0.0488,-14.4725,15.09375,31.325,16.512001,-15.080001,18.168001,inter_set_rest,5,5.0,38673.0,403431.0,145963.0,12301.0,-145.0
2026-04-09 22:16:14.573139,303572,1904569995,1904571416,-0.933056,0.275232,0.03904,-10.325,13.32625,34.107502,15.544001,-15.192,16.624,inter_set_rest,5,5.0,38673.0,403431.0,145963.0,12301.0,-145.0
2026-04-09 22:16:14.604949,303573,1904584593,1904586366,-0.931104,0.28304,0.003904,-5.74875,10.24625,35.16625,15.480001,-15.728001,15.472001,inter_set_rest,5,5.0,38673.0,403431.0,145963.0,12301.0,-145.0
2026-04-09 22:16:14.606812,303574,1904593540,1904595062,-0.931104,0.28304,0.003904,-1.12,6.78125,34.65875,15.480001,-15.728001,15.472001,inter_set_rest,5,5.0,38673.0,403431.0,145963.0,12301.0,-145.0
2026-04-09 22:16:14.610232,303575,1904602471,1904603771,-0.931104,0.28304,0.003904,2.59875,2.63375,33.31125,15.480001,-15.728001,15.472001,inter_set_rest,5,5.0,38673.0,403431.0,145963.0,12301.0,-145.0
2026-04-09 22:16:14.640499,303576,1904616996,1904618682,-0.911584,0.281088,-0.02928,6.8425,-1.47,32.4275,16.480001,-15.456,16.416,inter_set_rest,5,5.0,38673.0,403431.0,145963.0,12301.0,-145.0
2026-04-09 22:16:14.642706,303577,1904625942,1904627414,-0.91744,0.259616,-0.054656,11.29625,-5.01375,30.12625,16.2,-16.072,15.840001,inter_set_rest,5,5.0,38673.0,403431.0,145963.0,12301.0,-145.0
2026-04-09 22:16:14.668130,303587,1904634964,1904636192,-0.91744,0.259616,-0.054656,17.3775,-7.9275,28.18375,16.2,-16.072,15.840001,inter_set_rest,5,5.0,38758.0,403431.0,143996.0,11154.0,-135.0
2026-04-09 22:16:14.672360,303588,1904643851,1904644941,-0.91744,0.259616,-0.081984,24.3075,-10.6575,26.355,16.2,-16.072,15.840001,inter_set_rest,5,5.0,38758.0,403431.0,143996.0,11154.0,-135.0
2026-04-09 22:16:14.674072,303589,1904658327,1904659826,-0.948672,0.23424,-0.081984,32.2875,-12.90625,25.27875,16.096,-16.368,18.192001,inter_set_rest,5,5.0,38758.0,403431.0,143996.0,11154.0,-135.0
2026-04-09 22:16:14.675626,303590,1904667336,1904668572,-0.981856,0.216672,-0.115168,42.00875,-14.323751,24.9025,15.720001,-15.848001,17.688002,inter_set_rest,5,5.0,38758.0,403431.0,143996.0,11154.0,-135.0
2026-04-09 22:16:14.680000,303591,1904676233,1904677314,-0.981856,0.216672,-0.115168,51.4325,-15.91625,24.98125,15.720001,-15.848001,17.688002,inter_set_rest,5,5.0,38758.0,403431.0,143996.0,11154.0,-135.0
2026-04-09 22:16:14.710541,303592,1904690695,1904692206,-1.018944,0.210816,-0.148352,60.2875,-16.0475,25.55,15.672001,-16.088001,17.992,inter_set_rest,5,5.0,38758.0,403431.0,143996.0,11154.0,-135.0
2026-04-09 22:16:14.713248,303593,1904699608,1904700931,-1.018944,0.210816,-0.148352,69.2475,-15.435,25.64625,15.672001,-16.088001,17.992,inter_set_rest,5,5.0,38758.0,403431.0,143996.0,11154.0,-135.0
2026-04-09 22:16:14.716408,303594,1904708530,1904709617,-1.079456,0.244,-0.169824,77.3325,-13.7025,25.8825,16.488,-15.696001,16.08,inter_set_rest,5,5.0,38758.0,403431.0,143996.0,11154.0,-135.0
2026-04-09 22:16:14.746768,303595,1904723022,1904724522,-1.079456,0.244,-0.169824,84.6125,-10.85,25.0775,16.488,-15.696001,16.08,inter_set_rest,5,5.0,38758.0,403431.0,143996.0,11154.0,-135.0
2026-04-09 22:16:14.771870,303605,1904731975,1904733816,-1.14192,0.28304,-0.173728,89.3725,-7.41125,22.3125,15.472001,-15.448001,15.424001,inter_set_rest,5,5.0,38495.0,403431.0,144251.0,11470.0,-130.0
2026-04-09 22:16:14.776073,303606,1904740906,1904742537,-1.14192,0.28304,-0.173728,90.5975,-4.6025,18.33125,15.472001,-15.448001,15.424001,inter_set_rest,5,5.0,38495.0,403431.0,144251.0,11470.0,-130.0
2026-04-09 22:16:14.777805,303607,1904755428,1904757455,-1.182912,0.304512,-0.16592,87.57875,-1.46125,13.09,16.256,-14.808001,15.52,inter_set_rest,5,5.0,38495.0,403431.0,144251.0,11470.0,-130.0
2026-04-09 22:16:14.779357,303608,1904764362,1904766230,-1.182912,0.304512,-0.167872,80.5525,2.28375,7.0175,16.256,-14.808001,15.52,inter_set_rest,5,5.0,38495.0,403431.0,144251.0,11470.0,-130.0
2026-04-09 22:16:14.783591,303609,1904773287,1904775006,-1.159488,0.30256,-0.167872,70.95375,5.38125,1.96,16.544,-14.464001,13.192,inter_set_rest,5,5.0,38495.0,403431.0,144251.0,11470.0,-130.0
2026-04-09 22:16:14.785233,303610,1904782261,1904783745,-1.159488,0.30256,-0.167872,59.31625,8.35625,-2.555,16.544,-14.464001,13.192,inter_set_rest,5,5.0,38495.0,403431.0,144251.0,11470.0,-130.0
2026-04-09 22:16:14.822055,303611,1904796758,1904798682,-1.145824,0.296704,-0.179584,46.8825,12.81875,-6.04625,16.128,-14.200001,14.544001,inter_set_rest,5,5.0,38495.0,403431.0,144251.0,11470.0,-130.0
2026-04-09 22:16:14.825602,303612,1904805649,1904807365,-1.16144,0.28304,-0.183488,32.9875,16.397501,-8.785,16.296001,-14.040001,15.152,inter_set_rest,5,5.0,38495.0,403431.0,144251.0,11470.0,-130.0
2026-04-09 22:16:14.828198,303613,1904814575,1904816055,-1.16144,0.28304,-0.183488,18.57625,20.8075,-10.9725,16.296001,-14.040001,15.152,inter_set_rest,5,5.0,38495.0,403431.0,144251.0,11470.0,-130.0
2026-04-09 22:16:14.830552,303614,1904829042,1904830950,-1.159488,0.28304,-0.167872,3.63125,25.025,-12.775,16.376001,-14.360001,14.736001,inter_set_rest,5,5.0,38495.0,403431.0,144251.0,11470.0,-130.0
2026-04-09 22:16:14.860536,303624,1904838070,1904839739,-1.159488,0.28304,-0.167872,-10.24625,29.33875,-14.4375,16.376001,-14.360001,14.736001,inter_set_rest,5,5.0,38120.0,403431.0,146939.0,13351.0,-147.0
2026-04-09 22:16:14.863098,303625,1904847053,1904848507,-1.136064,0.25376,-0.150304,-23.2225,33.95875,-16.625,16.488,-14.336,15.632001,inter_set_rest,5,5.0,38120.0,403431.0,146939.0,13351.0,-147.0
2026-04-09 22:16:14.868048,303626,1904861585,1904863492,-1.136064,0.25376,-0.150304,-33.52125,38.255,-19.7575,16.488,-14.336,15.632001,inter_set_rest,5,5.0,38120.0,403431.0,146939.0,13351.0,-147.0
2026-04-09 22:16:14.871869,303627,1904870504,1904872195,-1.145824,0.257664,-0.122976,-41.44875,42.4375,-22.51375,15.136001,-14.112,14.912001,inter_set_rest,5,5.0,38120.0,403431.0,146939.0,13351.0,-147.0
2026-04-09 22:16:14.902050,303628,1904879454,1904880885,-1.145824,0.257664,-0.122976,-48.0375,45.745,-25.06875,15.136001,-14.112,14.912001,inter_set_rest,5,5.0,38120.0,403431.0,146939.0,13351.0,-147.0
2026-04-09 22:16:14.905592,303629,1904893933,1904895853,-1.145824,0.27328,-0.0976,-52.7275,48.685,-27.125,15.744,-14.336,13.68,inter_set_rest,5,5.0,38120.0,403431.0,146939.0,13351.0,-147.0
2026-04-09 22:16:14.908063,303630,1904902830,1904904545,-1.145824,0.27328,-0.0976,-59.395,50.74125,-28.98,15.744,-14.336,13.68,inter_set_rest,5,5.0,38120.0,403431.0,146939.0,13351.0,-147.0
2026-04-09 22:16:14.913088,303631,1904911784,1904913236,-1.13216,0.290848,-0.070272,-66.6575,52.64875,-29.56625,15.024001,-14.304001,13.896001,inter_set_rest,5,5.0,38120.0,403431.0,146939.0,13351.0,-147.0
2026-04-09 22:16:14.943246,303632,1904920795,1904921974,-1.13216,0.290848,-0.070272,-73.57875,54.4775,-29.68875,15.024001,-14.304001,13.896001,inter_set_rest,5,5.0,38120.0,403431.0,146939.0,13351.0,-147.0
2026-04-09 22:16:14.980622,303643,1904935731,1904937083,-1.139968,0.306464,-0.042944,-79.09125,54.88,-29.46125,15.216001,-14.936001,13.864,inter_set_rest,5,5.0,38353.0,403431.0,148829.0,14345.0,-133.0
2026-04-09 22:16:14.983139,303644,1904944785,1904945791,-1.139968,0.306464,-0.042944,-85.68,55.16,-30.12625,15.216001,-14.936001,13.864,inter_set_rest,5,5.0,38353.0,403431.0,148829.0,14345.0,-133.0
2026-04-09 22:16:14.985567,303645,1904953752,1904954504,-1.155584,0.325984,-0.013664,-92.79375,54.76625,-29.04125,15.512001,-15.52,11.528001,inter_set_rest,5,5.0,38353.0,403431.0,148829.0,14345.0,-133.0
2026-04-09 22:16:14.988114,303646,1904968740,1904969443,-1.116544,0.298656,-0.013664,-99.3475,53.41,-26.1625,14.896001,-16.84,13.568001,inter_set_rest,5,5.0,38353.0,403431.0,148829.0,14345.0,-133.0
2026-04-09 22:16:14.990580,303647,1904978067,1904980279,-1.116544,0.298656,-0.013664,-106.1375,51.30125,-22.61875,14.896001,-16.84,13.568001,inter_set_rest,5,5.0,38353.0,403431.0,148829.0,14345.0,-133.0
2026-04-09 22:16:14.993103,303648,1904987002,1904989034,-1.075552,0.249856,-0.037088,-112.6125,48.5625,-18.33125,14.736001,-17.032001,13.352,inter_set_rest,5,5.0,38353.0,403431.0,148829.0,14345.0,-133.0
2026-04-09 22:16:14.996832,303649,1904995988,1904997746,-1.075552,0.249856,-0.037088,-115.89375,45.82375,-13.27375,14.736001,-17.032001,13.352,inter_set_rest,5,5.0,38353.0,403431.0,148829.0,14345.0,-133.0
2026-04-09 22:16:15.026974,303650,1905010501,1905012653,-1.052128,0.238144,-0.031232,-114.625,41.58875,-7.51625,14.608001,-17.632,15.032001,inter_set_rest,5,5.0,38353.0,403431.0,148829.0,14345.0,-133.0
2026-04-09 22:16:15.030564,303651,1905019417,1905021374,-1.052128,0.238144,-0.031232,-109.57625,37.65125,-2.3975,14.608001,-17.632,15.032001,inter_set_rest,5,5.0,38353.0,403431.0,148829.0,14345.0,-133.0
2026-04-09 22:16:15.033086,303652,1905028345,1905030109,-1.061888,0.242048,-0.031232,-103.3025,32.6025,2.17875,14.344001,-17.824001,14.088,inter_set_rest,5,5.0,38353.0,403431.0,148829.0,14345.0,-133.0
2026-04-09 22:16:15.060600,303662,1905042892,1905045119,-1.061888,0.242048,-0.031232,-95.78625,26.20625,4.8475,14.344001,-17.824001,14.088,inter_set_rest,5,5.0,38621.0,403431.0,149575.0,14869.0,-143.0
2026-04-09 22:16:15.063049,303663,1905051859,1905053821,-1.057984,0.23424,-0.027328,-87.7275,19.1275,6.43125,13.784,-18.152,14.104001,inter_set_rest,5,5.0,38621.0,403431.0,149575.0,14869.0,-143.0
2026-04-09 22:16:15.065552,303664,1905060789,1905062603,-1.057984,0.23424,-0.027328,-77.4375,11.34,6.71125,13.784,-18.152,14.104001,inter_set_rest,5,5.0,38621.0,403431.0,149575.0,14869.0,-143.0
2026-04-09 22:16:15.127050,303665,1905075316,1905077578,-1.077504,0.242048,-0.027328,-65.42375,3.605,5.9325,14.088,-18.568,14.216001,inter_set_rest,5,5.0,38621.0,403431.0,149575.0,14869.0,-143.0
2026-04-09 22:16:15.130732,303666,1905084229,1905086273,-1.077504,0.242048,-0.027328,-52.1675,-4.27,4.48875,14.088,-18.568,14.216001,inter_set_rest,5,5.0,38621.0,403431.0,149575.0,14869.0,-143.0
2026-04-09 22:16:15.133062,303667,1905093139,1905094968,-1.09312,0.27328,-0.033184,-38.75375,-12.845,2.37125,14.56,-18.856,14.864,inter_set_rest,5,5.0,38621.0,403431.0,149575.0,14869.0,-143.0
2026-04-09 22:16:15.135541,303668,1905102071,1905103662,-1.09312,0.27328,-0.033184,-26.495,-21.39375,1.61,14.56,-18.856,14.864,inter_set_rest,5,5.0,38621.0,403431.0,149575.0,14869.0,-143.0
2026-04-09 22:16:15.138081,303669,1905116537,1905118566,-1.09312,0.284992,-0.033184,-17.01,-29.37375,0.98875,14.952001,-19.264002,14.76,inter_set_rest,5,5.0,38621.0,403431.0,149575.0,14869.0,-143.0
2026-04-09 22:16:15.140530,303670,1905125440,1905127305,-1.09312,0.284992,-0.033184,-9.3625,-36.68875,1.93375,14.952001,-19.264002,14.76,inter_set_rest,5,5.0,38621.0,403431.0,149575.0,14869.0,-143.0
2026-04-09 22:16:15.165681,303680,1905134409,1905136028,-1.087264,0.281088,-0.054656,-2.05625,-42.84,3.52625,14.120001,-19.704,15.960001,inter_set_rest,5,5.0,38614.0,403431.0,149153.0,14681.0,-121.0
2026-04-09 22:16:15.169390,303681,1905148964,1905151020,-1.118496,0.281088,-0.064416,5.25875,-47.915,5.85375,14.488001,-19.320002,16.568,inter_set_rest,5,5.0,38614.0,403431.0,149153.0,14681.0,-121.0
2026-04-09 22:16:15.170554,303682,1905157924,1905159784,-1.118496,0.281088,-0.064416,11.6025,-52.4475,8.2425,14.488001,-19.320002,16.568,inter_set_rest,5,5.0,38614.0,403431.0,149153.0,14681.0,-121.0
2026-04-09 22:16:15.173135,303683,1905166985,1905168518,-1.1712,0.275232,-0.066368,19.355,-56.06125,11.71625,14.040001,-18.624,16.224,inter_set_rest,5,5.0,38614.0,403431.0,149153.0,14681.0,-121.0
2026-04-09 22:16:15.203329,303684,1905181543,1905183474,-1.1712,0.275232,-0.066368,27.1775,-58.3625,15.74125,14.040001,-18.624,16.224,inter_set_rest,5,5.0,38614.0,403431.0,149153.0,14681.0,-121.0
2026-04-09 22:16:15.206868,303685,1905190485,1905192169,-1.204384,0.247904,-0.06832,35.49,-60.17375,19.95875,14.768001,-18.944,15.336,inter_set_rest,5,5.0,38614.0,403431.0,149153.0,14681.0,-121.0
2026-04-09 22:16:15.209407,303686,1905199428,1905200915,-1.204384,0.247904,-0.06832,42.9275,-61.46,24.68375,14.768001,-18.944,15.336,inter_set_rest,5,5.0,38614.0,403431.0,149153.0,14681.0,-121.0
2026-04-09 22:16:15.211820,303687,1905208342,1905209593,-1.1712,0.210816,-0.066368,49.98875,-62.25625,28.91,14.712001,-18.616001,15.264001,inter_set_rest,5,5.0,38614.0,403431.0,149153.0,14681.0,-121.0
2026-04-09 22:16:15.244888,303688,1905222815,1905224541,-1.1712,0.210816,-0.066368,55.895,-60.6375,32.2175,14.712001,-18.616001,15.264001,inter_set_rest,5,5.0,38614.0,403431.0,149153.0,14681.0,-121.0
2026-04-09 22:16:15.248537,303689,1905231749,1905233244,-1.08336,0.179584,-0.0488,59.5525,-58.5025,34.57125,14.704,-19.28,15.864,inter_set_rest,5,5.0,38614.0,403431.0,149153.0,14681.0,-121.0
2026-04-09 22:16:15.275626,303700,1905240797,1905242041,-1.08336,0.179584,-0.0488,60.85625,-54.66125,35.69125,14.704,-19.28,15.864,inter_set_rest,5,5.0,38080.0,403431.0,151621.0,16751.0,-141.0
2026-04-09 22:16:15.278031,303701,1905255430,1905257106,-1.011136,0.169824,-0.021472,58.2225,-49.805,36.2775,14.904,-19.456001,15.68,inter_set_rest,5,5.0,38080.0,403431.0,151621.0,16751.0,-141.0
2026-04-09 22:16:15.280583,303702,1905264461,1905265872,-1.011136,0.169824,-0.021472,52.0975,-44.2925,36.30375,14.904,-19.456001,15.68,inter_set_rest,5,5.0,38080.0,403431.0,151621.0,16751.0,-141.0
2026-04-09 22:16:15.283084,303703,1905273530,1905274620,-0.958432,0.130784,-0.011712,40.888752,-39.20875,33.8625,13.400001,-19.672,16.720001,inter_set_rest,5,5.0,38080.0,403431.0,151621.0,16751.0,-141.0
2026-04-09 22:16:15.289301,303704,1905288123,1905289546,-0.977952,0.042944,-0.01952,25.47125,-34.475,30.00375,13.512001,-19.168001,17.928001,inter_set_rest,5,5.0,38080.0,403431.0,151621.0,16751.0,-141.0
2026-04-09 22:16:15.319468,303705,1905297073,1905298268,-0.977952,0.042944,-0.01952,7.8575,-31.185,24.03625,13.512001,-19.168001,17.928001,inter_set_rest,5,5.0,38080.0,403431.0,151621.0,16751.0,-141.0
2026-04-09 22:16:15.323057,303706,1905306018,1905306966,-0.977952,0.042944,-0.01952,-9.09125,-29.84625,15.435,13.512001,-19.168001,17.928001,inter_set_rest,5,5.0,38080.0,403431.0,151621.0,16751.0,-141.0
2026-04-09 22:16:15.325522,303707,1905314912,1905315671,-0.999424,-0.011712,-0.066368,-20.0725,-29.435,5.46875,14.200001,-19.28,16.536001,inter_set_rest,5,5.0,38080.0,403431.0,151621.0,16751.0,-141.0
2026-04-09 22:16:15.330539,303708,1905329943,1905330575,-0.993568,0.042944,-0.121024,-22.960001,-29.81125,-4.235,13.024,-19.424002,18.072,inter_set_rest,5,5.0,38080.0,403431.0,151621.0,16751.0,-141.0
2026-04-09 22:16:15.359319,303718,1905339669,1905341395,-0.993568,0.042944,-0.121024,-16.84375,-30.31,-14.58625,13.024,-19.424002,18.072,inter_set_rest,5,5.0,38126.0,403431.0,148204.0,14334.0,-147.0
2026-04-09 22:16:15.361868,303719,1905348633,1905350169,-1.013088,0.10736,-0.138592,-9.065,-29.3125,-26.39875,13.832001,-19.744001,16.008001,inter_set_rest,5,5.0,38126.0,403431.0,148204.0,14334.0,-147.0
2026-04-09 22:16:15.364326,303720,1905357596,1905358968,-1.013088,0.10736,-0.138592,-2.28375,-28.35875,-39.29625,13.832001,-19.744001,16.008001,inter_set_rest,5,5.0,38126.0,403431.0,148204.0,14334.0,-147.0
2026-04-09 22:16:15.435743,303721,1905372095,1905373873,-1.020896,0.130784,-0.074176,3.87625,-26.7575,-51.59,15.216001,-18.728,16.472,inter_set_rest,5,5.0,38126.0,403431.0,148204.0,14334.0,-147.0
2026-04-09 22:16:15.439327,303722,1905381122,1905382602,-1.020896,0.130784,-0.074176,10.10625,-24.07125,-61.7925,15.216001,-18.728,16.472,inter_set_rest,5,5.0,38126.0,403431.0,148204.0,14334.0,-147.0
2026-04-09 22:16:15.441758,303723,1905390059,1905391306,-1.040416,0.18544,-0.015616,15.5925,-22.05,-67.6725,15.664001,-18.624,16.016,inter_set_rest,5,5.0,38126.0,403431.0,148204.0,14334.0,-147.0
2026-04-09 22:16:15.444309,303724,1905404542,1905406234,-1.040416,0.18544,-0.015616,20.93875,-21.2275,-70.93625,15.664001,-18.624,16.016,inter_set_rest,5,5.0,38126.0,403431.0,148204.0,14334.0,-147.0
2026-04-09 22:16:15.446808,303725,1905413469,1905414917,-1.01504,0.26352,0.052704,25.8125,-19.7925,-72.8875,15.744,-17.712,16.328001,inter_set_rest,5,5.0,38126.0,403431.0,148204.0,14334.0,-147.0
2026-04-09 22:16:15.449334,303726,1905422400,1905423603,-1.01504,0.26352,0.052704,28.07,-18.48,-74.2875,15.744,-17.712,16.328001,inter_set_rest,5,5.0,38126.0,403431.0,148204.0,14334.0,-147.0
2026-04-09 22:16:15.474306,303736,1905436860,1905438521,-0.977952,0.316224,0.08784,26.53875,-16.3275,-75.81,15.784,-16.728,16.184,inter_set_rest,5,5.0,37687.0,403431.0,152357.0,17516.0,-129.0
2026-04-09 22:16:15.476801,303737,1905446359,1905447278,-0.977952,0.316224,0.08784,22.7325,-12.87125,-76.090004,15.784,-16.728,16.184,inter_set_rest,5,5.0,37687.0,403431.0,152357.0,17516.0,-129.0
2026-04-09 22:16:15.479314,303738,1905455354,1905456076,-0.96624,0.355264,0.13664,19.81875,-9.16125,-76.3175,15.792001,-16.208,18.880001,inter_set_rest,5,5.0,37687.0,403431.0,152357.0,17516.0,-129.0
2026-04-09 22:16:15.482112,303739,1905464773,1905466873,-0.96624,0.355264,0.13664,18.1825,-5.495,-76.04625,15.792001,-16.208,18.880001,inter_set_rest,5,5.0,37687.0,403431.0,152357.0,17516.0,-129.0
2026-04-09 22:16:15.484305,303740,1905479373,1905479748,-0.979904,0.3904,0.189344,16.8,-2.5725,-75.50375,15.672001,-15.592001,16.416,inter_set_rest,5,5.0,37687.0,403431.0,152357.0,17516.0,-129.0
2026-04-09 22:16:15.490573,303741,1905488637,1905490580,-0.989664,0.406016,0.240096,15.0325,-0.4025,-75.18,15.240001,-15.416,16.720001,inter_set_rest,5,5.0,37687.0,403431.0,152357.0,17516.0,-129.0
2026-04-09 22:16:15.498058,303742,1905497555,1905499343,-0.989664,0.406016,0.240096,13.29125,1.8725,-75.18,15.240001,-15.416,16.720001,inter_set_rest,5,5.0,37687.0,403431.0,152357.0,17516.0,-129.0
2026-04-09 22:16:15.528246,303743,1905512024,1905514242,-1.016992,0.417728,0.277184,12.1975,3.71,-74.24375,15.592001,-14.56,15.176001,inter_set_rest,5,5.0,37687.0,403431.0,152357.0,17516.0,-129.0
2026-04-09 22:16:15.531796,303744,1905520955,1905522940,-1.016992,0.417728,0.277184,11.3225,5.10125,-72.75625,15.592001,-14.56,15.176001,inter_set_rest,5,5.0,37687.0,403431.0,152357.0,17516.0,-129.0
2026-04-09 22:16:15.534285,303745,1905529858,1905531633,-1.042368,0.42944,0.306464,11.57625,6.01125,-71.63625,16.720001,-13.832001,16.400002,inter_set_rest,5,5.0,37687.0,403431.0,152357.0,17516.0,-129.0
2026-04-09 22:16:15.561781,303756,1905539192,1905540557,-1.042368,0.42944,0.306464,12.04,6.69375,-70.42,16.720001,-13.832001,16.400002,inter_set_rest,5,5.0,37699.0,403431.0,157521.0,21176.0,-114.0
2026-04-09 22:16:15.564419,303757,1905553802,1905555572,-1.03456,0.431392,0.318176,12.775,6.755,-68.7925,15.688001,-13.56,16.640001,inter_set_rest,5,5.0,37699.0,403431.0,157521.0,21176.0,-114.0
2026-04-09 22:16:15.567299,303758,1905562756,1905564321,-1.03456,0.431392,0.318176,12.845,5.95875,-67.2525,15.688001,-13.56,16.640001,inter_set_rest,5,5.0,37699.0,403431.0,157521.0,21176.0,-114.0
2026-04-09 22:16:15.573261,303759,1905571708,1905573056,-0.999424,0.423584,0.335744,11.61125,5.60875,-64.6275,16.112001,-12.856001,16.52,inter_set_rest,5,5.0,37699.0,403431.0,157521.0,21176.0,-114.0
2026-04-09 22:16:15.603287,303760,1905586277,1905588025,-0.999424,0.423584,0.335744,10.43,5.0925,-61.50375,16.112001,-12.856001,16.52,inter_set_rest,5,5.0,37699.0,403431.0,157521.0,21176.0,-114.0
2026-04-09 22:16:15.606904,303761,1905595213,1905596767,-0.968192,0.404064,0.335744,10.85,4.41,-58.40625,16.68,-13.088,15.464001,inter_set_rest,5,5.0,37699.0,403431.0,157521.0,21176.0,-114.0
2026-04-09 22:16:15.609324,303762,1905604118,1905605464,-0.968192,0.404064,0.335744,11.66375,3.75375,-55.23,16.68,-13.088,15.464001,inter_set_rest,5,5.0,37699.0,403431.0,157521.0,21176.0,-114.0
2026-04-09 22:16:15.640796,303763,1905618638,1905620367,-0.954528,0.396256,0.339648,14.48125,3.1675,-52.2025,16.368,-12.544001,15.136001,inter_set_rest,5,5.0,37699.0,403431.0,157521.0,21176.0,-114.0
2026-04-09 22:16:15.645887,303764,1905627574,1905629149,-0.954528,0.396256,0.339648,17.7625,2.2925,-49.41125,16.368,-12.544001,15.136001,inter_set_rest,5,5.0,37699.0,403431.0,157521.0,21176.0,-114.0
2026-04-09 22:16:15.647252,303765,1905636475,1905637837,-0.91744,0.413824,0.374784,17.75375,2.28375,-45.9725,16.44,-11.848001,14.672001,inter_set_rest,5,5.0,37699.0,403431.0,157521.0,21176.0,-114.0
2026-04-09 22:16:15.672475,303775,1905645415,1905646538,-0.91744,0.413824,0.374784,16.70375,2.38,-43.575,16.44,-11.848001,14.672001,inter_set_rest,5,5.0,37903.0,403431.0,158167.0,21442.0,-131.0
2026-04-09 22:16:15.674281,303776,1905659920,1905661501,-0.9272,0.398208,0.376736,17.08875,1.16375,-42.8225,14.704,-11.912001,16.176,inter_set_rest,5,5.0,37903.0,403431.0,158167.0,21442.0,-131.0
2026-04-09 22:16:15.676734,303777,1905668859,1905670262,-0.925248,0.38064,0.333792,19.11875,-1.00625,-42.63,15.208001,-11.328,15.968,inter_set_rest,5,5.0,37903.0,403431.0,158167.0,21442.0,-131.0
2026-04-09 22:16:15.679326,303778,1905677804,1905679028,-0.925248,0.38064,0.333792,22.6275,-4.06875,-42.8925,15.208001,-11.328,15.968,inter_set_rest,5,5.0,37903.0,403431.0,158167.0,21442.0,-131.0
2026-04-09 22:16:15.720544,303779,1905692280,1905693951,-0.886208,0.402112,0.269376,26.4075,-7.2275,-42.93625,16.560001,-10.808001,14.960001,inter_set_rest,5,5.0,37903.0,403431.0,158167.0,21442.0,-131.0
2026-04-09 22:16:15.723951,303780,1905701193,1905702637,-0.886208,0.402112,0.269376,29.02375,-10.0975,-43.09375,16.560001,-10.808001,14.960001,inter_set_rest,5,5.0,37903.0,403431.0,158167.0,21442.0,-131.0
2026-04-09 22:16:15.727114,303781,1905710124,1905711322,-0.905728,0.454816,0.244,28.14875,-11.935,-43.25125,16.632,-10.480001,15.280001,inter_set_rest,5,5.0,37903.0,403431.0,158167.0,21442.0,-131.0
2026-04-09 22:16:15.728191,303782,1905724548,1905726264,-0.905728,0.454816,0.244,22.2425,-12.76625,-42.21875,16.632,-10.480001,15.280001,inter_set_rest,5,5.0,37903.0,403431.0,158167.0,21442.0,-131.0
2026-04-09 22:16:15.734295,303783,1905733470,1905735015,-0.95648,0.462624,0.255712,10.92875,-14.2275,-40.97625,16.84,-10.184,14.920001,inter_set_rest,5,5.0,37903.0,403431.0,158167.0,21442.0,-131.0
2026-04-09 22:16:15.761828,303793,1905742652,1905743768,-0.95648,0.462624,0.255712,-0.02625,-15.42625,-37.8,16.84,-10.184,14.920001,inter_set_rest,5,5.0,38355.0,403431.0,155347.0,18722.0,-132.0
2026-04-09 22:16:15.764326,303794,1905751651,1905752540,-0.958432,0.466528,0.242048,-9.073751,-16.09125,-31.99875,16.768002,-9.992001,16.696001,inter_set_rest,5,5.0,38355.0,403431.0,155347.0,18722.0,-132.0
2026-04-09 22:16:15.767184,303795,1905766318,1905767440,-0.958432,0.466528,0.242048,-16.07375,-16.5375,-24.82375,16.768002,-9.992001,16.696001,inter_set_rest,5,5.0,38355.0,403431.0,155347.0,18722.0,-132.0
2026-04-09 22:16:15.797112,303796,1905775280,1905776185,-0.935008,0.427488,0.206912,-23.19625,-16.2225,-18.10375,16.672,-9.952001,16.08,inter_set_rest,5,5.0,38355.0,403431.0,155347.0,18722.0,-132.0
2026-04-09 22:16:15.801935,303797,1905784211,1905784898,-0.935008,0.427488,0.206912,-29.96875,-16.10875,-10.92875,16.672,-9.952001,16.08,inter_set_rest,5,5.0,38355.0,403431.0,155347.0,18722.0,-132.0
2026-04-09 22:16:15.804306,303798,1905799070,1905799776,-0.89792,0.382592,0.167872,-35.84,-14.91,-2.8,17.208,-10.992001,15.920001,inter_set_rest,5,5.0,38355.0,403431.0,155347.0,18722.0,-132.0
2026-04-09 22:16:15.810606,303799,1905808458,1905810567,-0.89792,0.382592,0.167872,-41.3875,-13.55375,6.18625,17.208,-10.992001,15.920001,inter_set_rest,5,5.0,38355.0,403431.0,155347.0,18722.0,-132.0
2026-04-09 22:16:15.840776,303800,1905817395,1905819293,-0.948672,0.324032,0.140544,-45.71,-11.90875,14.65625,16.800001,-11.248,17.336,inter_set_rest,5,5.0,38355.0,403431.0,155347.0,18722.0,-132.0
2026-04-09 22:16:15.844301,303801,1905826379,1905827998,-0.948672,0.324032,0.140544,-47.59125,-10.84125,23.23125,16.800001,-11.248,17.336,inter_set_rest,5,5.0,38355.0,403431.0,155347.0,18722.0,-132.0
2026-04-09 22:16:15.871787,303812,1905841495,1905842903,-1.022848,0.2928,0.134688,-45.745,-10.35125,31.78875,17.664001,-11.312,15.656001,inter_set_rest,5,5.0,38001.0,403431.0,154474.0,18047.0,-128.0
2026-04-09 22:16:15.874305,303813,1905850550,1905851633,-1.026752,0.288896,0.130784,-42.74375,-9.98375,39.935,17.424002,-12.616,16.36,inter_set_rest,5,5.0,38001.0,403431.0,154474.0,18047.0,-128.0
2026-04-09 22:16:15.876777,303814,1905859533,1905860408,-1.026752,0.288896,0.130784,-39.9,-9.8,46.7425,17.424002,-12.616,16.36,inter_set_rest,5,5.0,38001.0,403431.0,154474.0,18047.0,-128.0
2026-04-09 22:16:15.879327,303815,1905874096,1905875383,-0.993568,0.271328,0.130784,-39.6375,-9.70375,52.21125,17.568,-13.344001,16.448,inter_set_rest,5,5.0,38001.0,403431.0,154474.0,18047.0,-128.0
2026-04-09 22:16:15.884233,303816,1905883150,1905884093,-0.993568,0.271328,0.130784,-38.03625,-8.995,57.513752,17.568,-13.344001,16.448,inter_set_rest,5,5.0,38001.0,403431.0,154474.0,18047.0,-128.0
2026-04-09 22:16:15.914502,303817,1905892069,1905892794,-0.997472,0.240096,0.138592,-35.98,-8.44375,62.615,17.6,-13.768001,16.928001,inter_set_rest,5,5.0,38001.0,403431.0,154474.0,18047.0,-128.0
2026-04-09 22:16:15.918189,303818,1905901569,1905903584,-0.997472,0.240096,0.138592,-33.425,-8.47875,66.115,17.6,-13.768001,16.928001,inter_set_rest,5,5.0,38001.0,403431.0,154474.0,18047.0,-128.0
2026-04-09 22:16:15.924354,303819,1905916060,1905916437,-1.032608,0.220576,0.128832,-30.26625,-7.27125,70.21875,17.76,-13.880001,16.512001,inter_set_rest,5,5.0,38001.0,403431.0,154474.0,18047.0,-128.0
2026-04-09 22:16:15.926753,303820,1905925322,1905927219,-1.032608,0.220576,0.128832,-24.85875,-6.93,75.11,17.76,-13.880001,16.512001,inter_set_rest,5,5.0,38001.0,403431.0,154474.0,18047.0,-128.0
2026-04-09 22:16:15.957202,303821,1905934261,1905935926,-1.059936,0.21472,0.115168,-18.83,-5.69625,79.31,17.224,-14.496,16.544,inter_set_rest,5,5.0,38001.0,403431.0,154474.0,18047.0,-128.0
2026-04-09 22:16:16.023285,303831,1905943840,1905944808,-1.059936,0.21472,0.115168,-13.43125,-4.305,83.308754,17.224,-14.496,16.544,inter_set_rest,5,5.0,37438.0,403431.0,154897.0,18675.0,-122.0
