pc_time,serial_num,sensor_ts,host_ts,ax,ay,az,gx,gy,gz,mx,my,mz,phase,rpe,weight_kg,ppg_a,ppg_b,ppg_c,ppg_d,ppg_e
2026-04-07 17:52:01.996023,255983,1392338325,1392339215,-1.03456,0.167872,-0.037088,-36.42625,12.39,-5.24125,49.000004,0.304,18.944,inter_set_rest,5,3.0,27717.0,359531.0,319390.0,372601.0,325858.0
2026-04-07 17:52:01.996440,255984,1392352853,1392354170,-1.03456,0.167872,-0.037088,-37.7475,14.00875,-5.8625,49.000004,0.304,18.944,inter_set_rest,5,3.0,27717.0,359531.0,319390.0,372601.0,325858.0
2026-04-07 17:52:01.996496,255985,1392361779,1392362857,-1.028704,0.167872,-0.035136,-36.2425,15.37375,-6.95625,48.432003,0.112,21.080002,inter_set_rest,5,3.0,27717.0,359531.0,319390.0,372601.0,325858.0
2026-04-07 17:52:01.996531,255986,1392370777,1392371592,-1.028704,0.167872,-0.035136,-33.9325,15.35625,-7.455,48.432003,0.112,21.080002,inter_set_rest,5,3.0,27717.0,359531.0,319390.0,372601.0,325858.0
2026-04-07 17:52:02.009246,255987,1392385277,1392386532,-1.018944,0.173728,-0.023424,-30.6775,15.89875,-7.42875,48.960003,0.288,16.632,inter_set_rest,5,3.0,27717.0,359531.0,319390.0,372601.0,325858.0
2026-04-07 17:52:02.013041,255988,1392394159,1392395256,-1.018944,0.163968,-0.02928,-27.85125,16.178751,-7.63875,48.960003,0.288,16.632,inter_set_rest,5,3.0,27717.0,359531.0,319390.0,372601.0,325858.0
2026-04-07 17:52:02.022813,255989,1392403095,1392403946,-1.022848,0.163968,-0.02928,-25.366251,16.66,-8.0675,48.912003,0.64,13.496,inter_set_rest,5,3.0,27717.0,359531.0,319390.0,372601.0,325858.0
2026-04-07 17:52:02.047694,255990,1392417603,1392418839,-1.026752,0.177632,-0.035136,-23.66875,16.17,-8.1725,48.440002,0.584,16.792002,inter_set_rest,5,3.0,27717.0,359531.0,319390.0,372601.0,325858.0
2026-04-07 17:52:02.108876,256000,1392426486,1392427534,-1.026752,0.177632,-0.035136,-22.28625,16.44125,-8.7675,48.440002,0.584,16.792002,inter_set_rest,5,3.0,27613.0,359167.0,319149.0,372034.0,325049.0
2026-04-07 17:52:02.112449,256001,1392435523,1392436364,-1.036512,0.169824,-0.040992,-20.93,16.80875,-9.03875,49.248,1.136,15.488001,inter_set_rest,5,3.0,27613.0,359167.0,319149.0,372034.0,325049.0
2026-04-07 17:52:02.112539,256002,1392450111,1392451322,-1.036512,0.169824,-0.040992,-19.64375,17.68375,-9.68625,49.248,1.136,15.488001,inter_set_rest,5,3.0,27613.0,359167.0,319149.0,372034.0,325049.0
2026-04-07 17:52:02.113965,256003,1392459138,1392460068,-1.042368,0.177632,-0.046848,-18.06875,18.10375,-10.386251,49.296,1.096,16.36,inter_set_rest,5,3.0,27613.0,359167.0,319149.0,372034.0,325049.0
2026-04-07 17:52:02.117378,256004,1392468116,1392468775,-1.042368,0.177632,-0.046848,-17.01875,18.57625,-10.605001,49.296,1.096,16.36,inter_set_rest,5,3.0,27613.0,359167.0,319149.0,372034.0,325049.0
2026-04-07 17:52:02.123346,256005,1392477398,1392479504,-1.05408,0.171776,-0.046848,-16.23125,19.635,-11.64625,48.744003,1.272,15.120001,inter_set_rest,5,3.0,27613.0,359167.0,319149.0,372034.0,325049.0
2026-04-07 17:52:02.125035,256006,1392491900,1392492407,-1.05408,0.171776,-0.046848,-14.74375,20.30875,-12.11875,48.744003,1.272,15.120001,inter_set_rest,5,3.0,27613.0,359167.0,319149.0,372034.0,325049.0
2026-04-07 17:52:02.126553,256007,1392501469,1392503237,-1.061888,0.179584,-0.044896,-13.78125,20.4225,-12.31125,48.56,0.944,15.840001,inter_set_rest,5,3.0,27613.0,359167.0,319149.0,372034.0,325049.0
2026-04-07 17:52:02.130808,256008,1392510462,1392511941,-1.061888,0.179584,-0.044896,-14.0,20.545,-12.94125,48.56,0.944,15.840001,inter_set_rest,5,3.0,27613.0,359167.0,319149.0,372034.0,325049.0
2026-04-07 17:52:02.132512,256009,1392519466,1392520679,-1.069696,0.187392,-0.01952,-14.79625,21.1925,-13.2475,48.52,0.944,15.592001,inter_set_rest,5,3.0,27613.0,359167.0,319149.0,372034.0,325049.0
2026-04-07 17:52:02.159116,256020,1392534051,1392535687,-1.069696,0.187392,-0.01952,-15.58375,21.805,-12.7225,48.52,0.944,15.592001,inter_set_rest,5,3.0,27575.0,359125.0,319152.0,371984.0,324811.0
2026-04-07 17:52:02.163328,256021,1392543065,1392544524,-1.079456,0.183488,-0.01952,-16.63375,22.56625,-12.2325,48.288002,1.136,14.984001,inter_set_rest,5,3.0,27575.0,359125.0,319152.0,371984.0,324811.0
2026-04-07 17:52:02.165769,256022,1392552031,1392553227,-1.079456,0.183488,-0.01952,-16.94875,22.8025,-12.03125,48.288002,1.136,14.984001,inter_set_rest,5,3.0,27575.0,359125.0,319152.0,371984.0,324811.0
2026-04-07 17:52:02.199065,256023,1392566480,1392568217,-1.091168,0.17568,-0.027328,-17.59625,22.79375,-11.585,48.36,1.328,14.832001,inter_set_rest,5,3.0,27575.0,359125.0,319152.0,371984.0,324811.0
2026-04-07 17:52:02.201290,256024,1392575431,1392576915,-1.089216,0.162016,-0.037088,-18.31375,23.2575,-10.8325,48.36,1.696,13.6,inter_set_rest,5,3.0,27575.0,359125.0,319152.0,371984.0,324811.0
2026-04-07 17:52:02.205832,256025,1392584379,1392585676,-1.089216,0.162016,-0.037088,-16.84375,22.9425,-10.70125,48.656002,1.696,13.6,inter_set_rest,5,3.0,27575.0,359125.0,319152.0,371984.0,324811.0
2026-04-07 17:52:02.208275,256026,1392598850,1392600576,-1.091168,0.162016,-0.046848,-14.58625,22.19,-10.22,48.784004,1.496,13.328001,inter_set_rest,5,3.0,27575.0,359125.0,319152.0,371984.0,324811.0
2026-04-07 17:52:02.238971,256027,1392607833,1392609290,-1.091168,0.162016,-0.046848,-11.34,22.37375,-9.7825,48.784004,1.496,13.328001,inter_set_rest,5,3.0,27575.0,359125.0,319152.0,371984.0,324811.0
2026-04-07 17:52:02.241212,256028,1392616753,1392617975,-1.097024,0.171776,-0.056608,-9.52,22.79375,-9.35375,48.048004,1.456,10.696,inter_set_rest,5,3.0,27575.0,359125.0,319152.0,371984.0,324811.0
2026-04-07 17:52:02.268394,256038,1392631369,1392632881,-1.097024,0.171776,-0.056608,-8.82875,22.855,-9.12625,48.048004,1.456,10.696,inter_set_rest,5,3.0,27559.0,358930.0,318967.0,371754.0,324601.0
2026-04-07 17:52:02.271890,256039,1392640347,1392641646,-1.097024,0.167872,-0.035136,-9.7125,23.10875,-8.96,48.432003,1.36,12.928,inter_set_rest,5,3.0,27559.0,358930.0,318967.0,371754.0,324601.0
2026-04-07 17:52:02.272244,256040,1392649333,1392650412,-1.097024,0.167872,-0.035136,-10.8675,23.87,-8.37375,48.432003,1.36,12.928,inter_set_rest,5,3.0,27559.0,358930.0,318967.0,371754.0,324601.0
2026-04-07 17:52:02.275674,256041,1392658260,1392659094,-1.1224,0.16592,-0.033184,-11.025,23.485,-8.05,47.368004,0.896,14.808001,inter_set_rest,5,3.0,27559.0,358930.0,318967.0,371754.0,324601.0
2026-04-07 17:52:02.281983,256042,1392672840,1392674130,-1.1224,0.16592,-0.033184,-10.22875,22.26,-8.0675,47.368004,0.896,14.808001,inter_set_rest,5,3.0,27559.0,358930.0,318967.0,371754.0,324601.0
2026-04-07 17:52:02.311612,256043,1392681810,1392682858,-1.124352,0.16592,-0.052704,-8.785,21.21875,-7.62125,47.144,1.264,12.120001,inter_set_rest,5,3.0,27559.0,358930.0,318967.0,371754.0,324601.0
2026-04-07 17:52:02.315003,256044,1392690758,1392691535,-1.124352,0.16592,-0.052704,-7.53375,19.460001,-6.9825,47.144,1.264,12.120001,inter_set_rest,5,3.0,27559.0,358930.0,318967.0,371754.0,324601.0
2026-04-07 17:52:02.316440,256045,1392705227,1392706410,-1.114592,0.152256,-0.05856,-4.71625,18.45375,-6.5275,47.584003,1.136,12.456,inter_set_rest,5,3.0,27559.0,358930.0,318967.0,371754.0,324601.0
2026-04-07 17:52:02.322442,256046,1392714150,1392715155,-1.114592,0.152256,-0.05856,-1.0325,18.235,-6.2125,47.584003,1.136,12.456,inter_set_rest,5,3.0,27559.0,358930.0,318967.0,371754.0,324601.0
2026-04-07 17:52:02.352690,256047,1392723097,1392723850,-1.114592,0.162016,-0.046848,2.2225,17.4125,-6.265,47.488003,1.032,10.52,inter_set_rest,5,3.0,27559.0,358930.0,318967.0,371754.0,324601.0
2026-04-07 17:52:02.413773,256057,1392732565,1392734668,-1.114592,0.162016,-0.046848,4.36625,16.73875,-6.34375,47.488003,1.032,10.52,inter_set_rest,5,3.0,27509.0,358503.0,318623.0,371296.0,324213.0
2026-04-07 17:52:02.416168,256058,1392747122,1392747552,-1.104832,0.16592,-0.03904,6.69375,16.56375,-5.90625,48.120003,2.144,11.512,inter_set_rest,5,3.0,27509.0,358503.0,318623.0,371296.0,324213.0
2026-04-07 17:52:02.418691,256059,1392756435,1392758327,-1.10288,0.173728,-0.023424,8.645,15.295,-5.8275,47.856003,1.952,12.448001,inter_set_rest,5,3.0,27509.0,358503.0,318623.0,371296.0,324213.0
2026-04-07 17:52:02.420484,256060,1392765375,1392767007,-1.10288,0.173728,-0.023424,9.485,14.65625,-5.03125,47.856003,1.952,12.448001,inter_set_rest,5,3.0,27509.0,358503.0,318623.0,371296.0,324213.0
2026-04-07 17:52:02.424371,256061,1392779840,1392781889,-1.097024,0.152256,-0.013664,8.8025,13.92125,-4.1475,47.160004,2.664,11.944,inter_set_rest,5,3.0,27509.0,358503.0,318623.0,371296.0,324213.0
2026-04-07 17:52:02.426291,256062,1392788752,1392790568,-1.097024,0.152256,-0.013664,8.16375,13.965,-3.40375,47.160004,2.664,11.944,inter_set_rest,5,3.0,27509.0,358503.0,318623.0,371296.0,324213.0
2026-04-07 17:52:02.433240,256063,1392797753,1392799283,-1.100928,0.1464,-0.01952,8.54,12.9325,-3.40375,47.464,1.512,12.288,inter_set_rest,5,3.0,27509.0,358503.0,318623.0,371296.0,324213.0
2026-04-07 17:52:02.434772,256064,1392812253,1392814250,-1.100928,0.1464,-0.01952,8.4875,12.495,-3.05375,47.464,1.512,12.288,inter_set_rest,5,3.0,27509.0,358503.0,318623.0,371296.0,324213.0
2026-04-07 17:52:02.436325,256065,1392821234,1392822976,-1.100928,0.1464,-0.040992,9.68625,11.4975,-3.47375,46.840004,2.024,12.992001,inter_set_rest,5,3.0,27509.0,358503.0,318623.0,371296.0,324213.0
2026-04-07 17:52:02.500283,256076,1392830497,1392831754,-1.100928,0.1464,-0.040992,12.18,11.19125,-3.2375,46.840004,2.024,12.992001,inter_set_rest,5,3.0,27087.0,355374.0,316119.0,368021.0,321143.0
2026-04-07 17:52:02.504789,256077,1392839445,1392841310,-1.09312,0.150304,-0.046848,14.37625,10.78875,-3.15,46.856003,1.92,12.976001,inter_set_rest,5,3.0,27087.0,355374.0,316119.0,368021.0,321143.0
2026-04-07 17:52:02.506352,256078,1392853990,1392856245,-1.09312,0.150304,-0.046848,16.33625,10.42125,-3.03625,46.856003,1.92,12.976001,inter_set_rest,5,3.0,27087.0,355374.0,316119.0,368021.0,321143.0
2026-04-07 17:52:02.508047,256079,1392862912,1392864986,-1.079456,0.160064,-0.037088,19.3725,9.63375,-2.8,46.992,2.136,12.280001,inter_set_rest,5,3.0,27087.0,355374.0,316119.0,368021.0,321143.0
2026-04-07 17:52:02.512539,256080,1392871832,1392873681,-1.079456,0.160064,-0.037088,21.56,8.4525,-2.5725,46.992,2.136,12.280001,inter_set_rest,5,3.0,27087.0,355374.0,316119.0,368021.0,321143.0
2026-04-07 17:52:02.513753,256081,1392886338,1392888637,-1.061888,0.144448,-0.027328,23.96625,8.9075,-2.1525,48.144,2.44,11.64,inter_set_rest,5,3.0,27087.0,355374.0,316119.0,368021.0,321143.0
2026-04-07 17:52:02.516192,256082,1392895238,1392897337,-1.061888,0.144448,-0.027328,26.6,8.37375,-1.98625,48.144,2.44,11.64,inter_set_rest,5,3.0,27087.0,355374.0,316119.0,368021.0,321143.0
2026-04-07 17:52:02.517699,256083,1392904177,1392906045,-1.038464,0.109312,-0.062464,30.72125,7.67375,-2.03875,47.344,2.024,11.52,inter_set_rest,5,3.0,27087.0,355374.0,316119.0,368021.0,321143.0
2026-04-07 17:52:02.547950,256084,1392918696,1392920986,-1.061888,0.1464,-0.054656,35.245,8.40875,-2.31875,46.896004,2.48,14.264001,inter_set_rest,5,3.0,27087.0,355374.0,316119.0,368021.0,321143.0
2026-04-07 17:52:02.573994,256094,1392927615,1392929673,-1.061888,0.1464,-0.054656,38.75375,8.785,-3.22875,46.896004,2.48,14.264001,inter_set_rest,5,3.0,26274.0,349297.0,311263.0,361868.0,315534.0
2026-04-07 17:52:02.576498,256095,1392936520,1392938423,-1.061888,0.17568,-0.023424,39.55875,8.89,-3.85875,46.896004,2.48,14.264001,inter_set_rest,5,3.0,26274.0,349297.0,311263.0,361868.0,315534.0
2026-04-07 17:52:02.579144,256096,1392951053,1392953381,-1.071648,0.17568,-0.023424,38.42125,9.33625,-3.94625,47.352,2.2,12.032001,inter_set_rest,5,3.0,26274.0,349297.0,311263.0,361868.0,315534.0
2026-04-07 17:52:02.581680,256097,1392959999,1392962137,-1.065792,0.16592,-0.003904,37.3975,9.45,-3.675,47.456,2.424,12.608001,inter_set_rest,5,3.0,26274.0,349297.0,311263.0,361868.0,315534.0
2026-04-07 17:52:02.584144,256098,1392968963,1392970868,-1.065792,0.16592,-0.003904,38.2025,7.6825,-2.2925,47.456,2.424,12.608001,inter_set_rest,5,3.0,26274.0,349297.0,311263.0,361868.0,315534.0
2026-04-07 17:52:02.586517,256099,1392977976,1392979553,-1.022848,0.138592,-0.00976,40.34625,6.895,-1.54,47.608,3.624,12.592001,inter_set_rest,5,3.0,26274.0,349297.0,311263.0,361868.0,315534.0
2026-04-07 17:52:02.616779,256100,1392992493,1392994465,-1.022848,0.138592,-0.00976,41.475,6.1425,-1.6975,47.608,3.624,12.592001,inter_set_rest,5,3.0,26274.0,349297.0,311263.0,361868.0,315534.0
2026-04-07 17:52:02.622893,256101,1393001405,1393003168,-1.018944,0.13664,-0.023424,41.79875,6.0025,-2.16125,47.344,3.32,12.632001,inter_set_rest,5,3.0,26274.0,349297.0,311263.0,361868.0,315534.0
2026-04-07 17:52:02.625297,256102,1393010353,1393011883,-1.018944,0.13664,-0.023424,41.74625,6.405,-3.14125,47.344,3.32,12.632001,inter_set_rest,5,3.0,26274.0,349297.0,311263.0,361868.0,315534.0
2026-04-07 17:52:02.632817,256103,1393024859,1393026851,-1.00528,0.134688,-0.03904,42.23625,7.0,-3.71,46.392002,3.36,13.544001,inter_set_rest,5,3.0,26274.0,349297.0,311263.0,361868.0,315534.0
2026-04-07 17:52:02.690477,256113,1393033938,1393036069,-1.00528,0.134688,-0.03904,43.42625,8.09375,-4.48875,46.392002,3.36,13.544001,concentric,5,3.0,25360.0,342538.0,305977.0,355541.0,310025.0
2026-04-07 17:52:02.694104,256114,1393043030,1393044807,-1.0248,0.162016,-0.033184,44.9225,8.3475,-5.53875,48.160004,3.888,12.76,concentric,5,3.0,25360.0,342538.0,305977.0,355541.0,310025.0
2026-04-07 17:52:02.696542,256115,1393057557,1393059784,-1.022848,0.177632,-0.025376,46.97,7.1575,-6.7375,48.160004,4.376,13.336,concentric,5,3.0,25360.0,342538.0,305977.0,355541.0,310025.0
2026-04-07 17:52:02.699037,256116,1393066466,1393068476,-1.022848,0.177632,-0.025376,49.1575,6.335,-7.34125,47.368004,4.376,13.336,concentric,5,3.0,25360.0,342538.0,305977.0,355541.0,310025.0
2026-04-07 17:52:02.701470,256117,1393075409,1393077197,-1.022848,0.177632,-0.025376,50.3475,6.3875,-7.58625,47.368004,4.376,13.336,concentric,5,3.0,25360.0,342538.0,305977.0,355541.0,310025.0
2026-04-07 17:52:02.704024,256118,1393084333,1393085896,-1.022848,0.191296,-0.035136,48.83375,5.66125,-7.49875,47.336002,3.768,12.984,concentric,5,3.0,25360.0,342538.0,305977.0,355541.0,310025.0
2026-04-07 17:52:02.707714,256119,1393098836,1393100801,-1.0248,0.16592,-0.031232,44.8525,5.53875,-8.33875,46.816,4.08,14.736001,concentric,5,3.0,25360.0,342538.0,305977.0,355541.0,310025.0
2026-04-07 17:52:02.739235,256120,1393107773,1393109489,-1.0248,0.16592,-0.031232,41.825,5.145,-9.485,46.816,4.08,14.736001,concentric,5,3.0,25360.0,342538.0,305977.0,355541.0,310025.0
2026-04-07 17:52:02.741763,256121,1393116703,1393118198,-1.0248,0.16592,-0.031232,41.67625,5.80125,-10.78,46.816,4.08,14.736001,concentric,5,3.0,25360.0,342538.0,305977.0,355541.0,310025.0
2026-04-07 17:52:02.769105,256132,1393131241,1393133151,-1.03456,0.144448,-0.050752,43.4,5.11,-13.0025,47.048,5.04,13.744,concentric,5,3.0,24439.0,335686.0,300658.0,349606.0,305014.0
2026-04-07 17:52:02.771609,256133,1393140404,1393141875,-1.04432,0.16592,-0.062464,46.78625,3.96375,-14.2275,46.224003,4.728,15.088,concentric,5,3.0,24439.0,335686.0,300658.0,349606.0,305014.0
2026-04-07 17:52:02.773963,256134,1393149478,1393150644,-1.04432,0.16592,-0.062464,51.6425,2.89625,-15.015,46.224003,4.728,15.088,concentric,5,3.0,24439.0,335686.0,300658.0,349606.0,305014.0
2026-04-07 17:52:02.776548,256135,1393164113,1393165562,-1.038464,0.177632,-0.074176,57.12875,1.05,-14.455,46.616,5.432,15.144001,concentric,5,3.0,24439.0,335686.0,300658.0,349606.0,305014.0
2026-04-07 17:52:02.781567,256136,1393173090,1393174262,-1.038464,0.177632,-0.074176,60.62,0.55125,-14.07875,46.616,5.432,15.144001,concentric,5,3.0,24439.0,335686.0,300658.0,349606.0,305014.0
2026-04-07 17:52:02.811643,256137,1393182082,1393182956,-1.050176,0.17568,-0.072224,62.95625,0.42,-14.245,47.440002,5.712,14.232,concentric,5,3.0,24439.0,335686.0,300658.0,349606.0,305014.0
2026-04-07 17:52:02.815240,256138,1393191036,1393191657,-1.050176,0.17568,-0.072224,64.496254,-0.8575,-13.8425,47.440002,5.712,14.232,concentric,5,3.0,24439.0,335686.0,300658.0,349606.0,305014.0
2026-04-07 17:52:02.817732,256139,1393205927,1393206608,-1.04432,0.144448,-0.046848,65.10875,-1.2425,-13.99125,47.288002,5.944,14.984001,concentric,5,3.0,24439.0,335686.0,300658.0,349606.0,305014.0
2026-04-07 17:52:02.825046,256140,1393215225,1393217384,-1.04432,0.144448,-0.046848,65.91375,-1.9425,-13.965,47.288002,5.944,14.984001,concentric,5,3.0,24439.0,335686.0,300658.0,349606.0,305014.0
2026-04-07 17:52:02.855184,256141,1393224105,1393226186,-1.06384,0.124928,-0.02928,66.15,-2.5375,-14.035,47.392002,6.384,15.032001,concentric,5,3.0,24439.0,335686.0,300658.0,349606.0,305014.0
2026-04-07 17:52:02.880338,256151,1393239126,1393241332,-1.077504,0.150304,-0.033184,67.29625,-3.66625,-13.62375,47.000004,6.2,16.344,concentric,5,3.0,24258.0,334634.0,300059.0,349157.0,304670.0
2026-04-07 17:52:02.884552,256152,1393248070,1393250054,-1.077504,0.150304,-0.033184,69.2475,-4.38375,-12.8625,47.000004,6.2,16.344,concentric,5,3.0,24258.0,334634.0,300059.0,349157.0,304670.0
2026-04-07 17:52:02.886249,256153,1393257113,1393258801,-1.077504,0.150304,-0.033184,70.76125,-5.80125,-11.66375,47.000004,6.2,16.344,concentric,5,3.0,24258.0,334634.0,300059.0,349157.0,304670.0
2026-04-07 17:52:02.887786,256154,1393266083,1393267497,-1.075552,0.152256,-0.062464,69.44875,-7.455,-10.6925,46.920002,6.192,16.656,concentric,5,3.0,24258.0,334634.0,300059.0,349157.0,304670.0
2026-04-07 17:52:02.891908,256155,1393280630,1393282470,-1.08336,0.132736,-0.083936,68.18,-8.8025,-9.54625,46.920002,7.000001,16.816,concentric,5,3.0,24258.0,334634.0,300059.0,349157.0,304670.0
2026-04-07 17:52:02.920462,256156,1393289683,1393291205,-1.08336,0.132736,-0.083936,68.005,-9.5025,-9.77375,46.920002,7.000001,16.816,concentric,5,3.0,24258.0,334634.0,300059.0,349157.0,304670.0
2026-04-07 17:52:02.924981,256157,1393298631,1393299922,-1.100928,0.148352,-0.113216,69.3525,-10.43875,-9.3275,47.256,6.856,15.904,concentric,5,3.0,24258.0,334634.0,300059.0,349157.0,304670.0
2026-04-07 17:52:02.926452,256158,1393313130,1393314841,-1.100928,0.148352,-0.113216,71.995,-11.61125,-9.72125,47.256,6.856,15.904,concentric,5,3.0,24258.0,334634.0,300059.0,349157.0,304670.0
2026-04-07 17:52:02.932377,256159,1393322068,1393323556,-1.108736,0.154208,-0.0976,75.8275,-12.81,-9.4675,48.328003,7.488,17.320002,concentric,5,3.0,24258.0,334634.0,300059.0,349157.0,304670.0
2026-04-07 17:52:03.018783,256169,1393331382,1393332276,-1.108736,0.154208,-0.0976,78.33,-13.15125,-8.75875,48.328003,7.488,17.320002,concentric,5,3.0,24092.0,334328.0,300385.0,350111.0,305551.0
2026-04-07 17:52:03.020348,256170,1393340391,1393340984,-1.11264,0.142496,-0.083936,80.63125,-14.41125,-7.56,47.896004,7.648,18.392,concentric,5,3.0,24092.0,334328.0,300385.0,350111.0,305551.0
2026-04-07 17:52:03.024492,256171,1393355254,1393355955,-1.11264,0.142496,-0.083936,81.82125,-15.7325,-6.18625,47.896004,7.648,18.392,concentric,5,3.0,24092.0,334328.0,300385.0,350111.0,305551.0
2026-04-07 17:52:03.026212,256172,1393364556,1393366738,-1.124352,0.10736,-0.124928,80.78875,-17.0625,-5.17125,47.256,7.888001,19.328001,concentric,5,3.0,24092.0,334328.0,300385.0,350111.0,305551.0
2026-04-07 17:52:03.027833,256173,1393373477,1393375432,-1.124352,0.10736,-0.124928,79.808754,-17.91125,-4.585,47.256,7.888001,19.328001,concentric,5,3.0,24092.0,334328.0,300385.0,350111.0,305551.0
2026-04-07 17:52:03.032037,256174,1393382407,1393384096,-1.124352,0.056608,-0.15616,82.55625,-18.4275,-6.44,47.52,8.008,19.744001,concentric,5,3.0,24092.0,334328.0,300385.0,350111.0,305551.0
2026-04-07 17:52:03.033795,256175,1393396925,1393398989,-1.124352,0.056608,-0.15616,87.01,-17.84125,-8.636251,47.52,8.008,19.744001,concentric,5,3.0,24092.0,334328.0,300385.0,350111.0,305551.0
2026-04-07 17:52:03.035440,256176,1393405881,1393407744,-1.110688,0.173728,-0.08784,93.68625,-16.59875,-9.555,47.4,8.216001,21.76,concentric,5,3.0,24092.0,334328.0,300385.0,350111.0,305551.0
2026-04-07 17:52:03.037807,256177,1393414857,1393416462,-1.110688,0.173728,-0.08784,96.18,-16.07375,-9.52875,47.4,8.216001,21.76,concentric,5,3.0,24092.0,334328.0,300385.0,350111.0,305551.0
2026-04-07 17:52:03.040292,256178,1393429415,1393431433,-1.098976,0.173728,-0.07808,92.5925,-17.255,-6.43125,47.208004,8.320001,22.384,concentric,5,3.0,24092.0,334328.0,300385.0,350111.0,305551.0
2026-04-07 17:52:03.067789,256189,1393438389,1393440254,-1.098976,0.173728,-0.109312,84.98875,-18.55,-2.9575,47.208004,8.320001,22.384,concentric,5,3.0,24401.0,338280.0,304183.0,355110.0,309897.0
2026-04-07 17:52:03.070466,256190,1393447463,1393448980,-1.13216,0.103456,-0.101504,78.47875,-18.83875,-0.97125,47.104004,8.056001,23.328001,concentric,5,3.0,24401.0,338280.0,304183.0,355110.0,309897.0
2026-04-07 17:52:03.072818,256191,1393462210,1393463922,-1.167296,0.035136,-0.121024,75.31125,-18.76875,0.35,48.120003,7.936,23.632002,concentric,5,3.0,24401.0,338280.0,304183.0,355110.0,309897.0
2026-04-07 17:52:03.079093,256192,1393471170,1393472699,-1.167296,0.035136,-0.121024,72.8525,-18.08625,0.58625,48.120003,7.936,23.632002,concentric,5,3.0,24401.0,338280.0,304183.0,355110.0,309897.0
2026-04-07 17:52:03.109279,256193,1393480133,1393481405,-1.139968,0.017568,-0.142496,69.4575,-18.33125,-0.37625,47.680004,8.176001,22.016,concentric,5,3.0,24401.0,338280.0,304183.0,355110.0,309897.0
2026-04-07 17:52:03.112836,256194,1393489048,1393490175,-1.139968,0.017568,-0.142496,65.8875,-19.20625,-1.295,47.680004,8.176001,22.016,concentric,5,3.0,24401.0,338280.0,304183.0,355110.0,309897.0
2026-04-07 17:52:03.115225,256195,1393503534,1393505047,-1.130208,0.08784,-0.179584,61.52125,-19.66125,-0.175,48.2,8.456,24.016,concentric,5,3.0,24401.0,338280.0,304183.0,355110.0,309897.0
2026-04-07 17:52:03.132784,256196,1393512502,1393513800,-1.130208,0.08784,-0.179584,55.1775,-19.88,2.89625,48.2,8.456,24.016,concentric,5,3.0,24401.0,338280.0,304183.0,355110.0,309897.0
2026-04-07 17:52:03.135243,256197,1393521412,1393522523,-1.110688,0.01952,-0.152256,48.685,-20.335001,6.16875,47.792004,8.176001,24.704,concentric,5,3.0,24401.0,338280.0,304183.0,355110.0,309897.0
2026-04-07 17:52:03.161502,256207,1393536144,1393537482,-1.110688,0.01952,-0.152256,46.08625,-21.02625,10.22875,47.792004,8.176001,24.704,concentric,5,3.0,25628.0,349284.0,313615.0,365956.0,319046.0
2026-04-07 17:52:03.163977,256208,1393545350,1393546280,-1.1224,-0.046848,-0.113216,48.11625,-21.3675,12.8625,48.24,8.344001,25.208002,concentric,5,3.0,25628.0,349284.0,313615.0,365956.0,319046.0
2026-04-07 17:52:03.166525,256209,1393554272,1393555092,-1.1224,-0.046848,-0.113216,53.3925,-21.428751,13.3,48.24,8.344001,25.208002,concentric,5,3.0,25628.0,349284.0,313615.0,365956.0,319046.0
2026-04-07 17:52:03.172867,256210,1393563815,1393565864,-1.134112,-0.003904,-0.08784,60.9,-21.77875,11.80375,48.296,7.928001,25.696001,concentric,5,3.0,25628.0,349284.0,313615.0,365956.0,319046.0
2026-04-07 17:52:03.205406,256211,1393578305,1393578715,-1.134112,-0.003904,-0.08784,66.42125,-21.5775,10.0975,48.296,7.928001,25.696001,concentric,5,3.0,25628.0,349284.0,313615.0,365956.0,319046.0
2026-04-07 17:52:03.209035,256212,1393587598,1393589463,-1.177056,0.01952,-0.124928,69.44,-21.69125,8.16375,47.960003,8.296001,26.736002,concentric,5,3.0,25628.0,349284.0,313615.0,365956.0,319046.0
2026-04-07 17:52:03.211563,256213,1393596521,1393598185,-1.177056,0.01952,-0.124928,70.6125,-22.505,7.1575,47.960003,8.296001,26.736002,concentric,5,3.0,25628.0,349284.0,313615.0,365956.0,319046.0
2026-04-07 17:52:03.241820,256214,1393611018,1393613125,-1.143872,0.007808,-0.203008,71.89875,-23.205,5.705,48.248,7.32,27.128002,concentric,5,3.0,25628.0,349284.0,313615.0,365956.0,319046.0
2026-04-07 17:52:03.245237,256215,1393619976,1393621817,-1.155584,0.00976,-0.203008,74.45375,-22.54875,5.635,48.248,8.0,27.416,concentric,5,3.0,25628.0,349284.0,313615.0,365956.0,319046.0
2026-04-07 17:52:03.247744,256216,1393628963,1393630538,-1.155584,0.00976,-0.203008,74.29625,-20.81625,3.91125,48.52,8.0,27.416,concentric,5,3.0,25628.0,349284.0,313615.0,365956.0,319046.0
2026-04-07 17:52:03.308869,256226,1393643540,1393644087,-1.22976,0.005856,-0.167872,69.22125,-18.795,2.03,48.128002,7.384,28.176,concentric,5,3.0,25882.0,352477.0,316591.0,369695.0,322292.0
2026-04-07 17:52:03.310347,256227,1393653159,1393654869,-1.22976,0.005856,-0.167872,59.666252,-18.0775,0.53375,48.128002,7.384,28.176,concentric,5,3.0,25882.0,352477.0,316591.0,369695.0,322292.0
2026-04-07 17:52:03.314587,256228,1393662146,1393663563,-1.260992,-0.105408,-0.181536,51.68625,-17.89375,-0.98875,47.840004,7.752,28.992,concentric,5,3.0,25882.0,352477.0,316591.0,369695.0,322292.0
2026-04-07 17:52:03.316283,256229,1393671079,1393672268,-1.260992,-0.105408,-0.181536,47.22375,-18.0425,-0.595,47.840004,7.752,28.992,concentric,5,3.0,25882.0,352477.0,316591.0,369695.0,322292.0
2026-04-07 17:52:03.317960,256230,1393685591,1393687196,-1.231712,-0.152256,-0.179584,46.3225,-17.2375,2.9925,47.944004,7.272,29.056002,concentric,5,3.0,25882.0,352477.0,316591.0,369695.0,322292.0
2026-04-07 17:52:03.322098,256231,1393694506,1393695909,-1.231712,-0.152256,-0.179584,47.41625,-14.65625,6.22125,47.944004,7.272,29.056002,concentric,5,3.0,25882.0,352477.0,316591.0,369695.0,322292.0
2026-04-07 17:52:03.323554,256232,1393703409,1393704610,-1.204384,-0.201056,-0.162016,48.37,-11.445,8.645,47.912003,7.056,29.144001,concentric,5,3.0,25882.0,352477.0,316591.0,369695.0,322292.0
2026-04-07 17:52:03.329480,256233,1393717973,1393719506,-1.204384,-0.201056,-0.162016,47.67875,-8.855001,11.165,47.912003,7.056,29.144001,concentric,5,3.0,25882.0,352477.0,316591.0,369695.0,322292.0
2026-04-07 17:52:03.335697,256234,1393726909,1393728248,-1.198528,-0.171776,-0.138592,44.98375,-5.74875,12.95,47.696003,6.816001,30.352001,concentric,5,3.0,25882.0,352477.0,316591.0,369695.0,322292.0
2026-04-07 17:52:03.367800,256245,1393735933,1393736991,-1.198528,-0.171776,-0.138592,43.30375,-2.05625,14.8925,47.696003,6.816001,30.352001,concentric,5,3.0,25515.0,349624.0,314082.0,366908.0,319916.0
2026-04-07 17:52:03.372099,256246,1393745034,1393745740,-1.235616,-0.10736,-0.12688,45.395,0.84875,14.34125,48.024002,6.440001,29.864002,concentric,5,3.0,25515.0,349624.0,314082.0,366908.0,319916.0
2026-04-07 17:52:03.373612,256247,1393759974,1393760717,-1.235616,-0.10736,-0.158112,49.91875,2.38875,14.07875,48.024002,6.440001,29.864002,concentric,5,3.0,25515.0,349624.0,314082.0,366908.0,319916.0
2026-04-07 17:52:03.381647,256248,1393769312,1393771477,-1.231712,-0.052704,-0.158112,52.78,2.625,15.82875,48.224003,6.744,29.624,concentric,5,3.0,25515.0,349624.0,314082.0,366908.0,319916.0
2026-04-07 17:52:03.409352,256249,1393778227,1393780186,-1.231712,-0.052704,-0.158112,53.40125,2.17875,16.56375,48.224003,6.744,29.624,concentric,5,3.0,25515.0,349624.0,314082.0,366908.0,319916.0
2026-04-07 17:52:03.413718,256250,1393787202,1393788916,-1.16144,-0.074176,-0.187392,49.9275,1.1025,16.84375,48.424004,6.384,31.480001,concentric,5,3.0,25515.0,349624.0,314082.0,366908.0,319916.0
2026-04-07 17:52:03.415254,256251,1393801677,1393803796,-1.169248,-0.13664,-0.181536,44.17875,0.91875,16.16125,47.904003,6.648,30.864002,concentric,5,3.0,25515.0,349624.0,314082.0,366908.0,319916.0
2026-04-07 17:52:03.420647,256252,1393810567,1393812491,-1.169248,-0.13664,-0.181536,40.95875,1.58375,14.0875,47.904003,6.648,30.864002,concentric,5,3.0,25515.0,349624.0,314082.0,366908.0,319916.0
2026-04-07 17:52:03.452404,256253,1393819558,1393821217,-1.169248,-0.13664,-0.181536,42.9625,1.75,12.04875,47.904003,6.648,30.864002,concentric,5,3.0,25515.0,349624.0,314082.0,366908.0,319916.0
2026-04-07 17:52:03.482905,256263,1393834409,1393836168,-1.167296,-0.080032,-0.183488,47.38125,1.84625,10.35125,47.432003,5.960001,30.632002,concentric,5,3.0,23756.0,333291.0,299812.0,351005.0,306812.0
2026-04-07 17:52:03.487056,256264,1393843448,1393844893,-1.139968,0.042944,-0.11712,46.47125,3.2725,5.285,48.048004,6.000001,31.2,concentric,5,3.0,23756.0,333291.0,299812.0,351005.0,306812.0
2026-04-07 17:52:03.488815,256265,1393852381,1393853572,-1.139968,0.042944,-0.11712,42.53375,5.18875,-0.6125,48.048004,6.000001,31.2,concentric,5,3.0,23756.0,333291.0,299812.0,351005.0,306812.0
2026-04-07 17:52:03.490330,256266,1393866960,1393868580,-1.14192,0.054656,-0.109312,38.05375,5.22375,-5.17125,47.72,6.064,31.888002,concentric,5,3.0,23756.0,333291.0,299812.0,351005.0,306812.0
2026-04-07 17:52:03.494543,256267,1393875953,1393877312,-1.14192,0.054656,-0.109312,32.27,3.8675,-7.88375,47.72,6.064,31.888002,concentric,5,3.0,23756.0,333291.0,299812.0,351005.0,306812.0
2026-04-07 17:52:03.497116,256268,1393884900,1393886015,-1.124352,0.040992,-0.158112,30.52,2.70375,-10.29875,47.600002,6.408001,31.520002,concentric,5,3.0,23756.0,333291.0,299812.0,351005.0,306812.0
2026-04-07 17:52:03.525444,256269,1393893849,1393894749,-1.124352,0.040992,-0.158112,28.91,3.15,-12.76625,47.600002,6.408001,31.520002,concentric,5,3.0,23756.0,333291.0,299812.0,351005.0,306812.0
2026-04-07 17:52:03.529977,256270,1393908349,1393909657,-1.118496,0.00976,-0.162016,23.28375,4.82125,-14.56,47.656002,6.528,34.032,concentric,5,3.0,23756.0,333291.0,299812.0,351005.0,306812.0
2026-04-07 17:52:03.532509,256271,1393917249,1393918325,-1.118496,0.00976,-0.162016,16.75625,5.55625,-15.715,47.656002,6.528,34.032,concentric,5,3.0,23756.0,333291.0,299812.0,351005.0,306812.0
2026-04-07 17:52:03.533951,256272,1393926160,1393927013,-1.09312,-0.003904,-0.111264,11.61125,5.74875,-16.10875,47.616,6.976,31.632002,concentric,5,3.0,23756.0,333291.0,299812.0,351005.0,306812.0
2026-04-07 17:52:03.613253,256282,1393940767,1393942007,-1.09312,-0.003904,-0.111264,8.95125,6.15125,-17.42125,47.616,6.976,31.632002,concentric,5,3.0,22520.0,321334.0,289222.0,339175.0,297604.0
2026-04-07 17:52:03.617761,256283,1393949632,1393950722,-1.124352,0.03904,-0.111264,9.26625,6.11625,-18.48875,47.072002,6.784,31.904001,concentric,5,3.0,22520.0,321334.0,289222.0,339175.0,297604.0
2026-04-07 17:52:03.621503,256284,1393958550,1393959432,-1.124352,0.03904,-0.111264,8.7675,5.67,-21.1925,47.072002,6.784,31.904001,concentric,5,3.0,22520.0,321334.0,289222.0,339175.0,297604.0
2026-04-07 17:52:03.624141,256285,1393973034,1393974293,-1.188768,0.08784,-0.122976,7.34125,5.635,-23.07375,46.744003,7.400001,31.976002,concentric,5,3.0,22520.0,321334.0,289222.0,339175.0,297604.0
2026-04-07 17:52:03.625228,256286,1393981943,1393983006,-1.196576,0.07808,-0.148352,6.02875,5.3375,-22.9425,46.792004,7.552001,29.584002,concentric,5,3.0,22520.0,321334.0,289222.0,339175.0,297604.0
2026-04-07 17:52:03.628311,256287,1393991018,1393991717,-1.196576,0.07808,-0.148352,6.8075,4.34,-21.2625,46.792004,7.552001,29.584002,concentric,5,3.0,22520.0,321334.0,289222.0,339175.0,297604.0
2026-04-07 17:52:03.630379,256288,1394000452,1394002547,-1.196576,0.07808,-0.148352,6.04625,2.10875,-20.04625,46.792004,7.552001,29.584002,concentric,5,3.0,22520.0,321334.0,289222.0,339175.0,297604.0
2026-04-07 17:52:03.632727,256289,1394014958,1394015368,-1.124352,-0.005856,-0.144448,4.12125,1.54,-20.18625,46.296,7.784,32.168003,concentric,5,3.0,22520.0,321334.0,289222.0,339175.0,297604.0
2026-04-07 17:52:03.635323,256290,1394024278,1394026200,-1.149728,0.023424,-0.103456,5.2325,2.07375,-23.065,45.648003,8.088,33.472,concentric,5,3.0,22520.0,321334.0,289222.0,339175.0,297604.0
2026-04-07 17:52:03.641545,256291,1394033217,1394034926,-1.149728,0.023424,-0.103456,9.6425,3.465,-25.92625,45.648003,8.088,33.472,concentric,5,3.0,22520.0,321334.0,289222.0,339175.0,297604.0
2026-04-07 17:52:03.669059,256302,1394047832,1394049979,-1.20048,0.1464,-0.095648,14.51625,4.1825,-27.8425,45.952003,9.048,31.720001,concentric,5,3.0,22080.0,316706.0,285289.0,334827.0,294191.0
2026-04-07 17:52:03.671549,256303,1394056854,1394058714,-1.20048,0.1464,-0.095648,18.76875,4.9525,-29.53125,45.952003,9.048,31.720001,concentric,5,3.0,22080.0,316706.0,285289.0,334827.0,294191.0
2026-04-07 17:52:03.673998,256304,1394065801,1394067460,-1.204384,0.187392,-0.080032,19.4075,6.4575,-31.255001,46.064003,9.264001,32.480003,concentric,5,3.0,22080.0,316706.0,285289.0,334827.0,294191.0
2026-04-07 17:52:03.704380,256305,1394080282,1394082349,-1.204384,0.187392,-0.080032,13.475,7.9625,-32.34875,46.064003,9.264001,32.480003,concentric,5,3.0,22080.0,316706.0,285289.0,334827.0,294191.0
2026-04-07 17:52:03.707800,256306,1394089293,1394091083,-1.214144,0.089792,-0.05856,5.3725,9.52,-34.16875,45.480003,9.968,32.776,concentric,5,3.0,22080.0,316706.0,285289.0,334827.0,294191.0
2026-04-07 17:52:03.710324,256307,1394098212,1394099784,-1.214144,0.089792,-0.05856,-1.575,10.045,-36.0325,45.480003,9.968,32.776,concentric,5,3.0,22080.0,316706.0,285289.0,334827.0,294191.0
2026-04-07 17:52:03.715353,256308,1394107181,1394108530,-1.198528,0.062464,-0.01952,-2.1175,10.45625,-36.8725,44.824,10.008,32.496002,concentric,5,3.0,22080.0,316706.0,285289.0,334827.0,294191.0
2026-04-07 17:52:03.766670,256309,1394121696,1394123464,-1.198528,0.11712,-0.119072,1.84625,10.42125,-38.73625,44.824,10.008,32.496002,concentric,5,3.0,22080.0,316706.0,285289.0,334827.0,294191.0
2026-04-07 17:52:03.770227,256310,1394130747,1394132107,-1.175104,0.11712,-0.119072,3.01,10.15,-40.52125,44.544003,10.656,32.24,concentric,5,3.0,22080.0,316706.0,285289.0,334827.0,294191.0
2026-04-07 17:52:03.795226,256320,1394139780,1394140881,-1.175104,0.11712,-0.119072,1.1725,10.50875,-41.85125,44.544003,10.656,32.24,concentric,5,3.0,21765.0,313691.0,282673.0,331863.0,291848.0
2026-04-07 17:52:03.797711,256321,1394154387,1394155775,-1.218048,0.15616,-0.134688,-0.14875,12.355001,-41.5975,44.152,11.464001,33.184002,concentric,5,3.0,21765.0,313691.0,282673.0,331863.0,291848.0
2026-04-07 17:52:03.800301,256322,1394163301,1394164468,-1.27856,0.13664,-0.05856,-1.26875,14.0,-39.235,43.704002,11.440001,30.792002,concentric,5,3.0,21765.0,313691.0,282673.0,331863.0,291848.0
2026-04-07 17:52:03.802745,256323,1394172333,1394173179,-1.27856,0.13664,-0.05856,-2.17875,15.51375,-37.0125,43.704002,11.440001,30.792002,concentric,5,3.0,21765.0,313691.0,282673.0,331863.0,291848.0
2026-04-07 17:52:03.805299,256324,1394181349,1394181967,-1.27856,0.13664,-0.05856,-2.625,14.945,-36.18125,43.704002,11.440001,30.792002,concentric,5,3.0,21765.0,313691.0,282673.0,331863.0,291848.0
2026-04-07 17:52:03.807712,256325,1394196196,1394196900,-1.208288,0.035136,-0.013664,-1.47875,13.50125,-36.14625,43.016003,11.6,34.224003,concentric,5,3.0,21765.0,313691.0,282673.0,331863.0,291848.0
2026-04-07 17:52:03.814044,256326,1394205552,1394207718,-1.19072,0.080032,-0.081984,-1.19875,12.355001,-38.49125,42.960003,12.336,32.68,concentric,5,3.0,21765.0,313691.0,282673.0,331863.0,291848.0
2026-04-07 17:52:03.846677,256327,1394214537,1394216418,-1.19072,0.080032,-0.081984,-0.175,12.43375,-40.64375,42.960003,12.336,32.68,concentric,5,3.0,21765.0,313691.0,282673.0,331863.0,291848.0
2026-04-07 17:52:03.850379,256328,1394229018,1394231290,-1.169248,0.201056,-0.119072,4.76,13.79875,-42.525,42.336002,12.728001,32.664,concentric,5,3.0,21765.0,313691.0,282673.0,331863.0,291848.0
2026-04-07 17:52:03.907851,256338,1394238402,1394240205,-1.169248,0.201056,-0.119072,4.89125,14.542501,-43.75875,42.336002,12.728001,32.664,concentric,5,3.0,21527.0,311320.0,280688.0,329709.0,290140.0
2026-04-07 17:52:03.912065,256339,1394247398,1394249048,-1.204384,0.162016,-0.06832,-0.00875,15.5575,-43.295002,41.960003,12.976001,31.568,concentric,5,3.0,21527.0,311320.0,280688.0,329709.0,290140.0
2026-04-07 17:52:03.913673,256340,1394256334,1394257742,-1.204384,0.162016,-0.06832,-3.815,16.82625,-41.0725,41.960003,12.976001,31.568,concentric,5,3.0,21527.0,311320.0,280688.0,329709.0,290140.0
2026-04-07 17:52:03.915285,256341,1394270882,1394272630,-1.163392,0.08784,-0.033184,-7.7,15.16375,-39.31375,41.848003,14.048,32.104,concentric,5,3.0,21527.0,311320.0,280688.0,329709.0,290140.0
2026-04-07 17:52:03.919583,256342,1394279882,1394281314,-1.163392,0.08784,-0.033184,-7.49,14.875,-40.78375,41.848003,14.048,32.104,concentric,5,3.0,21527.0,311320.0,280688.0,329709.0,290140.0
2026-04-07 17:52:03.921317,256343,1394288828,1394289995,-1.231712,0.093696,-0.072224,-3.75375,15.7325,-42.88375,41.176003,13.72,31.456001,concentric,5,3.0,21527.0,311320.0,280688.0,329709.0,290140.0
2026-04-07 17:52:03.922901,256344,1394303331,1394304972,-1.231712,0.150304,-0.162016,-0.21,16.07375,-43.32125,40.84,14.704,31.384,concentric,5,3.0,21527.0,311320.0,280688.0,329709.0,290140.0
2026-04-07 17:52:03.929577,256345,1394312301,1394313742,-1.231712,0.150304,-0.162016,0.60375,15.68,-42.13125,40.84,14.704,31.384,concentric,5,3.0,21527.0,311320.0,280688.0,329709.0,290140.0
2026-04-07 17:52:03.931093,256346,1394321289,1394322447,-1.231712,0.150304,-0.162016,1.65375,17.675,-39.97875,40.84,14.704,31.384,concentric,5,3.0,21527.0,311320.0,280688.0,329709.0,290140.0
2026-04-07 17:52:03.989020,256357,1394335741,1394337400,-1.23952,0.105408,-0.023424,1.51375,20.195,-39.01625,40.2,14.704,31.2,concentric,5,3.0,21184.0,308503.0,278416.0,327337.0,288075.0
2026-04-07 17:52:03.993301,256358,1394344724,1394346100,-1.198528,0.062464,-0.037088,-3.33375,20.265,-39.80375,40.336002,15.472001,30.392002,concentric,5,3.0,21184.0,308503.0,278416.0,327337.0,288075.0
2026-04-07 17:52:03.995085,256359,1394353734,1394354824,-1.198528,0.062464,-0.037088,-8.25125,17.3075,-38.955,40.336002,15.472001,30.392002,concentric,5,3.0,21184.0,308503.0,278416.0,327337.0,288075.0
2026-04-07 17:52:03.996568,256360,1394362653,1394363521,-1.198528,0.07808,-0.101504,-8.12875,14.9975,-41.1775,40.336002,15.472001,30.392002,concentric,5,3.0,21184.0,308503.0,278416.0,327337.0,288075.0
2026-04-07 17:52:04.000790,256361,1394377205,1394378458,-1.225856,0.080032,-0.101504,-4.17375,13.8075,-42.1925,38.392002,15.168001,32.536003,concentric,5,3.0,21184.0,308503.0,278416.0,327337.0,288075.0
2026-04-07 17:52:04.002482,256362,1394386143,1394387159,-1.149728,0.095648,-0.124928,1.35625,12.5475,-40.43375,38.048,15.784,32.448,concentric,5,3.0,21184.0,308503.0,278416.0,327337.0,288075.0
2026-04-07 17:52:04.004032,256363,1394395055,1394395891,-1.149728,0.095648,-0.124928,4.795,11.47125,-41.18625,38.048,15.784,32.448,concentric,5,3.0,21184.0,308503.0,278416.0,327337.0,288075.0
2026-04-07 17:52:04.035160,256364,1394409534,1394410794,-1.018944,0.007808,0.011712,3.19375,11.50625,-40.495,37.624,16.272001,31.232002,concentric,5,3.0,21184.0,308503.0,278416.0,327337.0,288075.0
2026-04-07 17:52:04.037456,256365,1394418553,1394419467,-1.018944,0.007808,0.011712,-6.055,11.2,-42.91,37.624,16.272001,31.232002,concentric,5,3.0,21184.0,308503.0,278416.0,327337.0,288075.0
2026-04-07 17:52:04.042040,256366,1394427457,1394428200,-0.931104,-0.050752,0.052704,-19.845,9.47625,-46.52375,37.152,16.28,30.312002,concentric,5,3.0,21184.0,308503.0,278416.0,327337.0,288075.0
2026-04-07 17:52:04.068281,256376,1394442611,1394443173,-0.931104,-0.050752,0.052704,-31.63125,7.25375,-51.1175,37.152,16.28,30.312002,concentric,5,3.0,21031.0,307189.0,277425.0,326300.0,286967.0
2026-04-07 17:52:04.069965,256377,1394452046,1394453929,-0.942816,0.031232,-0.074176,-33.3725,6.37,-55.405,36.456,16.776001,31.576002,concentric,5,3.0,21031.0,307189.0,277425.0,326300.0,286967.0
2026-04-07 17:52:04.071564,256378,1394461038,1394462669,-0.942816,0.031232,-0.074176,-24.77125,6.8775,-56.2625,36.456,16.776001,31.576002,concentric,5,3.0,21031.0,307189.0,277425.0,326300.0,286967.0
2026-04-07 17:52:04.101928,256379,1394470036,1394471445,-0.99552,0.15616,-0.193248,-9.44125,7.67375,-55.23875,35.672,17.048,30.208002,concentric,5,3.0,21031.0,307189.0,277425.0,326300.0,286967.0
2026-04-07 17:52:04.105706,256380,1394484533,1394486318,-0.958432,0.0,-0.105408,1.2425,8.05875,-52.885,35.736,17.2,30.800001,concentric,5,3.0,21031.0,307189.0,277425.0,326300.0,286967.0
2026-04-07 17:52:04.107779,256381,1394493464,1394495040,-0.958432,0.0,-0.105408,-1.6975,5.005,-52.10625,35.736,17.2,30.800001,concentric,5,3.0,21031.0,307189.0,277425.0,326300.0,286967.0
2026-04-07 17:52:04.110800,256382,1394502384,1394503779,-0.958432,0.0,-0.105408,-10.99,-0.67375,-53.48,35.736,17.2,30.800001,concentric,5,3.0,21031.0,307189.0,277425.0,326300.0,286967.0
2026-04-07 17:52:04.143057,256383,1394516855,1394518683,-0.9272,-0.044896,-0.105408,-8.295,-5.9325,-53.87375,34.0,17.848001,30.848001,concentric,5,3.0,21031.0,307189.0,277425.0,326300.0,286967.0
2026-04-07 17:52:04.146516,256384,1394525805,1394527377,-1.011136,-0.040992,-0.163968,1.0325,-8.89,-55.39625,33.4,17.448,30.448002,concentric,5,3.0,21031.0,307189.0,277425.0,326300.0,286967.0
2026-04-07 17:52:04.149034,256385,1394534743,1394536110,-1.011136,-0.040992,-0.163968,10.71,-9.10875,-57.1375,33.4,17.448,30.448002,concentric,5,3.0,21031.0,307189.0,277425.0,326300.0,286967.0
2026-04-07 17:52:04.211511,256395,1394543760,1394544880,-1.011136,-0.025376,-0.148352,16.87875,-10.01875,-58.24,33.4,17.448,30.264002,concentric,5,3.0,20949.0,306669.0,277187.0,326216.0,287027.0
2026-04-07 17:52:04.214015,256396,1394558365,1394559857,-1.00528,-0.025376,-0.148352,24.7275,-11.6025,-55.291252,33.016003,18.144001,30.264002,concentric,5,3.0,20949.0,306669.0,277187.0,326216.0,287027.0
2026-04-07 17:52:04.216553,256397,1394567277,1394568568,-1.013088,-0.027328,-0.06832,34.3525,-11.85625,-50.96875,33.120003,18.232,30.832,concentric,5,3.0,20949.0,306669.0,277187.0,326216.0,287027.0
2026-04-07 17:52:04.219104,256398,1394576174,1394577286,-1.013088,-0.027328,-0.06832,39.025,-12.3375,-49.53375,33.120003,18.232,30.832,concentric,5,3.0,20949.0,306669.0,277187.0,326216.0,287027.0
2026-04-07 17:52:04.221551,256399,1394590703,1394592135,-1.007232,-0.050752,-0.0488,36.0675,-11.85625,-47.5475,31.800001,18.584002,31.152002,concentric,5,3.0,20949.0,306669.0,277187.0,326216.0,287027.0
2026-04-07 17:52:04.224067,256400,1394599640,1394600847,-1.007232,-0.050752,-0.0488,27.553751,-12.1975,-45.00125,31.800001,18.584002,31.152002,concentric,5,3.0,20949.0,306669.0,277187.0,326216.0,287027.0
2026-04-07 17:52:04.226508,256401,1394608566,1394609526,-1.013088,-0.081984,-0.201056,23.765,-13.36125,-43.8025,31.536001,18.456001,31.424002,concentric,5,3.0,20949.0,306669.0,277187.0,326216.0,287027.0
2026-04-07 17:52:04.231535,256402,1394623134,1394624479,-1.013088,-0.081984,-0.201056,25.38375,-14.5075,-43.67125,31.536001,18.456001,31.424002,concentric,5,3.0,20949.0,306669.0,277187.0,326216.0,287027.0
2026-04-07 17:52:04.261879,256403,1394632064,1394633209,-1.052128,-0.005856,-0.208864,33.04875,-15.7325,-43.33875,30.904001,18.240002,32.176003,concentric,5,3.0,20949.0,306669.0,277187.0,326216.0,287027.0
2026-04-07 17:52:04.294082,256414,1394641580,1394642016,-1.052128,-0.005856,-0.208864,42.97125,-16.77375,-42.98,30.904001,18.240002,32.176003,concentric,5,3.0,21261.0,309515.0,279507.0,328766.0,289227.0
2026-04-07 17:52:04.296565,256415,1394650938,1394652830,-1.028704,0.01952,-0.148352,45.9025,-19.83625,-43.2075,30.184002,18.856,32.408,concentric,5,3.0,21261.0,309515.0,279507.0,328766.0,289227.0
2026-04-07 17:52:04.299035,256416,1394665513,1394667765,-0.979904,-0.089792,-0.091744,43.82875,-22.11125,-41.7375,29.36,18.096,34.808002,concentric,5,3.0,21261.0,309515.0,279507.0,328766.0,289227.0
2026-04-07 17:52:04.304095,256417,1394674461,1394676541,-0.979904,-0.089792,-0.091744,42.49,-24.78,-40.9325,29.36,18.096,34.808002,concentric,5,3.0,21261.0,309515.0,279507.0,328766.0,289227.0
2026-04-07 17:52:04.306618,256418,1394683399,1394685232,-0.979904,-0.089792,-0.091744,37.9575,-25.9525,-38.56125,29.36,18.096,34.808002,concentric,5,3.0,21261.0,309515.0,279507.0,328766.0,289227.0
2026-04-07 17:52:04.309183,256419,1394697908,1394700244,-0.837408,-0.183488,-0.0488,28.91,-24.59625,-37.05625,29.096,18.288,34.440002,concentric,5,3.0,21261.0,309515.0,279507.0,328766.0,289227.0
2026-04-07 17:52:04.315287,256420,1394706842,1394708968,-0.792512,-0.210816,-0.005856,21.2625,-22.89875,-36.81125,28.824001,18.952002,33.168003,concentric,5,3.0,21261.0,309515.0,279507.0,328766.0,289227.0
2026-04-07 17:52:04.346581,256421,1394715773,1394717661,-0.792512,-0.210816,-0.005856,16.82625,-20.9475,-36.0675,28.824001,18.952002,33.168003,concentric,5,3.0,21261.0,309515.0,279507.0,328766.0,289227.0
2026-04-07 17:52:04.348759,256422,1394724779,1394726341,-0.778848,-0.16592,-0.044896,15.505,-21.035,-33.145,28.824001,18.240002,34.528,concentric,5,3.0,21261.0,309515.0,279507.0,328766.0,289227.0
2026-04-07 17:52:04.376019,256432,1394739470,1394741954,-0.778848,-0.16592,-0.044896,17.6575,-20.18625,-29.02375,28.432001,18.240002,34.528,concentric,5,3.0,20727.0,304964.0,275842.0,324883.0,285279.0
2026-04-07 17:52:04.382073,256433,1394748548,1394750680,-0.718336,-0.16592,-0.050752,23.616251,-18.03375,-25.3225,28.704,18.368,34.640003,concentric,5,3.0,20727.0,304964.0,275842.0,324883.0,285279.0
2026-04-07 17:52:04.383811,256434,1394757562,1394759377,-0.718336,-0.16592,-0.050752,27.16875,-16.6775,-23.21375,28.704,18.368,34.640003,concentric,5,3.0,20727.0,304964.0,275842.0,324883.0,285279.0
2026-04-07 17:52:04.385292,256435,1394772049,1394774297,-0.665632,-0.226432,0.076128,24.52625,-13.667501,-22.435,28.480001,18.504002,35.176003,concentric,5,3.0,20727.0,304964.0,275842.0,324883.0,285279.0
2026-04-07 17:52:04.390714,256436,1394780986,1394783003,-0.665632,-0.226432,0.076128,19.73125,-11.27,-21.88375,28.480001,18.504002,35.176003,concentric,5,3.0,20727.0,304964.0,275842.0,324883.0,285279.0
2026-04-07 17:52:04.419201,256437,1394789925,1394791723,-0.755424,-0.23424,-0.007808,15.5575,-11.1125,-20.41375,27.784,18.528002,34.896,concentric,5,3.0,20727.0,304964.0,275842.0,324883.0,285279.0
2026-04-07 17:52:04.423900,256438,1394804390,1394806610,-0.755424,-0.23424,0.007808,18.4275,-11.85625,-16.86125,27.784,18.528002,34.896,concentric,5,3.0,20727.0,304964.0,275842.0,324883.0,285279.0
2026-04-07 17:52:04.425300,256439,1394813299,1394815293,-0.630496,-0.21472,0.003904,22.3825,-11.480001,-11.76875,27.984001,18.904001,33.88,concentric,5,3.0,20727.0,304964.0,275842.0,324883.0,285279.0
2026-04-07 17:52:04.433188,256440,1394822249,1394824014,-0.630496,-0.21472,0.003904,19.22375,-10.17625,-8.47,27.984001,18.904001,33.88,concentric,5,3.0,20727.0,304964.0,275842.0,324883.0,285279.0
2026-04-07 17:52:04.486720,256441,1394836753,1394838935,-0.628544,-0.249856,0.054656,13.71125,-10.43,-7.8925,27.248001,18.152,34.904003,concentric,5,3.0,20727.0,304964.0,275842.0,324883.0,285279.0
2026-04-07 17:52:04.515224,256451,1394845762,1394847700,-0.667584,-0.173728,0.081984,12.32875,-9.625,-5.8625,27.328001,18.656,35.264,concentric,5,3.0,20218.0,300637.0,272458.0,321836.0,283036.0
2026-04-07 17:52:04.517772,256452,1394854692,1394856384,-0.667584,-0.173728,0.081984,14.875,-8.25125,-3.395,27.328001,18.656,35.264,concentric,5,3.0,20218.0,300637.0,272458.0,321836.0,283036.0
2026-04-07 17:52:04.520247,256453,1394863600,1394865094,-0.667584,-0.173728,0.081984,16.03875,-6.3175,-1.26875,27.328001,18.656,35.264,concentric,5,3.0,20218.0,300637.0,272458.0,321836.0,283036.0
2026-04-07 17:52:04.522817,256454,1394878087,1394879980,-0.651968,-0.21472,0.169824,11.96125,-5.04,3.29875,27.992,18.504002,33.504,concentric,5,3.0,20218.0,300637.0,272458.0,321836.0,283036.0
2026-04-07 17:52:04.525325,256455,1394887010,1394888742,-0.689056,-0.27328,0.197152,1.89875,-4.13875,8.6275,28.184002,18.08,34.808002,concentric,5,3.0,20218.0,300637.0,272458.0,321836.0,283036.0
2026-04-07 17:52:04.527807,256456,1394895960,1394897433,-0.689056,-0.27328,0.197152,-7.1225,-3.61375,13.92125,28.184002,18.08,34.808002,concentric,5,3.0,20218.0,300637.0,272458.0,321836.0,283036.0
2026-04-07 17:52:04.530292,256457,1394910505,1394912325,-0.6832,-0.173728,0.0976,-9.91375,-3.675,17.52625,28.416002,18.256,34.752003,concentric,5,3.0,20218.0,300637.0,272458.0,321836.0,283036.0
2026-04-07 17:52:04.532788,256458,1394919485,1394921053,-0.6832,-0.173728,0.0976,-6.27375,-3.61375,19.50375,28.416002,18.256,34.752003,concentric,5,3.0,20218.0,300637.0,272458.0,321836.0,283036.0
2026-04-07 17:52:04.536495,256459,1394928459,1394929812,-0.749568,-0.167872,0.052704,-3.43875,-1.18125,21.1225,29.224,18.336,34.456,concentric,5,3.0,20218.0,300637.0,272458.0,321836.0,283036.0
2026-04-07 17:52:04.592712,256470,1394943530,1394944985,-0.749568,-0.167872,0.052704,-4.9875,-0.175,22.365,29.224,18.336,34.456,concentric,5,3.0,19946.0,297999.0,270257.0,319528.0,281439.0
2026-04-07 17:52:04.595287,256471,1394952502,1394953758,-0.798368,-0.236192,0.044896,-9.31875,-0.88375,24.82375,29.744001,18.664001,34.224003,concentric,5,3.0,19946.0,297999.0,270257.0,319528.0,281439.0
2026-04-07 17:52:04.597732,256472,1394961414,1394962479,-0.798368,-0.236192,0.044896,-11.34,-1.93375,28.60375,29.744001,18.664001,34.224003,concentric,5,3.0,19946.0,297999.0,270257.0,319528.0,281439.0
2026-04-07 17:52:04.600323,256473,1394970393,1394971269,-0.853024,-0.206912,0.072224,-7.875,-1.95125,32.8825,29.688002,17.536001,34.656002,concentric,5,3.0,19946.0,297999.0,270257.0,319528.0,281439.0
2026-04-07 17:52:04.602696,256474,1394984984,1394986222,-0.853024,-0.206912,0.072224,-4.3575,-2.82625,35.4375,29.688002,17.536001,34.656002,concentric,5,3.0,19946.0,297999.0,270257.0,319528.0,281439.0
2026-04-07 17:52:04.605303,256475,1394993906,1394994940,-0.903776,-0.148352,0.064416,-3.31625,-3.955,36.8375,29.784002,17.92,34.088,concentric,5,3.0,19946.0,297999.0,270257.0,319528.0,281439.0
2026-04-07 17:52:04.611609,256476,1395002922,1395003690,-0.903776,-0.148352,0.064416,-3.54375,-3.42125,38.15875,29.784002,17.92,34.088,concentric,5,3.0,19946.0,297999.0,270257.0,319528.0,281439.0
2026-04-07 17:52:04.641680,256477,1395012390,1395014422,-0.90768,-0.128832,0.115168,-7.32375,-3.31625,37.6775,30.584002,17.632,34.120003,concentric,5,3.0,19946.0,297999.0,270257.0,319528.0,281439.0
2026-04-07 17:52:04.645339,256478,1395026877,1395027305,-0.931104,-0.21472,-0.060512,-18.31375,-3.3075,39.03375,30.792002,17.544,34.632,concentric,5,3.0,19946.0,297999.0,270257.0,319528.0,281439.0
2026-04-07 17:52:04.647808,256479,1395036274,1395038059,-0.931104,-0.21472,-0.060512,-26.5825,-3.10625,39.7425,30.792002,17.544,34.632,concentric,5,3.0,19946.0,297999.0,270257.0,319528.0,281439.0
2026-04-07 17:52:04.676623,256489,1395045410,1395046837,-0.931104,-0.21472,-0.060512,-24.15875,-2.54625,38.12375,30.792002,17.544,34.632,concentric,5,3.0,19948.0,297922.0,270057.0,318964.0,280795.0
2026-04-07 17:52:04.679046,256490,1395060055,1395061798,-0.981856,-0.203008,-0.005856,-20.0725,-1.96875,38.7625,31.072002,17.44,35.872,concentric,5,3.0,19948.0,297922.0,270057.0,318964.0,280795.0
2026-04-07 17:52:04.684161,256491,1395069030,1395070607,-1.01504,-0.109312,-0.001952,-13.95625,-3.12375,41.93875,31.952002,17.304,34.68,concentric,5,3.0,19948.0,297922.0,270057.0,318964.0,280795.0
2026-04-07 17:52:04.687349,256492,1395078043,1395079340,-1.01504,-0.109312,-0.001952,-13.5625,-4.6725,43.1375,31.952002,17.304,34.68,concentric,5,3.0,19948.0,297922.0,270057.0,318964.0,280795.0
2026-04-07 17:52:04.717600,256493,1395087005,1395088054,-1.065792,-0.152256,-0.007808,-17.98125,-5.4775,42.42875,32.568,16.992,32.504,concentric,5,3.0,19948.0,297922.0,270057.0,318964.0,280795.0
2026-04-07 17:52:04.719885,256494,1395101537,1395102927,-1.065792,-0.152256,-0.007808,-21.63,-5.73125,39.41875,32.568,16.992,32.504,concentric,5,3.0,19948.0,297922.0,270057.0,318964.0,280795.0
2026-04-07 17:52:04.724457,256495,1395110474,1395111655,-1.032608,-0.220576,0.037088,-26.4075,-4.20875,39.7075,32.688,17.032001,33.600002,concentric,5,3.0,19948.0,297922.0,270057.0,318964.0,280795.0
2026-04-07 17:52:04.728107,256496,1395119460,1395120337,-1.032608,-0.220576,0.037088,-27.93875,-2.70375,38.0975,32.688,17.032001,33.600002,concentric,5,3.0,19948.0,297922.0,270057.0,318964.0,280795.0
