pc_time,serial_num,sensor_ts,host_ts,ax,ay,az,gx,gy,gz,mx,my,mz,phase,rpe,weight_kg,ppg_a,ppg_b,ppg_c,ppg_d,ppg_e
2026-04-07 17:52:35.784902,262287,1426113013,1426114344,-0.696864,-0.179584,-0.230336,12.88875,4.76875,1.19875,26.408,18.656,31.728,eccentric,5,3.0,19943.0,304763.0,279493.0,336435.0,300519.0
2026-04-07 17:52:35.786338,262288,1426122058,1426123111,-0.696864,-0.179584,-0.230336,20.4575,4.1475,6.27375,26.408,18.656,31.728,eccentric,5,3.0,19943.0,304763.0,279493.0,336435.0,300519.0
2026-04-07 17:52:35.790961,262289,1426131111,1426131823,-0.872544,-0.212768,-0.160064,24.710001,0.30625,9.8875,25.856,18.672,32.0,eccentric,5,3.0,19943.0,304763.0,279493.0,336435.0,300519.0
2026-04-07 17:52:35.792294,262290,1426146057,1426146755,-0.710528,-0.271328,-0.154208,20.9475,-3.56125,14.11375,25.912,18.408,31.000002,eccentric,5,3.0,19943.0,304763.0,279493.0,336435.0,300519.0
2026-04-07 17:52:35.793870,262291,1426155365,1426157517,-0.710528,-0.271328,-0.154208,15.96875,-5.845,15.6625,25.912,18.408,31.000002,eccentric,5,3.0,19943.0,304763.0,279493.0,336435.0,300519.0
2026-04-07 17:52:35.800668,262292,1426164290,1426166222,-0.733952,-0.290848,-0.113216,15.49625,-3.22875,16.0475,27.552002,19.192001,29.176,eccentric,5,3.0,19943.0,304763.0,279493.0,336435.0,300519.0
2026-04-07 17:52:35.802329,262293,1426178850,1426181117,-0.733952,-0.290848,-0.113216,16.03875,1.5225,18.50625,27.552002,19.192001,29.176,eccentric,5,3.0,19943.0,304763.0,279493.0,336435.0,300519.0
2026-04-07 17:52:35.803940,262294,1426187877,1426189824,-0.79056,-0.37088,-0.144448,10.80625,4.22625,18.57625,27.904001,18.312,29.560001,eccentric,5,3.0,19943.0,304763.0,279493.0,336435.0,300519.0
2026-04-07 17:52:35.811798,262295,1426196809,1426198513,-0.79056,-0.37088,-0.144448,0.20125,1.6625,17.68375,27.904001,18.312,29.560001,eccentric,5,3.0,19943.0,304763.0,279493.0,336435.0,300519.0
2026-04-07 17:52:35.815556,262296,1426205747,1426207239,-0.847168,-0.284992,-0.187392,-0.63,-0.46375,21.30625,27.880001,18.992,29.544,eccentric,5,3.0,19943.0,304763.0,279493.0,336435.0,300519.0
2026-04-07 17:52:35.867675,262306,1426220292,1426222194,-0.847168,-0.284992,-0.187392,9.45,0.65625,23.5725,27.880001,18.992,29.544,eccentric,5,3.0,19774.0,303249.0,278387.0,335669.0,300052.0
2026-04-07 17:52:35.871920,262307,1426229210,1426230922,-0.833504,-0.32208,-0.083936,18.8825,3.5525,23.38,28.872002,18.480001,29.496002,eccentric,5,3.0,19774.0,303249.0,278387.0,335669.0,300052.0
2026-04-07 17:52:35.876068,262308,1426238109,1426239597,-0.833504,-0.32208,-0.083936,17.87625,5.3725,21.67375,28.872002,18.480001,29.496002,eccentric,5,3.0,19774.0,303249.0,278387.0,335669.0,300052.0
2026-04-07 17:52:35.877577,262309,1426252604,1426254538,-0.886208,-0.423584,-0.113216,9.24875,3.6225,17.84125,28.240002,17.808,30.568,eccentric,5,3.0,19774.0,303249.0,278387.0,335669.0,300052.0
2026-04-07 17:52:35.881837,262310,1426261547,1426263327,-0.886208,-0.423584,-0.113216,0.35,1.2775,16.24,28.240002,17.808,30.568,eccentric,5,3.0,19774.0,303249.0,278387.0,335669.0,300052.0
2026-04-07 17:52:35.883455,262311,1426270504,1426272050,-0.853024,-0.372832,-0.093696,-1.8375,4.0425,17.40375,29.104002,17.728,29.880001,eccentric,5,3.0,19774.0,303249.0,278387.0,335669.0,300052.0
2026-04-07 17:52:35.913665,262312,1426284986,1426286955,-0.886208,-0.3904,-0.148352,-3.08,6.58875,14.95375,28.616001,18.008001,29.696001,eccentric,5,3.0,19774.0,303249.0,278387.0,335669.0,300052.0
2026-04-07 17:52:35.915986,262313,1426293918,1426295660,-0.886208,-0.3904,-0.148352,-3.6575,8.8025,10.99875,28.616001,18.008001,29.696001,eccentric,5,3.0,19774.0,303249.0,278387.0,335669.0,300052.0
2026-04-07 17:52:35.920657,262314,1426302848,1426304358,-0.886208,-0.3904,-0.148352,-1.47,12.285,8.12,28.616001,18.008001,29.696001,eccentric,5,3.0,19774.0,303249.0,278387.0,335669.0,300052.0
2026-04-07 17:52:35.945229,262324,1426317453,1426319740,-0.940864,-0.38064,-0.103456,2.44125,14.245,5.6175,29.168001,18.512001,29.624,eccentric,5,3.0,19837.0,304501.0,279802.0,337768.0,301991.0
2026-04-07 17:52:35.949437,262325,1426326542,1426328509,-0.954528,-0.35136,-0.091744,4.7425,15.2075,3.73625,29.232002,18.480001,29.152002,eccentric,5,3.0,19837.0,304501.0,279802.0,337768.0,301991.0
2026-04-07 17:52:35.951840,262326,1426335486,1426337206,-0.954528,-0.35136,-0.091744,-0.77875,16.68625,2.7475,29.232002,18.480001,29.152002,eccentric,5,3.0,19837.0,304501.0,279802.0,337768.0,301991.0
2026-04-07 17:52:35.955489,262327,1426344405,1426345893,-0.925248,-0.402112,-0.201056,-12.52125,16.93125,0.28,29.232002,18.096,29.256,eccentric,5,3.0,19837.0,304501.0,279802.0,337768.0,301991.0
2026-04-07 17:52:35.998741,262328,1426359013,1426360871,-0.925248,-0.402112,-0.201056,-20.965,16.02125,-3.1325,29.288002,18.096,29.256,eccentric,5,3.0,19837.0,304501.0,279802.0,337768.0,301991.0
2026-04-07 17:52:36.001011,262329,1426367912,1426369562,-0.954528,-0.32208,-0.265472,-18.68125,15.61,-6.16875,29.224,18.192001,28.624,eccentric,5,3.0,19837.0,304501.0,279802.0,337768.0,301991.0
2026-04-07 17:52:36.005682,262330,1426376806,1426378226,-0.954528,-0.32208,-0.265472,-12.46,14.7,-10.386251,29.224,18.192001,28.624,eccentric,5,3.0,19837.0,304501.0,279802.0,337768.0,301991.0
2026-04-07 17:52:36.007331,262331,1426391324,1426393118,-0.974048,-0.38064,-0.193248,-6.4925,13.55375,-13.83375,29.168001,18.12,28.688002,eccentric,5,3.0,19837.0,304501.0,279802.0,337768.0,301991.0
2026-04-07 17:52:36.008910,262332,1426400279,1426401851,-0.974048,-0.38064,-0.193248,-3.99875,13.09875,-16.03,29.168001,18.12,28.688002,eccentric,5,3.0,19837.0,304501.0,279802.0,337768.0,301991.0
2026-04-07 17:52:36.040138,262333,1426409213,1426410565,-0.952576,-0.384544,-0.101504,-6.20375,13.83375,-16.1175,28.056002,17.544,30.728,eccentric,5,3.0,19837.0,304501.0,279802.0,337768.0,301991.0
2026-04-07 17:52:36.071168,262344,1426423758,1426425538,-0.952576,-0.384544,-0.101504,-11.41875,13.79,-15.8025,28.056002,17.544,30.728,eccentric,5,3.0,19910.0,305585.0,280813.0,339048.0,303245.0
2026-04-07 17:52:36.072787,262345,1426432712,1426434222,-1.104832,-0.26352,-0.193248,-13.57125,12.285,-15.417501,28.824001,18.568,28.160002,eccentric,5,3.0,19910.0,305585.0,280813.0,339048.0,303245.0
2026-04-07 17:52:36.076959,262346,1426441847,1426442947,-1.104832,-0.26352,-0.193248,-14.2625,9.72125,-16.52,28.824001,18.568,28.160002,eccentric,5,3.0,19910.0,305585.0,280813.0,339048.0,303245.0
2026-04-07 17:52:36.080004,262347,1426450859,1426451677,-0.882304,-0.353312,-0.290848,-15.785,10.00125,-20.6325,29.264002,18.672,27.864002,eccentric,5,3.0,19910.0,305585.0,280813.0,339048.0,303245.0
2026-04-07 17:52:36.085640,262348,1426465342,1426466592,-0.9272,-0.470432,-0.183488,-16.9225,11.47125,-23.63375,28.664001,18.704,28.352001,eccentric,5,3.0,19910.0,305585.0,280813.0,339048.0,303245.0
2026-04-07 17:52:36.087173,262349,1426474252,1426475332,-0.9272,-0.470432,-0.183488,-16.52875,12.7575,-26.01375,28.664001,18.704,28.352001,eccentric,5,3.0,19910.0,305585.0,280813.0,339048.0,303245.0
2026-04-07 17:52:36.094258,262350,1426483255,1426484106,-0.9272,-0.470432,-0.183488,-12.6,13.18625,-25.0075,28.664001,18.704,28.352001,eccentric,5,3.0,19910.0,305585.0,280813.0,339048.0,303245.0
2026-04-07 17:52:36.122894,262351,1426497746,1426499035,-0.991616,-0.259616,-0.206912,-5.8975,12.46875,-19.7925,28.296001,18.552,30.000002,eccentric,5,3.0,19910.0,305585.0,280813.0,339048.0,303245.0
2026-04-07 17:52:36.127430,262352,1426506657,1426507740,-0.919392,-0.242048,-0.222528,-4.76875,10.31625,-19.4075,28.104002,18.560001,27.704,eccentric,5,3.0,19910.0,305585.0,280813.0,339048.0,303245.0
2026-04-07 17:52:36.151371,262362,1426515584,1426516631,-0.919392,-0.242048,-0.222528,-9.47625,5.7575,-22.8375,28.104002,18.560001,27.704,eccentric,5,3.0,20079.0,307496.0,282592.0,341128.0,305059.0
2026-04-07 17:52:36.155632,262363,1426525226,1426527505,-0.856928,-0.388448,-0.236192,-12.25875,1.86375,-24.5525,28.104002,18.576,29.352001,eccentric,5,3.0,20079.0,307496.0,282592.0,341128.0,305059.0
2026-04-07 17:52:36.157369,262364,1426539805,1426540377,-0.856928,-0.388448,-0.236192,-11.22625,0.1575,-24.0975,27.424002,18.576,29.352001,eccentric,5,3.0,20079.0,307496.0,282592.0,341128.0,305059.0
2026-04-07 17:52:36.158892,262365,1426548988,1426551162,-0.808128,-0.355264,-0.208864,-9.79125,-0.0525,-23.05625,27.312002,18.864,28.512001,eccentric,5,3.0,20079.0,307496.0,282592.0,341128.0,305059.0
2026-04-07 17:52:36.191860,262366,1426558000,1426559891,-0.808128,-0.355264,-0.208864,-6.125,0.60375,-22.75875,27.312002,18.864,28.512001,eccentric,5,3.0,20079.0,307496.0,282592.0,341128.0,305059.0
2026-04-07 17:52:36.195075,262367,1426572477,1426572805,-0.903776,-0.245952,-0.208864,-2.0475,1.02375,-19.62625,27.352001,18.888,27.056002,eccentric,5,3.0,20079.0,307496.0,282592.0,341128.0,305059.0
2026-04-07 17:52:36.197540,262368,1426581671,1426583569,-0.903776,-0.245952,-0.208864,-1.54875,0.945,-16.9225,27.352001,18.888,27.056002,eccentric,5,3.0,20079.0,307496.0,282592.0,341128.0,305059.0
2026-04-07 17:52:36.200128,262369,1426590601,1426592257,-0.88816,-0.26352,-0.189344,-4.41,-1.12875,-15.855001,27.920002,19.184,27.656002,eccentric,5,3.0,20079.0,307496.0,282592.0,341128.0,305059.0
2026-04-07 17:52:36.230291,262370,1426605076,1426607144,-0.88816,-0.347456,-0.206912,-7.37625,-3.535,-15.86375,27.920002,19.184,27.656002,eccentric,5,3.0,20079.0,307496.0,282592.0,341128.0,305059.0
2026-04-07 17:52:36.233852,262371,1426613974,1426615867,-0.854976,-0.347456,-0.206912,-7.11375,-3.85,-14.18375,28.024002,18.744001,27.624,eccentric,5,3.0,20079.0,307496.0,282592.0,341128.0,305059.0
2026-04-07 17:52:36.262861,262381,1426622944,1426624574,-0.854976,-0.347456,-0.206912,-9.5375,-3.22875,-11.96125,28.024002,18.744001,27.624,eccentric,5,3.0,20231.0,309130.0,284020.0,342602.0,306091.0
2026-04-07 17:52:36.296583,262382,1426631879,1426633327,-0.851072,-0.324032,-0.206912,-10.6925,-2.33625,-10.99875,27.640001,18.896002,26.944002,eccentric,5,3.0,20231.0,309130.0,284020.0,342602.0,306091.0
2026-04-07 17:52:36.300114,262383,1426646446,1426648224,-0.905728,-0.245952,-0.22448,-6.69375,-0.67375,-8.89,27.784,18.752,27.288002,eccentric,5,3.0,20231.0,309130.0,284020.0,342602.0,306091.0
2026-04-07 17:52:36.302562,262384,1426655489,1426657004,-0.905728,-0.245952,-0.22448,-2.12625,1.5225,-6.64125,27.784,18.752,27.288002,eccentric,5,3.0,20231.0,309130.0,284020.0,342602.0,306091.0
2026-04-07 17:52:36.305143,262385,1426664527,1426665720,-0.905728,-0.245952,-0.22448,-1.6275,2.905,-5.0925,27.784,18.752,27.288002,eccentric,5,3.0,20231.0,309130.0,284020.0,342602.0,306091.0
2026-04-07 17:52:36.307590,262386,1426679006,1426680637,-0.851072,-0.290848,-0.251808,-4.85625,2.82625,-4.01625,27.536001,18.584002,27.264002,eccentric,5,3.0,20231.0,309130.0,284020.0,342602.0,306091.0
2026-04-07 17:52:36.310300,262387,1426687910,1426689333,-0.866688,-0.298656,-0.22448,-9.03,3.6575,-3.78875,28.232002,18.808,27.328001,eccentric,5,3.0,20231.0,309130.0,284020.0,342602.0,306091.0
2026-04-07 17:52:36.312646,262388,1426696803,1426697970,-0.866688,-0.298656,-0.22448,-10.40375,4.865,-2.54625,28.232002,18.808,27.328001,eccentric,5,3.0,20231.0,309130.0,284020.0,342602.0,306091.0
2026-04-07 17:52:36.342896,262389,1426711305,1426712885,-0.950624,-0.245952,-0.236192,-7.8925,4.96125,-0.39375,26.712002,18.656,28.800001,eccentric,5,3.0,20231.0,309130.0,284020.0,342602.0,306091.0
2026-04-07 17:52:36.376404,262400,1426720867,1426722038,-0.950624,-0.245952,-0.236192,-4.34,3.89375,1.39125,26.712002,18.656,28.800001,eccentric,5,3.0,20258.0,309341.0,284123.0,342598.0,305976.0
2026-04-07 17:52:36.378809,262401,1426729849,1426730773,-0.862784,-0.226432,-0.226432,-4.59375,2.59875,2.59875,28.184002,18.912,27.088001,eccentric,5,3.0,20258.0,309341.0,284123.0,342598.0,305976.0
2026-04-07 17:52:36.381311,262402,1426738779,1426739470,-0.862784,-0.226432,-0.226432,-7.97125,2.5725,3.36875,28.184002,18.912,27.088001,eccentric,5,3.0,20258.0,309341.0,284123.0,342598.0,305976.0
2026-04-07 17:52:36.383787,262403,1426753638,1426754555,-0.860832,-0.271328,-0.281088,-8.855001,3.7275,4.06875,28.880001,19.184,26.536001,eccentric,5,3.0,20258.0,309341.0,284123.0,342598.0,305976.0
2026-04-07 17:52:36.401327,262404,1426762579,1426763303,-0.860832,-0.271328,-0.281088,-8.75875,4.935,4.82125,28.880001,19.184,26.536001,eccentric,5,3.0,20258.0,309341.0,284123.0,342598.0,305976.0
2026-04-07 17:52:36.403822,262405,1426771956,1426774083,-0.901824,-0.265472,-0.271328,-9.24,5.11875,6.3,28.616001,18.856,26.920002,eccentric,5,3.0,20258.0,309341.0,284123.0,342598.0,305976.0
2026-04-07 17:52:36.406305,262406,1426780950,1426782801,-0.901824,-0.265472,-0.271328,-7.6125,4.38375,8.16375,28.616001,18.856,26.920002,eccentric,5,3.0,20258.0,309341.0,284123.0,342598.0,305976.0
2026-04-07 17:52:36.408796,262407,1426795446,1426797687,-0.950624,-0.242048,-0.2928,-7.3325,2.1,9.3275,28.904001,18.560001,26.896002,eccentric,5,3.0,20258.0,309341.0,284123.0,342598.0,305976.0
2026-04-07 17:52:36.413833,262408,1426804438,1426806453,-0.950624,-0.242048,-0.2928,-8.925,0.07875,11.5675,28.904001,18.560001,26.896002,eccentric,5,3.0,20258.0,309341.0,284123.0,342598.0,305976.0
2026-04-07 17:52:36.444050,262409,1426813435,1426815176,-0.909632,-0.208864,-0.290848,-9.73875,-0.63875,12.06625,28.712002,18.864,29.240002,eccentric,5,3.0,20258.0,309341.0,284123.0,342598.0,305976.0
2026-04-07 17:52:36.470117,262419,1426828037,1426830165,-0.921344,-0.236192,-0.249856,-11.4625,-0.7175,12.145,28.952002,18.704,25.312,eccentric,5,3.0,20311.0,309744.0,284403.0,343029.0,306326.0
2026-04-07 17:52:36.472601,262420,1426836962,1426838848,-0.921344,-0.236192,-0.249856,-12.95875,-0.735,11.82125,28.952002,18.704,25.312,eccentric,5,3.0,20311.0,309744.0,284403.0,343029.0,306326.0
2026-04-07 17:52:36.475145,262421,1426845917,1426847590,-0.921344,-0.236192,-0.26352,-15.58375,-0.77875,12.76625,28.952002,18.704,25.312,eccentric,5,3.0,20311.0,309744.0,284403.0,343029.0,306326.0
2026-04-07 17:52:36.477654,262422,1426860472,1426862491,-0.977952,-0.216672,-0.26352,-13.7375,0.14,13.615,28.912,18.736,26.592001,eccentric,5,3.0,20311.0,309744.0,284403.0,343029.0,306326.0
2026-04-07 17:52:36.480119,262423,1426869451,1426871242,-0.890112,-0.245952,-0.316224,-12.46,-0.6825,14.175,29.504002,18.76,26.064001,eccentric,5,3.0,20311.0,309744.0,284403.0,343029.0,306326.0
2026-04-07 17:52:36.511543,262424,1426878533,1426879956,-0.890112,-0.245952,-0.316224,-14.86625,-1.37375,14.55125,29.504002,18.76,26.064001,eccentric,5,3.0,20311.0,309744.0,284403.0,343029.0,306326.0
2026-04-07 17:52:36.513863,262425,1426887498,1426888671,-0.903776,-0.1952,-0.31232,-13.97375,-1.6275,14.533751,30.560001,19.216002,26.344002,eccentric,5,3.0,20311.0,309744.0,284403.0,343029.0,306326.0
2026-04-07 17:52:36.516342,262426,1426902040,1426903551,-0.903776,-0.1952,-0.31232,-8.81125,-0.97125,15.44375,30.560001,19.216002,26.344002,eccentric,5,3.0,20311.0,309744.0,284403.0,343029.0,306326.0
2026-04-07 17:52:36.518849,262427,1426910995,1426912281,-0.968192,-0.15616,-0.236192,-8.1025,-0.42875,15.53125,30.296001,18.832,26.248001,eccentric,5,3.0,20311.0,309744.0,284403.0,343029.0,306326.0
2026-04-07 17:52:36.551324,262437,1426920506,1426921165,-0.968192,-0.15616,-0.236192,-9.24,0.63875,16.44125,30.296001,18.832,26.248001,eccentric,5,3.0,20297.0,309598.0,284186.0,342796.0,306200.0
2026-04-07 17:52:36.555609,262438,1426935499,1426936156,-0.942816,-0.179584,-0.218624,-9.59,1.2425,16.63375,29.752,18.400002,28.136002,eccentric,5,3.0,20297.0,309598.0,284186.0,342796.0,306200.0
2026-04-07 17:52:36.558060,262439,1426944847,1426947055,-0.942816,-0.179584,-0.218624,-12.83625,1.0675,16.178751,29.752,18.400002,28.136002,eccentric,5,3.0,20297.0,309598.0,284186.0,342796.0,306200.0
2026-04-07 17:52:36.596281,262440,1426953825,1426955765,-0.958432,-0.201056,-0.22448,-17.42125,2.065,16.28375,30.680002,17.904001,27.248001,eccentric,5,3.0,20297.0,309598.0,284186.0,342796.0,306200.0
2026-04-07 17:52:36.600633,262441,1426962785,1426964479,-0.958432,-0.201056,-0.22448,-18.6375,2.975,15.9075,30.680002,17.904001,27.248001,eccentric,5,3.0,20297.0,309598.0,284186.0,342796.0,306200.0
2026-04-07 17:52:36.602275,262442,1426977289,1426979362,-0.983808,-0.201056,-0.251808,-19.80125,2.45,16.49375,31.584002,18.512001,25.36,eccentric,5,3.0,20297.0,309598.0,284186.0,342796.0,306200.0
2026-04-07 17:52:36.603873,262443,1426986230,1426988041,-0.983808,-0.201056,-0.251808,-23.94,0.00875,17.6575,31.584002,18.512001,25.36,eccentric,5,3.0,20297.0,309598.0,284186.0,342796.0,306200.0
2026-04-07 17:52:36.607976,262444,1426995242,1426996797,-0.974048,-0.171776,-0.32208,-23.1525,-2.8,18.13875,31.616001,18.032001,25.04,eccentric,5,3.0,20297.0,309598.0,284186.0,342796.0,306200.0
2026-04-07 17:52:36.636553,262445,1427009844,1427011718,-1.026752,-0.095648,-0.2928,-19.1275,-5.55625,18.55,32.04,18.36,24.880001,eccentric,5,3.0,20297.0,309598.0,284186.0,342796.0,306200.0
2026-04-07 17:52:36.663762,262455,1427019398,1427020451,-1.026752,-0.095648,-0.2928,-17.50875,-9.4325,18.55875,32.04,18.36,24.880001,eccentric,5,3.0,20252.0,308707.0,283276.0,341648.0,305248.0
2026-04-07 17:52:36.665240,262456,1427028493,1427029202,-1.052128,-0.15616,-0.304512,-12.04875,-12.59125,18.55875,33.208,18.352001,27.976002,eccentric,5,3.0,20252.0,308707.0,283276.0,341648.0,305248.0
2026-04-07 17:52:36.669957,262457,1427037887,1427040091,-1.052128,-0.15616,-0.304512,-8.67125,-15.846251,17.78,33.208,18.352001,27.976002,eccentric,5,3.0,20252.0,308707.0,283276.0,341648.0,305248.0
2026-04-07 17:52:36.671297,262458,1427052396,1427052968,-1.052128,-0.179584,-0.279136,-15.25125,-19.8625,17.15,33.216003,18.024,24.736002,eccentric,5,3.0,20252.0,308707.0,283276.0,341648.0,305248.0
2026-04-07 17:52:36.672622,262459,1427061587,1427063728,-1.052128,-0.179584,-0.279136,-15.82875,-21.3325,17.5875,33.216003,18.024,24.736002,eccentric,5,3.0,20252.0,308707.0,283276.0,341648.0,305248.0
2026-04-07 17:52:36.703757,262460,1427070579,1427072467,-1.059936,-0.119072,-0.208864,-10.29,-20.475,19.145,33.512,17.904001,25.992,eccentric,5,3.0,20252.0,308707.0,283276.0,341648.0,305248.0
2026-04-07 17:52:36.708140,262461,1427079491,1427081145,-1.059936,-0.119072,-0.208864,-9.84375,-19.04,19.01375,33.512,17.904001,25.992,eccentric,5,3.0,20252.0,308707.0,283276.0,341648.0,305248.0
2026-04-07 17:52:36.709711,262462,1427093971,1427096029,-1.188768,-0.150304,-0.210816,-10.745,-17.57875,16.98375,34.04,17.696001,25.264002,eccentric,5,3.0,20252.0,308707.0,283276.0,341648.0,305248.0
2026-04-07 17:52:36.715530,262463,1427102942,1427104751,-1.188768,-0.150304,-0.210816,-8.8725,-15.1725,17.29,34.04,17.696001,25.264002,eccentric,5,3.0,20252.0,308707.0,283276.0,341648.0,305248.0
2026-04-07 17:52:36.721758,262464,1427111877,1427113475,-1.028704,-0.16592,-0.245952,-13.46625,-12.04875,18.12125,34.480003,16.992,25.312,eccentric,5,3.0,20252.0,308707.0,283276.0,341648.0,305248.0
2026-04-07 17:52:36.777423,262475,1427126416,1427128433,-1.028704,-0.16592,-0.245952,-19.2325,-8.5225,15.82875,34.480003,16.992,25.312,eccentric,5,3.0,20117.0,307346.0,282008.0,340158.0,304037.0
2026-04-07 17:52:36.779020,262476,1427135350,1427137189,-1.192672,-0.148352,-0.238144,-18.48875,-5.81875,16.7475,35.048,17.592001,27.208002,eccentric,5,3.0,20117.0,307346.0,282008.0,340158.0,304037.0
2026-04-07 17:52:36.783161,262477,1427144280,1427145883,-1.192672,-0.148352,-0.238144,-18.01625,-5.71375,18.3575,35.048,17.592001,27.208002,eccentric,5,3.0,20117.0,307346.0,282008.0,340158.0,304037.0
2026-04-07 17:52:36.784768,262478,1427158862,1427160794,-1.202432,-0.095648,-0.275232,-16.59,-6.09,18.8125,35.104,17.12,24.592001,eccentric,5,3.0,20117.0,307346.0,282008.0,340158.0,304037.0
2026-04-07 17:52:36.786348,262479,1427167811,1427169544,-1.059936,-0.183488,-0.2928,-12.1975,-7.56875,18.68125,35.104,17.12,24.728,eccentric,5,3.0,20117.0,307346.0,282008.0,340158.0,304037.0
2026-04-07 17:52:36.790455,262480,1427176737,1427178242,-1.059936,-0.183488,-0.2928,-12.4775,-9.17,18.52375,35.384003,16.800001,24.728,eccentric,5,3.0,20117.0,307346.0,282008.0,340158.0,304037.0
2026-04-07 17:52:36.796718,262481,1427185717,1427186929,-1.059936,-0.183488,-0.2928,-14.8925,-10.15,18.34,35.384003,16.800001,24.728,eccentric,5,3.0,20117.0,307346.0,282008.0,340158.0,304037.0
2026-04-07 17:52:36.825406,262482,1427200306,1427201833,-1.167296,-0.121024,-0.255712,-13.3175,-10.96375,18.55,35.920002,17.144001,24.336,eccentric,5,3.0,20117.0,307346.0,282008.0,340158.0,304037.0
2026-04-07 17:52:36.828998,262483,1427209256,1427210560,-1.214144,-0.08784,-0.359168,-9.09125,-13.475,19.88,36.632,16.504002,24.488,eccentric,5,3.0,20117.0,307346.0,282008.0,340158.0,304037.0
2026-04-07 17:52:36.832930,262484,1427218159,1427219247,-1.214144,-0.08784,-0.359168,-4.92625,-17.9025,20.95625,36.632,16.504002,24.488,eccentric,5,3.0,20117.0,307346.0,282008.0,340158.0,304037.0
2026-04-07 17:52:36.856539,262494,1427232888,1427234194,-1.0736,-0.181536,-0.27328,-1.67125,-19.76625,21.49,36.784,16.496,24.992,eccentric,5,3.0,20099.0,307173.0,281845.0,340118.0,304080.0
2026-04-07 17:52:36.860679,262495,1427241858,1427242901,-1.0736,-0.181536,-0.27328,0.49,-20.475,20.97375,36.784,16.496,24.992,eccentric,5,3.0,20099.0,307173.0,281845.0,340118.0,304080.0
2026-04-07 17:52:36.863216,262496,1427250806,1427251605,-1.120448,-0.1464,-0.20496,2.52,-20.86,21.95375,36.808002,15.728001,24.552002,eccentric,5,3.0,20099.0,307173.0,281845.0,340118.0,304080.0
2026-04-07 17:52:36.896220,262497,1427265294,1427266516,-1.120448,-0.1464,-0.20496,4.52375,-21.39375,24.36,36.808002,15.728001,24.552002,eccentric,5,3.0,20099.0,307173.0,281845.0,340118.0,304080.0
2026-04-07 17:52:36.898455,262498,1427274149,1427275241,-1.069696,-0.046848,-0.275232,3.99875,-21.2975,26.69625,37.944,15.400001,24.768002,eccentric,5,3.0,20099.0,307173.0,281845.0,340118.0,304080.0
2026-04-07 17:52:36.903163,262499,1427283060,1427283939,-1.069696,-0.046848,-0.275232,2.2225,-19.4775,26.22375,37.944,15.400001,24.768002,eccentric,5,3.0,20099.0,307173.0,281845.0,340118.0,304080.0
2026-04-07 17:52:36.908024,262500,1427297579,1427298904,-1.204384,-0.052704,-0.220576,1.12,-16.84375,24.7275,38.208,15.376,25.208002,eccentric,5,3.0,20099.0,307173.0,281845.0,340118.0,304080.0
2026-04-07 17:52:36.916729,262501,1427306496,1427307600,-1.204384,-0.052704,-0.220576,2.40625,-15.627501,24.07125,38.208,15.376,25.208002,eccentric,5,3.0,20099.0,307173.0,281845.0,340118.0,304080.0
2026-04-07 17:52:36.948752,262502,1427315417,1427316317,-1.14192,-0.115168,-0.201056,4.85625,-15.4525,23.178751,38.392002,15.328001,24.640001,eccentric,5,3.0,20099.0,307173.0,281845.0,340118.0,304080.0
2026-04-07 17:52:36.978556,262512,1427324545,1427325511,-1.14192,-0.115168,-0.201056,3.7975,-13.965,23.58125,38.392002,15.328001,24.640001,eccentric,5,3.0,20177.0,307858.0,282368.0,340228.0,303926.0
2026-04-07 17:52:36.980275,262513,1427339058,1427340422,-1.089216,-0.11712,-0.208864,2.72125,-12.48625,23.835001,39.280003,15.360001,25.032001,eccentric,5,3.0,20177.0,307858.0,282368.0,340228.0,303926.0
2026-04-07 17:52:36.984447,262514,1427347982,1427349112,-1.089216,-0.11712,-0.162016,3.08,-11.34,23.38,39.280003,15.360001,25.032001,eccentric,5,3.0,20177.0,307858.0,282368.0,340228.0,303926.0
2026-04-07 17:52:36.986084,262515,1427356873,1427357860,-1.050176,-0.040992,-0.160064,2.54625,-9.415,23.82625,38.768,14.864,27.376001,eccentric,5,3.0,20177.0,307858.0,282368.0,340228.0,303926.0
2026-04-07 17:52:36.987632,262516,1427371414,1427372823,-1.106784,-0.035136,-0.162016,1.8025,-7.35875,22.785,39.056004,14.112,26.848001,eccentric,5,3.0,20177.0,307858.0,282368.0,340228.0,303926.0
2026-04-07 17:52:36.991724,262517,1427380399,1427381569,-1.106784,-0.035136,-0.162016,0.07875,-6.83375,22.3475,39.056004,14.112,26.848001,eccentric,5,3.0,20177.0,307858.0,282368.0,340228.0,303926.0
2026-04-07 17:52:37.020238,262518,1427389307,1427390259,-1.05408,-0.023424,-0.22448,-2.65125,-7.98,20.71125,39.920002,13.880001,26.000002,eccentric,5,3.0,20177.0,307858.0,282368.0,340228.0,303926.0
2026-04-07 17:52:37.024678,262519,1427403789,1427405153,-1.05408,-0.023424,-0.22448,-2.66,-9.45875,18.803751,39.920002,13.880001,26.000002,eccentric,5,3.0,20177.0,307858.0,282368.0,340228.0,303926.0
2026-04-07 17:52:37.060052,262520,1427412730,1427413856,-1.059936,-0.005856,-0.226432,0.9975,-9.275,16.19625,40.504,14.432001,25.224,eccentric,5,3.0,20177.0,307858.0,282368.0,340228.0,303926.0
2026-04-07 17:52:37.091494,262531,1427421763,1427422600,-1.059936,-0.005856,-0.226432,4.47125,-9.415,12.74875,40.504,14.432001,25.224,eccentric,5,3.0,20547.0,311136.0,285004.0,342248.0,305291.0
2026-04-07 17:52:37.095641,262532,1427430796,1427431325,-1.130208,-0.074176,-0.212768,3.9725,-11.82125,9.75625,40.688004,13.888001,27.168001,eccentric,5,3.0,20547.0,311136.0,285004.0,342248.0,305291.0
2026-04-07 17:52:37.097344,262533,1427445787,1427446270,-1.130208,-0.074176,-0.212768,3.24625,-14.88375,8.51375,40.688004,13.888001,27.168001,eccentric,5,3.0,20547.0,311136.0,285004.0,342248.0,305291.0
2026-04-07 17:52:37.098977,262534,1427455093,1427457021,-1.11264,-0.06832,-0.167872,7.14875,-16.135,9.80875,40.712,13.240001,25.968,eccentric,5,3.0,20547.0,311136.0,285004.0,342248.0,305291.0
2026-04-07 17:52:37.103094,262535,1427464048,1427465760,-1.11264,-0.06832,-0.167872,11.1475,-15.8025,12.06625,40.712,13.240001,25.968,eccentric,5,3.0,20547.0,311136.0,285004.0,342248.0,305291.0
2026-04-07 17:52:37.105605,262536,1427478648,1427480735,-1.147776,-0.099552,-0.162016,10.4475,-16.77375,12.635,41.168003,13.576,25.784,eccentric,5,3.0,20547.0,311136.0,285004.0,342248.0,305291.0
2026-04-07 17:52:37.107635,262537,1427487578,1427489431,-1.147776,-0.099552,-0.162016,8.4875,-17.22875,12.71375,41.168003,13.576,25.784,eccentric,5,3.0,20547.0,311136.0,285004.0,342248.0,305291.0
2026-04-07 17:52:37.109524,262538,1427496516,1427498158,-1.143872,-0.017568,-0.138592,10.92875,-15.37375,13.5975,41.424004,12.808001,30.608002,eccentric,5,3.0,20547.0,311136.0,285004.0,342248.0,305291.0
2026-04-07 17:52:37.116703,262539,1427505482,1427506887,-1.143872,-0.017568,-0.138592,9.17875,-14.2975,13.04625,41.424004,12.808001,30.608002,eccentric,5,3.0,20547.0,311136.0,285004.0,342248.0,305291.0
2026-04-07 17:52:37.145304,262540,1427519985,1427521728,-1.147776,-0.054656,-0.122976,3.6925,-15.4875,12.18,41.336002,12.208,27.608002,eccentric,5,3.0,20547.0,311136.0,285004.0,342248.0,305291.0
2026-04-07 17:52:37.204813,262550,1427529094,1427530443,-1.147776,-0.085888,-0.16592,0.4725,-16.45,12.74,41.336002,12.208,27.608002,eccentric,5,3.0,21221.0,316645.0,289309.0,345146.0,306277.0
2026-04-07 17:52:37.211498,262551,1427538016,1427539173,-1.16144,-0.091744,-0.16592,-0.1225,-17.57875,13.7025,41.472,12.336,26.872002,eccentric,5,3.0,21221.0,316645.0,289309.0,345146.0,306277.0
2026-04-07 17:52:37.212296,262552,1427552556,1427554071,-1.147776,-0.07808,-0.179584,2.24875,-17.85,14.60375,42.072002,11.648001,28.608002,eccentric,5,3.0,21221.0,316645.0,289309.0,345146.0,306277.0
2026-04-07 17:52:37.212612,262553,1427561594,1427562778,-1.147776,-0.07808,-0.179584,6.55375,-17.22875,15.65375,42.072002,11.648001,28.608002,eccentric,5,3.0,21221.0,316645.0,289309.0,345146.0,306277.0
2026-04-07 17:52:37.216812,262554,1427570545,1427571503,-1.18096,-0.044896,-0.1464,8.6625,-16.625,15.32125,41.928,12.224001,26.648,eccentric,5,3.0,21221.0,316645.0,289309.0,345146.0,306277.0
2026-04-07 17:52:37.218521,262555,1427585044,1427586403,-1.18096,-0.044896,-0.1464,9.93125,-16.345,14.41125,41.928,12.224001,26.648,eccentric,5,3.0,21221.0,316645.0,289309.0,345146.0,306277.0
2026-04-07 17:52:37.221285,262556,1427593961,1427595094,-1.18096,-0.02928,-0.083936,9.58125,-16.79125,14.0525,42.52,11.400001,27.744001,eccentric,5,3.0,21221.0,316645.0,289309.0,345146.0,306277.0
2026-04-07 17:52:37.223562,262557,1427602993,1427603794,-1.18096,-0.02928,-0.083936,6.81625,-17.71875,12.76625,42.52,11.400001,27.744001,eccentric,5,3.0,21221.0,316645.0,289309.0,345146.0,306277.0
2026-04-07 17:52:37.225111,262558,1427612114,1427612607,-1.225856,-0.132736,-0.13664,3.28125,-19.59125,11.8475,43.624,11.632001,27.048,eccentric,5,3.0,21221.0,316645.0,289309.0,345146.0,306277.0
2026-04-07 17:52:37.254825,262568,1427627266,1427627600,-1.225856,-0.132736,-0.13664,2.135,-21.48125,12.29375,43.624,11.632001,27.048,eccentric,5,3.0,21674.0,319482.0,290617.0,344956.0,304966.0
2026-04-07 17:52:37.257326,262569,1427636582,1427638379,-1.163392,-0.158112,-0.179584,5.80125,-21.76125,15.54875,42.376003,11.384001,28.344002,eccentric,5,3.0,21674.0,319482.0,290617.0,344956.0,304966.0
2026-04-07 17:52:37.258902,262570,1427645518,1427647081,-1.163392,-0.158112,-0.179584,10.47375,-20.72,18.7775,42.376003,11.384001,28.344002,eccentric,5,3.0,21674.0,319482.0,290617.0,344956.0,304966.0
2026-04-07 17:52:37.264287,262571,1427654513,1427655818,-1.153632,-0.109312,-0.12688,11.62,-19.9675,20.553751,42.608,10.968,28.816002,eccentric,5,3.0,21674.0,319482.0,290617.0,344956.0,304966.0
2026-04-07 17:52:37.292771,262572,1427669059,1427670753,-1.153632,-0.109312,-0.12688,11.27,-18.73375,20.92125,42.608,10.968,28.816002,eccentric,5,3.0,21674.0,319482.0,290617.0,344956.0,304966.0
2026-04-07 17:52:37.297189,262573,1427677979,1427679451,-1.15168,-0.046848,-0.080032,10.15,-18.0425,20.72875,43.640003,11.336,27.848001,eccentric,5,3.0,21674.0,319482.0,290617.0,344956.0,304966.0
2026-04-07 17:52:37.303187,262574,1427686960,1427688134,-1.15168,-0.046848,-0.080032,7.35,-17.045,20.39625,43.640003,11.336,27.848001,eccentric,5,3.0,21674.0,319482.0,290617.0,344956.0,304966.0
2026-04-07 17:52:37.331572,262575,1427701561,1427703062,-1.175104,-0.013664,-0.042944,4.9175,-15.417501,18.935,43.952003,10.152,28.136002,eccentric,5,3.0,21674.0,319482.0,290617.0,344956.0,304966.0
2026-04-07 17:52:37.336015,262576,1427710486,1427711775,-1.169248,-0.027328,-0.089792,2.86125,-14.63,17.33375,43.952003,9.92,28.584002,eccentric,5,3.0,21674.0,319482.0,290617.0,344956.0,304966.0
2026-04-07 17:52:37.337665,262577,1427719405,1427720485,-1.169248,-0.027328,-0.089792,4.305,-13.92125,16.0825,44.160004,9.92,28.584002,eccentric,5,3.0,21674.0,319482.0,290617.0,344956.0,304966.0
2026-04-07 17:52:37.369774,262588,1427734076,1427735459,-1.155584,-0.021472,-0.095648,7.595,-13.9125,15.846251,43.904003,9.792001,30.240002,eccentric,5,3.0,21808.0,319656.0,289901.0,342603.0,302545.0
2026-04-07 17:52:37.371261,262589,1427743016,1427744170,-1.155584,-0.021472,-0.095648,9.6775,-13.93875,15.39125,43.904003,9.792001,30.240002,eccentric,5,3.0,21808.0,319656.0,289901.0,342603.0,302545.0
2026-04-07 17:52:37.375674,262590,1427751973,1427752899,-1.1224,-0.035136,-0.08784,11.1125,-14.63,15.5575,43.992,9.632001,32.04,eccentric,5,3.0,21808.0,319656.0,289901.0,342603.0,302545.0
2026-04-07 17:52:37.377226,262591,1427766594,1427767798,-1.1224,-0.035136,-0.08784,11.3575,-14.46375,16.625,43.992,9.632001,32.04,eccentric,5,3.0,21808.0,319656.0,289901.0,342603.0,302545.0
2026-04-07 17:52:37.407554,262592,1427775574,1427776514,-1.120448,-0.035136,-0.072224,11.7075,-13.67625,16.6075,45.56,9.624001,29.288002,eccentric,5,3.0,21808.0,319656.0,289901.0,342603.0,302545.0
2026-04-07 17:52:37.411878,262593,1427784637,1427785223,-1.120448,-0.035136,-0.072224,12.03125,-12.4075,15.02375,45.56,9.624001,29.288002,eccentric,5,3.0,21808.0,319656.0,289901.0,342603.0,302545.0
2026-04-07 17:52:37.413457,262594,1427793866,1427796008,-1.143872,0.07808,-0.037088,11.83875,-10.64875,13.64125,44.984,9.192,29.432001,eccentric,5,3.0,21808.0,319656.0,289901.0,342603.0,302545.0
2026-04-07 17:52:37.420563,262595,1427808382,1427808868,-1.143872,0.07808,-0.037088,11.33125,-8.5925,10.52625,44.984,9.192,29.432001,eccentric,5,3.0,21808.0,319656.0,289901.0,342603.0,302545.0
2026-04-07 17:52:37.448992,262596,1427817748,1427819629,-1.184864,0.091744,-0.027328,7.35875,-6.88625,7.28,43.72,8.512,30.880001,eccentric,5,3.0,21808.0,319656.0,289901.0,342603.0,302545.0
2026-04-07 17:52:37.511463,262606,1427827300,1427828419,-1.184864,0.091744,-0.027328,1.44375,-7.9625,5.775,43.72,8.512,30.880001,eccentric,5,3.0,22119.0,322066.0,291510.0,343893.0,303358.0
2026-04-07 17:52:37.515603,262607,1427836276,1427837129,-1.169248,0.037088,-0.062464,-0.41125,-9.0825,4.69,44.768,8.832001,29.784002,eccentric,5,3.0,22119.0,322066.0,291510.0,343893.0,303358.0
2026-04-07 17:52:37.517280,262608,1427850870,1427852008,-1.153632,-0.005856,-0.0976,1.95125,-10.21125,4.85625,44.768,8.832001,31.832,eccentric,5,3.0,22119.0,322066.0,291510.0,343893.0,303358.0
2026-04-07 17:52:37.518925,262609,1427859835,1427860726,-1.14192,-0.005856,-0.0976,6.7725,-10.26375,5.97625,44.08,8.368,30.808,eccentric,5,3.0,22119.0,322066.0,291510.0,343893.0,303358.0
2026-04-07 17:52:37.523103,262610,1427868871,1427869467,-1.14192,-0.005856,-0.0976,10.6225,-10.57875,7.5775,44.08,8.368,30.808,eccentric,5,3.0,22119.0,322066.0,291510.0,343893.0,303358.0
2026-04-07 17:52:37.524841,262611,1427883648,1427884352,-1.124352,-0.027328,-0.089792,12.92375,-11.025,9.05625,44.408,8.072001,29.648,eccentric,5,3.0,22119.0,322066.0,291510.0,343893.0,303358.0
2026-04-07 17:52:37.526416,262612,1427892961,1427895106,-1.130208,0.037088,-0.054656,16.6425,-10.745,11.8475,45.216003,8.184,29.704,eccentric,5,3.0,22119.0,322066.0,291510.0,343893.0,303358.0
2026-04-07 17:52:37.530558,262613,1427901951,1427903843,-1.130208,0.037088,-0.054656,17.4825,-10.9375,13.9475,45.216003,8.184,29.704,eccentric,5,3.0,22119.0,322066.0,291510.0,343893.0,303358.0
2026-04-07 17:52:37.533131,262614,1427910903,1427912545,-1.130208,0.05856,-0.02928,15.575,-10.64875,15.11125,45.216003,8.184,29.704,eccentric,5,3.0,22119.0,322066.0,291510.0,343893.0,303358.0
2026-04-07 17:52:37.556408,262624,1427925597,1427927655,-1.136064,0.05856,-0.02928,13.83375,-10.22875,15.995,45.688004,8.264,31.352001,eccentric,5,3.0,22700.0,326253.0,294753.0,347449.0,305451.0
2026-04-07 17:52:37.560730,262625,1427934622,1427936420,-1.143872,0.07808,-0.031232,10.05375,-9.59,15.82875,45.632004,7.648,31.880001,eccentric,5,3.0,22700.0,326253.0,294753.0,347449.0,305451.0
2026-04-07 17:52:37.562330,262626,1427943667,1427945258,-1.143872,0.07808,-0.031232,6.6325,-9.135,15.02375,45.632004,7.648,31.880001,eccentric,5,3.0,22700.0,326253.0,294753.0,347449.0,305451.0
2026-04-07 17:52:37.570612,262627,1427958197,1427960230,-1.136064,0.066368,-0.040992,5.18,-8.44375,14.8925,45.08,7.552001,31.840002,eccentric,5,3.0,22700.0,326253.0,294753.0,347449.0,305451.0
2026-04-07 17:52:37.598972,262628,1427967110,1427968961,-1.136064,0.066368,-0.040992,3.98125,-8.05,14.533751,45.08,7.552001,31.840002,eccentric,5,3.0,22700.0,326253.0,294753.0,347449.0,305451.0
2026-04-07 17:52:37.603530,262629,1427976052,1427977686,-1.145824,0.02928,-0.037088,2.6075,-8.40875,14.58625,45.088,7.464,31.096,eccentric,5,3.0,22700.0,326253.0,294753.0,347449.0,305451.0
2026-04-07 17:52:37.605082,262630,1427984966,1427986381,-1.145824,0.02928,-0.037088,2.7825,-9.065,15.65375,45.088,7.464,31.096,eccentric,5,3.0,22700.0,326253.0,294753.0,347449.0,305451.0
2026-04-07 17:52:37.611672,262631,1427999425,1428001261,-1.108736,0.03904,-0.056608,5.635,-9.5725,17.68375,45.728,7.08,31.088001,eccentric,5,3.0,22700.0,326253.0,294753.0,347449.0,305451.0
2026-04-07 17:52:37.640426,262632,1428008369,1428009964,-1.108736,0.03904,-0.056608,10.2025,-8.96875,18.375,45.728,7.08,31.088001,eccentric,5,3.0,22700.0,326253.0,294753.0,347449.0,305451.0
2026-04-07 17:52:37.644934,262633,1428017342,1428018702,-1.09312,0.072224,-0.085888,12.60875,-8.8725,17.5,45.616,6.896,31.104002,eccentric,5,3.0,22700.0,326253.0,294753.0,347449.0,305451.0
2026-04-07 17:52:37.675676,262644,1428031872,1428033693,-1.095072,0.062464,-0.064416,11.97875,-8.54,16.66,45.616,6.688,30.648,eccentric,5,3.0,23385.0,331943.0,299191.0,352098.0,308690.0
2026-04-07 17:52:37.677374,262645,1428040831,1428042478,-1.095072,0.062464,-0.064416,11.445,-8.81125,16.205,45.592003,6.688,30.648,eccentric,5,3.0,23385.0,331943.0,299191.0,352098.0,308690.0
2026-04-07 17:52:37.678896,262646,1428049798,1428051189,-1.095072,0.062464,-0.064416,13.39625,-9.073751,14.8925,45.592003,6.688,30.648,eccentric,5,3.0,23385.0,331943.0,299191.0,352098.0,308690.0
2026-04-07 17:52:37.683097,262647,1428064382,1428066139,-1.10288,0.083936,-0.052704,15.5925,-8.505,14.28,45.272003,6.768,33.84,eccentric,5,3.0,23385.0,331943.0,299191.0,352098.0,308690.0
2026-04-07 17:52:37.685564,262648,1428073426,1428074866,-1.098976,0.103456,-0.015616,18.27875,-8.77625,13.011251,45.192,5.944,34.368,eccentric,5,3.0,23385.0,331943.0,299191.0,352098.0,308690.0
2026-04-07 17:52:37.714037,262649,1428082400,1428083627,-1.098976,0.103456,-0.015616,19.95875,-8.085,11.917501,45.192,5.944,34.368,eccentric,5,3.0,23385.0,331943.0,299191.0,352098.0,308690.0
2026-04-07 17:52:37.718640,262650,1428091289,1428092362,-1.098976,0.103456,-0.015616,19.1275,-7.98,10.89375,45.192,5.944,34.368,eccentric,5,3.0,23385.0,331943.0,299191.0,352098.0,308690.0
2026-04-07 17:52:37.720131,262651,1428105767,1428107255,-1.075552,0.076128,-0.03904,17.31625,-7.175,9.8875,45.640003,6.480001,31.208002,eccentric,5,3.0,23385.0,331943.0,299191.0,352098.0,308690.0
2026-04-07 17:52:37.725551,262652,1428114660,1428115945,-1.087264,0.06832,-0.040992,15.42625,-6.2475,9.02125,45.784,6.368001,32.576,eccentric,5,3.0,23385.0,331943.0,299191.0,352098.0,308690.0
2026-04-07 17:52:37.754030,262653,1428123637,1428124703,-1.087264,0.06832,-0.040992,14.0875,-5.6525,8.72375,45.784,6.368001,32.576,eccentric,5,3.0,23385.0,331943.0,299191.0,352098.0,308690.0
2026-04-07 17:52:37.813621,262663,1428138204,1428139641,-1.0736,0.037088,-0.060512,14.1575,-5.52125,9.61625,45.832,5.408001,32.328003,eccentric,5,3.0,24495.0,341344.0,306866.0,360466.0,315503.0
2026-04-07 17:52:37.815152,262664,1428147115,1428148350,-1.0736,0.037088,-0.060512,14.41125,-5.7575,10.77125,45.832,5.408001,32.328003,eccentric,5,3.0,24495.0,341344.0,306866.0,360466.0,315503.0
2026-04-07 17:52:37.819323,262665,1428156086,1428157034,-1.052128,0.033184,-0.027328,14.42875,-6.32625,11.2875,46.296,5.328,32.656002,eccentric,5,3.0,24495.0,341344.0,306866.0,360466.0,315503.0
2026-04-07 17:52:37.821150,262666,1428170641,1428171966,-1.052128,0.033184,-0.027328,14.79625,-4.7775,11.2,46.296,5.328,32.656002,eccentric,5,3.0,24495.0,341344.0,306866.0,360466.0,315503.0
2026-04-07 17:52:37.822703,262667,1428179543,1428180709,-1.067744,0.07808,-0.03904,12.87125,-2.91375,9.42375,46.208004,5.032,32.480003,eccentric,5,3.0,24495.0,341344.0,306866.0,360466.0,315503.0
2026-04-07 17:52:37.826914,262668,1428188456,1428189390,-1.067744,0.07808,-0.03904,11.2875,-1.91625,7.23625,46.208004,5.032,32.480003,eccentric,5,3.0,24495.0,341344.0,306866.0,360466.0,315503.0
2026-04-07 17:52:37.828564,262669,1428202970,1428204317,-1.079456,0.072224,-0.060512,10.36,-1.16375,6.02875,46.2,5.408001,32.672,eccentric,5,3.0,24495.0,341344.0,306866.0,360466.0,315503.0
2026-04-07 17:52:37.831066,262670,1428211967,1428213008,-1.079456,0.072224,-0.060512,9.0825,-0.21875,5.59125,46.2,5.408001,32.672,eccentric,5,3.0,24495.0,341344.0,306866.0,360466.0,315503.0
2026-04-07 17:52:37.833643,262671,1428221011,1428221748,-1.085312,0.046848,-0.052704,8.35625,1.0325,4.19125,46.464,5.944,33.496002,eccentric,5,3.0,24495.0,341344.0,306866.0,360466.0,315503.0
2026-04-07 17:52:37.858538,262681,1428230533,1428232733,-1.085312,0.046848,-0.052704,7.76125,2.07375,2.7825,46.464,5.944,33.496002,eccentric,5,3.0,25575.0,350811.0,314881.0,369305.0,323089.0
2026-04-07 17:52:37.860285,262682,1428245093,1428245702,-1.098976,0.00976,-0.037088,6.72,2.65125,1.855,45.752003,5.216,33.528,eccentric,5,3.0,25575.0,350811.0,314881.0,369305.0,323089.0
2026-04-07 17:52:37.866732,262683,1428254323,1428256486,-1.114592,0.0,-0.011712,5.3375,4.36625,0.49,46.008003,4.744,34.384003,eccentric,5,3.0,25575.0,350811.0,314881.0,369305.0,323089.0
2026-04-07 17:52:37.895344,262684,1428263245,1428265144,-1.114592,0.0,-0.011712,5.73125,5.4775,-0.2275,46.008003,4.744,34.384003,eccentric,5,3.0,25575.0,350811.0,314881.0,369305.0,323089.0
2026-04-07 17:52:37.899848,262685,1428277742,1428280089,-1.097024,0.044896,-0.02928,7.6825,6.1775,-1.40875,45.976,5.152,32.856003,eccentric,5,3.0,25575.0,350811.0,314881.0,369305.0,323089.0
2026-04-07 17:52:37.901352,262686,1428286659,1428288791,-1.097024,0.044896,-0.02928,10.03625,7.77875,-3.4475,45.976,5.152,32.856003,eccentric,5,3.0,25575.0,350811.0,314881.0,369305.0,323089.0
2026-04-07 17:52:37.908284,262687,1428295552,1428297466,-1.11264,0.0488,-0.027328,11.48875,8.75875,-5.1975,45.960003,5.248,32.744003,eccentric,5,3.0,25575.0,350811.0,314881.0,369305.0,323089.0
2026-04-07 17:52:37.915508,262688,1428304478,1428306176,-1.11264,0.0488,-0.027328,11.97,9.38,-5.53,45.960003,5.248,32.744003,eccentric,5,3.0,25575.0,350811.0,314881.0,369305.0,323089.0
2026-04-07 17:52:37.944154,262689,1428318961,1428321081,-1.11264,0.031232,-0.01952,11.83875,10.01,-5.10125,46.616,4.904,32.968002,eccentric,5,3.0,25575.0,350811.0,314881.0,369305.0,323089.0
2026-04-07 17:52:37.974392,262700,1428327957,1428329806,-1.11264,0.031232,-0.01952,11.69,9.8,-6.18625,46.616,4.904,32.968002,eccentric,5,3.0,25382.0,348785.0,313004.0,367012.0,320927.0
2026-04-07 17:52:37.976087,262701,1428336953,1428338518,-1.13216,0.013664,-0.025376,11.90875,9.6775,-6.78125,46.616,5.584,33.032,eccentric,5,3.0,25382.0,348785.0,313004.0,367012.0,320927.0
2026-04-07 17:52:37.977665,262702,1428351433,1428353453,-1.13216,0.013664,-0.025376,11.71625,10.01,-8.0675,46.616,5.584,33.032,eccentric,5,3.0,25382.0,348785.0,313004.0,367012.0,320927.0
2026-04-07 17:52:37.981857,262703,1428360390,1428362171,-1.104832,0.017568,-0.011712,10.57875,10.07125,-8.1375,45.992,5.104,34.536003,eccentric,5,3.0,25382.0,348785.0,313004.0,367012.0,320927.0
2026-04-07 17:52:37.983415,262704,1428369382,1428370882,-1.104832,0.017568,-0.011712,7.41125,11.165,-8.645,45.992,5.104,34.536003,eccentric,5,3.0,25382.0,348785.0,313004.0,367012.0,320927.0
2026-04-07 17:52:38.013746,262705,1428383875,1428385797,-1.153632,-0.001952,-0.033184,3.605,12.04875,-8.91625,45.968002,4.848,33.824,eccentric,5,3.0,25382.0,348785.0,313004.0,367012.0,320927.0
2026-04-07 17:52:38.018131,262706,1428392789,1428394509,-1.153632,-0.001952,-0.015616,-0.105,12.22375,-8.3125,45.968002,4.848,33.824,eccentric,5,3.0,25382.0,348785.0,313004.0,367012.0,320927.0
2026-04-07 17:52:38.021315,262707,1428401727,1428403226,-1.165344,-0.021472,-0.015616,-1.3125,12.97625,-7.34125,46.144,5.56,32.544003,eccentric,5,3.0,25382.0,348785.0,313004.0,367012.0,320927.0
2026-04-07 17:52:38.028028,262708,1428416155,1428418196,-1.1712,0.013664,-0.035136,-0.77875,12.775,-8.11125,46.448,5.528,32.440002,eccentric,5,3.0,25382.0,348785.0,313004.0,367012.0,320927.0
2026-04-07 17:52:38.056555,262709,1428425085,1428426900,-1.1712,0.013664,-0.035136,-0.245,12.64375,-8.7675,46.448,5.528,32.440002,eccentric,5,3.0,25382.0,348785.0,313004.0,367012.0,320927.0
2026-04-07 17:52:38.133507,262719,1428434152,1428435640,-1.163392,0.046848,-0.033184,2.1525,12.6175,-10.4125,46.672,5.528,31.808,concentric,5,3.0,24231.0,338470.0,304233.0,357069.0,312009.0
2026-04-07 17:52:38.135005,262720,1428443112,1428444323,-1.163392,0.046848,-0.033184,3.94625,12.87125,-10.43875,46.672,5.528,31.808,concentric,5,3.0,24231.0,338470.0,304233.0,357069.0,312009.0
2026-04-07 17:52:38.139373,262721,1428457614,1428459195,-1.182912,0.062464,-0.050752,4.03375,12.7225,-9.87,47.000004,5.808,31.944002,concentric,5,3.0,24231.0,338470.0,304233.0,357069.0,312009.0
2026-04-07 17:52:38.141046,262722,1428466624,1428467898,-1.182912,0.062464,-0.050752,2.17875,12.495,-10.40375,47.000004,5.808,31.944002,concentric,5,3.0,24231.0,338470.0,304233.0,357069.0,312009.0
2026-04-07 17:52:38.142661,262723,1428475533,1428476618,-1.208288,0.03904,-0.044896,-0.32375,12.52125,-11.480001,46.712,6.032,31.480001,concentric,5,3.0,24231.0,338470.0,304233.0,357069.0,312009.0
2026-04-07 17:52:38.146931,262724,1428490035,1428491503,-1.208288,0.03904,-0.044896,-2.31875,12.53875,-11.2175,46.712,6.032,31.480001,concentric,5,3.0,24231.0,338470.0,304233.0,357069.0,312009.0
2026-04-07 17:52:38.148629,262725,1428498959,1428500249,-1.21024,0.031232,-0.01952,-4.5325,12.20625,-11.2,46.856003,6.248,31.584002,concentric,5,3.0,24231.0,338470.0,304233.0,357069.0,312009.0
2026-04-07 17:52:38.150245,262726,1428507877,1428508957,-1.21024,0.031232,-0.01952,-5.57375,11.6025,-11.57625,46.856003,6.248,31.584002,concentric,5,3.0,24231.0,338470.0,304233.0,357069.0,312009.0
2026-04-07 17:52:38.154239,262727,1428522400,1428523843,-1.198528,0.044896,-0.00976,-6.7375,11.68125,-12.11,46.432003,5.944,31.344002,concentric,5,3.0,24231.0,338470.0,304233.0,357069.0,312009.0
2026-04-07 17:52:38.177631,262737,1428531661,1428532703,-1.198528,0.044896,-0.00976,-8.18125,12.075,-12.1275,46.432003,5.944,31.344002,concentric,5,3.0,22747.0,325345.0,293365.0,345194.0,302148.0
2026-04-07 17:52:38.183013,262738,1428540636,1428541418,-1.20048,0.109312,-0.031232,-6.71125,11.8825,-11.5325,46.496002,5.632,32.24,concentric,5,3.0,22747.0,325345.0,293365.0,345194.0,302148.0
2026-04-07 17:52:38.183625,262739,1428550099,1428552222,-1.20048,0.109312,-0.031232,-7.4725,11.5325,-11.375,46.496002,5.632,32.24,concentric,5,3.0,22747.0,325345.0,293365.0,345194.0,302148.0
2026-04-07 17:52:38.185276,262740,1428564663,1428565105,-1.196576,0.052704,-0.091744,-9.40625,11.50625,-10.47375,46.72,5.968,30.712002,concentric,5,3.0,22747.0,325345.0,293365.0,345194.0,302148.0
2026-04-07 17:52:38.190026,262741,1428574045,1428575905,-1.196576,0.035136,-0.023424,-11.3925,11.92625,-10.28125,46.72,5.968,30.712002,concentric,5,3.0,22747.0,325345.0,293365.0,345194.0,302148.0
2026-04-07 17:52:38.195519,262742,1428582993,1428584632,-1.216096,0.035136,-0.023424,-9.37125,12.25875,-10.64,46.456,6.024,29.336,concentric,5,3.0,22747.0,325345.0,293365.0,345194.0,302148.0
2026-04-07 17:52:38.224005,262743,1428597497,1428599524,-1.208288,0.099552,-0.021472,-6.25625,12.075,-10.5525,46.072002,6.192,31.808,concentric,5,3.0,22747.0,325345.0,293365.0,345194.0,302148.0
2026-04-07 17:52:38.228535,262744,1428606429,1428608216,-1.208288,0.099552,-0.021472,-4.83875,11.235,-10.15,46.072002,6.192,31.808,concentric,5,3.0,22747.0,325345.0,293365.0,345194.0,302148.0
2026-04-07 17:52:38.230139,262745,1428615374,1428616953,-1.175104,0.134688,-0.027328,-3.43,11.3225,-9.05625,45.704002,6.784,30.832,concentric,5,3.0,22747.0,325345.0,293365.0,345194.0,302148.0
2026-04-07 17:52:38.234189,262746,1428624324,1428625676,-1.175104,0.134688,-0.027328,-4.095,11.698751,-9.073751,45.704002,6.784,30.832,concentric,5,3.0,22747.0,325345.0,293365.0,345194.0,302148.0
2026-04-07 17:52:38.266296,262757,1428638904,1428640674,-1.167296,0.140544,-0.01952,-7.6825,12.3025,-11.06875,46.488003,6.456,30.304,concentric,5,3.0,21758.0,316160.0,285652.0,336507.0,294802.0
2026-04-07 17:52:38.270841,262758,1428647856,1428649390,-1.167296,0.140544,-0.01952,-11.69,12.18875,-13.08125,46.488003,6.456,30.304,concentric,5,3.0,21758.0,316160.0,285652.0,336507.0,294802.0
2026-04-07 17:52:38.272192,262759,1428657058,1428658157,-1.18096,0.183488,-0.021472,-13.0375,12.3025,-14.980001,45.808002,6.984,31.232002,concentric,5,3.0,21758.0,316160.0,285652.0,336507.0,294802.0
2026-04-07 17:52:38.302445,262760,1428671626,1428673142,-1.18096,0.183488,-0.021472,-12.6175,12.53,-17.045,45.808002,6.984,31.232002,concentric,5,3.0,21758.0,316160.0,285652.0,336507.0,294802.0
2026-04-07 17:52:38.307202,262761,1428680603,1428681844,-1.18096,0.201056,-0.01952,-15.35625,13.1075,-18.13,45.632004,6.736001,30.016,concentric,5,3.0,21758.0,316160.0,285652.0,336507.0,294802.0
2026-04-07 17:52:38.341379,262762,1428689561,1428690647,-1.18096,0.201056,-0.01952,-19.897501,14.06125,-19.48625,45.632004,6.736001,30.016,concentric,5,3.0,21758.0,316160.0,285652.0,336507.0,294802.0
2026-04-07 17:52:38.345622,262763,1428704078,1428705608,-1.169248,0.1464,-0.033184,-23.6425,13.86875,-19.94125,45.72,7.056,29.808,concentric,5,3.0,21758.0,316160.0,285652.0,336507.0,294802.0
2026-04-07 17:52:38.347339,262764,1428712972,1428714315,-1.169248,0.1464,-0.033184,-26.32,13.877501,-21.5425,45.72,7.056,29.808,concentric,5,3.0,21758.0,316160.0,285652.0,336507.0,294802.0
2026-04-07 17:52:38.348947,262765,1428721943,1428723028,-1.15168,0.163968,-0.035136,-24.75375,14.07,-22.37375,45.608,7.688,29.304,concentric,5,3.0,21758.0,316160.0,285652.0,336507.0,294802.0
2026-04-07 17:52:38.408947,262775,1428731165,1428731783,-1.15168,0.163968,-0.035136,-21.5775,14.3675,-24.17625,45.608,7.688,29.304,concentric,5,3.0,21628.0,314724.0,284349.0,335008.0,293859.0
2026-04-07 17:52:38.413112,262776,1428745990,1428746758,-1.163392,0.179584,-0.021472,-21.49,14.84,-26.78375,45.24,7.632,29.216002,concentric,5,3.0,21628.0,314724.0,284349.0,335008.0,293859.0
2026-04-07 17:52:38.414825,262777,1428755485,1428757619,-1.182912,0.17568,-0.035136,-23.24875,15.37375,-27.9125,44.216003,8.176001,30.392002,concentric,5,3.0,21628.0,314724.0,284349.0,335008.0,293859.0
2026-04-07 17:52:38.417249,262778,1428764423,1428766349,-1.182912,0.17568,-0.035136,-25.06875,15.02375,-28.5075,44.216003,8.176001,30.392002,concentric,5,3.0,21628.0,314724.0,284349.0,335008.0,293859.0
2026-04-07 17:52:38.418958,262779,1428773357,1428775027,-1.182912,0.17568,-0.035136,-25.26125,15.015,-29.785,44.216003,8.176001,30.392002,concentric,5,3.0,21628.0,314724.0,284349.0,335008.0,293859.0
2026-04-07 17:52:38.423375,262780,1428787834,1428789902,-1.182912,0.197152,0.023424,-24.08875,14.8575,-31.3075,44.944,9.008,28.160002,concentric,5,3.0,21628.0,314724.0,284349.0,335008.0,293859.0
2026-04-07 17:52:38.427414,262781,1428796758,1428798623,-1.159488,0.191296,-0.00976,-22.33,13.97375,-32.48,44.848003,9.096001,28.392002,concentric,5,3.0,21628.0,314724.0,284349.0,335008.0,293859.0
2026-04-07 17:52:38.428877,262782,1428805692,1428807407,-1.159488,0.191296,-0.00976,-21.866251,12.88875,-32.41,44.848003,9.096001,28.392002,concentric,5,3.0,21628.0,314724.0,284349.0,335008.0,293859.0
2026-04-07 17:52:38.432933,262783,1428820235,1428822325,-1.075552,0.181536,-0.027328,-23.52875,12.573751,-32.36625,43.792004,9.392,27.776001,concentric,5,3.0,21628.0,314724.0,284349.0,335008.0,293859.0
2026-04-07 17:52:38.461879,262793,1428829192,1428831128,-1.075552,0.181536,-0.027328,-27.06375,14.44625,-32.69875,43.792004,9.392,27.776001,concentric,5,3.0,21803.0,316250.0,285744.0,336672.0,295568.0
2026-04-07 17:52:38.463612,262794,1428838541,1428839856,-1.118496,0.1464,0.00976,-31.01875,17.6925,-34.763752,43.032,9.568001,29.52,concentric,5,3.0,21803.0,316250.0,285744.0,336672.0,295568.0
2026-04-07 17:52:38.465152,262795,1428853122,1428854856,-1.118496,0.1464,0.00976,-32.27,20.60625,-35.09625,43.032,9.568001,29.52,concentric,5,3.0,21803.0,316250.0,285744.0,336672.0,295568.0
2026-04-07 17:52:38.473483,262796,1428862110,1428863605,-1.198528,0.089792,0.01952,-33.46875,20.72,-32.9175,43.208,9.864,29.736002,concentric,5,3.0,21803.0,316250.0,285744.0,336672.0,295568.0
2026-04-07 17:52:38.503969,262797,1428871037,1428872281,-1.198528,0.089792,0.01952,-33.635,18.12125,-30.1525,43.208,9.864,29.736002,concentric,5,3.0,21803.0,316250.0,285744.0,336672.0,295568.0
2026-04-07 17:52:38.508205,262798,1428879943,1428880997,-1.120448,0.12688,-0.064416,-30.87,15.5575,-26.7575,43.064003,9.904,28.064001,concentric,5,3.0,21803.0,316250.0,285744.0,336672.0,295568.0
2026-04-07 17:52:38.509844,262799,1428894433,1428895891,-1.120448,0.12688,-0.064416,-25.85625,14.77,-26.425,43.064003,9.904,28.064001,concentric,5,3.0,21803.0,316250.0,285744.0,336672.0,295568.0
2026-04-07 17:52:38.513414,262800,1428903393,1428904590,-1.116544,0.154208,-0.081984,-24.4125,14.77,-28.07875,43.128002,10.288,26.584002,concentric,5,3.0,21803.0,316250.0,285744.0,336672.0,295568.0
2026-04-07 17:52:38.543808,262801,1428912354,1428913275,-1.116544,0.154208,-0.081984,-24.85875,14.98875,-29.77625,43.128002,10.288,26.584002,concentric,5,3.0,21803.0,316250.0,285744.0,336672.0,295568.0
2026-04-07 17:52:38.546011,262802,1428926779,1428928278,-1.169248,0.17568,-0.064416,-21.16625,15.1025,-30.09125,42.68,11.208,26.400002,concentric,5,3.0,21803.0,316250.0,285744.0,336672.0,295568.0
2026-04-07 17:52:38.579586,262813,1428935787,1428937033,-1.169248,0.111264,-0.099552,-17.5175,14.42875,-29.9075,42.68,11.208,26.400002,concentric,5,3.0,21921.0,317634.0,287047.0,338387.0,297224.0
2026-04-07 17:52:38.581178,262814,1428944795,1428945788,-1.165344,0.111264,-0.099552,-19.08375,11.78625,-31.43875,42.744003,11.144,26.560001,concentric,5,3.0,21921.0,317634.0,287047.0,338387.0,297224.0
2026-04-07 17:52:38.582643,262815,1428959351,1428960699,-1.173152,0.070272,-0.132736,-19.04,9.00375,-32.99625,42.800003,11.768001,26.04,concentric,5,3.0,21921.0,317634.0,287047.0,338387.0,297224.0
2026-04-07 17:52:38.587327,262816,1428968300,1428969416,-1.173152,0.070272,-0.132736,-16.0125,5.97625,-34.58,42.800003,11.768001,26.04,concentric,5,3.0,21921.0,317634.0,287047.0,338387.0,297224.0
2026-04-07 17:52:38.589696,262817,1428977207,1428978130,-1.128256,0.095648,-0.222528,-14.875,0.86625,-35.67375,41.160004,12.088,26.648,concentric,5,3.0,21921.0,317634.0,287047.0,338387.0,297224.0
2026-04-07 17:52:38.617760,262818,1428986177,1428986881,-1.128256,0.095648,-0.222528,-12.04875,-3.7275,-36.9075,41.160004,12.088,26.648,concentric,5,3.0,21921.0,317634.0,287047.0,338387.0,297224.0
2026-04-07 17:52:38.622367,262819,1429001043,1429001763,-1.130208,0.083936,-0.183488,-7.41125,-8.47875,-37.93125,40.976,11.824,26.248001,concentric,5,3.0,21921.0,317634.0,287047.0,338387.0,297224.0
2026-04-07 17:52:38.624606,262820,1429010351,1429012498,-1.130208,0.083936,-0.183488,-0.09625,-12.90625,-39.2,40.976,11.824,26.248001,concentric,5,3.0,21921.0,317634.0,287047.0,338387.0,297224.0
2026-04-07 17:52:38.630548,262821,1429019281,1429021306,-1.155584,0.076128,-0.171776,7.76125,-17.6575,-40.3375,40.432003,12.048,27.136002,concentric,5,3.0,21921.0,317634.0,287047.0,338387.0,297224.0
2026-04-07 17:52:38.715208,262831,1429034355,1429036271,-1.155584,0.076128,-0.171776,12.9675,-22.9425,-40.81875,40.432003,12.048,27.136002,concentric,5,3.0,21655.0,315178.0,284910.0,335877.0,294846.0
2026-04-07 17:52:38.719361,262832,1429043294,1429044974,-1.11264,0.031232,-0.240096,12.24125,-30.73,-42.09625,40.088,12.632001,26.376001,concentric,5,3.0,21655.0,315178.0,284910.0,335877.0,294846.0
2026-04-07 17:52:38.721084,262833,1429052232,1429053683,-1.11264,0.031232,-0.240096,12.285,-36.951252,-43.00625,40.088,12.632001,26.376001,concentric,5,3.0,21655.0,315178.0,284910.0,335877.0,294846.0
2026-04-07 17:52:38.722651,262834,1429061159,1429062464,-1.095072,0.052704,-0.197152,16.82625,-41.16,-43.60125,39.600002,13.368001,27.248001,concentric,5,3.0,21655.0,315178.0,284910.0,335877.0,294846.0
2026-04-07 17:52:38.726868,262835,1429075605,1429077348,-1.095072,0.052704,-0.197152,26.022501,-44.58125,-45.0275,39.600002,13.368001,27.248001,concentric,5,3.0,21655.0,315178.0,284910.0,335877.0,294846.0
2026-04-07 17:52:38.728584,262836,1429084509,1429086055,-1.03456,0.066368,-0.023424,35.58625,-46.445,-46.1475,39.920002,13.8,25.728,concentric,5,3.0,21655.0,315178.0,284910.0,335877.0,294846.0
2026-04-07 17:52:38.730133,262837,1429093437,1429094724,-1.03456,0.066368,-0.023424,40.495,-44.1875,-47.34625,39.920002,13.8,25.728,concentric,5,3.0,21655.0,315178.0,284910.0,335877.0,294846.0
2026-04-07 17:52:38.734378,262838,1429107946,1429109675,-0.989664,0.122976,0.085888,37.72125,-40.39875,-50.076252,38.712,13.888001,28.04,concentric,5,3.0,21655.0,315178.0,284910.0,335877.0,294846.0
2026-04-07 17:52:38.736060,262839,1429116893,1429118402,-0.972096,0.101504,0.113216,29.63625,-34.9475,-53.27875,38.712,14.304001,28.448002,concentric,5,3.0,21655.0,315178.0,284910.0,335877.0,294846.0
2026-04-07 17:52:38.737607,262840,1429125847,1429127095,-0.972096,0.101504,0.113216,19.285,-28.455,-54.83625,37.648003,14.304001,28.448002,concentric,5,3.0,21655.0,315178.0,284910.0,335877.0,294846.0
2026-04-07 17:52:38.767265,262850,1429140458,1429142123,-0.9272,0.011712,0.099552,10.71,-20.475,-56.1575,37.784,14.936001,29.128002,concentric,5,3.0,21276.0,311072.0,281275.0,331467.0,290740.0
2026-04-07 17:52:38.769746,262851,1429149387,1429150933,-0.9272,0.011712,0.099552,5.81,-12.775,-58.345,37.784,14.936001,29.128002,concentric,5,3.0,21276.0,311072.0,281275.0,331467.0,290740.0
2026-04-07 17:52:38.771300,262852,1429158337,1429159631,-0.968192,-0.01952,0.128832,4.9875,-5.495,-57.53125,36.0,14.456,30.864002,concentric,5,3.0,21276.0,311072.0,281275.0,331467.0,290740.0
2026-04-07 17:52:38.775902,262853,1429167284,1429168376,-0.968192,-0.01952,0.128832,6.5975,1.72375,-55.72,36.0,14.456,30.864002,concentric,5,3.0,21276.0,311072.0,281275.0,331467.0,290740.0
2026-04-07 17:52:38.806148,262854,1429181756,1429183289,-0.987712,-0.031232,0.12688,7.51625,7.56,-53.27875,36.376003,14.848001,28.52,concentric,5,3.0,21276.0,311072.0,281275.0,331467.0,290740.0
2026-04-07 17:52:38.811291,262855,1429190670,1429191963,-0.987712,-0.031232,0.12688,8.015,10.56125,-50.33875,36.376003,14.848001,28.52,concentric,5,3.0,21276.0,311072.0,281275.0,331467.0,290740.0
2026-04-07 17:52:38.812977,262856,1429199583,1429200647,-0.933056,-0.0488,0.066368,2.3275,11.042501,-49.04375,35.776,15.736001,28.456001,concentric,5,3.0,21276.0,311072.0,281275.0,331467.0,290740.0
2026-04-07 17:52:38.841646,262857,1429214057,1429215623,-0.933056,-0.0488,0.066368,-5.17125,10.43,-47.81,35.776,15.736001,28.456001,concentric,5,3.0,21276.0,311072.0,281275.0,331467.0,290740.0
2026-04-07 17:52:38.846064,262858,1429222977,1429224314,-0.958432,-0.005856,-0.037088,-5.915,10.395,-49.035,35.976,16.176,28.264002,concentric,5,3.0,21276.0,311072.0,281275.0,331467.0,290740.0
2026-04-07 17:52:38.876395,262869,1429232048,1429233039,-0.958432,-0.005856,-0.037088,1.505,11.515,-49.56875,35.976,16.176,28.264002,concentric,5,3.0,20628.0,305595.0,276939.0,327135.0,286981.0
2026-04-07 17:52:38.880661,262870,1429246693,1429248034,-0.987712,-0.040992,0.0,6.79,12.1625,-47.8975,35.184002,16.12,28.12,concentric,5,3.0,20628.0,305595.0,276939.0,327135.0,286981.0
2026-04-07 17:52:38.882314,262871,1429255595,1429256787,-0.987712,-0.040992,0.0,7.63,11.5325,-44.24875,35.184002,16.12,28.12,concentric,5,3.0,20628.0,305595.0,276939.0,327135.0,286981.0
2026-04-07 17:52:38.883871,262872,1429264597,1429265647,-1.022848,-0.140544,0.0,5.88875,7.76125,-40.888752,34.128002,16.144001,29.624,concentric,5,3.0,20628.0,305595.0,276939.0,327135.0,286981.0
2026-04-07 17:52:38.890501,262873,1429279083,1429280564,-1.040416,0.027328,0.011712,12.4775,4.59375,-37.24875,33.872,16.52,29.544,concentric,5,3.0,20628.0,305595.0,276939.0,327135.0,286981.0
2026-04-07 17:52:38.919057,262874,1429287981,1429289259,-1.040416,0.027328,0.011712,27.22125,4.165,-36.47,33.872,16.52,29.544,concentric,5,3.0,20628.0,305595.0,276939.0,327135.0,286981.0
2026-04-07 17:52:38.923531,262875,1429296953,1429298004,-1.040416,0.027328,0.027328,39.375,4.76875,-40.11875,33.872,16.52,29.544,concentric,5,3.0,20628.0,305595.0,276939.0,327135.0,286981.0
2026-04-07 17:52:38.925134,262876,1429305864,1429306702,-1.03456,-0.052704,0.025376,41.7725,6.23,-41.895,33.472,16.632,29.096,concentric,5,3.0,20628.0,305595.0,276939.0,327135.0,286981.0
2026-04-07 17:52:38.931723,262877,1429320345,1429321581,-1.013088,-0.20496,0.148352,33.775,7.70875,-38.19375,33.480003,16.704,30.208002,concentric,5,3.0,20628.0,305595.0,276939.0,327135.0,286981.0
2026-04-07 17:52:38.960286,262878,1429329294,1429330343,-1.013088,-0.20496,0.148352,22.84625,9.8,-31.75375,33.480003,16.704,30.208002,concentric,5,3.0,20628.0,305595.0,276939.0,327135.0,286981.0
2026-04-07 17:52:39.021195,262888,1429338272,1429339082,-1.007232,-0.1464,0.121024,14.55125,13.09875,-24.68375,32.904003,16.68,29.568,concentric,5,3.0,20904.0,308754.0,279976.0,330964.0,290396.0
2026-04-07 17:52:39.022779,262889,1429352774,1429354012,-1.007232,-0.1464,0.121024,9.66875,16.10875,-19.43375,32.904003,16.68,29.568,concentric,5,3.0,20904.0,308754.0,279976.0,330964.0,290396.0
2026-04-07 17:52:39.030664,262890,1429361698,1429362750,-1.0248,-0.017568,-0.074176,6.37,17.26375,-18.025,32.776,16.736,29.080002,concentric,5,3.0,20904.0,308754.0,279976.0,330964.0,290396.0
2026-04-07 17:52:39.032254,262891,1429370742,1429371459,-1.0248,-0.017568,-0.074176,9.7125,19.59125,-16.98375,32.776,16.736,29.080002,concentric,5,3.0,20904.0,308754.0,279976.0,330964.0,290396.0
2026-04-07 17:52:39.034776,262892,1429385623,1429386352,-1.011136,-0.06832,0.00976,17.89375,22.68875,-15.67125,32.920002,17.168001,29.04,concentric,5,3.0,20904.0,308754.0,279976.0,330964.0,290396.0
2026-04-07 17:52:39.036425,262893,1429394953,1429397157,-1.011136,-0.06832,0.00976,17.272501,23.28375,-13.02,32.920002,17.168001,29.04,concentric,5,3.0,20904.0,308754.0,279976.0,330964.0,290396.0
2026-04-07 17:52:39.040583,262894,1429403872,1429405881,-1.00528,-0.171776,-0.076128,11.2,20.62375,-9.17875,32.800003,16.912,31.088001,concentric,5,3.0,20904.0,308754.0,279976.0,330964.0,290396.0
2026-04-07 17:52:39.042328,262895,1429413057,1429414637,-1.00528,-0.171776,-0.076128,7.04375,16.54625,-6.195,32.800003,16.912,31.088001,concentric,5,3.0,20904.0,308754.0,279976.0,330964.0,290396.0
2026-04-07 17:52:39.044023,262896,1429427560,1429429537,-0.933056,-0.0976,-0.056608,6.2825,14.9625,-2.345,32.248,16.632,31.048002,concentric,5,3.0,20904.0,308754.0,279976.0,330964.0,290396.0
2026-04-07 17:52:39.078614,262906,1429436625,1429438361,-0.933056,-0.0976,-0.056608,8.636251,15.89,-0.95375,32.248,16.632,31.048002,concentric,5,3.0,20948.0,309883.0,281237.0,332784.0,292198.0
2026-04-07 17:52:39.080170,262907,1429445684,1429447150,-0.960384,-0.072224,0.011712,13.30875,17.605,-1.715,32.688,16.552,29.336,concentric,5,3.0,20948.0,309883.0,281237.0,332784.0,292198.0
2026-04-07 17:52:39.082667,262908,1429460298,1429462085,-1.077504,-0.074176,-0.007808,18.305,19.80125,1.3825,32.216003,16.072,30.400002,concentric,5,3.0,20948.0,309883.0,281237.0,332784.0,292198.0
2026-04-07 17:52:39.086847,262909,1429469244,1429470797,-1.077504,-0.074176,-0.007808,22.02375,21.27125,5.6875,32.216003,16.072,30.400002,concentric,5,3.0,20948.0,309883.0,281237.0,332784.0,292198.0
2026-04-07 17:52:39.088426,262910,1429478323,1429479530,-1.077504,-0.095648,-0.013664,21.84,19.08375,9.7125,32.216003,16.072,30.400002,concentric,5,3.0,20948.0,309883.0,281237.0,332784.0,292198.0
2026-04-07 17:52:39.118719,262911,1429487323,1429488247,-1.06384,-0.095648,-0.013664,19.7225,15.015,15.42625,32.896,16.408,30.328001,concentric,5,3.0,20948.0,309883.0,281237.0,332784.0,292198.0
2026-04-07 17:52:39.120986,262912,1429501812,1429503136,-0.958432,-0.091744,-0.134688,17.40375,10.50875,19.90625,33.640003,16.024,29.368002,concentric,5,3.0,20948.0,309883.0,281237.0,332784.0,292198.0
2026-04-07 17:52:39.125790,262913,1429510747,1429511825,-0.958432,-0.091744,-0.134688,15.7675,6.93,21.35875,33.640003,16.024,29.368002,concentric,5,3.0,20948.0,309883.0,281237.0,332784.0,292198.0
2026-04-07 17:52:39.134257,262914,1429519714,1429520507,-0.79056,-0.163968,-0.16592,12.39,2.9575,18.78625,34.032,15.992001,29.696001,concentric,5,3.0,20948.0,309883.0,281237.0,332784.0,292198.0
2026-04-07 17:52:39.191595,262925,1429534662,1429536012,-0.79056,-0.163968,-0.16592,8.295,0.04375,13.97375,34.032,15.992001,29.696001,concentric,5,3.0,20857.0,309287.0,280862.0,332546.0,292021.0
2026-04-07 17:52:39.195618,262926,1429543714,1429544748,-0.8296,-0.08784,-0.091744,10.0975,-3.17625,14.84,34.056,16.296001,29.416002,concentric,5,3.0,20857.0,309287.0,280862.0,332546.0,292021.0
2026-04-07 17:52:39.197342,262927,1429552778,1429553485,-0.8296,-0.08784,-0.091744,15.627501,-5.5825,15.68875,34.056,16.296001,29.416002,concentric,5,3.0,20857.0,309287.0,280862.0,332546.0,292021.0
2026-04-07 17:52:39.198918,262928,1429562107,1429564289,-0.813984,-0.119072,-0.093696,17.07125,-9.1175,15.61,33.952003,15.56,29.528002,concentric,5,3.0,20857.0,309287.0,280862.0,332546.0,292021.0
2026-04-07 17:52:39.203143,262929,1429576627,1429577213,-0.813984,-0.119072,-0.093696,13.9125,-13.92125,17.14125,33.952003,15.56,29.528002,concentric,5,3.0,20857.0,309287.0,280862.0,332546.0,292021.0
2026-04-07 17:52:39.204858,262930,1429585836,1429587992,-0.745664,-0.181536,-0.021472,11.22625,-17.395,19.022501,33.608,15.024001,30.824001,concentric,5,3.0,20857.0,309287.0,280862.0,332546.0,292021.0
2026-04-07 17:52:39.206728,262931,1429594805,1429596718,-0.745664,-0.181536,-0.021472,11.29625,-17.64875,19.215,33.608,15.024001,30.824001,concentric,5,3.0,20857.0,309287.0,280862.0,332546.0,292021.0
2026-04-07 17:52:39.237508,262932,1429609335,1429611633,-0.704672,-0.199104,0.02928,10.98125,-15.75875,18.9,34.112003,15.224001,31.264002,concentric,5,3.0,20857.0,309287.0,280862.0,332546.0,292021.0
2026-04-07 17:52:39.241883,262933,1429618246,1429620328,-0.704672,-0.199104,0.02928,9.5025,-11.27,19.17125,34.112003,15.224001,31.264002,concentric,5,3.0,20857.0,309287.0,280862.0,332546.0,292021.0
2026-04-07 17:52:39.243672,262934,1429627187,1429629012,-0.841312,-0.128832,0.05856,9.26625,-7.14875,18.38375,34.616,15.504001,28.144001,concentric,5,3.0,20857.0,309287.0,280862.0,332546.0,292021.0
2026-04-07 17:52:39.311975,262944,1429636181,1429637984,-0.841312,-0.128832,0.05856,11.7075,-4.4975,18.75125,34.616,15.504001,28.144001,concentric,5,3.0,20630.0,306853.0,278820.0,330059.0,289950.0
