pc_time,serial_num,sensor_ts,host_ts,ax,ay,az,gx,gy,gz,mx,my,mz,phase,rpe,weight_kg,ppg_a,ppg_b,ppg_c,ppg_d,ppg_e
2026-04-07 17:52:10.555503,257582,1400929994,1400932158,-0.909632,-0.111264,-0.132736,30.0825,-34.4925,-12.285,30.984001,17.784,29.032001,eccentric,5,3.0,19719.0,296474.0,269254.0,318474.0,280433.0
2026-04-07 17:52:10.559949,257583,1400938903,1400940837,-0.76128,-0.171776,-0.130784,31.64875,-34.97375,-9.35375,31.712002,18.432001,28.560001,eccentric,5,3.0,19719.0,296474.0,269254.0,318474.0,280433.0
2026-04-07 17:52:10.561526,257584,1400947870,1400949529,-0.76128,-0.171776,-0.130784,27.2125,-32.66375,-6.4225,31.712002,18.432001,28.560001,eccentric,5,3.0,19719.0,296474.0,269254.0,318474.0,280433.0
2026-04-07 17:52:10.592697,257585,1400962358,1400964466,-0.845216,-0.228384,0.0,20.72875,-30.10875,-4.55,32.016003,19.152,28.984001,eccentric,5,3.0,19719.0,296474.0,269254.0,318474.0,280433.0
2026-04-07 17:52:10.594890,257586,1400971279,1400973170,-0.845216,-0.228384,0.0,19.678751,-25.4275,-1.5575,32.016003,19.152,28.984001,eccentric,5,3.0,19719.0,296474.0,269254.0,318474.0,280433.0
2026-04-07 17:52:10.621241,257596,1400980221,1400981949,-0.876448,-0.11712,0.138592,23.6075,-17.9025,1.5225,31.000002,18.784,29.2,eccentric,5,3.0,19860.0,297707.0,270229.0,319363.0,280995.0
2026-04-07 17:52:10.622820,257597,1400989153,1400990662,-0.876448,-0.11712,0.138592,23.59,-10.96375,4.33125,31.000002,18.784,29.2,eccentric,5,3.0,19860.0,297707.0,270229.0,319363.0,280995.0
2026-04-07 17:52:10.627072,257598,1401003673,1401005566,-0.99552,-0.15616,0.070272,17.21125,-5.46,7.805,31.2,18.264,29.432001,eccentric,5,3.0,19860.0,297707.0,270229.0,319363.0,280995.0
2026-04-07 17:52:10.628789,257599,1401012655,1401014279,-0.876448,-0.21472,-0.122976,6.50125,-2.40625,11.1475,30.992,18.072,28.072,eccentric,5,3.0,19860.0,297707.0,270229.0,319363.0,280995.0
2026-04-07 17:52:10.630304,257600,1401021660,1401022989,-0.876448,-0.21472,-0.122976,-0.34125,0.51625,14.23625,30.992,18.072,28.072,eccentric,5,3.0,19860.0,297707.0,270229.0,319363.0,280995.0
2026-04-07 17:52:10.665236,257601,1401036176,1401037937,-0.817888,-0.163968,-0.144448,2.2575,3.045,13.50125,31.944002,17.400002,28.944002,eccentric,5,3.0,19860.0,297707.0,270229.0,319363.0,280995.0
2026-04-07 17:52:10.670629,257602,1401045112,1401046648,-0.817888,-0.163968,-0.144448,9.24,4.71625,12.005,31.944002,17.400002,28.944002,eccentric,5,3.0,19860.0,297707.0,270229.0,319363.0,280995.0
2026-04-07 17:52:10.674484,257603,1401054043,1401055353,-1.009184,-0.093696,-0.103456,11.042501,4.01625,10.4125,32.096,17.408,28.640001,eccentric,5,3.0,19860.0,297707.0,270229.0,319363.0,280995.0
2026-04-07 17:52:10.679410,257604,1401068559,1401070274,-1.009184,-0.093696,-0.103456,10.15875,1.79375,8.05,32.096,17.408,28.640001,eccentric,5,3.0,19860.0,297707.0,270229.0,319363.0,280995.0
2026-04-07 17:52:10.703982,257614,1401078035,1401079435,-0.909632,-0.128832,-0.035136,9.54625,-0.28875,7.83125,32.064003,17.568,29.36,eccentric,5,3.0,19644.0,295876.0,268842.0,318234.0,280497.0
2026-04-07 17:52:10.706543,257615,1401087138,1401088238,-0.909632,-0.128832,-0.035136,4.7775,-0.84875,6.965,32.064003,17.568,29.36,eccentric,5,3.0,19644.0,295876.0,268842.0,318234.0,280497.0
2026-04-07 17:52:10.709039,257616,1401096124,1401097379,-0.9272,-0.247904,0.003904,-2.8525,-1.25125,5.24125,32.088,17.144001,30.768002,eccentric,5,3.0,19644.0,295876.0,268842.0,318234.0,280497.0
2026-04-07 17:52:10.773921,257617,1401110657,1401112347,-0.9272,-0.247904,0.003904,-6.5975,-1.26875,4.92625,32.088,17.144001,30.768002,eccentric,5,3.0,19644.0,295876.0,268842.0,318234.0,280497.0
2026-04-07 17:52:10.778335,257618,1401119565,1401121062,-0.935008,-0.228384,-0.07808,-3.80625,-1.3125,6.0375,31.960001,17.672,30.296001,eccentric,5,3.0,19644.0,295876.0,268842.0,318234.0,280497.0
2026-04-07 17:52:10.779979,257619,1401128475,1401129787,-0.935008,-0.228384,-0.07808,0.735,-1.75875,7.2275,31.960001,17.672,30.296001,eccentric,5,3.0,19644.0,295876.0,268842.0,318234.0,280497.0
2026-04-07 17:52:10.781671,257620,1401142988,1401144711,-0.856928,-0.163968,-0.08784,1.95125,-0.8225,8.155,32.52,17.640001,29.28,eccentric,5,3.0,19644.0,295876.0,268842.0,318234.0,280497.0
2026-04-07 17:52:10.785771,257621,1401151935,1401153417,-0.856928,-0.163968,-0.08784,2.44125,2.135,6.86,32.52,17.640001,29.28,eccentric,5,3.0,19644.0,295876.0,268842.0,318234.0,280497.0
2026-04-07 17:52:10.787581,257622,1401160864,1401162118,-0.972096,-0.16592,-0.02928,3.66625,5.18875,5.99375,32.32,17.272001,28.976002,eccentric,5,3.0,19644.0,295876.0,268842.0,318234.0,280497.0
2026-04-07 17:52:10.831271,257633,1401175951,1401177329,-1.022848,-0.216672,0.07808,3.14125,7.07875,7.2275,31.976002,16.824001,30.464,eccentric,5,3.0,19549.0,295070.0,268259.0,317851.0,280455.0
2026-04-07 17:52:10.832766,257634,1401185010,1401186148,-1.022848,-0.216672,0.07808,2.1175,9.30125,8.89875,31.976002,16.824001,30.464,eccentric,5,3.0,19549.0,295070.0,268259.0,317851.0,280455.0
2026-04-07 17:52:10.837047,257635,1401193953,1401194865,-1.009184,-0.228384,0.0,0.07,10.78875,10.22875,32.488003,16.808,30.616001,eccentric,5,3.0,19549.0,295070.0,268259.0,317851.0,280455.0
2026-04-07 17:52:10.838660,257636,1401202903,1401203554,-1.009184,-0.228384,0.0,-2.91375,10.64,10.64,32.488003,16.808,30.616001,eccentric,5,3.0,19549.0,295070.0,268259.0,317851.0,280455.0
2026-04-07 17:52:10.840280,257637,1401217890,1401218533,-0.98576,-0.138592,-0.13664,-6.04625,10.64875,10.465,33.112003,17.208,29.160002,eccentric,5,3.0,19549.0,295070.0,268259.0,317851.0,280455.0
2026-04-07 17:52:10.844495,257638,1401227243,1401229300,-0.98576,-0.138592,-0.13664,-5.495,12.15375,9.56375,33.112003,17.208,29.160002,eccentric,5,3.0,19549.0,295070.0,268259.0,317851.0,280455.0
2026-04-07 17:52:10.846095,257639,1401236183,1401237991,-1.061888,-0.152256,-0.099552,-3.1675,15.54875,7.35875,33.368,17.096,29.408,eccentric,5,3.0,19549.0,295070.0,268259.0,317851.0,280455.0
2026-04-07 17:52:10.876332,257640,1401245178,1401246704,-1.061888,-0.152256,-0.099552,-2.835,17.01,6.25625,33.368,17.096,29.408,eccentric,5,3.0,19549.0,295070.0,268259.0,317851.0,280455.0
2026-04-07 17:52:10.880819,257641,1401259701,1401261619,-1.159488,-0.232288,-0.085888,-4.29625,15.28625,7.83125,32.712,17.12,28.552002,eccentric,5,3.0,19549.0,295070.0,268259.0,317851.0,280455.0
2026-04-07 17:52:10.882502,257642,1401268631,1401270315,-1.159488,-0.232288,-0.085888,-4.165,11.48875,11.165,32.712,17.12,28.552002,eccentric,5,3.0,19549.0,295070.0,268259.0,317851.0,280455.0
2026-04-07 17:52:10.906565,257652,1401278143,1401279171,-1.009184,-0.152256,-0.005856,-0.95375,9.555,12.17125,33.36,17.032001,28.680002,eccentric,5,3.0,19449.0,294078.0,267408.0,316851.0,279650.0
2026-04-07 17:52:10.911241,257653,1401292904,1401294076,-1.009184,-0.152256,-0.005856,0.97125,9.6075,8.5575,33.36,17.032001,28.680002,eccentric,5,3.0,19449.0,294078.0,267408.0,316851.0,279650.0
2026-04-07 17:52:10.912437,257654,1401301848,1401302782,-1.100928,-0.115168,-0.015616,1.8375,11.36625,5.11875,33.24,17.480001,28.304,eccentric,5,3.0,19449.0,294078.0,267408.0,316851.0,279650.0
2026-04-07 17:52:10.919870,257655,1401310794,1401311502,-1.100928,-0.115168,-0.015616,-2.24,13.04625,4.03375,33.24,17.480001,28.304,eccentric,5,3.0,19449.0,294078.0,267408.0,316851.0,279650.0
2026-04-07 17:52:10.950103,257656,1401320291,1401322318,-1.056032,-0.183488,-0.042944,-10.045,13.5625,3.815,33.496002,16.880001,28.488,eccentric,5,3.0,19449.0,294078.0,267408.0,316851.0,279650.0
2026-04-07 17:52:10.954594,257657,1401334799,1401335173,-0.968192,-0.208864,-0.015616,-14.44625,14.21,4.27875,33.664,16.624,26.816002,eccentric,5,3.0,19449.0,294078.0,267408.0,316851.0,279650.0
2026-04-07 17:52:10.956073,257658,1401344045,1401345926,-0.968192,-0.208864,-0.015616,-15.70625,15.91625,4.55,33.664,16.624,26.816002,eccentric,5,3.0,19449.0,294078.0,267408.0,316851.0,279650.0
2026-04-07 17:52:10.986351,257659,1401353023,1401354640,-0.968192,-0.208864,-0.015616,-15.3125,18.06,2.91375,33.664,16.624,26.816002,eccentric,5,3.0,19449.0,294078.0,267408.0,316851.0,279650.0
2026-04-07 17:52:10.988663,257660,1401361950,1401363357,-0.977952,-0.177632,-0.056608,-13.615,18.147501,1.44375,33.392002,16.696001,30.496002,eccentric,5,3.0,19449.0,294078.0,267408.0,316851.0,279650.0
2026-04-07 17:52:11.013914,257670,1401377058,1401378393,-0.895968,-0.134688,-0.095648,-11.8475,17.78875,0.9625,34.144,17.488,27.52,eccentric,5,3.0,19432.0,293833.0,267139.0,316432.0,279266.0
2026-04-07 17:52:11.016463,257671,1401386089,1401387138,-0.895968,-0.134688,-0.095648,-10.167501,18.31375,-0.5425,34.144,17.488,27.52,eccentric,5,3.0,19432.0,293833.0,267139.0,316432.0,279266.0
2026-04-07 17:52:11.018973,257672,1401395135,1401395852,-0.915488,-0.152256,-0.093696,-7.91,18.7425,-1.5225,34.504,17.248001,27.480001,eccentric,5,3.0,19432.0,293833.0,267139.0,316432.0,279266.0
2026-04-07 17:52:11.021526,257673,1401404470,1401406661,-0.915488,-0.152256,-0.093696,-6.405,18.92625,-2.3625,34.504,17.248001,27.480001,eccentric,5,3.0,19432.0,293833.0,267139.0,316432.0,279266.0
2026-04-07 17:52:11.026444,257674,1401418970,1401419533,-0.962336,-0.152256,-0.052704,-6.18625,17.745,-2.58125,33.824,16.672,27.6,eccentric,5,3.0,19432.0,293833.0,267139.0,316432.0,279266.0
2026-04-07 17:52:11.072928,257675,1401428434,1401430341,-0.962336,-0.152256,-0.052704,-3.89375,15.60125,-1.925,33.824,16.672,27.6,eccentric,5,3.0,19432.0,293833.0,267139.0,316432.0,279266.0
2026-04-07 17:52:11.076515,257676,1401437354,1401439020,-0.948672,-0.0976,-0.081984,-2.485,13.4575,-1.61875,34.712,17.04,27.400002,eccentric,5,3.0,19432.0,293833.0,267139.0,316432.0,279266.0
2026-04-07 17:52:11.078960,257677,1401451860,1401453926,-0.948672,-0.0976,-0.081984,0.7,10.92,-3.00125,34.712,17.04,27.400002,eccentric,5,3.0,19432.0,293833.0,267139.0,316432.0,279266.0
2026-04-07 17:52:11.081478,257678,1401460815,1401462626,-1.059936,-0.10736,-0.124928,3.80625,9.35375,-3.68375,34.704002,17.384,27.976002,eccentric,5,3.0,19432.0,293833.0,267139.0,316432.0,279266.0
2026-04-07 17:52:11.083994,257679,1401469736,1401471319,-1.059936,-0.10736,-0.124928,3.98125,9.5025,-3.325,34.704002,17.384,27.976002,eccentric,5,3.0,19432.0,293833.0,267139.0,316432.0,279266.0
2026-04-07 17:52:11.111458,257690,1401484297,1401486317,-1.06384,-0.189344,-0.101504,3.05375,8.9075,-0.42,34.488003,16.704,27.096,eccentric,5,3.0,19533.0,294916.0,268083.0,317602.0,280267.0
2026-04-07 17:52:11.113955,257691,1401493315,1401495027,-1.06384,-0.189344,-0.101504,1.7675,8.2775,2.00375,34.488003,16.704,27.096,eccentric,5,3.0,19533.0,294916.0,268083.0,317602.0,280267.0
2026-04-07 17:52:11.116459,257692,1401502310,1401503726,-1.052128,-0.154208,-0.080032,2.135,7.105,0.53375,34.632,17.376001,27.880001,eccentric,5,3.0,19533.0,294916.0,268083.0,317602.0,280267.0
2026-04-07 17:52:11.119021,257693,1401511235,1401512436,-1.052128,-0.154208,-0.080032,7.53375,6.71125,-0.91875,34.632,17.376001,27.880001,eccentric,5,3.0,19533.0,294916.0,268083.0,317602.0,280267.0
2026-04-07 17:52:11.149276,257694,1401525716,1401527404,-1.061888,-0.040992,-0.105408,11.69,6.95625,-0.3675,35.064003,17.264,28.816002,eccentric,5,3.0,19533.0,294916.0,268083.0,317602.0,280267.0
2026-04-07 17:52:11.152731,257695,1401534629,1401536084,-1.1712,-0.035136,-0.081984,10.80625,7.56875,-0.9975,35.064003,17.264,28.816002,eccentric,5,3.0,19533.0,294916.0,268083.0,317602.0,280267.0
2026-04-07 17:52:11.155311,257696,1401543570,1401544778,-1.159488,-0.035136,-0.081984,8.4875,7.0525,-0.63875,34.696003,17.36,29.2,eccentric,5,3.0,19533.0,294916.0,268083.0,317602.0,280267.0
2026-04-07 17:52:11.189150,257697,1401558086,1401559693,-1.061888,-0.10736,-0.140544,4.06875,5.36375,1.53125,34.440002,16.952002,28.064001,eccentric,5,3.0,19533.0,294916.0,268083.0,317602.0,280267.0
2026-04-07 17:52:11.192793,257698,1401566992,1401568375,-1.061888,-0.10736,-0.140544,-0.55125,2.9925,1.0325,34.440002,16.952002,28.064001,eccentric,5,3.0,19533.0,294916.0,268083.0,317602.0,280267.0
2026-04-07 17:52:11.218650,257708,1401575859,1401577292,-1.016992,-0.144448,-0.144448,-2.345,1.70625,-0.0875,34.816,17.136002,28.608002,eccentric,5,3.0,19685.0,296240.0,269018.0,318464.0,280758.0
2026-04-07 17:52:11.220507,257709,1401590370,1401592250,-1.016992,-0.144448,-0.144448,1.75,0.60375,-0.245,34.816,17.136002,28.608002,eccentric,5,3.0,19685.0,296240.0,269018.0,318464.0,280758.0
2026-04-07 17:52:11.224547,257710,1401599421,1401600982,-1.048224,-0.072224,-0.105408,7.035,0.28875,-0.07875,35.320004,16.856,27.904001,eccentric,5,3.0,19685.0,296240.0,269018.0,318464.0,280758.0
2026-04-07 17:52:11.226194,257711,1401608343,1401609676,-1.048224,-0.072224,-0.105408,11.47125,0.3675,-0.63,35.320004,16.856,27.904001,eccentric,5,3.0,19685.0,296240.0,269018.0,318464.0,280758.0
2026-04-07 17:52:11.235640,257712,1401622908,1401624573,-1.085312,-0.02928,-0.089792,14.91,0.77875,0.91875,35.288002,16.76,27.928001,eccentric,5,3.0,19685.0,296240.0,269018.0,318464.0,280758.0
2026-04-07 17:52:11.241909,257713,1401631841,1401633252,-1.085312,-0.02928,-0.089792,14.315001,-0.00875,2.94875,35.288002,16.76,27.928001,eccentric,5,3.0,19685.0,296240.0,269018.0,318464.0,280758.0
2026-04-07 17:52:11.254388,257714,1401640770,1401641935,-1.065792,-0.138592,-0.122976,9.485,-1.855,4.59375,35.312,16.592001,28.344002,eccentric,5,3.0,19685.0,296240.0,269018.0,318464.0,280758.0
2026-04-07 17:52:11.259441,257715,1401649677,1401650622,-1.065792,-0.138592,-0.122976,7.28875,-3.3775,6.32625,35.312,16.592001,28.344002,eccentric,5,3.0,19685.0,296240.0,269018.0,318464.0,280758.0
2026-04-07 17:52:11.287873,257716,1401664150,1401665500,-0.991616,-0.1464,-0.080032,8.44375,-4.8125,8.33,35.248,16.488,28.776001,eccentric,5,3.0,19685.0,296240.0,269018.0,318464.0,280758.0
2026-04-07 17:52:11.292501,257717,1401673103,1401674239,-0.991616,-0.1464,-0.080032,12.4425,-5.53,8.575,35.248,16.488,28.776001,eccentric,5,3.0,19685.0,296240.0,269018.0,318464.0,280758.0
2026-04-07 17:52:11.316587,257727,1401682153,1401682970,-1.075552,-0.035136,-0.072224,18.375,-5.005,8.9075,36.408,16.792002,28.424002,eccentric,5,3.0,19797.0,297203.0,269737.0,319049.0,281039.0
2026-04-07 17:52:11.324532,257728,1401696648,1401697923,-1.036512,-0.035136,-0.111264,22.715,-3.675,9.89625,35.184002,16.6,29.352001,eccentric,5,3.0,19797.0,297203.0,269737.0,319049.0,281039.0
2026-04-07 17:52:11.326231,257729,1401705643,1401706632,-1.036512,-0.035136,-0.111264,23.09125,-1.89875,10.43875,35.184002,16.6,29.352001,eccentric,5,3.0,19797.0,297203.0,269737.0,319049.0,281039.0
2026-04-07 17:52:11.328138,257730,1401714551,1401715338,-1.036512,-0.035136,-0.111264,18.31375,-1.645,11.10375,35.184002,16.6,29.352001,eccentric,5,3.0,19797.0,297203.0,269737.0,319049.0,281039.0
2026-04-07 17:52:11.371384,257731,1401729030,1401730280,-1.032608,-0.122976,-0.101504,13.405,-1.435,10.80625,35.856003,16.312,30.384,eccentric,5,3.0,19797.0,297203.0,269737.0,319049.0,281039.0
2026-04-07 17:52:11.373624,257732,1401737911,1401738984,-1.0248,-0.142496,-0.0976,12.425,-2.26625,10.2725,36.864002,16.512001,29.248001,eccentric,5,3.0,19797.0,297203.0,269737.0,319049.0,281039.0
2026-04-07 17:52:11.378225,257733,1401746789,1401747696,-1.0248,-0.142496,-0.0976,12.915,-3.5875,10.5525,36.864002,16.512001,29.248001,eccentric,5,3.0,19797.0,297203.0,269737.0,319049.0,281039.0
2026-04-07 17:52:11.379988,257734,1401761256,1401762598,-1.028704,-0.056608,-0.109312,17.053751,-3.9375,11.96125,36.736,16.12,29.408,eccentric,5,3.0,19797.0,297203.0,269737.0,319049.0,281039.0
2026-04-07 17:52:11.381705,257735,1401770182,1401771275,-1.028704,-0.056608,-0.109312,23.03875,-4.515,12.66125,36.736,16.12,29.408,eccentric,5,3.0,19797.0,297203.0,269737.0,319049.0,281039.0
2026-04-07 17:52:11.420424,257746,1401779192,1401780147,-1.009184,-0.046848,-0.103456,24.8675,-4.095,12.90625,36.928,16.416,30.648,eccentric,5,3.0,20016.0,299081.0,271264.0,320637.0,282169.0
2026-04-07 17:52:11.424463,257747,1401788220,1401788976,-1.009184,-0.046848,-0.103456,24.2375,-3.3775,13.448751,36.928,16.416,30.648,eccentric,5,3.0,20016.0,299081.0,271264.0,320637.0,282169.0
2026-04-07 17:52:11.427318,257748,1401803184,1401803919,-0.981856,-0.105408,-0.083936,24.22,-2.03875,13.877501,36.696003,15.840001,30.640001,eccentric,5,3.0,20016.0,299081.0,271264.0,320637.0,282169.0
2026-04-07 17:52:11.461491,257749,1401812543,1401814727,-0.981856,-0.105408,-0.083936,24.08875,-0.16625,12.60875,36.696003,15.840001,30.640001,eccentric,5,3.0,20016.0,299081.0,271264.0,320637.0,282169.0
2026-04-07 17:52:11.465968,257750,1401821538,1401823462,-0.931104,-0.122976,-0.046848,22.67125,1.51375,10.17625,36.704002,16.144001,31.136002,eccentric,5,3.0,20016.0,299081.0,271264.0,320637.0,282169.0
2026-04-07 17:52:11.474545,257751,1401835984,1401836307,-0.993568,-0.074176,-0.080032,22.16375,3.0275,8.5925,36.704002,16.144001,29.088001,eccentric,5,3.0,20016.0,299081.0,271264.0,320637.0,282169.0
2026-04-07 17:52:11.476260,257752,1401845225,1401847066,-0.989664,-0.074176,-0.080032,22.09375,5.08375,6.78125,37.328003,16.448,29.640001,eccentric,5,3.0,20016.0,299081.0,271264.0,320637.0,282169.0
2026-04-07 17:52:11.478292,257753,1401854162,1401855831,-0.989664,-0.074176,-0.080032,22.61,7.0175,5.0575,37.328003,16.448,29.640001,eccentric,5,3.0,20016.0,299081.0,271264.0,320637.0,282169.0
2026-04-07 17:52:11.481108,257754,1401863171,1401864637,-0.972096,-0.040992,-0.128832,22.53125,8.61,4.4275,37.576,15.808001,30.496002,eccentric,5,3.0,20016.0,299081.0,271264.0,320637.0,282169.0
2026-04-07 17:52:11.517972,257764,1401877669,1401879535,-0.95648,-0.085888,-0.134688,20.58875,10.1325,3.01875,37.336002,15.688001,31.776001,eccentric,5,3.0,20265.0,301803.0,273702.0,323587.0,284643.0
2026-04-07 17:52:11.521989,257765,1401886682,1401888395,-0.95648,-0.085888,-0.134688,16.45875,11.08625,0.04375,37.336002,15.688001,31.776001,eccentric,5,3.0,20265.0,301803.0,273702.0,323587.0,284643.0
2026-04-07 17:52:11.523706,257766,1401895649,1401897189,-0.95648,-0.085888,-0.134688,13.85125,10.91125,-2.9925,37.336002,15.688001,31.776001,eccentric,5,3.0,20265.0,301803.0,273702.0,323587.0,284643.0
2026-04-07 17:52:11.525548,257767,1401910197,1401912103,-1.01504,-0.037088,-0.091744,16.8525,10.92875,-4.9,37.888,15.392001,32.84,eccentric,5,3.0,20265.0,301803.0,273702.0,323587.0,284643.0
2026-04-07 17:52:11.530597,257768,1401919216,1401920814,-1.095072,-0.003904,-0.085888,22.785,12.55625,-6.3875,37.496002,14.960001,32.912003,eccentric,5,3.0,20265.0,301803.0,273702.0,323587.0,284643.0
2026-04-07 17:52:11.559186,257769,1401928211,1401929575,-1.095072,-0.003904,-0.085888,25.095,13.11625,-7.8225,37.496002,14.960001,32.912003,eccentric,5,3.0,20265.0,301803.0,273702.0,323587.0,284643.0
2026-04-07 17:52:11.563685,257770,1401937147,1401938271,-1.020896,-0.080032,-0.132736,21.595,13.22125,-8.33875,38.536003,15.936001,30.800001,eccentric,5,3.0,20265.0,301803.0,273702.0,323587.0,284643.0
2026-04-07 17:52:11.565251,257771,1401951647,1401953194,-1.020896,-0.080032,-0.132736,13.58,14.1225,-9.9575,38.536003,15.936001,30.800001,eccentric,5,3.0,20265.0,301803.0,273702.0,323587.0,284643.0
2026-04-07 17:52:11.573197,257772,1401960562,1401961890,-1.067744,-0.111264,-0.08784,6.97375,14.761251,-13.30875,38.016003,15.648001,30.744001,eccentric,5,3.0,20265.0,301803.0,273702.0,323587.0,284643.0
2026-04-07 17:52:11.579374,257773,1401969495,1401970605,-1.067744,-0.111264,-0.08784,8.02375,16.7125,-15.35625,38.016003,15.648001,30.744001,eccentric,5,3.0,20265.0,301803.0,273702.0,323587.0,284643.0
2026-04-07 17:52:11.635009,257783,1401984161,1401985845,-1.1712,-0.03904,-0.093696,11.96125,17.99875,-16.03875,37.608,16.304,31.072002,eccentric,5,3.0,20296.0,302633.0,274622.0,325079.0,286171.0
2026-04-07 17:52:11.636685,257784,1401993117,1401994554,-1.1712,-0.03904,-0.093696,16.65125,19.41625,-15.5225,37.608,16.304,31.072002,eccentric,5,3.0,20296.0,302633.0,274622.0,325079.0,286171.0
2026-04-07 17:52:11.639820,257785,1402002070,1402003273,-1.081408,-0.062464,-0.163968,15.4525,19.1975,-14.84875,38.320004,15.768001,30.768002,eccentric,5,3.0,20296.0,302633.0,274622.0,325079.0,286171.0
2026-04-07 17:52:11.673847,257786,1402016583,1402018231,-1.081408,-0.062464,-0.171776,8.575,17.43,-13.5975,38.320004,15.768001,30.768002,eccentric,5,3.0,20296.0,302633.0,274622.0,325079.0,286171.0
2026-04-07 17:52:11.676134,257787,1402025579,1402027034,-1.048224,-0.105408,-0.171776,4.41875,17.3425,-15.11125,38.312,16.112001,32.36,eccentric,5,3.0,20296.0,302633.0,274622.0,325079.0,286171.0
2026-04-07 17:52:11.680832,257788,1402034516,1402035776,-1.048224,-0.105408,-0.171776,6.99125,17.5175,-16.7825,38.312,16.112001,32.36,eccentric,5,3.0,20296.0,302633.0,274622.0,325079.0,286171.0
2026-04-07 17:52:11.682455,257789,1402048983,1402050715,-1.097024,-0.035136,-0.113216,11.34,17.77125,-16.82625,37.808002,15.944001,32.144,eccentric,5,3.0,20296.0,302633.0,274622.0,325079.0,286171.0
2026-04-07 17:52:11.684026,257790,1402057921,1402059414,-1.046272,-0.046848,-0.121024,15.70625,19.22375,-17.10625,37.544003,15.808001,30.704002,eccentric,5,3.0,20296.0,302633.0,274622.0,325079.0,286171.0
2026-04-07 17:52:11.688220,257791,1402066833,1402068088,-1.046272,-0.046848,-0.121024,14.79625,17.84125,-15.98625,37.544003,15.808001,30.704002,eccentric,5,3.0,20296.0,302633.0,274622.0,325079.0,286171.0
2026-04-07 17:52:11.689972,257792,1402075777,1402076804,-1.046272,-0.046848,-0.121024,6.58875,16.12625,-14.98875,37.544003,15.808001,30.704002,eccentric,5,3.0,20296.0,302633.0,274622.0,325079.0,286171.0
2026-04-07 17:52:11.720281,257803,1402090397,1402091777,-1.079456,-0.027328,-0.111264,4.13,15.2775,-14.980001,38.216003,16.056002,31.336002,eccentric,5,3.0,20494.0,304729.0,276642.0,327784.0,288611.0
2026-04-07 17:52:11.723696,257804,1402099547,1402100486,-1.065792,0.0,-0.138592,6.7725,15.65375,-14.27125,37.672,15.960001,31.152002,eccentric,5,3.0,20494.0,304729.0,276642.0,327784.0,288611.0
2026-04-07 17:52:11.725271,257805,1402108520,1402109200,-1.065792,0.0,-0.138592,4.585,15.4525,-15.995,37.672,15.960001,31.152002,eccentric,5,3.0,20494.0,304729.0,276642.0,327784.0,288611.0
2026-04-07 17:52:11.733109,257806,1402123514,1402124173,-1.052128,-0.052704,-0.162016,2.7475,14.735,-18.43625,38.84,16.656,30.560001,eccentric,5,3.0,20494.0,304729.0,276642.0,327784.0,288611.0
2026-04-07 17:52:11.761678,257807,1402132838,1402134955,-1.052128,-0.052704,-0.162016,2.75625,14.4375,-19.06625,38.84,16.656,30.560001,eccentric,5,3.0,20494.0,304729.0,276642.0,327784.0,288611.0
2026-04-07 17:52:11.770791,257808,1402141781,1402143649,-1.079456,-0.081984,-0.121024,-0.55125,14.9975,-18.9525,37.968002,16.064001,30.528002,eccentric,5,3.0,20494.0,304729.0,276642.0,327784.0,288611.0
2026-04-07 17:52:11.772496,257809,1402150772,1402152358,-1.079456,-0.081984,-0.121024,-1.61,14.455,-17.89375,37.968002,16.064001,30.528002,eccentric,5,3.0,20494.0,304729.0,276642.0,327784.0,288611.0
2026-04-07 17:52:11.774038,257810,1402165280,1402167274,-1.116544,-0.031232,-0.12688,0.49,13.8075,-16.275,38.296,16.832,30.328001,eccentric,5,3.0,20494.0,304729.0,276642.0,327784.0,288611.0
2026-04-07 17:52:11.805188,257811,1402174345,1402175988,-1.116544,-0.031232,-0.12688,0.16625,12.6,-16.625,38.296,16.832,30.328001,eccentric,5,3.0,20494.0,304729.0,276642.0,327784.0,288611.0
2026-04-07 17:52:11.844892,257821,1402183699,1402184900,-1.138016,0.0,-0.138592,0.2975,11.41875,-16.275,37.712,16.304,31.592001,eccentric,5,3.0,20825.0,308267.0,279740.0,331416.0,291570.0
2026-04-07 17:52:11.850596,257822,1402198174,1402199875,-1.095072,-0.035136,-0.16592,-1.2075,10.185,-14.035,37.448,16.376001,31.936,eccentric,5,3.0,20825.0,308267.0,279740.0,331416.0,291570.0
2026-04-07 17:52:11.856891,257823,1402207149,1402208680,-1.095072,-0.035136,-0.16592,-6.74625,7.98,-13.57125,37.448,16.376001,31.936,eccentric,5,3.0,20825.0,308267.0,279740.0,331416.0,291570.0
2026-04-07 17:52:11.863462,257824,1402216127,1402217423,-1.095072,-0.035136,-0.16592,-9.1,7.16625,-13.3525,37.448,16.376001,31.936,eccentric,5,3.0,20825.0,308267.0,279740.0,331416.0,291570.0
2026-04-07 17:52:11.865020,257825,1402225076,1402226151,-1.106784,-0.101504,-0.154208,-7.525,6.86,-11.29625,38.256,16.384,30.44,eccentric,5,3.0,20825.0,308267.0,279740.0,331416.0,291570.0
2026-04-07 17:52:11.866552,257826,1402239615,1402241062,-1.089216,-0.08784,-0.134688,-8.54875,5.52125,-8.60125,37.512,16.136002,31.208002,eccentric,5,3.0,20825.0,308267.0,279740.0,331416.0,291570.0
2026-04-07 17:52:11.874536,257827,1402248580,1402249813,-1.089216,-0.08784,-0.134688,-10.386251,4.2875,-6.48375,37.512,16.136002,31.208002,eccentric,5,3.0,20825.0,308267.0,279740.0,331416.0,291570.0
2026-04-07 17:52:11.875998,257828,1402257470,1402258549,-1.089216,-0.08784,-0.134688,-10.49125,2.72125,-4.73375,37.512,16.136002,31.208002,eccentric,5,3.0,20825.0,308267.0,279740.0,331416.0,291570.0
2026-04-07 17:52:11.883083,257829,1402272040,1402273459,-1.153632,-0.017568,-0.140544,-9.87875,1.26875,-3.22,38.088,17.008001,30.640001,eccentric,5,3.0,20825.0,308267.0,279740.0,331416.0,291570.0
2026-04-07 17:52:11.935217,257839,1402281164,1402282241,-1.128256,-0.02928,-0.179584,-9.4325,-0.95375,-1.67125,39.144,16.192001,30.096,eccentric,5,3.0,21363.0,313448.0,284045.0,336144.0,295354.0
2026-04-07 17:52:11.939749,257840,1402290193,1402291017,-1.128256,-0.02928,-0.179584,-9.03,-2.12625,1.1375,39.144,16.192001,30.096,eccentric,5,3.0,21363.0,313448.0,284045.0,336144.0,295354.0
2026-04-07 17:52:11.972747,257841,1402304695,1402305998,-1.097024,-0.066368,-0.142496,-8.4525,-2.35375,2.1875,39.280003,15.928,29.760002,eccentric,5,3.0,21363.0,313448.0,284045.0,336144.0,295354.0
2026-04-07 17:52:11.975004,257842,1402313649,1402314740,-1.097024,-0.066368,-0.142496,-7.1225,-2.1525,1.39125,39.280003,15.928,29.760002,eccentric,5,3.0,21363.0,313448.0,284045.0,336144.0,295354.0
2026-04-07 17:52:11.979883,257843,1402322663,1402323471,-1.126304,-0.066368,-0.0976,-4.27,-1.79375,2.52,39.68,15.944001,31.008001,eccentric,5,3.0,21363.0,313448.0,284045.0,336144.0,295354.0
2026-04-07 17:52:11.984466,257844,1402331608,1402332209,-1.126304,-0.066368,-0.0976,-4.47125,-2.24,5.32875,39.68,15.944001,31.008001,eccentric,5,3.0,21363.0,313448.0,284045.0,336144.0,295354.0
2026-04-07 17:52:11.986224,257845,1402346387,1402347146,-1.165344,-0.060512,-0.093696,-6.335,-3.94625,8.95125,38.856003,15.584001,30.824001,eccentric,5,3.0,21363.0,313448.0,284045.0,336144.0,295354.0
2026-04-07 17:52:11.988690,257846,1402355842,1402357906,-1.165344,-0.060512,-0.093696,-6.5975,-5.25875,12.565,38.856003,15.584001,30.824001,eccentric,5,3.0,21363.0,313448.0,284045.0,336144.0,295354.0
2026-04-07 17:52:11.990225,257847,1402364762,1402366593,-1.114592,-0.091744,-0.177632,-7.5425,-6.5275,15.35625,39.640003,15.240001,30.232002,eccentric,5,3.0,21363.0,313448.0,284045.0,336144.0,295354.0
2026-04-07 17:52:12.025783,257858,1402381727,1402382430,-1.081408,-0.046848,-0.181536,-11.480001,-7.0175,16.30125,39.536003,14.872001,30.728,eccentric,5,3.0,22400.0,322789.0,291643.0,344506.0,303030.0
2026-04-07 17:52:12.027478,257859,1402385587,1402387032,-1.081408,-0.046848,-0.181536,-12.48625,-6.895,15.18125,39.536003,14.872001,30.728,eccentric,5,3.0,22400.0,322789.0,291643.0,344506.0,303030.0
2026-04-07 17:52:12.029029,257860,1402400359,1402401992,-1.091168,-0.01952,-0.154208,-9.1875,-6.01125,15.05,40.480003,15.056001,30.032001,eccentric,5,3.0,22400.0,322789.0,291643.0,344506.0,303030.0
2026-04-07 17:52:12.033195,257861,1402409402,1402410728,-1.091168,-0.01952,-0.154208,-5.0925,-5.38125,15.33,40.480003,15.056001,30.032001,eccentric,5,3.0,22400.0,322789.0,291643.0,344506.0,303030.0
2026-04-07 17:52:12.034921,257862,1402418329,1402419499,-1.091168,-0.01952,-0.160064,-3.8675,-5.99375,16.065,40.480003,15.056001,30.032001,eccentric,5,3.0,22400.0,322789.0,291643.0,344506.0,303030.0
2026-04-07 17:52:12.036524,257863,1402427310,1402428263,-1.106784,-0.052704,-0.160064,-3.885,-8.0325,16.96625,41.592003,14.960001,29.04,eccentric,5,3.0,22400.0,322789.0,291643.0,344506.0,303030.0
2026-04-07 17:52:12.067624,257864,1402441893,1402443176,-1.067744,-0.007808,-0.169824,-2.9225,-9.8,16.695,40.624,14.672001,30.712002,eccentric,5,3.0,22400.0,322789.0,291643.0,344506.0,303030.0
2026-04-07 17:52:12.069871,257865,1402450820,1402451899,-1.067744,-0.007808,-0.169824,3.115,-9.695,16.12625,40.624,14.672001,30.712002,eccentric,5,3.0,22400.0,322789.0,291643.0,344506.0,303030.0
2026-04-07 17:52:12.074426,257866,1402459739,1402460571,-1.108736,0.01952,-0.113216,9.7125,-9.24875,14.63,41.36,13.920001,28.28,eccentric,5,3.0,22400.0,322789.0,291643.0,344506.0,303030.0
2026-04-07 17:52:12.103065,257867,1402474250,1402475503,-1.108736,0.01952,-0.113216,10.5,-9.0475,12.985,41.36,13.920001,28.28,eccentric,5,3.0,22400.0,322789.0,291643.0,344506.0,303030.0
2026-04-07 17:52:12.134493,257877,1402483297,1402484641,-1.149728,-0.076128,-0.124928,5.80125,-11.48875,14.595,41.776,13.856001,30.144001,eccentric,5,3.0,23306.0,331081.0,298371.0,351654.0,308649.0
2026-04-07 17:52:12.136192,257878,1402492301,1402493363,-1.149728,-0.076128,-0.124928,0.5775,-14.41125,16.3625,41.776,13.856001,30.144001,eccentric,5,3.0,23306.0,331081.0,298371.0,351654.0,308649.0
2026-04-07 17:52:12.137738,257879,1402506820,1402508241,-1.130208,-0.064416,-0.091744,2.7475,-15.96875,18.366251,41.912003,13.280001,30.152002,eccentric,5,3.0,23306.0,331081.0,298371.0,351654.0,308649.0
2026-04-07 17:52:12.142161,257880,1402515944,1402516966,-1.130208,-0.064416,-0.091744,11.698751,-15.00625,21.04375,41.912003,13.280001,30.152002,eccentric,5,3.0,23306.0,331081.0,298371.0,351654.0,308649.0
2026-04-07 17:52:12.147461,257881,1402524882,1402525690,-1.114592,-0.033184,-0.091744,16.49375,-14.07,22.303751,42.432003,13.216001,30.184002,eccentric,5,3.0,23306.0,331081.0,298371.0,351654.0,308649.0
2026-04-07 17:52:12.149024,257882,1402533823,1402534478,-1.114592,-0.033184,-0.091744,15.65375,-12.87125,23.54625,42.432003,13.216001,30.184002,eccentric,5,3.0,23306.0,331081.0,298371.0,351654.0,308649.0
2026-04-07 17:52:12.181443,257883,1402548655,1402549475,-1.1224,-0.01952,-0.037088,13.335,-11.1125,25.1125,42.576,12.232,31.472002,eccentric,5,3.0,23306.0,331081.0,298371.0,351654.0,308649.0
2026-04-07 17:52:12.183690,257884,1402557550,1402558199,-1.1224,-0.01952,-0.037088,8.5925,-11.095,27.405,42.576,12.232,31.472002,eccentric,5,3.0,23306.0,331081.0,298371.0,351654.0,308649.0
2026-04-07 17:52:12.188344,257885,1402566797,1402568984,-1.149728,-0.037088,-0.046848,5.075,-11.96125,29.37375,43.4,12.768001,29.832,eccentric,5,3.0,23306.0,331081.0,298371.0,351654.0,308649.0
2026-04-07 17:52:12.191074,257886,1402581339,1402581850,-1.153632,0.001952,-0.062464,4.78625,-13.55375,30.75625,43.776,11.936001,32.168003,eccentric,5,3.0,23306.0,331081.0,298371.0,351654.0,308649.0
2026-04-07 17:52:12.214035,257896,1402590767,1402592737,-1.153632,0.001952,-0.062464,6.02875,-14.0875,30.9225,43.776,11.936001,32.168003,eccentric,5,3.0,23829.0,335164.0,301621.0,354836.0,311031.0
2026-04-07 17:52:12.218271,257897,1402599778,1402601547,-1.173152,-0.017568,-0.0976,6.72,-14.315001,30.26625,43.776,11.120001,31.152002,eccentric,5,3.0,23829.0,335164.0,301621.0,354836.0,311031.0
2026-04-07 17:52:12.220669,257898,1402608796,1402610277,-1.173152,-0.017568,-0.0976,3.91125,-14.9975,29.44375,44.168003,11.120001,31.152002,eccentric,5,3.0,23829.0,335164.0,301621.0,354836.0,311031.0
2026-04-07 17:52:12.270281,257899,1402623312,1402625253,-1.159488,-0.052704,-0.103456,2.33625,-15.39125,29.7675,43.496002,10.592001,32.36,eccentric,5,3.0,23829.0,335164.0,301621.0,354836.0,311031.0
2026-04-07 17:52:12.272580,257900,1402632266,1402633972,-1.159488,-0.052704,-0.103456,6.195,-15.8025,30.47625,43.496002,10.592001,32.36,eccentric,5,3.0,23829.0,335164.0,301621.0,354836.0,311031.0
2026-04-07 17:52:12.277046,257901,1402641202,1402642677,-1.124352,0.017568,-0.046848,12.6525,-15.26,30.82625,44.376003,10.576,30.44,eccentric,5,3.0,23829.0,335164.0,301621.0,354836.0,311031.0
2026-04-07 17:52:12.278793,257902,1402655655,1402657570,-1.124352,0.017568,-0.046848,14.72625,-14.00875,28.7525,44.376003,10.576,30.44,eccentric,5,3.0,23829.0,335164.0,301621.0,354836.0,311031.0
2026-04-07 17:52:12.280282,257903,1402664559,1402666259,-1.155584,0.083936,-0.017568,13.886251,-12.145,23.9225,44.536003,9.984,30.792002,eccentric,5,3.0,23829.0,335164.0,301621.0,354836.0,311031.0
2026-04-07 17:52:12.284325,257904,1402673503,1402674952,-1.155584,0.083936,-0.017568,9.975,-10.7275,20.1775,44.536003,9.984,30.792002,eccentric,5,3.0,23829.0,335164.0,301621.0,354836.0,311031.0
2026-04-07 17:52:12.338993,257915,1402688088,1402689969,-1.216096,0.076128,0.00976,1.155,-10.28125,16.7825,44.56,10.008,31.144001,eccentric,5,3.0,23536.0,332277.0,299011.0,351629.0,307929.0
2026-04-07 17:52:12.341673,257916,1402697007,1402698683,-1.216096,0.076128,0.00976,-4.66375,-10.4475,12.7225,44.56,10.008,31.144001,eccentric,5,3.0,23536.0,332277.0,299011.0,351629.0,307929.0
2026-04-07 17:52:12.344025,257917,1402705892,1402707357,-1.206336,-0.052704,-0.091744,-6.02,-11.025,9.8175,45.288002,9.656,31.136002,eccentric,5,3.0,23536.0,332277.0,299011.0,351629.0,307929.0
2026-04-07 17:52:12.347313,257918,1402714791,1402716059,-1.206336,-0.052704,-0.091744,-7.035,-11.935,7.97125,45.288002,9.656,31.136002,eccentric,5,3.0,23536.0,332277.0,299011.0,351629.0,307929.0
2026-04-07 17:52:12.349517,257919,1402729287,1402730987,-1.157536,-0.095648,-0.17568,-3.87625,-13.448751,6.5975,44.4,9.512,33.488003,eccentric,5,3.0,23536.0,332277.0,299011.0,351629.0,307929.0
2026-04-07 17:52:12.351903,257920,1402738211,1402739748,-1.157536,-0.095648,-0.17568,3.22,-13.475,5.87125,44.4,9.512,33.488003,eccentric,5,3.0,23536.0,332277.0,299011.0,351629.0,307929.0
2026-04-07 17:52:12.355258,257921,1402747158,1402748471,-1.138016,-0.037088,-0.1464,11.4275,-12.845,2.8175,44.288002,9.288,35.368,eccentric,5,3.0,23536.0,332277.0,299011.0,351629.0,307929.0
2026-04-07 17:52:12.385350,257922,1402761675,1402763375,-1.147776,0.001952,-0.042944,14.9275,-12.01375,1.33875,44.568,9.216001,32.824,eccentric,5,3.0,23536.0,332277.0,299011.0,351629.0,307929.0
2026-04-07 17:52:12.389029,257923,1402770584,1402772087,-1.147776,0.001952,-0.042944,11.54125,-10.19375,1.12,44.568,9.216001,32.824,eccentric,5,3.0,23536.0,332277.0,299011.0,351629.0,307929.0
2026-04-07 17:52:12.391350,257924,1402779517,1402780765,-1.147776,0.001952,-0.042944,4.33125,-8.4525,1.11125,44.568,9.216001,32.824,eccentric,5,3.0,23536.0,332277.0,299011.0,351629.0,307929.0
2026-04-07 17:52:12.420389,257934,1402794089,1402795783,-1.177056,-0.005856,0.031232,-1.785,-6.4225,1.365,45.112003,9.384001,30.704002,eccentric,5,3.0,22964.0,327083.0,294686.0,346916.0,304164.0
2026-04-07 17:52:12.422833,257935,1402803173,1402804526,-1.155584,-0.031232,0.021472,-7.42875,-5.285,1.155,44.272003,9.024,32.984,eccentric,5,3.0,22964.0,327083.0,294686.0,346916.0,304164.0
2026-04-07 17:52:12.425311,257936,1402812209,1402813271,-1.155584,-0.031232,0.021472,-11.83,-4.9,1.61,44.272003,9.024,32.984,eccentric,5,3.0,22964.0,327083.0,294686.0,346916.0,304164.0
2026-04-07 17:52:12.455485,257937,1402826757,1402828156,-1.143872,-0.066368,-0.072224,-13.95625,-4.29625,2.1525,44.824,9.336,32.064003,eccentric,5,3.0,22964.0,327083.0,294686.0,346916.0,304164.0
2026-04-07 17:52:12.459051,257938,1402835652,1402836881,-1.143872,-0.066368,-0.072224,-15.14625,-4.50625,3.21125,44.824,9.336,32.064003,eccentric,5,3.0,22964.0,327083.0,294686.0,346916.0,304164.0
2026-04-07 17:52:12.461527,257939,1402844548,1402845573,-1.147776,-0.10736,-0.138592,-14.00875,-4.9,5.635,45.440002,9.304001,31.288002,eccentric,5,3.0,22964.0,327083.0,294686.0,346916.0,304164.0
2026-04-07 17:52:12.463962,257940,1402853487,1402854280,-1.147776,-0.10736,-0.138592,-10.77125,-4.57625,8.2425,45.440002,9.304001,31.288002,eccentric,5,3.0,22964.0,327083.0,294686.0,346916.0,304164.0
2026-04-07 17:52:12.494160,257941,1402868031,1402869167,-1.165344,-0.115168,-0.111264,-7.42,-4.94375,11.12125,44.992,8.696,32.712,eccentric,5,3.0,22964.0,327083.0,294686.0,346916.0,304164.0
2026-04-07 17:52:12.497684,257942,1402876954,1402877849,-1.165344,-0.115168,-0.111264,-4.6025,-6.18625,12.3725,44.992,8.696,32.712,eccentric,5,3.0,22964.0,327083.0,294686.0,346916.0,304164.0
2026-04-07 17:52:12.522700,257952,1402886441,1402886840,-1.167296,-0.0976,-0.064416,-2.7825,-6.23875,12.74875,45.800003,8.304001,31.768002,eccentric,5,3.0,22828.0,326141.0,294025.0,346435.0,303879.0
2026-04-07 17:52:12.525241,257953,1402901325,1402901785,-1.14192,-0.08784,-0.03904,-1.49625,-6.195,14.34125,45.808002,8.208,34.128002,eccentric,5,3.0,22828.0,326141.0,294025.0,346435.0,303879.0
2026-04-07 17:52:12.527747,257954,1402910739,1402912601,-1.14192,-0.08784,-0.03904,-2.1525,-4.8825,17.17625,45.808002,8.208,34.128002,eccentric,5,3.0,22828.0,326141.0,294025.0,346435.0,303879.0
2026-04-07 17:52:12.530194,257955,1402919673,1402921310,-1.14192,-0.08784,-0.03904,-4.48,-4.55875,18.9,45.808002,8.208,34.128002,eccentric,5,3.0,22828.0,326141.0,294025.0,346435.0,303879.0
2026-04-07 17:52:12.536420,257956,1402928649,1402930086,-1.139968,-0.08784,-0.007808,-7.56875,-3.03625,18.22625,45.392002,7.856,32.568,eccentric,5,3.0,22828.0,326141.0,294025.0,346435.0,303879.0
2026-04-07 17:52:12.575416,257957,1402943231,1402945021,-1.155584,-0.042944,-0.017568,-8.96,-1.39125,16.9925,46.04,7.776001,31.488,eccentric,5,3.0,22828.0,326141.0,294025.0,346435.0,303879.0
2026-04-07 17:52:12.579152,257958,1402952172,1402953767,-1.155584,-0.042944,-0.017568,-7.55125,-0.67375,15.56625,46.04,7.776001,31.488,eccentric,5,3.0,22828.0,326141.0,294025.0,346435.0,303879.0
2026-04-07 17:52:12.581519,257959,1402961184,1402962489,-1.149728,0.00976,-0.072224,-7.56875,0.23625,12.64375,46.04,7.528,30.720001,eccentric,5,3.0,22828.0,326141.0,294025.0,346435.0,303879.0
2026-04-07 17:52:12.585386,257960,1402975708,1402977425,-1.149728,0.00976,-0.072224,-10.5,1.04125,8.93375,45.992,7.528,30.720001,eccentric,5,3.0,22828.0,326141.0,294025.0,346435.0,303879.0
2026-04-07 17:52:12.641457,257971,1402985127,1402986195,-1.136064,-0.013664,-0.091744,-12.73125,1.0675,6.11625,46.184002,8.088,31.504002,eccentric,5,3.0,22929.0,326904.0,294602.0,347076.0,304443.0
2026-04-07 17:52:12.643941,257972,1402994150,1402994926,-1.136064,-0.013664,-0.091744,-16.10875,0.98,5.60875,46.184002,8.088,31.504002,eccentric,5,3.0,22929.0,326904.0,294602.0,347076.0,304443.0
2026-04-07 17:52:12.646423,257973,1403003568,1403005716,-1.1224,-0.08784,-0.06832,-17.45625,1.65375,3.9025,46.416,7.880001,31.232002,eccentric,5,3.0,22929.0,326904.0,294602.0,347076.0,304443.0
2026-04-07 17:52:12.648917,257974,1403018163,1403018599,-1.1224,-0.08784,-0.06832,-15.42625,0.875,2.7475,46.416,7.880001,31.232002,eccentric,5,3.0,22929.0,326904.0,294602.0,347076.0,304443.0
2026-04-07 17:52:12.651491,257975,1403027535,1403029368,-1.110688,-0.083936,-0.044896,-11.78625,1.28625,1.70625,46.640003,7.216001,31.192001,eccentric,5,3.0,22929.0,326904.0,294602.0,347076.0,304443.0
2026-04-07 17:52:12.653940,257976,1403036516,1403038102,-1.110688,-0.083936,-0.044896,-7.42,2.1875,-0.83125,46.640003,7.216001,31.192001,eccentric,5,3.0,22929.0,326904.0,294602.0,347076.0,304443.0
2026-04-07 17:52:12.656436,257977,1403045482,1403046812,-1.116544,-0.015616,-0.033184,-5.76625,3.57,-3.43,46.272003,7.008,31.04,eccentric,5,3.0,22929.0,326904.0,294602.0,347076.0,304443.0
2026-04-07 17:52:12.686643,257978,1403059984,1403061715,-1.116544,-0.015616,-0.033184,-6.7375,4.41875,-5.20625,46.272003,7.008,31.04,eccentric,5,3.0,22929.0,326904.0,294602.0,347076.0,304443.0
2026-04-07 17:52:12.690245,257979,1403068975,1403070431,-1.143872,-0.042944,-0.070272,-10.00125,4.27875,-5.9675,45.984,7.16,33.024002,eccentric,5,3.0,22929.0,326904.0,294602.0,347076.0,304443.0
2026-04-07 17:52:12.696481,257980,1403078002,1403079085,-1.143872,-0.042944,-0.070272,-13.67625,3.96375,-5.71375,45.984,7.16,33.024002,eccentric,5,3.0,22929.0,326904.0,294602.0,347076.0,304443.0
2026-04-07 17:52:12.758667,257990,1403092684,1403094168,-1.11264,-0.128832,-0.101504,-15.1025,2.9225,-4.06875,46.176003,7.048,31.000002,eccentric,5,3.0,22897.0,326373.0,294081.0,346270.0,303739.0
2026-04-07 17:52:12.760299,257991,1403101678,1403102871,-1.128256,-0.0976,-0.080032,-10.9725,3.26375,-2.77375,46.176003,7.048,31.072002,eccentric,5,3.0,22897.0,326373.0,294081.0,346270.0,303739.0
2026-04-07 17:52:12.762852,257992,1403110686,1403111582,-1.128256,-0.0976,-0.080032,-3.21125,4.52375,-1.925,45.736004,7.08,31.072002,eccentric,5,3.0,22897.0,326373.0,294081.0,346270.0,303739.0
2026-04-07 17:52:12.766171,257993,1403119600,1403120301,-1.128256,-0.0976,-0.080032,4.34,5.775,-1.505,45.736004,7.08,31.072002,eccentric,5,3.0,22897.0,326373.0,294081.0,346270.0,303739.0
2026-04-07 17:52:12.767633,257994,1403134478,1403135196,-1.149728,-0.021472,-0.035136,5.87125,6.51,-2.30125,46.232002,7.184001,30.808,eccentric,5,3.0,22897.0,326373.0,294081.0,346270.0,303739.0
2026-04-07 17:52:12.772032,257995,1403143832,1403145976,-1.177056,-0.056608,-0.050752,2.24875,7.06125,-2.38,46.320004,7.264,31.872002,eccentric,5,3.0,22897.0,326373.0,294081.0,346270.0,303739.0
2026-04-07 17:52:12.773491,257996,1403152872,1403154671,-1.177056,-0.056608,-0.050752,-0.79625,7.21,-1.89875,46.320004,7.264,31.872002,eccentric,5,3.0,22897.0,326373.0,294081.0,346270.0,303739.0
2026-04-07 17:52:12.777317,257997,1403167407,1403169664,-1.21024,-0.07808,-0.11712,-0.16625,6.39625,-1.4175,45.776,7.696001,31.840002,eccentric,5,3.0,22897.0,326373.0,294081.0,346270.0,303739.0
2026-04-07 17:52:12.807513,257998,1403176329,1403178368,-1.21024,-0.07808,-0.11712,6.90375,5.57375,-1.54,45.776,7.696001,31.840002,eccentric,5,3.0,22897.0,326373.0,294081.0,346270.0,303739.0
2026-04-07 17:52:12.838255,258008,1403185262,1403187105,-1.182912,0.015616,-0.101504,17.955,5.1625,-2.38,45.968002,7.624001,31.000002,eccentric,5,3.0,21978.0,316965.0,285830.0,336442.0,295480.0
2026-04-07 17:52:12.840856,258009,1403194613,1403195978,-1.182912,0.015616,-0.101504,25.99625,6.11625,-5.2675,45.968002,7.624001,31.000002,eccentric,5,3.0,21978.0,316965.0,285830.0,336442.0,295480.0
2026-04-07 17:52:12.876339,258010,1403209157,1403210937,-1.206336,0.037088,-0.095648,25.96125,7.32375,-8.575,45.304,7.584001,31.032001,eccentric,5,3.0,21978.0,316965.0,285830.0,336442.0,295480.0
2026-04-07 17:52:12.878674,258011,1403218170,1403219663,-1.206336,0.037088,-0.095648,20.7025,5.99375,-10.01,45.304,7.584001,31.032001,eccentric,5,3.0,21978.0,316965.0,285830.0,336442.0,295480.0
2026-04-07 17:52:12.883225,258012,1403227131,1403228410,-1.266848,0.0488,-0.072224,17.5525,5.4775,-10.8325,45.456,7.68,31.632002,eccentric,5,3.0,21978.0,316965.0,285830.0,336442.0,295480.0
2026-04-07 17:52:12.884953,258013,1403241640,1403243345,-1.266848,0.0488,-0.072224,16.31875,6.1425,-10.71875,45.456,7.68,31.632002,eccentric,5,3.0,21978.0,316965.0,285830.0,336442.0,295480.0
2026-04-07 17:52:12.887396,258014,1403250585,1403252034,-1.196576,0.040992,-0.072224,16.79125,5.94125,-11.24375,45.68,8.216001,31.016,eccentric,5,3.0,21978.0,316965.0,285830.0,336442.0,295480.0
2026-04-07 17:52:12.888971,258015,1403259517,1403260771,-1.196576,0.040992,-0.072224,13.7725,6.74625,-12.573751,45.68,8.216001,31.016,eccentric,5,3.0,21978.0,316965.0,285830.0,336442.0,295480.0
2026-04-07 17:52:12.893243,258016,1403273988,1403275700,-1.188768,-0.017568,-0.027328,6.36125,7.34125,-14.55125,45.864002,8.144,31.512001,eccentric,5,3.0,21978.0,316965.0,285830.0,336442.0,295480.0
2026-04-07 17:52:12.894934,258017,1403282945,1403284479,-1.212192,-0.040992,-0.015616,0.79625,8.1725,-15.8725,45.592003,8.176001,33.0,eccentric,5,3.0,21978.0,316965.0,285830.0,336442.0,295480.0
2026-04-07 17:52:12.923313,258028,1403291951,1403293284,-1.212192,-0.040992,-0.015616,-1.04125,8.25125,-15.505,45.592003,8.176001,33.0,eccentric,5,3.0,20612.0,303857.0,274660.0,323412.0,283877.0
2026-04-07 17:52:12.925040,258029,1403300953,1403302036,-1.212192,-0.040992,-0.015616,-0.035,7.48125,-14.07,45.592003,8.176001,33.0,eccentric,5,3.0,20612.0,303857.0,274660.0,323412.0,283877.0
2026-04-07 17:52:12.926565,258030,1403315574,1403316987,-1.202432,0.00976,-0.099552,3.9725,6.545,-12.6875,45.000004,8.696,30.848001,eccentric,5,3.0,20612.0,303857.0,274660.0,323412.0,283877.0
2026-04-07 17:52:12.934297,258031,1403324497,1403325714,-1.202432,-0.003904,-0.099552,5.83625,6.125,-11.61125,44.800003,8.696,33.888,eccentric,5,3.0,20612.0,303857.0,274660.0,323412.0,283877.0
2026-04-07 17:52:12.966659,258032,1403333426,1403334424,-1.202432,-0.003904,-0.099552,4.41,5.81,-10.26375,44.800003,8.696,33.888,concentric,5,3.0,20612.0,303857.0,274660.0,323412.0,283877.0
2026-04-07 17:52:12.969042,258033,1403347901,1403349355,-1.1712,-0.011712,-0.093696,3.10625,4.6725,-9.1875,45.256,9.016001,31.112001,concentric,5,3.0,20612.0,303857.0,274660.0,323412.0,283877.0
2026-04-07 17:52:12.973474,258034,1403356806,1403358050,-1.1712,-0.011712,-0.093696,3.66625,3.045,-8.75875,45.256,9.016001,31.112001,concentric,5,3.0,20612.0,303857.0,274660.0,323412.0,283877.0
2026-04-07 17:52:12.978153,258035,1403365682,1403366769,-1.145824,0.005856,-0.099552,5.38125,1.9425,-8.88125,45.600002,8.632,31.480001,concentric,5,3.0,20612.0,303857.0,274660.0,323412.0,283877.0
2026-04-07 17:52:13.008865,258036,1403380272,1403381667,-1.145824,0.005856,-0.099552,10.71875,2.03875,-8.09375,45.600002,8.632,31.480001,concentric,5,3.0,20612.0,303857.0,274660.0,323412.0,283877.0
2026-04-07 17:52:13.035713,258046,1403389465,1403390386,-1.136064,0.044896,-0.035136,13.20375,2.73875,-7.35,45.464,8.76,31.440002,concentric,5,3.0,20201.0,299972.0,271485.0,319985.0,280969.0
2026-04-07 17:52:13.037528,258047,1403398443,1403399146,-1.136064,0.044896,-0.035136,12.075,3.12375,-7.5075,45.464,8.76,31.440002,concentric,5,3.0,20201.0,299972.0,271485.0,319985.0,280969.0
2026-04-07 17:52:13.039024,258048,1403407750,1403409974,-1.139968,0.052704,-0.0488,11.31375,2.96625,-7.35,45.376003,8.928,31.048002,concentric,5,3.0,20201.0,299972.0,271485.0,319985.0,280969.0
2026-04-07 17:52:13.043232,258049,1403422284,1403422892,-1.139968,0.052704,-0.0488,10.00125,3.31625,-5.99375,45.376003,8.928,31.048002,concentric,5,3.0,20201.0,299972.0,271485.0,319985.0,280969.0
2026-04-07 17:52:13.044854,258050,1403431507,1403433760,-1.143872,0.05856,-0.035136,6.65875,3.9375,-4.8125,44.808002,8.624001,32.072002,concentric,5,3.0,20201.0,299972.0,271485.0,319985.0,280969.0
2026-04-07 17:52:13.051862,258051,1403440463,1403442463,-1.143872,0.05856,-0.035136,4.01625,4.13,-3.8325,44.808002,8.624001,32.072002,concentric,5,3.0,20201.0,299972.0,271485.0,319985.0,280969.0
2026-04-07 17:52:13.080455,258052,1403455029,1403455347,-1.179008,-0.021472,-0.062464,-0.7,3.15875,-2.8175,44.904003,9.248,32.424,concentric,5,3.0,20201.0,299972.0,271485.0,319985.0,280969.0
2026-04-07 17:52:13.084886,258053,1403464204,1403466170,-1.202432,-0.015616,-0.044896,-3.26375,2.1875,-1.645,45.016003,9.192,32.784,concentric,5,3.0,20201.0,299972.0,271485.0,319985.0,280969.0
2026-04-07 17:52:13.087273,258054,1403473123,1403474862,-1.202432,-0.015616,-0.044896,0.9975,0.21875,-0.35,45.016003,9.192,32.784,concentric,5,3.0,20201.0,299972.0,271485.0,319985.0,280969.0
2026-04-07 17:52:13.093090,258055,1403482076,1403483552,-1.202432,-0.015616,-0.044896,8.44375,-3.57875,-1.16375,45.016003,9.192,32.784,concentric,5,3.0,20201.0,299972.0,271485.0,319985.0,280969.0
2026-04-07 17:52:13.117438,258065,1403496973,1403498677,-1.15168,0.142496,-0.152256,16.94875,-6.81625,-3.12375,44.152,9.232,31.696001,concentric,5,3.0,19971.0,297884.0,269907.0,318566.0,279664.0
2026-04-07 17:52:13.119062,258066,1403505920,1403507385,-1.106784,0.269376,-0.0976,22.16375,-8.0675,-5.39875,44.424004,8.888001,32.16,concentric,5,3.0,19971.0,297884.0,269907.0,318566.0,279664.0
2026-04-07 17:52:13.128407,258067,1403514852,1403516090,-1.106784,0.269376,-0.0976,21.5075,-8.6975,-9.94,44.424004,8.888001,32.16,concentric,5,3.0,19971.0,297884.0,269907.0,318566.0,279664.0
2026-04-07 17:52:13.171412,258068,1403529339,1403530990,-1.098976,0.245952,-0.001952,16.4325,-8.5575,-15.79375,44.824,9.624001,31.864002,concentric,5,3.0,19971.0,297884.0,269907.0,318566.0,279664.0
2026-04-07 17:52:13.172826,258069,1403538269,1403539703,-1.098976,0.245952,-0.001952,8.96875,-8.19,-21.60375,44.824,9.624001,31.864002,concentric,5,3.0,19971.0,297884.0,269907.0,318566.0,279664.0
2026-04-07 17:52:13.178302,258070,1403547179,1403548394,-1.126304,0.1464,0.044896,2.84375,-6.15125,-25.97,44.128002,10.184,32.280003,concentric,5,3.0,19971.0,297884.0,269907.0,318566.0,279664.0
2026-04-07 17:52:13.180021,258071,1403561630,1403563274,-1.126304,0.1464,0.044896,-0.37625,-5.45125,-28.735,44.128002,10.184,32.280003,concentric,5,3.0,19971.0,297884.0,269907.0,318566.0,279664.0
2026-04-07 17:52:13.181710,258072,1403570574,1403571958,-1.138016,0.076128,0.060512,-2.135,-4.445,-30.79125,43.656002,10.632001,32.600002,concentric,5,3.0,19971.0,297884.0,269907.0,318566.0,279664.0
2026-04-07 17:52:13.189367,258073,1403579515,1403580714,-1.138016,0.076128,0.060512,-2.4675,-3.0625,-31.5175,43.656002,10.632001,32.600002,concentric,5,3.0,19971.0,297884.0,269907.0,318566.0,279664.0
2026-04-07 17:52:13.256994,258084,1403588616,1403589390,-1.069696,0.124928,0.05856,-0.3325,-1.65375,-32.89125,43.088,10.824,34.24,concentric,5,3.0,19489.0,293056.0,265899.0,314078.0,276256.0
2026-04-07 17:52:13.258726,258085,1403603225,1403604284,-1.069696,0.124928,0.05856,0.2275,0.41125,-34.4575,43.088,10.824,34.24,concentric,5,3.0,19489.0,293056.0,265899.0,314078.0,276256.0
2026-04-07 17:52:13.260259,258086,1403612128,1403612978,-1.077504,0.20496,0.033184,-4.305,2.1175,-36.04125,42.792004,11.728001,33.416,concentric,5,3.0,19489.0,293056.0,265899.0,314078.0,276256.0
2026-04-07 17:52:13.264536,258087,1403621090,1403621693,-1.077504,0.20496,0.033184,-8.67125,4.15625,-36.98625,42.792004,11.728001,33.416,concentric,5,3.0,19489.0,293056.0,265899.0,314078.0,276256.0
2026-04-07 17:52:13.266227,258088,1403635862,1403636608,-1.110688,0.212768,0.01952,-9.91375,6.4575,-36.84625,43.024002,11.856001,32.088,concentric,5,3.0,19489.0,293056.0,265899.0,314078.0,276256.0
2026-04-07 17:52:13.267891,258089,1403645206,1403647395,-1.139968,0.095648,0.007808,-13.58,7.35,-36.81125,42.456,11.856001,32.376003,concentric,5,3.0,19489.0,293056.0,265899.0,314078.0,276256.0
2026-04-07 17:52:13.270161,258090,1403654145,1403656164,-1.139968,0.095648,0.007808,-16.275,6.76375,-37.9925,42.456,11.856001,32.376003,concentric,5,3.0,19489.0,293056.0,265899.0,314078.0,276256.0
2026-04-07 17:52:13.275333,258091,1403663113,1403664874,-1.139968,0.095648,0.007808,-15.9425,6.36125,-36.82,42.456,11.856001,32.376003,concentric,5,3.0,19489.0,293056.0,265899.0,314078.0,276256.0
2026-04-07 17:52:13.306432,258092,1403677624,1403679760,-1.149728,0.076128,0.054656,-13.25625,4.8475,-33.46,41.952003,13.208,32.304,concentric,5,3.0,19489.0,293056.0,265899.0,314078.0,276256.0
2026-04-07 17:52:13.308918,258093,1403686605,1403688491,-1.098976,0.16592,0.031232,-11.261251,2.3975,-30.4325,41.824,12.664001,32.304,concentric,5,3.0,19489.0,293056.0,265899.0,314078.0,276256.0
2026-04-07 17:52:13.336452,258103,1403695538,1403697251,-1.098976,0.16592,0.031232,-10.745,0.97125,-32.41,41.824,12.664001,32.304,concentric,5,3.0,19070.0,289664.0,263377.0,312129.0,275401.0
2026-04-07 17:52:13.340727,258104,1403710087,1403712210,-1.089216,0.158112,-0.013664,-11.89125,0.09625,-35.245,41.888,13.128,31.416002,concentric,5,3.0,19070.0,289664.0,263377.0,312129.0,275401.0
2026-04-07 17:52:13.342465,258105,1403719069,1403720926,-1.089216,0.158112,-0.013664,-13.16875,0.63,-36.56625,41.888,13.128,31.416002,concentric,5,3.0,19070.0,289664.0,263377.0,312129.0,275401.0
2026-04-07 17:52:13.344076,258106,1403728130,1403729655,-1.128256,0.072224,0.050752,-14.74375,0.805,-37.38,41.112003,13.992001,32.432003,concentric,5,3.0,19070.0,289664.0,263377.0,312129.0,275401.0
2026-04-07 17:52:13.375083,258107,1403742712,1403744629,-1.128256,0.072224,0.050752,-13.76375,-0.105,-36.93375,41.112003,13.992001,32.432003,concentric,5,3.0,19070.0,289664.0,263377.0,312129.0,275401.0
2026-04-07 17:52:13.377805,258108,1403751642,1403753321,-1.075552,0.076128,0.080032,-9.45,-0.60375,-37.19625,40.184002,13.904,34.072002,concentric,5,3.0,19070.0,289664.0,263377.0,312129.0,275401.0
2026-04-07 17:52:13.381381,258109,1403760550,1403762001,-1.075552,0.076128,0.080032,-5.22375,-0.9625,-37.30125,40.184002,13.904,34.072002,concentric,5,3.0,19070.0,289664.0,263377.0,312129.0,275401.0
2026-04-07 17:52:13.383590,258110,1403769472,1403770689,-1.1224,0.083936,0.052704,-5.32875,-1.0675,-37.1,39.712,13.648001,31.592001,concentric,5,3.0,19070.0,289664.0,263377.0,312129.0,275401.0
2026-04-07 17:52:13.413889,258111,1403783939,1403785570,-1.1224,0.083936,0.052704,-7.6125,-1.6975,-36.35625,39.712,13.648001,31.592001,concentric,5,3.0,19070.0,289664.0,263377.0,312129.0,275401.0
2026-04-07 17:52:13.439070,258121,1403793202,1403794290,-1.075552,0.091744,0.0488,-9.10875,-2.42375,-36.25125,38.960003,14.440001,31.600002,concentric,5,3.0,18976.0,288877.0,263036.0,312412.0,276193.0
2026-04-07 17:52:13.473833,258122,1403802252,1403803020,-1.075552,0.091744,0.0488,-12.0225,-2.1175,-37.49375,38.960003,14.440001,31.600002,concentric,5,3.0,18976.0,288877.0,263036.0,312412.0,276193.0
2026-04-07 17:52:13.476154,258123,1403817277,1403817966,-1.11264,0.040992,0.044896,-13.29125,-0.35,-39.585,39.072002,14.816001,31.248001,concentric,5,3.0,18976.0,288877.0,263036.0,312412.0,276193.0
2026-04-07 17:52:13.479969,258124,1403826608,1403828877,-1.130208,-0.011712,0.042944,-13.2125,0.76125,-39.2175,38.192,14.768001,32.104,concentric,5,3.0,18976.0,288877.0,263036.0,312412.0,276193.0
2026-04-07 17:52:13.481487,258125,1403835555,1403837591,-1.130208,-0.011712,0.042944,-14.35,1.47,-36.77625,38.192,14.768001,32.104,concentric,5,3.0,18976.0,288877.0,263036.0,312412.0,276193.0
2026-04-07 17:52:13.483947,258126,1403844514,1403846294,-1.130208,-0.011712,0.025376,-12.50375,1.46125,-34.83375,38.192,14.768001,32.104,concentric,5,3.0,18976.0,288877.0,263036.0,312412.0,276193.0
2026-04-07 17:52:13.488204,258127,1403859084,1403861196,-1.087264,-0.00976,0.025376,-9.5725,1.77625,-34.125,38.4,14.992001,30.888002,concentric,5,3.0,18976.0,288877.0,263036.0,312412.0,276193.0
2026-04-07 17:52:13.489940,258128,1403867995,1403869875,-1.087264,0.062464,-0.013664,-9.26625,0.42,-34.7025,38.2,15.632001,30.752,concentric,5,3.0,18976.0,288877.0,263036.0,312412.0,276193.0
2026-04-07 17:52:13.491513,258129,1403876930,1403878629,-1.087264,0.062464,-0.013664,-7.0175,0.0,-35.8225,38.2,15.632001,30.752,concentric,5,3.0,18976.0,288877.0,263036.0,312412.0,276193.0
2026-04-07 17:52:13.528690,258140,1403892030,1403893608,-1.069696,0.101504,0.0488,-3.7275,1.2425,-37.9575,37.280003,15.272,32.904003,concentric,5,3.0,18921.0,288660.0,263030.0,312881.0,277046.0
2026-04-07 17:52:13.530257,258141,1403901094,1403902407,-1.069696,0.101504,0.0488,-1.81125,3.05375,-41.3875,37.280003,15.272,32.904003,concentric,5,3.0,18921.0,288660.0,263030.0,312881.0,277046.0
2026-04-07 17:52:13.534462,258142,1403910086,1403911170,-1.097024,-0.054656,0.0488,-1.02375,4.55,-42.21,36.128002,15.608001,32.976,concentric,5,3.0,18921.0,288660.0,263030.0,312881.0,277046.0
2026-04-07 17:52:13.536912,258143,1403919104,1403919862,-1.097024,-0.054656,0.0488,-2.66,5.8975,-41.2475,36.128002,15.608001,32.976,concentric,5,3.0,18921.0,288660.0,263030.0,312881.0,277046.0
2026-04-07 17:52:13.565540,258144,1403934152,1403934842,-1.069696,-0.17568,0.035136,-7.06125,6.34375,-37.28375,36.392002,16.328001,30.928001,concentric,5,3.0,18921.0,288660.0,263030.0,312881.0,277046.0
2026-04-07 17:52:13.569893,258145,1403943514,1403945594,-1.069696,-0.17568,0.035136,-5.4775,6.23875,-31.85,36.392002,16.328001,30.928001,concentric,5,3.0,18921.0,288660.0,263030.0,312881.0,277046.0
2026-04-07 17:52:13.572455,258146,1403952455,1403954307,-1.057984,-0.021472,-0.025376,1.68875,6.965,-28.76125,36.72,16.296001,30.832,concentric,5,3.0,18921.0,288660.0,263030.0,312881.0,277046.0
2026-04-07 17:52:13.574857,258147,1403961444,1403962992,-1.057984,-0.021472,-0.025376,11.68125,9.35375,-28.455,36.72,16.296001,30.832,concentric,5,3.0,18921.0,288660.0,263030.0,312881.0,277046.0
2026-04-07 17:52:13.605049,258148,1403976072,1403977898,-1.104832,0.025376,-0.017568,14.21,10.2725,-28.77,35.52,16.472,31.672,concentric,5,3.0,18921.0,288660.0,263030.0,312881.0,277046.0
2026-04-07 17:52:13.609542,258149,1403985046,1403986591,-1.104832,0.025376,-0.01952,10.94625,10.0975,-29.46125,35.52,16.472,31.672,concentric,5,3.0,18921.0,288660.0,263030.0,312881.0,277046.0
2026-04-07 17:52:13.632848,258159,1403994260,1403995301,-1.016992,-0.070272,-0.01952,5.60875,7.91,-30.45875,35.288002,17.048,31.224,concentric,5,3.0,19111.0,290819.0,265053.0,315653.0,279652.0
2026-04-07 17:52:13.636985,258160,1404008787,1404010295,-0.981856,-0.173728,0.025376,2.84375,7.21875,-29.39125,35.36,16.904001,31.104002,concentric,5,3.0,19111.0,290819.0,265053.0,315653.0,279652.0
2026-04-07 17:52:13.638697,258161,1404017757,1404019006,-0.981856,-0.173728,0.025376,0.27125,7.18375,-27.44875,35.36,16.904001,31.104002,concentric,5,3.0,19111.0,290819.0,265053.0,315653.0,279652.0
2026-04-07 17:52:13.640666,258162,1404026716,1404027707,-0.983808,-0.128832,-0.017568,-3.01875,5.27625,-23.695,35.456,16.552,31.224,concentric,5,3.0,19111.0,290819.0,265053.0,315653.0,279652.0
2026-04-07 17:52:13.671315,258163,1404041226,1404042638,-0.983808,-0.128832,-0.017568,-3.605,2.415,-17.91125,35.456,16.552,31.224,concentric,5,3.0,19111.0,290819.0,265053.0,315653.0,279652.0
2026-04-07 17:52:13.673607,258164,1404050194,1404051325,-1.018944,-0.042944,-0.013664,0.09625,-0.105,-12.3025,35.664,17.016,30.744001,concentric,5,3.0,19111.0,290819.0,265053.0,315653.0,279652.0
2026-04-07 17:52:13.678297,258165,1404059125,1404059998,-1.018944,-0.042944,-0.013664,7.63875,-2.31,-7.27125,35.664,17.016,30.744001,concentric,5,3.0,19111.0,290819.0,265053.0,315653.0,279652.0
2026-04-07 17:52:13.681663,258166,1404068050,1404068766,-0.958432,-0.033184,-0.037088,13.265,-3.49125,-5.5825,34.504,16.816,30.648,concentric,5,3.0,19111.0,290819.0,265053.0,315653.0,279652.0
2026-04-07 17:52:13.713817,258167,1404083030,1404084042,-0.958432,-0.033184,-0.037088,14.6125,-6.1075,-9.8525,34.504,16.816,30.648,concentric,5,3.0,19111.0,290819.0,265053.0,315653.0,279652.0
2026-04-07 17:52:13.739796,258177,1404092369,1404092800,-0.938912,-0.003904,-0.046848,14.49,-9.42375,-14.35875,34.2,16.616001,30.568,concentric,5,3.0,19318.0,293140.0,267088.0,318114.0,281722.0
2026-04-07 17:52:13.773843,258178,1404101799,1404103636,-0.938912,-0.003904,-0.046848,12.845,-11.31375,-16.21375,34.2,16.616001,30.568,concentric,5,3.0,19318.0,293140.0,267088.0,318114.0,281722.0
2026-04-07 17:52:13.776100,258179,1404110738,1404112380,-0.901824,-0.001952,0.013664,8.435,-11.7075,-18.64625,34.992,16.576,31.016,concentric,5,3.0,19318.0,293140.0,267088.0,318114.0,281722.0
2026-04-07 17:52:13.780896,258180,1404125301,1404127350,-0.901824,-0.001952,0.013664,4.165,-12.1625,-21.866251,34.992,16.576,31.016,concentric,5,3.0,19318.0,293140.0,267088.0,318114.0,281722.0
2026-04-07 17:52:13.782562,258181,1404134267,1404136032,-0.876448,-0.044896,0.031232,0.84,-12.39,-24.35125,33.872,17.184,32.32,concentric,5,3.0,19318.0,293140.0,267088.0,318114.0,281722.0
2026-04-07 17:52:13.784115,258182,1404143248,1404144742,-0.876448,-0.044896,0.031232,-0.0175,-12.15375,-25.85625,33.872,17.184,32.32,concentric,5,3.0,19318.0,293140.0,267088.0,318114.0,281722.0
2026-04-07 17:52:13.787576,258183,1404157714,1404159660,-0.874496,-0.101504,0.001952,0.7175,-11.0775,-26.41625,33.992,17.152,31.12,concentric,5,3.0,19318.0,293140.0,267088.0,318114.0,281722.0
2026-04-07 17:52:13.789587,258184,1404166639,1404168351,-0.843264,-0.083936,0.054656,2.17,-9.82625,-25.9875,33.992,17.584002,30.712002,concentric,5,3.0,19318.0,293140.0,267088.0,318114.0,281722.0
2026-04-07 17:52:13.793112,258185,1404175560,1404177087,-0.843264,-0.083936,0.054656,4.66375,-8.995,-25.85625,33.968002,17.584002,30.712002,concentric,5,3.0,19318.0,293140.0,267088.0,318114.0,281722.0
2026-04-07 17:52:13.849460,258196,1404190075,1404192089,-0.890112,-0.066368,0.046848,7.315,-7.35875,-25.43625,33.592003,17.456001,31.128002,concentric,5,3.0,19600.0,295723.0,269123.0,320056.0,282999.0
2026-04-07 17:52:13.851200,258197,1404199123,1404200799,-0.890112,-0.066368,0.046848,6.86875,-5.73125,-24.50875,33.592003,17.456001,31.128002,concentric,5,3.0,19600.0,295723.0,269123.0,320056.0,282999.0
2026-04-07 17:52:13.852747,258198,1404208024,1404209547,-0.894016,-0.083936,0.013664,3.17625,-5.1275,-23.40625,32.872,17.52,31.04,concentric,5,3.0,19600.0,295723.0,269123.0,320056.0,282999.0
2026-04-07 17:52:13.856970,258199,1404216929,1404218252,-0.894016,-0.083936,0.013664,-1.04125,-2.94875,-21.8225,32.872,17.52,31.04,concentric,5,3.0,19600.0,295723.0,269123.0,320056.0,282999.0
2026-04-07 17:52:13.858672,258200,1404231476,1404233238,-0.9272,-0.154208,0.001952,-3.29875,-1.67125,-21.00875,32.312,17.328001,32.384003,concentric,5,3.0,19600.0,295723.0,269123.0,320056.0,282999.0
2026-04-07 17:52:13.860373,258201,1404240402,1404241998,-0.9272,-0.154208,0.001952,-4.83,-2.4325,-20.0025,32.312,17.328001,32.384003,concentric,5,3.0,19600.0,295723.0,269123.0,320056.0,282999.0
2026-04-07 17:52:13.864447,258202,1404249350,1404250692,-0.9272,-0.160064,-0.001952,-6.76375,-4.2,-17.66625,32.32,17.216002,31.768002,concentric,5,3.0,19600.0,295723.0,269123.0,320056.0,282999.0
2026-04-07 17:52:13.893931,258203,1404263957,1404265696,-0.9272,-0.160064,-0.001952,-5.6175,-6.2475,-14.096251,32.32,17.216002,31.768002,concentric,5,3.0,19600.0,295723.0,269123.0,320056.0,282999.0
2026-04-07 17:52:13.896148,258204,1404272894,1404274408,-1.00528,-0.128832,0.037088,-1.81125,-7.49875,-10.15,32.56,17.08,31.144001,concentric,5,3.0,19600.0,295723.0,269123.0,320056.0,282999.0
2026-04-07 17:52:13.900757,258205,1404281814,1404283103,-1.00528,-0.128832,0.037088,0.18375,-10.43875,-5.67,32.56,17.08,31.144001,concentric,5,3.0,19600.0,295723.0,269123.0,320056.0,282999.0
2026-04-07 17:52:13.924948,258215,1404296507,1404298102,-1.003328,-0.091744,0.01952,-1.89875,-14.7,-2.975,32.432003,17.096,30.944002,concentric,5,3.0,19655.0,296544.0,269891.0,320850.0,283569.0
2026-04-07 17:52:13.926495,258216,1404305588,1404306831,-1.003328,-0.091744,0.01952,-5.36375,-18.2525,-1.04125,32.432003,17.096,30.944002,concentric,5,3.0,19655.0,296544.0,269891.0,320850.0,283569.0
2026-04-07 17:52:13.930723,258217,1404314492,1404315536,-0.935008,-0.122976,-0.091744,-7.5775,-19.6175,-1.5575,32.84,17.344002,32.416,concentric,5,3.0,19655.0,296544.0,269891.0,320850.0,283569.0
2026-04-07 17:52:13.933195,258218,1404323455,1404324186,-0.935008,-0.122976,-0.091744,-10.19375,-21.20125,-2.35375,32.84,17.344002,32.416,concentric,5,3.0,19655.0,296544.0,269891.0,320850.0,283569.0
2026-04-07 17:52:13.966392,258219,1404338339,1404339091,-0.895968,-0.150304,-0.037088,-11.585,-22.93375,-4.69,32.440002,17.592001,32.224003,concentric,5,3.0,19655.0,296544.0,269891.0,320850.0,283569.0
2026-04-07 17:52:13.968656,258220,1404347724,1404349858,-0.948672,-0.144448,0.027328,-10.96375,-24.33375,-6.7025,32.344,17.368,31.232002,concentric,5,3.0,19655.0,296544.0,269891.0,320850.0,283569.0
2026-04-07 17:52:13.973179,258221,1404356627,1404358550,-0.948672,-0.144448,0.027328,-6.895,-24.8675,-5.845,32.344,17.368,31.232002,concentric,5,3.0,19655.0,296544.0,269891.0,320850.0,283569.0
2026-04-07 17:52:14.006353,258222,1404371176,1404373497,-0.870592,-0.132736,0.050752,-2.77375,-23.93125,-4.8125,32.184002,17.104,32.296,concentric,5,3.0,19655.0,296544.0,269891.0,320850.0,283569.0
2026-04-07 17:52:14.008595,258223,1404380110,1404382193,-0.870592,-0.132736,0.050752,2.1175,-21.44625,-5.01375,32.184002,17.104,32.296,concentric,5,3.0,19655.0,296544.0,269891.0,320850.0,283569.0
2026-04-07 17:52:14.013319,258224,1404389015,1404390874,-0.851072,-0.197152,0.130784,3.01,-17.43875,-6.545,32.312,17.216002,30.128002,concentric,5,3.0,19655.0,296544.0,269891.0,320850.0,283569.0
2026-04-07 17:52:14.037456,258234,1404398079,1404399591,-0.851072,-0.197152,0.130784,0.14875,-12.99375,-4.7775,32.312,17.216002,30.128002,concentric,5,3.0,19770.0,297683.0,270790.0,321624.0,283927.0
2026-04-07 17:52:14.039077,258235,1404412578,1404414643,-0.89792,-0.181536,0.060512,-4.57625,-10.07125,-1.5925,32.296,16.752,32.16,concentric,5,3.0,19770.0,297683.0,270790.0,321624.0,283927.0
2026-04-07 17:52:14.076346,258236,1404421503,1404423336,-0.89792,-0.181536,0.060512,-6.8075,-7.9625,0.51625,32.296,16.752,32.16,concentric,5,3.0,19770.0,297683.0,270790.0,321624.0,283927.0
2026-04-07 17:52:14.081325,258237,1404430557,1404432108,-0.808128,-0.167872,0.056608,-2.86125,-4.025,1.89,32.504,16.992,33.344,concentric,5,3.0,19770.0,297683.0,270790.0,321624.0,283927.0
2026-04-07 17:52:14.086972,258238,1404445027,1404447062,-0.808128,-0.167872,0.056608,0.945,0.56875,3.5525,32.504,16.992,33.344,concentric,5,3.0,19770.0,297683.0,270790.0,321624.0,283927.0
2026-04-07 17:52:14.088670,258239,1404453936,1404455752,-0.862784,-0.17568,0.111264,-0.18375,4.795,3.745,32.792,17.256,31.344002,concentric,5,3.0,19770.0,297683.0,270790.0,321624.0,283927.0
2026-04-07 17:52:14.090249,258240,1404463035,1404464445,-0.862784,-0.17568,0.111264,-1.54,8.82875,4.54125,32.792,17.256,31.344002,concentric,5,3.0,19770.0,297683.0,270790.0,321624.0,283927.0
2026-04-07 17:52:14.093719,258241,1404477499,1404479354,-0.8784,-0.162016,0.08784,-1.53125,11.34,8.21625,32.704002,17.384,30.880001,concentric,5,3.0,19770.0,297683.0,270790.0,321624.0,283927.0
2026-04-07 17:52:14.095271,258242,1404486429,1404488175,-0.8784,-0.162016,0.08784,-2.89625,11.5325,11.97875,32.704002,17.384,30.880001,concentric,5,3.0,19770.0,297683.0,270790.0,321624.0,283927.0
2026-04-07 17:52:14.127077,258253,1404495708,1404496928,-0.903776,-0.183488,0.003904,-3.89375,10.6225,12.705,33.184002,17.176,30.960001,concentric,5,3.0,19741.0,297264.0,270435.0,321410.0,283913.0
2026-04-07 17:52:14.129410,258254,1404504623,1404505706,-0.903776,-0.183488,0.003904,-1.26875,10.63125,13.9125,33.184002,17.176,30.960001,concentric,5,3.0,19741.0,297264.0,270435.0,321410.0,283913.0
2026-04-07 17:52:14.133522,258255,1404519167,1404520690,-0.899872,-0.134688,0.003904,3.0975,10.17625,14.21,33.952003,16.688002,31.016,concentric,5,3.0,19741.0,297264.0,270435.0,321410.0,283913.0
2026-04-07 17:52:14.137240,258256,1404528140,1404529422,-0.903776,-0.11712,0.074176,6.08125,10.15875,13.7025,33.952003,16.544,29.000002,concentric,5,3.0,19741.0,297264.0,270435.0,321410.0,283913.0
2026-04-07 17:52:14.167512,258257,1404537071,1404538186,-0.903776,-0.11712,0.074176,5.55625,10.61375,13.27375,33.760002,16.544,29.000002,concentric,5,3.0,19741.0,297264.0,270435.0,321410.0,283913.0
2026-04-07 17:52:14.170089,258258,1404551621,1404553099,-0.935008,-0.128832,0.076128,2.21375,10.465,12.69625,33.848003,16.880001,30.888002,concentric,5,3.0,19741.0,297264.0,270435.0,321410.0,283913.0
2026-04-07 17:52:14.174438,258259,1404560614,1404561876,-0.935008,-0.128832,0.076128,-0.86625,10.92,14.14875,33.848003,16.880001,30.888002,concentric,5,3.0,19741.0,297264.0,270435.0,321410.0,283913.0
2026-04-07 17:52:14.178515,258260,1404569532,1404570669,-0.98576,-0.138592,0.017568,-1.5575,11.3225,15.9775,33.88,16.448,33.512,concentric,5,3.0,19741.0,297264.0,270435.0,321410.0,283913.0
2026-04-07 17:52:14.208857,258261,1404584054,1404585595,-0.98576,-0.138592,0.017568,-0.0875,10.31625,17.82375,33.88,16.448,33.512,concentric,5,3.0,19741.0,297264.0,270435.0,321410.0,283913.0
2026-04-07 17:52:14.237742,258271,1404592969,1404594383,-0.983808,-0.119072,0.035136,2.87875,8.89,19.17125,34.472,16.712,30.848001,concentric,5,3.0,19757.0,297339.0,270305.0,320875.0,283040.0
2026-04-07 17:52:14.240175,258272,1404601906,1404603116,-0.983808,-0.119072,0.035136,6.93875,7.90125,19.95875,34.472,16.712,30.848001,concentric,5,3.0,19757.0,297339.0,270305.0,320875.0,283040.0
2026-04-07 17:52:14.250174,258273,1404616384,1404618010,-0.974048,-0.08784,0.05856,11.48875,6.16,21.035,34.456,16.344,31.912,concentric,5,3.0,19757.0,297339.0,270305.0,320875.0,283040.0
2026-04-07 17:52:14.252667,258274,1404625279,1404626692,-0.974048,-0.08784,0.05856,14.2275,4.12125,21.8925,34.456,16.344,31.912,concentric,5,3.0,19757.0,297339.0,270305.0,320875.0,283040.0
2026-04-07 17:52:14.255147,258275,1404634304,1404635433,-0.962336,-0.091744,-0.005856,13.23875,2.51125,22.1025,34.736,15.872001,31.520002,concentric,5,3.0,19757.0,297339.0,270305.0,320875.0,283040.0
2026-04-07 17:52:14.257644,258276,1404643256,1404644085,-0.962336,-0.091744,-0.005856,9.86125,2.93125,21.525,34.736,15.872001,31.520002,concentric,5,3.0,19757.0,297339.0,270305.0,320875.0,283040.0
2026-04-07 17:52:14.289073,258277,1404657794,1404658990,-0.981856,-0.113216,0.011712,5.0575,4.08625,21.175,35.112003,15.760001,32.576,concentric,5,3.0,19757.0,297339.0,270305.0,320875.0,283040.0
2026-04-07 17:52:14.291504,258278,1404666702,1404667680,-0.981856,-0.113216,0.011712,6.3525,5.36375,20.44875,35.112003,15.760001,32.576,concentric,5,3.0,19757.0,297339.0,270305.0,320875.0,283040.0
2026-04-07 17:52:14.293974,258279,1404675741,1404676387,-1.050176,-0.08784,0.081984,12.6875,6.965,18.62,35.760002,15.672001,30.496002,concentric,5,3.0,19757.0,297339.0,270305.0,320875.0,283040.0
2026-04-07 17:52:14.297645,258280,1404690550,1404691332,-1.052128,-0.031232,0.0976,18.57625,7.39375,20.02,35.712,15.384001,31.208002,concentric,5,3.0,19757.0,297339.0,270305.0,320875.0,283040.0
