pc_time,serial_num,sensor_ts,host_ts,ax,ay,az,gx,gy,gz,mx,my,mz,phase,rpe,weight_kg,ppg_a,ppg_b,ppg_c,ppg_d,ppg_e
2026-04-07 17:52:26.676373,260586,1417037549,1417038808,-0.827648,-0.288896,-0.142496,-7.44625,2.03875,-14.105001,32.568,16.768002,30.784002,eccentric,5,3.0,20687.0,308474.0,280436.0,333242.0,294711.0
2026-04-07 17:52:26.678538,260587,1417046465,1417047537,-0.856928,-0.210816,-0.095648,-1.14625,4.41875,-15.198751,32.504,17.264,30.592001,eccentric,5,3.0,20687.0,308474.0,280436.0,333242.0,294711.0
2026-04-07 17:52:26.683199,260588,1417055369,1417056225,-0.856928,-0.210816,-0.095648,6.53625,5.6525,-15.09375,32.504,17.264,30.592001,eccentric,5,3.0,20687.0,308474.0,280436.0,333242.0,294711.0
2026-04-07 17:52:26.711131,260598,1417069915,1417071206,-0.831552,-0.163968,-0.027328,10.35125,6.22125,-14.49875,32.784,17.312,30.296001,eccentric,5,3.0,20753.0,308905.0,280732.0,333331.0,294645.0
2026-04-07 17:52:26.712713,260599,1417078860,1417079970,-0.831552,-0.163968,-0.027328,8.46125,7.3325,-14.4025,32.784,17.312,30.296001,eccentric,5,3.0,20753.0,308905.0,280732.0,333331.0,294645.0
2026-04-07 17:52:26.716902,260600,1417087896,1417088776,-0.84912,-0.210816,-0.017568,4.83,8.67125,-13.3175,32.208,17.168001,30.272001,eccentric,5,3.0,20753.0,308905.0,280732.0,333331.0,294645.0
2026-04-07 17:52:26.718694,260601,1417102405,1417103681,-0.84912,-0.210816,-0.017568,0.1225,8.7675,-11.235,32.208,17.168001,30.272001,eccentric,5,3.0,20753.0,308905.0,280732.0,333331.0,294645.0
2026-04-07 17:52:26.720192,260602,1417111383,1417112412,-0.833504,-0.218624,-0.103456,-2.89625,8.54,-11.61125,31.744001,17.232,34.016003,eccentric,5,3.0,20753.0,308905.0,280732.0,333331.0,294645.0
2026-04-07 17:52:26.751682,260603,1417120317,1417121166,-0.833504,-0.218624,-0.103456,-1.295,8.8025,-13.18625,31.744001,17.232,34.016003,eccentric,5,3.0,20753.0,308905.0,280732.0,333331.0,294645.0
2026-04-07 17:52:26.753521,260604,1417129252,1417129869,-0.767136,-0.22448,-0.099552,0.20125,10.03625,-14.27125,32.304,17.144001,31.664001,eccentric,5,3.0,20753.0,308905.0,280732.0,333331.0,294645.0
2026-04-07 17:52:26.758160,260605,1417144178,1417144821,-0.835456,-0.152256,-0.06832,3.4475,11.94375,-15.2075,32.288002,17.496,32.232002,eccentric,5,3.0,20753.0,308905.0,280732.0,333331.0,294645.0
2026-04-07 17:52:26.808769,260606,1417153453,1417155627,-0.835456,-0.152256,-0.06832,5.71375,13.8425,-13.39625,32.288002,17.496,32.232002,eccentric,5,3.0,20753.0,308905.0,280732.0,333331.0,294645.0
2026-04-07 17:52:26.841214,260617,1417162387,1417164400,-0.835456,-0.152256,-0.06832,5.285,14.945,-10.6925,32.288002,17.496,32.232002,eccentric,5,3.0,20720.0,308814.0,280742.0,333596.0,295074.0
2026-04-07 17:52:26.843688,260618,1417176979,1417177325,-0.903776,-0.140544,-0.046848,2.82625,15.4,-9.79125,32.104,17.464,31.376001,eccentric,5,3.0,20720.0,308814.0,280742.0,333596.0,295074.0
2026-04-07 17:52:26.845255,260619,1417186302,1417188104,-0.882304,-0.177632,-0.042944,-1.505,15.46125,-9.12625,31.728,17.512001,30.312002,eccentric,5,3.0,20720.0,308814.0,280742.0,333596.0,295074.0
2026-04-07 17:52:26.849378,260620,1417195257,1417196805,-0.882304,-0.177632,-0.042944,-4.75125,16.2575,-8.05,31.728,17.512001,30.312002,eccentric,5,3.0,20720.0,308814.0,280742.0,333596.0,295074.0
2026-04-07 17:52:26.851102,260621,1417204220,1417205496,-0.89792,-0.17568,-0.083936,-4.9,18.76875,-8.54875,32.288002,17.592001,29.776001,eccentric,5,3.0,20720.0,308814.0,280742.0,333596.0,295074.0
2026-04-07 17:52:26.852640,260622,1417218778,1417220460,-0.89792,-0.17568,-0.083936,-3.7275,21.0175,-9.765,32.288002,17.592001,29.776001,eccentric,5,3.0,20720.0,308814.0,280742.0,333596.0,295074.0
2026-04-07 17:52:26.856940,260623,1417227779,1417229119,-0.901824,-0.13664,-0.11712,-1.49625,22.0675,-8.61,32.296,17.328001,30.088001,eccentric,5,3.0,20720.0,308814.0,280742.0,333596.0,295074.0
2026-04-07 17:52:26.858643,260624,1417236771,1417237850,-0.901824,-0.13664,-0.11712,-0.1925,22.925,-7.60375,32.296,17.328001,30.088001,eccentric,5,3.0,20720.0,308814.0,280742.0,333596.0,295074.0
2026-04-07 17:52:26.860209,260625,1417251363,1417252772,-0.940864,-0.148352,-0.101504,-0.86625,23.70375,-6.2475,31.744001,17.064001,31.128002,eccentric,5,3.0,20720.0,308814.0,280742.0,333596.0,295074.0
2026-04-07 17:52:26.891192,260626,1417260312,1417261504,-0.940864,-0.148352,-0.101504,-2.73875,24.1675,-3.85,31.744001,17.064001,31.128002,eccentric,5,3.0,20720.0,308814.0,280742.0,333596.0,295074.0
2026-04-07 17:52:26.918176,260636,1417269399,1417270300,-1.003328,-0.173728,-0.132736,-4.76875,24.2025,-2.275,32.272003,17.496,31.136002,eccentric,5,3.0,20720.0,308943.0,280887.0,333913.0,295416.0
2026-04-07 17:52:26.919901,260637,1417278335,1417279134,-1.003328,-0.173728,-0.132736,-3.45625,23.66,-0.9275,32.272003,17.496,31.136002,eccentric,5,3.0,20720.0,308943.0,280887.0,333913.0,295416.0
2026-04-07 17:52:26.921449,260638,1417292843,1417294057,-1.026752,-0.124928,-0.15616,3.1675,24.0975,0.385,32.504,17.248001,29.872002,eccentric,5,3.0,20720.0,308943.0,280887.0,333913.0,295416.0
2026-04-07 17:52:26.925662,260639,1417301807,1417302840,-1.026752,-0.124928,-0.15616,12.04875,26.69625,1.8025,32.504,17.248001,29.872002,eccentric,5,3.0,20720.0,308943.0,280887.0,333913.0,295416.0
2026-04-07 17:52:26.928175,260640,1417310821,1417311546,-1.0248,-0.169824,-0.124928,17.675,28.56875,3.43,32.736,17.408,29.672,eccentric,5,3.0,20720.0,308943.0,280887.0,333913.0,295416.0
2026-04-07 17:52:26.973786,260641,1417325839,1417326572,-1.038464,-0.199104,-0.089792,18.06875,29.5925,5.94125,32.608,16.992,30.632002,eccentric,5,3.0,20720.0,308943.0,280887.0,333913.0,295416.0
2026-04-07 17:52:26.976034,260642,1417335262,1417337350,-1.038464,-0.199104,-0.089792,18.26125,31.036251,9.292501,32.608,16.992,30.632002,eccentric,5,3.0,20720.0,308943.0,280887.0,333913.0,295416.0
2026-04-07 17:52:26.980811,260643,1417344269,1417346034,-1.116544,-0.10736,-0.1952,20.48375,31.272501,10.99,32.608,16.992,28.584002,eccentric,5,3.0,20720.0,308943.0,280887.0,333913.0,295416.0
2026-04-07 17:52:26.982428,260644,1417353199,1417354740,-1.124352,-0.10736,-0.1952,23.73,30.28375,11.445,33.36,17.08,27.656002,eccentric,5,3.0,20720.0,308943.0,280887.0,333913.0,295416.0
2026-04-07 17:52:27.009803,260654,1417368319,1417369740,-1.001376,-0.083936,-0.199104,23.1875,28.848751,12.2675,34.136,17.592001,29.560001,eccentric,5,3.0,20856.0,309915.0,281440.0,333766.0,294768.0
2026-04-07 17:52:27.012302,260655,1417377402,1417378524,-1.001376,-0.083936,-0.199104,15.9425,26.635,12.0225,34.136,17.592001,29.560001,eccentric,5,3.0,20856.0,309915.0,281440.0,333766.0,294768.0
2026-04-07 17:52:27.013845,260656,1417386334,1417387279,-1.075552,-0.144448,-0.169824,4.83,24.71875,10.91125,33.128002,16.776001,31.584002,eccentric,5,3.0,20856.0,309915.0,281440.0,333766.0,294768.0
2026-04-07 17:52:27.018203,260657,1417395388,1417396040,-1.075552,-0.144448,-0.169824,-3.5875,24.08875,11.1475,33.128002,16.776001,31.584002,eccentric,5,3.0,20856.0,309915.0,281440.0,333766.0,294768.0
2026-04-07 17:52:27.020625,260658,1417410249,1417411018,-1.016992,-0.181536,-0.144448,-10.24625,21.385,12.2325,32.920002,17.024,31.864002,eccentric,5,3.0,20856.0,309915.0,281440.0,333766.0,294768.0
2026-04-07 17:52:27.049068,260659,1417419771,1417421860,-1.016992,-0.181536,-0.144448,-13.36125,17.26375,14.06125,32.920002,17.024,31.864002,eccentric,5,3.0,20856.0,309915.0,281440.0,333766.0,294768.0
2026-04-07 17:52:27.052735,260660,1417428705,1417430557,-0.999424,-0.119072,-0.154208,-10.43,15.4875,15.0325,34.168003,17.464,29.384,eccentric,5,3.0,20856.0,309915.0,281440.0,333766.0,294768.0
2026-04-07 17:52:27.056783,260661,1417443144,1417445433,-0.999424,-0.119072,-0.154208,-7.28,14.0525,16.6075,34.168003,17.464,29.384,eccentric,5,3.0,20856.0,309915.0,281440.0,333766.0,294768.0
2026-04-07 17:52:27.085359,260662,1417452108,1417454137,-1.001376,-0.091744,-0.212768,-8.37375,12.39875,17.03625,34.536003,16.944,27.592001,eccentric,5,3.0,20856.0,309915.0,281440.0,333766.0,294768.0
2026-04-07 17:52:27.089921,260663,1417461054,1417462893,-1.001376,-0.091744,-0.212768,-9.2225,10.4125,16.23125,34.536003,16.944,27.592001,eccentric,5,3.0,20856.0,309915.0,281440.0,333766.0,294768.0
2026-04-07 17:52:27.121913,260674,1417470105,1417471614,-0.964288,-0.07808,-0.22448,-8.3825,9.33625,16.0475,34.296,16.784,28.928001,eccentric,5,3.0,21082.0,312046.0,283207.0,335580.0,296123.0
2026-04-07 17:52:27.123634,260675,1417484627,1417486608,-0.964288,-0.07808,-0.105408,-5.76625,8.365,15.44375,34.296,16.784,28.928001,eccentric,5,3.0,21082.0,312046.0,283207.0,335580.0,296123.0
2026-04-07 17:52:27.125204,260676,1417493577,1417495330,-0.948672,-0.115168,-0.105408,-2.205,8.89,15.5225,34.712,16.320002,28.736002,eccentric,5,3.0,21082.0,312046.0,283207.0,335580.0,296123.0
2026-04-07 17:52:27.129413,260677,1417502667,1417504054,-0.948672,-0.115168,-0.105408,-5.62625,7.9275,15.89875,34.712,16.320002,28.736002,eccentric,5,3.0,21082.0,312046.0,283207.0,335580.0,296123.0
2026-04-07 17:52:27.131808,260678,1417517149,1417519000,-0.981856,-0.158112,-0.11712,-14.6125,6.1075,14.6825,35.616,16.616001,29.576002,eccentric,5,3.0,21082.0,312046.0,283207.0,335580.0,296123.0
2026-04-07 17:52:27.138088,260679,1417526118,1417527711,-0.96624,-0.074176,-0.199104,-15.79375,4.3925,14.5775,35.808002,16.432001,29.984001,eccentric,5,3.0,21082.0,312046.0,283207.0,335580.0,296123.0
2026-04-07 17:52:27.166658,260680,1417535027,1417536503,-0.96624,-0.074176,-0.199104,-9.38,4.08625,16.415,35.808002,16.432001,29.984001,eccentric,5,3.0,21082.0,312046.0,283207.0,335580.0,296123.0
2026-04-07 17:52:27.180830,260681,1417549512,1417551403,-0.997472,-0.037088,-0.16592,-4.33125,5.66125,15.74125,35.336002,16.632,28.960001,eccentric,5,3.0,21082.0,312046.0,283207.0,335580.0,296123.0
2026-04-07 17:52:27.182436,260682,1417558434,1417560131,-0.997472,-0.037088,-0.16592,-3.4825,6.125,14.245,35.336002,16.632,28.960001,eccentric,5,3.0,21082.0,312046.0,283207.0,335580.0,296123.0
2026-04-07 17:52:27.210662,260692,1417567913,1417568864,-1.013088,-0.07808,-0.138592,-4.33125,4.97875,15.47875,36.024002,15.656001,29.872002,eccentric,5,3.0,21122.0,312486.0,283644.0,336186.0,296581.0
2026-04-07 17:52:27.212409,260693,1417576867,1417577578,-1.013088,-0.07808,-0.138592,-8.09375,3.71,17.465,36.024002,15.656001,29.872002,eccentric,5,3.0,21122.0,312486.0,283644.0,336186.0,296581.0
2026-04-07 17:52:27.214075,260694,1417591748,1417592516,-1.022848,-0.091744,-0.154208,-12.4075,1.855,16.8175,35.84,16.328001,28.472002,eccentric,5,3.0,21122.0,312486.0,283644.0,336186.0,296581.0
2026-04-07 17:52:27.217957,260695,1417601135,1417603280,-1.022848,-0.091744,-0.154208,-13.02875,-0.20125,13.877501,35.84,16.328001,28.472002,eccentric,5,3.0,21122.0,312486.0,283644.0,336186.0,296581.0
2026-04-07 17:52:27.224458,260696,1417610097,1417612001,-0.962336,-0.040992,-0.240096,-9.292501,-0.49,13.30875,36.576,15.624001,28.480001,eccentric,5,3.0,21122.0,312486.0,283644.0,336186.0,296581.0
2026-04-07 17:52:27.229580,260697,1417619094,1417620745,-0.962336,-0.040992,-0.240096,-7.65625,-0.56875,13.0725,36.576,15.624001,28.480001,eccentric,5,3.0,21122.0,312486.0,283644.0,336186.0,296581.0
2026-04-07 17:52:27.271402,260698,1417633576,1417635654,-0.997472,-0.040992,-0.201056,-5.90625,0.21875,10.75375,36.68,15.512001,29.472002,eccentric,5,3.0,21122.0,312486.0,283644.0,336186.0,296581.0
2026-04-07 17:52:27.273563,260699,1417642472,1417644342,-0.997472,-0.040992,-0.201056,-3.12375,1.14625,11.3925,36.68,15.512001,29.472002,eccentric,5,3.0,21122.0,312486.0,283644.0,336186.0,296581.0
2026-04-07 17:52:27.278294,260700,1417651466,1417653055,-1.1224,-0.0488,-0.111264,-2.52,1.16375,13.55375,37.52,16.112001,28.240002,eccentric,5,3.0,21122.0,312486.0,283644.0,336186.0,296581.0
2026-04-07 17:52:27.302658,260710,1417665931,1417667951,-1.069696,-0.035136,-0.15616,-3.22,-0.60375,15.39125,37.52,15.400001,27.6,eccentric,5,3.0,21145.0,312767.0,283985.0,336629.0,297011.0
2026-04-07 17:52:27.304251,260711,1417675323,1417676711,-1.069696,-0.035136,-0.15616,-2.7475,-2.75625,16.94,37.320004,15.400001,27.6,eccentric,5,3.0,21145.0,312767.0,283985.0,336629.0,297011.0
2026-04-07 17:52:27.307826,260712,1417684291,1417685449,-1.069696,-0.035136,-0.15616,-3.85875,-2.765,17.08,37.320004,15.400001,27.6,eccentric,5,3.0,21145.0,312767.0,283985.0,336629.0,297011.0
2026-04-07 17:52:27.308915,260713,1417698816,1417700356,-0.952576,-0.072224,-0.245952,-4.36625,-0.69125,13.72875,38.008003,15.240001,28.592001,eccentric,5,3.0,21145.0,312767.0,283985.0,336629.0,297011.0
2026-04-07 17:52:27.340057,260714,1417707796,1417709078,-1.026752,-0.042944,-0.13664,-2.45875,4.0075,9.292501,37.664,15.824,27.544,eccentric,5,3.0,21145.0,312767.0,283985.0,336629.0,297011.0
2026-04-07 17:52:27.342319,260715,1417716717,1417717793,-1.026752,-0.042944,-0.13664,1.5925,7.88375,7.69125,37.664,15.824,27.544,eccentric,5,3.0,21145.0,312767.0,283985.0,336629.0,297011.0
2026-04-07 17:52:27.347647,260716,1417725699,1417726493,-1.026752,-0.042944,-0.15616,2.8175,10.1325,6.81625,37.664,15.824,27.544,eccentric,5,3.0,21145.0,312767.0,283985.0,336629.0,297011.0
2026-04-07 17:52:27.350918,260717,1417740154,1417741366,-1.143872,-0.042944,-0.15616,0.245,10.08875,5.97625,38.688004,15.360001,28.44,eccentric,5,3.0,21145.0,312767.0,283985.0,336629.0,297011.0
2026-04-07 17:52:27.381434,260718,1417749066,1417750132,-1.06384,-0.025376,-0.1952,-4.92625,8.636251,8.7325,38.808002,15.304001,28.160002,eccentric,5,3.0,21145.0,312767.0,283985.0,336629.0,297011.0
2026-04-07 17:52:27.385870,260719,1417758048,1417758839,-1.06384,-0.025376,-0.1952,-7.77875,7.72625,8.70625,38.808002,15.304001,28.160002,eccentric,5,3.0,21145.0,312767.0,283985.0,336629.0,297011.0
2026-04-07 17:52:27.415544,260730,1417772680,1417773990,-0.987712,-0.035136,-0.206912,-7.48125,7.76125,6.01125,38.592003,15.112,27.960001,eccentric,5,3.0,21403.0,315466.0,286312.0,339351.0,299193.0
2026-04-07 17:52:27.423222,260731,1417781716,1417782721,-0.987712,-0.035136,-0.206912,-9.625,8.02375,3.94625,38.592003,15.112,27.960001,eccentric,5,3.0,21403.0,315466.0,286312.0,339351.0,299193.0
2026-04-07 17:52:27.424909,260732,1417790645,1417791460,-1.057984,-0.025376,-0.208864,-13.667501,7.46375,0.58625,39.24,15.112,27.936,eccentric,5,3.0,21403.0,315466.0,286312.0,339351.0,299193.0
2026-04-07 17:52:27.426513,260733,1417805143,1417806502,-1.057984,-0.025376,-0.208864,-13.886251,6.7025,-0.74375,39.24,15.112,27.936,eccentric,5,3.0,21403.0,315466.0,286312.0,339351.0,299193.0
2026-04-07 17:52:27.430720,260734,1417814069,1417815243,-1.077504,-0.025376,-0.230336,-13.46625,4.57625,0.1925,38.88,14.592001,28.072,eccentric,5,3.0,21403.0,315466.0,286312.0,339351.0,299193.0
2026-04-07 17:52:27.432229,260735,1417823008,1417823958,-1.077504,-0.025376,-0.230336,-11.1125,1.79375,-1.0325,38.88,14.592001,28.072,eccentric,5,3.0,21403.0,315466.0,286312.0,339351.0,299193.0
2026-04-07 17:52:27.462608,260736,1417837524,1417838905,-1.106784,0.007808,-0.267424,-4.89125,-1.09375,-2.3275,39.152,14.816001,28.824001,eccentric,5,3.0,21403.0,315466.0,286312.0,339351.0,299193.0
2026-04-07 17:52:27.466919,260737,1417846436,1417847622,-1.106784,-0.02928,-0.21472,-0.49875,-3.22875,-3.395,39.152,14.816001,28.824001,eccentric,5,3.0,21403.0,315466.0,286312.0,339351.0,299193.0
2026-04-07 17:52:27.468434,260738,1417855354,1417856309,-0.970144,-0.02928,-0.21472,-2.1525,-3.9025,-6.23875,38.632,15.008,28.152,eccentric,5,3.0,21403.0,315466.0,286312.0,339351.0,299193.0
2026-04-07 17:52:27.474264,260739,1417864276,1417865016,-0.970144,-0.02928,-0.21472,-8.4525,-4.12125,-11.68125,38.632,15.008,28.152,eccentric,5,3.0,21403.0,315466.0,286312.0,339351.0,299193.0
2026-04-07 17:52:27.501556,260749,1417879254,1417880026,-1.0736,-0.044896,-0.158112,-13.06375,-4.445,-14.761251,38.696003,14.800001,27.624,eccentric,5,3.0,21676.0,318207.0,288686.0,342184.0,301545.0
2026-04-07 17:52:27.505677,260750,1417888656,1417890836,-1.255136,0.011712,-0.245952,-14.11375,-6.65875,-15.7325,38.944,14.832001,27.464,eccentric,5,3.0,21676.0,318207.0,288686.0,342184.0,301545.0
2026-04-07 17:52:27.507301,260751,1417897619,1417899558,-1.255136,0.011712,-0.245952,-8.18125,-10.70125,-14.60375,38.944,14.832001,27.464,eccentric,5,3.0,21676.0,318207.0,288686.0,342184.0,301545.0
2026-04-07 17:52:27.537849,260752,1417912105,1417912423,-1.116544,0.0,-0.316224,-2.16125,-14.42,-11.64625,39.504,14.896001,27.680002,eccentric,5,3.0,21676.0,318207.0,288686.0,342184.0,301545.0
2026-04-07 17:52:27.575173,260753,1417921260,1417923172,-1.116544,0.0,-0.316224,-1.085,-16.44125,-10.386251,39.504,14.896001,27.680002,eccentric,5,3.0,21676.0,318207.0,288686.0,342184.0,301545.0
2026-04-07 17:52:27.577383,260754,1417930199,1417931860,-1.018944,-0.093696,-0.203008,0.665,-15.61,-11.585,39.752003,15.200001,27.848001,eccentric,5,3.0,21676.0,318207.0,288686.0,342184.0,301545.0
2026-04-07 17:52:27.581936,260755,1417939154,1417940552,-1.018944,-0.093696,-0.203008,-0.525,-13.86,-12.565,39.752003,15.200001,27.848001,eccentric,5,3.0,21676.0,318207.0,288686.0,342184.0,301545.0
2026-04-07 17:52:27.583695,260756,1417953707,1417955467,-1.214144,-0.083936,-0.148352,-3.5525,-13.18625,-12.99375,40.120003,14.976001,27.840002,eccentric,5,3.0,21676.0,318207.0,288686.0,342184.0,301545.0
2026-04-07 17:52:27.585175,260757,1417962690,1417964162,-1.214144,-0.083936,-0.148352,-3.42125,-13.5625,-12.74,40.120003,14.976001,27.840002,eccentric,5,3.0,21676.0,318207.0,288686.0,342184.0,301545.0
2026-04-07 17:52:27.611113,260767,1417971903,1417973021,-1.227808,-0.005856,-0.212768,0.9275,-14.1575,-9.49375,39.776,14.280001,28.304,eccentric,5,3.0,21873.0,320042.0,290195.0,343990.0,303011.0
2026-04-07 17:52:27.612723,260768,1417986492,1417987993,-1.227808,-0.005856,-0.212768,3.745,-16.3275,-4.55875,39.776,14.280001,28.304,eccentric,5,3.0,21873.0,320042.0,290195.0,343990.0,303011.0
2026-04-07 17:52:27.616899,260769,1417995476,1417996734,-1.16144,0.0,-0.218624,4.69,-17.0275,-2.7475,39.656002,14.624001,28.008001,eccentric,5,3.0,21873.0,320042.0,290195.0,343990.0,303011.0
2026-04-07 17:52:27.619576,260770,1418004384,1418005498,-1.16144,0.0,-0.218624,3.4475,-15.44375,-1.89875,39.656002,14.624001,28.008001,eccentric,5,3.0,21873.0,320042.0,290195.0,343990.0,303011.0
2026-04-07 17:52:27.623548,260771,1418013401,1418014192,-1.0736,-0.052704,-0.206912,-1.88125,-13.72,0.58625,39.600002,14.176001,28.36,eccentric,5,3.0,21873.0,320042.0,290195.0,343990.0,303011.0
2026-04-07 17:52:27.653813,260772,1418027930,1418029160,-1.114592,-0.103456,-0.179584,-8.715,-13.2125,0.1925,40.440002,14.464001,28.160002,eccentric,5,3.0,21873.0,320042.0,290195.0,343990.0,303011.0
2026-04-07 17:52:27.656097,260773,1418036823,1418037896,-1.114592,-0.103456,-0.179584,-10.6575,-14.0,-0.53375,40.440002,14.464001,28.160002,eccentric,5,3.0,21873.0,320042.0,290195.0,343990.0,303011.0
2026-04-07 17:52:27.659896,260774,1418045757,1418046583,-1.114592,-0.103456,-0.179584,-7.16625,-15.47875,0.4375,40.440002,14.464001,28.160002,eccentric,5,3.0,21873.0,320042.0,290195.0,343990.0,303011.0
2026-04-07 17:52:27.693751,260775,1418060286,1418061498,-1.21024,-0.044896,-0.21472,0.28,-16.91375,3.78875,40.440002,14.456,28.112001,eccentric,5,3.0,21873.0,320042.0,290195.0,343990.0,303011.0
2026-04-07 17:52:27.718919,260785,1418069186,1418070348,-1.118496,0.00976,-0.197152,7.5775,-18.165,7.2275,40.296,14.736001,28.856,eccentric,5,3.0,22040.0,321355.0,291130.0,344752.0,303443.0
2026-04-07 17:52:27.723209,260786,1418078174,1418079172,-1.118496,0.00976,-0.197152,10.885,-19.80125,10.885,40.296,14.736001,28.856,eccentric,5,3.0,22040.0,321355.0,291130.0,344752.0,303443.0
2026-04-07 17:52:27.724977,260787,1418092673,1418094140,-1.08336,-0.060512,-0.142496,8.58375,-20.16,12.87125,41.232002,14.032001,28.560001,eccentric,5,3.0,22040.0,321355.0,291130.0,344752.0,303443.0
2026-04-07 17:52:27.726485,260788,1418101700,1418102861,-1.08336,-0.060512,-0.142496,5.2675,-20.15125,13.9125,41.232002,14.032001,28.560001,eccentric,5,3.0,22040.0,321355.0,291130.0,344752.0,303443.0
2026-04-07 17:52:27.730519,260789,1418110671,1418111593,-1.108736,-0.03904,-0.15616,5.85375,-20.2475,15.3475,40.928,13.592001,30.288002,eccentric,5,3.0,22040.0,321355.0,291130.0,344752.0,303443.0
2026-04-07 17:52:27.759153,260790,1418125236,1418126570,-1.108736,-0.03904,-0.15616,7.5775,-19.29375,15.365,40.928,13.592001,30.288002,eccentric,5,3.0,22040.0,321355.0,291130.0,344752.0,303443.0
2026-04-07 17:52:27.763620,260791,1418134142,1418135279,-1.143872,-0.005856,-0.130784,9.65125,-17.955,14.58625,40.768,13.040001,29.712002,eccentric,5,3.0,22040.0,321355.0,291130.0,344752.0,303443.0
2026-04-07 17:52:27.765199,260792,1418143096,1418143972,-1.143872,-0.005856,-0.130784,10.26375,-16.975,14.945,40.768,13.040001,29.712002,eccentric,5,3.0,22040.0,321355.0,291130.0,344752.0,303443.0
2026-04-07 17:52:27.769262,260793,1418152033,1418152662,-1.1712,-0.035136,-0.113216,8.417501,-16.28375,15.25125,41.816,12.896001,29.568,eccentric,5,3.0,22040.0,321355.0,291130.0,344752.0,303443.0
2026-04-07 17:52:27.778197,260794,1418166844,1418167555,-1.1712,-0.035136,-0.113216,6.58875,-15.9775,14.7875,41.816,12.896001,29.568,eccentric,5,3.0,22040.0,321355.0,291130.0,344752.0,303443.0
2026-04-07 17:52:27.808641,260805,1418176221,1418178408,-1.147776,-0.027328,-0.121024,5.3725,-16.21375,15.015,41.328003,13.032001,29.048002,eccentric,5,3.0,22218.0,322934.0,292406.0,346192.0,304736.0
2026-04-07 17:52:27.810210,260806,1418185259,1418187139,-1.147776,-0.027328,-0.121024,7.3325,-16.09125,13.3875,41.328003,13.032001,29.048002,eccentric,5,3.0,22218.0,322934.0,292406.0,346192.0,304736.0
2026-04-07 17:52:27.814336,260807,1418199780,1418202052,-1.118496,0.01952,-0.140544,9.42375,-16.00375,12.67,41.944,12.824,29.560001,eccentric,5,3.0,22218.0,322934.0,292406.0,346192.0,304736.0
2026-04-07 17:52:27.818994,260808,1418208773,1418210764,-1.138016,0.02928,-0.15616,9.16125,-15.190001,11.34,42.032,12.56,31.704002,eccentric,5,3.0,22218.0,322934.0,292406.0,346192.0,304736.0
2026-04-07 17:52:27.871340,260809,1418217724,1418219457,-1.138016,0.02928,-0.15616,6.78125,-14.39375,9.98375,42.032,12.56,31.704002,eccentric,5,3.0,22218.0,322934.0,292406.0,346192.0,304736.0
2026-04-07 17:52:27.873523,260810,1418226670,1418228173,-1.138016,0.02928,-0.15616,2.17875,-13.58875,7.35,42.032,12.56,31.704002,eccentric,5,3.0,22218.0,322934.0,292406.0,346192.0,304736.0
2026-04-07 17:52:27.878134,260811,1418241132,1418243045,-1.194624,0.025376,-0.11712,-0.23625,-13.7375,4.17375,42.440002,12.528001,29.376001,eccentric,5,3.0,22218.0,322934.0,292406.0,346192.0,304736.0
2026-04-07 17:52:27.879862,260812,1418250062,1418251752,-1.214144,-0.021472,-0.122976,1.49625,-14.23625,2.91375,42.592003,12.456,30.032001,eccentric,5,3.0,22218.0,322934.0,292406.0,346192.0,304736.0
2026-04-07 17:52:27.881451,260813,1418258980,1418260434,-1.214144,-0.021472,-0.122976,6.0375,-15.0675,4.03375,42.592003,12.456,30.032001,eccentric,5,3.0,22218.0,322934.0,292406.0,346192.0,304736.0
2026-04-07 17:52:27.907715,260823,1418273656,1418275384,-1.16144,-0.021472,-0.074176,9.52875,-15.26,6.3525,42.472,11.704,30.256,eccentric,5,3.0,22423.0,324885.0,293981.0,347909.0,306091.0
2026-04-07 17:52:27.912298,260824,1418282728,1418284176,-1.16144,-0.021472,-0.074176,12.355001,-14.63875,8.75875,42.472,11.704,30.256,eccentric,5,3.0,22423.0,324885.0,293981.0,347909.0,306091.0
2026-04-07 17:52:27.913980,260825,1418291727,1418292905,-1.182912,-0.054656,-0.089792,12.32875,-13.50125,11.2875,42.4,11.424001,30.176,eccentric,5,3.0,22423.0,324885.0,293981.0,347909.0,306091.0
2026-04-07 17:52:27.917199,260826,1418306218,1418307804,-1.182912,-0.054656,-0.089792,7.39375,-11.515,10.0975,42.4,11.424001,30.176,eccentric,5,3.0,22423.0,324885.0,293981.0,347909.0,306091.0
2026-04-07 17:52:27.947527,260827,1418315189,1418316510,-1.212192,-0.02928,-0.074176,3.4125,-9.03875,8.2075,43.136,11.048,30.648,eccentric,5,3.0,22423.0,324885.0,293981.0,347909.0,306091.0
2026-04-07 17:52:27.951928,260828,1418324213,1418325258,-1.212192,-0.02928,-0.074176,3.6575,-7.41125,8.636251,43.136,11.048,30.648,eccentric,5,3.0,22423.0,324885.0,293981.0,347909.0,306091.0
2026-04-07 17:52:27.953491,260829,1418333148,1418333951,-1.212192,-0.035136,-0.093696,5.0575,-5.94125,12.53875,43.24,11.632001,30.792002,eccentric,5,3.0,22423.0,324885.0,293981.0,347909.0,306091.0
2026-04-07 17:52:27.958007,260830,1418347650,1418348836,-1.212192,-0.035136,-0.093696,5.635,-5.46,17.395,43.24,11.632001,30.792002,eccentric,5,3.0,22423.0,324885.0,293981.0,347909.0,306091.0
2026-04-07 17:52:27.986595,260831,1418356592,1418357525,-1.179008,-0.040992,-0.064416,8.1375,-4.34875,23.0125,42.912003,10.424001,31.488,eccentric,5,3.0,22423.0,324885.0,293981.0,347909.0,306091.0
2026-04-07 17:52:27.991151,260832,1418365499,1418366256,-1.179008,-0.040992,-0.064416,8.925,-2.1875,27.195,42.912003,10.424001,31.488,eccentric,5,3.0,22423.0,324885.0,293981.0,347909.0,306091.0
2026-04-07 17:52:28.015359,260842,1418380115,1418381334,-1.196576,-0.025376,-0.064416,8.6275,-0.07,30.397501,43.584003,10.856001,30.944002,eccentric,5,3.0,22709.0,327238.0,295858.0,349835.0,307617.0
2026-04-07 17:52:28.019973,260843,1418389031,1418390133,-1.196576,-0.027328,-0.083936,7.70875,0.6125,32.61125,43.584003,10.856001,31.04,eccentric,5,3.0,22709.0,327238.0,295858.0,349835.0,307617.0
2026-04-07 17:52:28.021421,260844,1418397999,1418398857,-1.202432,-0.027328,-0.083936,5.43375,0.63,34.6325,44.224003,9.92,31.04,eccentric,5,3.0,22709.0,327238.0,295858.0,349835.0,307617.0
2026-04-07 17:52:28.023566,260845,1418412496,1418413789,-1.18096,-0.00976,-0.085888,2.31,0.6825,34.685,43.52,9.392,31.680002,eccentric,5,3.0,22709.0,327238.0,295858.0,349835.0,307617.0
2026-04-07 17:52:28.030695,260846,1418421444,1418422546,-1.18096,-0.00976,-0.085888,0.34125,0.8575,34.27375,43.52,9.392,31.680002,eccentric,5,3.0,22709.0,327238.0,295858.0,349835.0,307617.0
2026-04-07 17:52:28.059146,260847,1418430446,1418431248,-1.147776,0.001952,-0.103456,0.28875,0.81375,35.27125,44.152,9.04,30.504002,eccentric,5,3.0,22709.0,327238.0,295858.0,349835.0,307617.0
2026-04-07 17:52:28.063605,260848,1418439361,1418439962,-1.147776,0.001952,-0.103456,1.89,-0.105,35.5775,44.152,9.04,30.504002,eccentric,5,3.0,22709.0,327238.0,295858.0,349835.0,307617.0
2026-04-07 17:52:28.065123,260849,1418454137,1418454918,-1.126304,0.060512,-0.064416,3.9375,-0.455,36.63625,44.848003,8.736,30.832,eccentric,5,3.0,22709.0,327238.0,295858.0,349835.0,307617.0
2026-04-07 17:52:28.101408,260850,1418463085,1418463674,-1.126304,0.060512,-0.064416,6.0725,-0.3675,36.60125,44.848003,8.736,30.832,eccentric,5,3.0,22709.0,327238.0,295858.0,349835.0,307617.0
2026-04-07 17:52:28.132351,260861,1418472359,1418474465,-1.116544,0.083936,-0.040992,6.58,0.18375,36.47875,45.368004,8.120001,31.024002,eccentric,5,3.0,22804.0,327647.0,296034.0,349886.0,307580.0
2026-04-07 17:52:28.134568,260862,1418486953,1418487340,-1.116544,0.083936,-0.040992,5.06625,0.28875,36.0325,45.368004,8.120001,31.024002,eccentric,5,3.0,22804.0,327647.0,296034.0,349886.0,307580.0
2026-04-07 17:52:28.138232,260863,1418496204,1418498121,-1.10288,0.05856,-0.037088,2.73,0.28875,35.62125,45.920002,7.768001,31.312002,eccentric,5,3.0,22804.0,327647.0,296034.0,349886.0,307580.0
2026-04-07 17:52:28.140750,260864,1418505161,1418506859,-1.10288,0.05856,-0.037088,0.1575,0.49,34.37875,45.920002,7.768001,31.312002,eccentric,5,3.0,22804.0,327647.0,296034.0,349886.0,307580.0
2026-04-07 17:52:28.173778,260865,1418514153,1418515615,-1.095072,0.052704,-0.042944,-1.18125,0.875,32.0075,45.288002,6.632,33.032,eccentric,5,3.0,22804.0,327647.0,296034.0,349886.0,307580.0
2026-04-07 17:52:28.176032,260866,1418528637,1418530562,-1.095072,0.052704,-0.042944,-2.31875,0.875,29.3125,45.288002,6.632,33.032,eccentric,5,3.0,22804.0,327647.0,296034.0,349886.0,307580.0
2026-04-07 17:52:28.180813,260867,1418537799,1418539345,-1.08336,0.054656,-0.080032,-3.33375,1.11125,27.5625,46.128002,7.16,32.544003,eccentric,5,3.0,22804.0,327647.0,296034.0,349886.0,307580.0
2026-04-07 17:52:28.182395,260868,1418546878,1418548042,-1.08336,0.054656,-0.080032,-2.625,0.3675,27.13375,46.128002,7.16,32.544003,eccentric,5,3.0,22804.0,327647.0,296034.0,349886.0,307580.0
2026-04-07 17:52:28.188289,260869,1418561354,1418562914,-1.06384,0.064416,-0.089792,-0.39375,0.28875,27.335001,46.872,7.272,30.768002,eccentric,5,3.0,22804.0,327647.0,296034.0,349886.0,307580.0
2026-04-07 17:52:28.219892,260879,1418570281,1418571986,-1.079456,0.093696,-0.074176,0.39375,0.14,26.18,46.168003,6.544,30.816002,eccentric,5,3.0,22891.0,328471.0,296731.0,350669.0,308226.0
2026-04-07 17:52:28.221422,260880,1418579261,1418580760,-1.079456,0.093696,-0.074176,0.28,-0.18375,24.491251,46.168003,6.544,30.816002,eccentric,5,3.0,22891.0,328471.0,296731.0,350669.0,308226.0
2026-04-07 17:52:28.224927,260881,1418593798,1418595747,-1.089216,0.093696,-0.05856,-1.23375,-0.16625,22.60125,46.184002,6.2,32.104,eccentric,5,3.0,22891.0,328471.0,296731.0,350669.0,308226.0
2026-04-07 17:52:28.226489,260882,1418602778,1418604451,-1.089216,0.093696,-0.05856,-3.71,-1.1725,21.48125,46.184002,6.2,32.104,eccentric,5,3.0,22891.0,328471.0,296731.0,350669.0,308226.0
2026-04-07 17:52:28.230726,260883,1418611737,1418613168,-1.085312,0.05856,-0.056608,-4.83,-2.54625,20.20375,45.872,5.88,30.968002,eccentric,5,3.0,22891.0,328471.0,296731.0,350669.0,308226.0
2026-04-07 17:52:28.233070,260884,1418620785,1418621905,-1.085312,0.05856,-0.056608,-5.1975,-4.62,18.4275,45.872,5.88,30.968002,eccentric,5,3.0,22891.0,328471.0,296731.0,350669.0,308226.0
2026-04-07 17:52:28.266275,260885,1418635273,1418636893,-1.075552,0.050752,-0.056608,-4.095,-5.215,14.48125,46.416,5.24,32.216003,eccentric,5,3.0,22891.0,328471.0,296731.0,350669.0,308226.0
2026-04-07 17:52:28.280820,260886,1418644188,1418645583,-1.075552,0.050752,-0.056608,-0.6475,-5.29375,10.77125,46.416,5.24,32.216003,eccentric,5,3.0,22891.0,328471.0,296731.0,350669.0,308226.0
2026-04-07 17:52:28.282398,260887,1418653119,1418654274,-1.079456,0.0488,-0.08784,4.17375,-6.545,8.2775,46.592003,5.184,31.544,eccentric,5,3.0,22891.0,328471.0,296731.0,350669.0,308226.0
2026-04-07 17:52:28.284860,260888,1418667601,1418669155,-1.079456,0.0488,-0.08784,8.3825,-7.3325,7.37625,46.592003,5.184,31.544,eccentric,5,3.0,22891.0,328471.0,296731.0,350669.0,308226.0
2026-04-07 17:52:28.316148,260898,1418676672,1418677925,-1.050176,0.111264,-0.101504,13.02875,-7.8925,4.82125,46.744003,5.864,31.272001,eccentric,5,3.0,23312.0,332055.0,299578.0,353622.0,310342.0
2026-04-07 17:52:28.317658,260899,1418685635,1418686740,-1.050176,0.111264,-0.101504,18.375,-6.0375,0.56875,46.744003,5.864,31.272001,eccentric,5,3.0,23312.0,332055.0,299578.0,353622.0,310342.0
2026-04-07 17:52:28.321726,260900,1418700156,1418701719,-1.077504,0.167872,-0.083936,19.15375,-4.90875,-3.255,46.144,5.272,31.184002,eccentric,5,3.0,23312.0,332055.0,299578.0,353622.0,310342.0
2026-04-07 17:52:28.331440,260901,1418709098,1418710438,-1.077504,0.167872,-0.083936,14.98875,-4.15625,-5.53875,46.144,5.272,31.184002,eccentric,5,3.0,23312.0,332055.0,299578.0,353622.0,310342.0
2026-04-07 17:52:28.333869,260902,1418718028,1418719131,-1.069696,0.052704,-0.056608,9.1,-4.1125,-6.09,46.336002,5.520001,32.616,eccentric,5,3.0,23312.0,332055.0,299578.0,353622.0,310342.0
2026-04-07 17:52:28.336376,260903,1418726963,1418727828,-1.069696,0.052704,-0.056608,4.8125,-4.24375,-5.8975,46.336002,5.520001,32.616,eccentric,5,3.0,23312.0,332055.0,299578.0,353622.0,310342.0
2026-04-07 17:52:28.372748,260904,1418741495,1418742800,-1.071648,-0.005856,-0.040992,4.50625,-4.3925,-6.15125,46.800003,5.192,31.936,eccentric,5,3.0,23312.0,332055.0,299578.0,353622.0,310342.0
2026-04-07 17:52:28.375318,260905,1418750438,1418751490,-1.071648,0.040992,-0.003904,5.08375,-2.93125,-7.875,46.800003,5.192,31.936,eccentric,5,3.0,23312.0,332055.0,299578.0,353622.0,310342.0
2026-04-07 17:52:28.377742,260906,1418759331,1418760209,-1.081408,0.031232,-0.003904,6.23875,-1.56625,-8.365,46.712,5.416,30.528002,eccentric,5,3.0,23312.0,332055.0,299578.0,353622.0,310342.0
2026-04-07 17:52:28.410729,260917,1418774131,1418775493,-1.098976,0.056608,-0.01952,5.4075,-1.295,-7.9275,46.784,5.264,32.224003,eccentric,5,3.0,23528.0,333339.0,300280.0,353748.0,310051.0
2026-04-07 17:52:28.412299,260918,1418783323,1418784299,-1.098976,0.056608,-0.01952,3.78875,-1.14625,-6.60625,46.784,5.264,32.224003,eccentric,5,3.0,23528.0,333339.0,300280.0,353748.0,310051.0
2026-04-07 17:52:28.416054,260919,1418792315,1418793119,-1.153632,0.035136,-0.052704,1.88125,-0.7,-5.39,45.848003,4.88,35.472,eccentric,5,3.0,23528.0,333339.0,300280.0,353748.0,310051.0
2026-04-07 17:52:28.417986,260920,1418806832,1418808065,-1.153632,0.035136,-0.052704,0.14875,-0.39375,-4.0425,45.848003,4.88,35.472,eccentric,5,3.0,23528.0,333339.0,300280.0,353748.0,310051.0
2026-04-07 17:52:28.448672,260921,1418815809,1418816853,-1.153632,-0.021472,-0.089792,-2.0825,0.105,-2.2575,46.016003,4.904,32.976,eccentric,5,3.0,23528.0,333339.0,300280.0,353748.0,310051.0
2026-04-07 17:52:28.452703,260922,1418824730,1418825574,-1.153632,-0.021472,-0.089792,-0.55125,-0.41125,-2.42375,46.016003,4.904,32.976,eccentric,5,3.0,23528.0,333339.0,300280.0,353748.0,310051.0
2026-04-07 17:52:28.454848,260923,1418833676,1418834373,-1.169248,0.001952,-0.122976,4.15625,-0.48125,-1.68875,46.640003,5.488,31.632002,eccentric,5,3.0,23528.0,333339.0,300280.0,353748.0,310051.0
2026-04-07 17:52:28.458093,260924,1418848667,1418849299,-1.169248,0.001952,-0.122976,8.855001,-0.13125,-1.33,46.640003,5.488,31.632002,eccentric,5,3.0,23528.0,333339.0,300280.0,353748.0,310051.0
2026-04-07 17:52:28.505233,260925,1418857971,1418860134,-1.216096,0.060512,-0.076128,11.83,-0.21,-1.225,46.36,4.904,32.288002,eccentric,5,3.0,23528.0,333339.0,300280.0,353748.0,310051.0
2026-04-07 17:52:28.510058,260926,1418866979,1418868837,-1.216096,0.060512,-0.076128,13.9475,0.04375,-1.1725,46.36,4.904,32.288002,eccentric,5,3.0,23528.0,333339.0,300280.0,353748.0,310051.0
2026-04-07 17:52:28.546101,260936,1418881478,1418882259,-1.216096,0.066368,-0.050752,14.6825,-0.09625,-1.91625,46.528004,5.488,32.440002,eccentric,5,3.0,23112.0,328949.0,296393.0,349078.0,306077.0
2026-04-07 17:52:28.547687,260937,1418891042,1418893057,-1.216096,0.066368,-0.035136,13.011251,-0.00875,-2.54625,46.528004,5.488,32.440002,eccentric,5,3.0,23112.0,328949.0,296393.0,349078.0,306077.0
2026-04-07 17:52:28.551769,260938,1418899984,1418901769,-1.221952,-0.003904,-0.035136,11.9525,0.595,-2.6075,46.872,5.28,32.464,eccentric,5,3.0,23112.0,328949.0,296393.0,349078.0,306077.0
2026-04-07 17:52:28.558160,260939,1418908950,1418910502,-1.221952,-0.003904,-0.035136,12.36375,0.5425,-2.1875,46.872,5.28,32.464,eccentric,5,3.0,23112.0,328949.0,296393.0,349078.0,306077.0
2026-04-07 17:52:28.559879,260940,1418923495,1418925474,-1.202432,0.023424,-0.050752,13.37875,0.30625,-2.09125,46.416,5.032,33.536003,eccentric,5,3.0,23112.0,328949.0,296393.0,349078.0,306077.0
2026-04-07 17:52:28.561585,260941,1418932481,1418934180,-1.18096,0.06832,-0.064416,15.30375,1.435,-3.73625,46.616,4.768,35.84,eccentric,5,3.0,23112.0,328949.0,296393.0,349078.0,306077.0
2026-04-07 17:52:28.565646,260942,1418941465,1418942922,-1.18096,0.06832,-0.064416,14.21,2.2925,-5.7575,46.616,4.768,35.84,eccentric,5,3.0,23112.0,328949.0,296393.0,349078.0,306077.0
2026-04-07 17:52:28.567229,260943,1418956001,1418957821,-1.212192,0.025376,-0.023424,8.1725,2.5725,-5.25,46.376003,4.896,33.68,eccentric,5,3.0,23112.0,328949.0,296393.0,349078.0,306077.0
2026-04-07 17:52:28.597505,260944,1418964956,1418966571,-1.212192,0.025376,-0.023424,0.76125,3.605,-4.89125,46.376003,4.896,33.68,eccentric,5,3.0,23112.0,328949.0,296393.0,349078.0,306077.0
2026-04-07 17:52:28.631132,260954,1418974255,1418975348,-1.188768,-0.0488,-0.033184,-5.73125,1.8375,-2.6075,46.984,5.168,32.648003,eccentric,5,3.0,22192.0,320085.0,288767.0,340227.0,298753.0
2026-04-07 17:52:28.632693,260955,1418983494,1418984145,-1.188768,-0.0488,-0.033184,-9.9225,-0.595,2.94,46.984,5.168,32.648003,eccentric,5,3.0,22192.0,320085.0,288767.0,340227.0,298753.0
2026-04-07 17:52:28.635170,260956,1418998370,1418999115,-1.163392,-0.037088,-0.074176,-7.0,-2.70375,5.08375,46.352,5.488,34.640003,eccentric,5,3.0,22192.0,320085.0,288767.0,340227.0,298753.0
2026-04-07 17:52:28.638601,260957,1419007725,1419009926,-1.163392,-0.037088,-0.074176,-2.44125,-3.01,4.6375,46.352,5.488,34.640003,eccentric,5,3.0,22192.0,320085.0,288767.0,340227.0,298753.0
2026-04-07 17:52:28.640072,260958,1419016706,1419018745,-1.155584,0.023424,-0.040992,0.35,-3.26375,5.74875,46.104004,4.336,33.640003,eccentric,5,3.0,22192.0,320085.0,288767.0,340227.0,298753.0
2026-04-07 17:52:28.644261,260959,1419025634,1419027449,-1.155584,0.023424,-0.040992,0.84875,-4.71625,6.67625,46.104004,4.336,33.640003,eccentric,5,3.0,22192.0,320085.0,288767.0,340227.0,298753.0
2026-04-07 17:52:28.672821,260960,1419040163,1419042395,-1.15168,0.06832,-0.095648,0.91875,-7.9275,7.44625,46.752003,4.544,33.032,eccentric,5,3.0,22192.0,320085.0,288767.0,340227.0,298753.0
2026-04-07 17:52:28.676384,260961,1419049121,1419051082,-1.15168,0.06832,-0.095648,2.345,-9.79125,9.63375,46.752003,4.544,33.032,eccentric,5,3.0,22192.0,320085.0,288767.0,340227.0,298753.0
2026-04-07 17:52:28.685072,260962,1419058023,1419059785,-1.1224,0.122976,-0.070272,3.07125,-8.96875,8.30375,46.952003,4.944,32.648003,eccentric,5,3.0,22192.0,320085.0,288767.0,340227.0,298753.0
2026-04-07 17:52:28.712611,260973,1419072541,1419074999,-1.153632,0.109312,-0.031232,1.04125,-8.02375,5.145,45.848003,4.44,34.536003,eccentric,5,3.0,21273.0,311307.0,281240.0,331335.0,290776.0
2026-04-07 17:52:28.715094,260974,1419081498,1419083710,-1.153632,0.109312,-0.031232,-3.01875,-7.945,1.365,45.848003,4.44,34.536003,eccentric,5,3.0,21273.0,311307.0,281240.0,331335.0,290776.0
2026-04-07 17:52:28.732644,260975,1419090541,1419092463,-1.153632,0.109312,-0.031232,-5.90625,-8.37375,-2.3625,45.848003,4.44,34.536003,eccentric,5,3.0,21273.0,311307.0,281240.0,331335.0,290776.0
2026-04-07 17:52:28.735085,260976,1419105080,1419107379,-1.184864,0.093696,-0.05856,-4.54125,-8.58375,-4.64625,46.640003,5.192,32.472,eccentric,5,3.0,21273.0,311307.0,281240.0,331335.0,290776.0
2026-04-07 17:52:28.737629,260977,1419114127,1419114844,-1.159488,0.121024,-0.046848,-2.07375,-8.70625,-7.8925,46.592003,5.264,32.552002,eccentric,5,3.0,21273.0,311307.0,281240.0,331335.0,290776.0
2026-04-07 17:52:28.740248,260978,1419123576,1419125646,-1.159488,0.121024,-0.046848,-0.91,-7.8575,-10.15875,46.592003,5.264,32.552002,eccentric,5,3.0,21273.0,311307.0,281240.0,331335.0,290776.0
2026-04-07 17:52:28.742655,260979,1419132501,1419134337,-1.184864,0.142496,-0.01952,1.2425,-6.58,-13.60625,46.592003,5.264,35.552002,eccentric,5,3.0,21273.0,311307.0,281240.0,331335.0,290776.0
2026-04-07 17:52:28.797087,260980,1419146976,1419149233,-1.184864,0.142496,-0.01952,-0.5075,-5.22375,-17.82375,46.512,5.824,35.552002,concentric,5,3.0,21273.0,311307.0,281240.0,331335.0,290776.0
2026-04-07 17:52:28.797947,260981,1419155901,1419157923,-1.21024,0.11712,-0.027328,-3.3425,-4.6025,-18.9,46.616,5.944,32.824,concentric,5,3.0,21273.0,311307.0,281240.0,331335.0,290776.0
2026-04-07 17:52:28.800175,260982,1419164825,1419166663,-1.21024,0.11712,-0.027328,-5.03125,-4.22625,-19.53875,46.616,5.944,32.824,concentric,5,3.0,21273.0,311307.0,281240.0,331335.0,290776.0
2026-04-07 17:52:28.825143,260992,1419179493,1419179823,-1.198528,0.113216,-0.011712,-7.06125,-4.03375,-21.0525,46.000004,6.216,33.056,concentric,5,3.0,21097.0,309631.0,279829.0,329823.0,289688.0
2026-04-07 17:52:28.827645,260993,1419188893,1419190581,-1.198528,0.113216,-0.011712,-6.2475,-4.62875,-24.36875,46.000004,6.216,33.056,concentric,5,3.0,21097.0,309631.0,279829.0,329823.0,289688.0
2026-04-07 17:52:28.832222,260994,1419197900,1419199273,-1.153632,0.171776,-0.01952,-5.11,-4.7075,-28.7875,45.792004,6.440001,34.128002,concentric,5,3.0,21097.0,309631.0,279829.0,329823.0,289688.0
2026-04-07 17:52:28.832601,260995,1419206918,1419208012,-1.153632,0.171776,-0.01952,-5.67875,-1.96875,-31.5,45.792004,6.440001,34.128002,concentric,5,3.0,21097.0,309631.0,279829.0,329823.0,289688.0
2026-04-07 17:52:28.835096,260996,1419221420,1419222950,-1.175104,0.179584,-0.025376,-6.32625,-0.455,-35.385,45.248,6.504,33.960003,concentric,5,3.0,21097.0,309631.0,279829.0,329823.0,289688.0
2026-04-07 17:52:28.840572,260997,1419230442,1419231656,-1.175104,0.179584,-0.025376,-6.65875,0.8925,-39.2875,45.248,6.504,33.960003,concentric,5,3.0,21097.0,309631.0,279829.0,329823.0,289688.0
2026-04-07 17:52:28.870278,260998,1419239344,1419240344,-1.159488,0.199104,0.005856,-7.86625,2.0825,-42.48125,45.184002,7.920001,34.072002,concentric,5,3.0,21097.0,309631.0,279829.0,329823.0,289688.0
2026-04-07 17:52:28.873946,260999,1419253840,1419255261,-1.147776,0.169824,0.00976,-7.81375,3.71,-43.68875,44.896004,8.320001,32.472,concentric,5,3.0,21097.0,309631.0,279829.0,329823.0,289688.0
2026-04-07 17:52:28.876475,261000,1419262792,1419263963,-1.147776,0.169824,0.00976,-10.08875,5.95875,-46.43625,44.896004,8.320001,32.472,concentric,5,3.0,21097.0,309631.0,279829.0,329823.0,289688.0
2026-04-07 17:52:28.880159,261001,1419271714,1419272647,-1.147776,0.169824,0.00976,-14.323751,8.09375,-51.5725,44.896004,8.320001,32.472,concentric,5,3.0,21097.0,309631.0,279829.0,329823.0,289688.0
2026-04-07 17:52:28.911344,261011,1419286291,1419287601,-1.143872,0.122976,-0.005856,-19.92375,9.59,-54.46,44.512,8.96,32.608,concentric,5,3.0,20827.0,307026.0,277771.0,327574.0,287812.0
2026-04-07 17:52:28.912846,261012,1419295212,1419296308,-1.182912,0.124928,-0.021472,-21.81375,9.3275,-54.18875,43.952003,9.048,33.728,concentric,5,3.0,20827.0,307026.0,277771.0,327574.0,287812.0
2026-04-07 17:52:28.916747,261013,1419304146,1419305034,-1.182912,0.124928,-0.021472,-16.51125,10.7975,-56.5425,43.952003,9.048,33.728,concentric,5,3.0,20827.0,307026.0,277771.0,327574.0,287812.0
2026-04-07 17:52:28.923030,261014,1419313098,1419313766,-1.182912,0.17568,-0.033184,-9.93125,11.38375,-56.62125,43.952003,9.048,33.728,concentric,5,3.0,20827.0,307026.0,277771.0,327574.0,287812.0
2026-04-07 17:52:28.951525,261015,1419328002,1419328665,-1.21024,0.17568,-0.033184,-5.46,11.725,-53.27875,43.280003,9.728001,34.624,concentric,5,3.0,20827.0,307026.0,277771.0,327574.0,287812.0
2026-04-07 17:52:28.956148,261016,1419337264,1419339462,-1.22,0.122976,-0.013664,-1.785,13.51875,-53.13,43.408,9.928,32.352,concentric,5,3.0,20827.0,307026.0,277771.0,327574.0,287812.0
2026-04-07 17:52:28.957644,261017,1419346238,1419348131,-1.22,0.122976,-0.013664,-1.575,13.90375,-51.91375,43.408,9.928,32.352,concentric,5,3.0,20827.0,307026.0,277771.0,327574.0,287812.0
2026-04-07 17:52:28.988834,261018,1419360810,1419363072,-1.22,0.050752,-0.02928,-6.79875,12.1975,-48.20375,42.216003,10.64,34.496002,concentric,5,3.0,20827.0,307026.0,277771.0,327574.0,287812.0
2026-04-07 17:52:28.993221,261019,1419369745,1419371747,-1.22,0.050752,-0.02928,-12.11875,10.3425,-47.43375,42.216003,10.64,34.496002,concentric,5,3.0,20827.0,307026.0,277771.0,327574.0,287812.0
2026-04-07 17:52:29.019878,261030,1419379187,1419380869,-1.262944,0.070272,-0.085888,-15.91625,6.4575,-45.91125,42.504,11.160001,32.032,concentric,5,3.0,20497.0,304470.0,275952.0,326187.0,287318.0
2026-04-07 17:52:29.021408,261031,1419388122,1419389615,-1.262944,0.070272,-0.085888,-15.33875,2.45875,-44.52,42.504,11.160001,32.032,concentric,5,3.0,20497.0,304470.0,275952.0,326187.0,287318.0
2026-04-07 17:52:29.025698,261032,1419402659,1419404587,-1.300032,0.187392,-0.103456,-8.37375,-0.72625,-41.18625,41.832,12.008,32.072002,concentric,5,3.0,20497.0,304470.0,275952.0,326187.0,287318.0
2026-04-07 17:52:29.027447,261033,1419411623,1419413307,-1.300032,0.187392,-0.103456,1.3825,-3.0975,-37.49375,41.832,12.008,32.072002,concentric,5,3.0,20497.0,304470.0,275952.0,326187.0,287318.0
2026-04-07 17:52:29.028920,261034,1419420548,1419422033,-1.23952,0.144448,-0.025376,5.5475,-5.145,-36.79375,42.600002,12.176001,32.256,concentric,5,3.0,20497.0,304470.0,275952.0,326187.0,287318.0
2026-04-07 17:52:29.058192,261035,1419435017,1419436952,-1.221952,0.11712,0.035136,4.655,-6.65875,-39.85625,41.352,12.496,32.888,concentric,5,3.0,20497.0,304470.0,275952.0,326187.0,287318.0
2026-04-07 17:52:29.060768,261036,1419443922,1419445668,-1.221952,0.11712,0.035136,3.63125,-6.04625,-42.201252,41.352,12.496,32.888,concentric,5,3.0,20497.0,304470.0,275952.0,326187.0,287318.0
2026-04-07 17:52:29.064567,261037,1419452856,1419454348,-1.221952,0.11712,0.035136,4.34875,-5.27625,-42.74375,41.352,12.496,32.888,concentric,5,3.0,20497.0,304470.0,275952.0,326187.0,287318.0
2026-04-07 17:52:29.096606,261038,1419467355,1419469307,-1.214144,0.179584,0.085888,4.34,-4.41,-42.32375,40.992,13.056001,31.568,concentric,5,3.0,20497.0,304470.0,275952.0,326187.0,287318.0
2026-04-07 17:52:29.122668,261048,1419476249,1419478049,-1.08336,0.162016,0.066368,1.82875,-2.58125,-43.11125,40.104,13.56,32.504,concentric,5,3.0,20071.0,300770.0,273259.0,323584.0,285723.0
2026-04-07 17:52:29.125123,261049,1419485725,1419486843,-1.08336,0.162016,0.066368,-4.03375,-0.9625,-44.7125,40.104,13.56,32.504,concentric,5,3.0,20071.0,300770.0,273259.0,323584.0,285723.0
2026-04-07 17:52:29.127609,261050,1419494650,1419495549,-1.077504,0.13664,0.074176,-9.14375,1.5925,-46.03375,39.472,13.944,31.848001,concentric,5,3.0,20071.0,300770.0,273259.0,323584.0,285723.0
2026-04-07 17:52:29.130088,261051,1419509124,1419510600,-1.077504,0.13664,0.074176,-8.81125,6.01125,-46.375,39.472,13.944,31.848001,concentric,5,3.0,20071.0,300770.0,273259.0,323584.0,285723.0
2026-04-07 17:52:29.132592,261052,1419518050,1419519294,-1.077504,0.122976,0.099552,-6.9825,8.5925,-46.445,38.992,13.928,32.16,concentric,5,3.0,20071.0,300770.0,273259.0,323584.0,285723.0
2026-04-07 17:52:29.136374,261053,1419526995,1419528075,-1.077504,0.122976,0.099552,-6.335,10.045,-46.0075,38.992,13.928,32.16,concentric,5,3.0,20071.0,300770.0,273259.0,323584.0,285723.0
2026-04-07 17:52:29.166632,261054,1419541478,1419543017,-1.057984,0.119072,0.03904,-4.1125,11.52375,-45.05375,38.728,14.184001,33.152,concentric,5,3.0,20071.0,300770.0,273259.0,323584.0,285723.0
2026-04-07 17:52:29.170124,261055,1419550389,1419551726,-1.057984,0.119072,0.03904,-3.57875,12.6525,-45.263752,38.728,14.184001,33.152,concentric,5,3.0,20071.0,300770.0,273259.0,323584.0,285723.0
2026-04-07 17:52:29.172678,261056,1419559316,1419560427,-1.057984,0.154208,0.052704,-2.205,13.3525,-44.70375,38.616,14.952001,31.408,concentric,5,3.0,20071.0,300770.0,273259.0,323584.0,285723.0
2026-04-07 17:52:29.202752,261057,1419573787,1419575330,-1.057984,0.154208,0.052704,3.0625,14.8925,-46.095,38.616,14.952001,31.408,concentric,5,3.0,20071.0,300770.0,273259.0,323584.0,285723.0
2026-04-07 17:52:29.228876,261067,1419582795,1419584074,-1.056032,0.070272,0.050752,3.49125,16.6775,-48.46625,37.552002,15.424001,30.936,concentric,5,3.0,19996.0,300873.0,273773.0,325364.0,288323.0
2026-04-07 17:52:29.231917,261068,1419591732,1419592837,-1.056032,0.070272,0.050752,-1.56625,16.54625,-48.39625,37.552002,15.424001,30.936,concentric,5,3.0,19996.0,300873.0,273773.0,325364.0,288323.0
2026-04-07 17:52:29.233840,261069,1419600634,1419601544,-1.085312,0.0488,-0.035136,-3.185,15.715,-46.08625,36.816,15.448001,31.376001,concentric,5,3.0,19996.0,300873.0,273773.0,325364.0,288323.0
2026-04-07 17:52:29.236409,261070,1419615174,1419616456,-1.03456,0.07808,0.023424,1.5925,15.11125,-44.695,36.344,15.168001,36.04,concentric,5,3.0,19996.0,300873.0,273773.0,325364.0,288323.0
2026-04-07 17:52:29.241369,261071,1419624182,1419625258,-1.03456,0.07808,0.023424,8.81125,14.42875,-44.5375,36.344,15.168001,36.04,concentric,5,3.0,19996.0,300873.0,273773.0,325364.0,288323.0
2026-04-07 17:52:29.243880,261072,1419633157,1419633970,-1.03456,0.07808,0.023424,13.97375,14.51625,-47.25,36.344,15.168001,36.04,concentric,5,3.0,19996.0,300873.0,273773.0,325364.0,288323.0
2026-04-07 17:52:29.269029,261073,1419647653,1419648899,-1.03456,0.080032,0.017568,15.2425,16.05625,-47.95875,35.784,15.112,34.176003,concentric,5,3.0,19996.0,300873.0,273773.0,325364.0,288323.0
2026-04-07 17:52:29.271391,261074,1419656593,1419657607,-1.075552,0.005856,0.027328,10.115,16.94875,-46.445,35.624,16.512001,29.072,concentric,5,3.0,19996.0,300873.0,273773.0,325364.0,288323.0
2026-04-07 17:52:29.273878,261075,1419665506,1419666300,-1.075552,0.005856,0.027328,5.285,18.0775,-45.745,35.624,16.512001,29.072,concentric,5,3.0,19996.0,300873.0,273773.0,325364.0,288323.0
2026-04-07 17:52:29.333876,261086,1419680118,1419681255,-1.028704,-0.105408,0.042944,6.22125,20.265,-42.18375,34.984,16.52,31.128002,concentric,5,3.0,20226.0,304226.0,277158.0,330180.0,292925.0
2026-04-07 17:52:29.336343,261087,1419689116,1419689996,-1.028704,-0.105408,0.042944,6.48375,22.015,-40.48625,34.984,16.52,31.128002,concentric,5,3.0,20226.0,304226.0,277158.0,330180.0,292925.0
2026-04-07 17:52:29.338842,261088,1419698098,1419698761,-1.061888,-0.031232,-0.06832,6.48375,21.525,-38.1675,34.872,16.696001,31.008001,concentric,5,3.0,20226.0,304226.0,277158.0,330180.0,292925.0
2026-04-07 17:52:29.341463,261089,1419707402,1419709540,-1.061888,-0.031232,-0.06832,10.2375,18.94375,-36.5225,34.872,16.696001,31.008001,concentric,5,3.0,20226.0,304226.0,277158.0,330180.0,292925.0
2026-04-07 17:52:29.343930,261090,1419722023,1419722385,-1.022848,0.015616,-0.152256,15.8025,15.9425,-38.78875,34.52,16.608002,30.968002,concentric,5,3.0,20226.0,304226.0,277158.0,330180.0,292925.0
2026-04-07 17:52:29.385420,261091,1419731280,1419733150,-1.022848,0.015616,-0.152256,21.98,13.5625,-40.888752,34.52,16.608002,30.968002,concentric,5,3.0,20226.0,304226.0,277158.0,330180.0,292925.0
2026-04-07 17:52:29.416610,261092,1419740291,1419741885,-0.974048,-0.10736,0.027328,27.5625,13.04625,-43.4875,33.328003,16.328001,32.008003,concentric,5,3.0,20226.0,304226.0,277158.0,330180.0,292925.0
2026-04-07 17:52:29.420170,261093,1419754772,1419756791,-0.974048,-0.10736,0.035136,25.59375,12.1625,-44.91375,33.328003,16.328001,32.008003,concentric,5,3.0,20226.0,304226.0,277158.0,330180.0,292925.0
2026-04-07 17:52:29.422685,261094,1419763731,1419765471,-1.100928,-0.216672,0.035136,16.94,6.2825,-42.3325,33.32,17.08,29.12,concentric,5,3.0,20226.0,304226.0,277158.0,330180.0,292925.0
2026-04-07 17:52:29.427674,261095,1419772687,1419774158,-1.100928,-0.216672,0.035136,12.34625,-1.81125,-36.84625,33.32,17.08,29.12,concentric,5,3.0,20226.0,304226.0,277158.0,330180.0,292925.0
2026-04-07 17:52:29.456388,261105,1419782067,1419783110,-1.052128,-0.089792,-0.062464,9.073751,-9.5725,-30.555,33.048,16.776001,31.312002,concentric,5,3.0,20336.0,305864.0,278820.0,332509.0,295119.0
2026-04-07 17:52:29.458876,261106,1419796576,1419798025,-0.935008,-0.033184,-0.20496,10.12375,-18.515,-30.178751,32.472,17.088001,31.744001,concentric,5,3.0,20336.0,305864.0,278820.0,332509.0,295119.0
2026-04-07 17:52:29.461543,261107,1419805485,1419806715,-0.935008,-0.033184,-0.20496,15.77625,-23.23125,-32.4275,32.472,17.088001,31.744001,concentric,5,3.0,20336.0,305864.0,278820.0,332509.0,295119.0
2026-04-07 17:52:29.463990,261108,1419814382,1419815435,-0.935008,-0.033184,-0.20496,26.075,-23.178751,-35.4725,32.472,17.088001,31.744001,concentric,5,3.0,20336.0,305864.0,278820.0,332509.0,295119.0
2026-04-07 17:52:29.466414,261109,1419828915,1419830389,-1.011136,-0.03904,0.101504,35.665,-21.7175,-38.01,31.912,17.04,33.568,concentric,5,3.0,20336.0,305864.0,278820.0,332509.0,295119.0
2026-04-07 17:52:29.468887,261110,1419837858,1419839125,-1.022848,-0.181536,0.218624,32.89125,-20.58875,-38.47375,30.968002,16.976002,33.640003,concentric,5,3.0,20336.0,305864.0,278820.0,332509.0,295119.0
2026-04-07 17:52:29.472294,261111,1419846854,1419847825,-1.022848,-0.181536,0.218624,21.06125,-20.32625,-37.9925,30.968002,16.976002,33.640003,concentric,5,3.0,20336.0,305864.0,278820.0,332509.0,295119.0
2026-04-07 17:52:29.473856,261112,1419861508,1419862770,-0.894016,-0.121024,0.081984,18.0425,-18.06,-32.55,31.680002,17.848001,32.944,concentric,5,3.0,20336.0,305864.0,278820.0,332509.0,295119.0
2026-04-07 17:52:29.480167,261113,1419870427,1419871544,-0.894016,-0.121024,0.081984,16.96625,-12.46,-28.2275,31.680002,17.848001,32.944,concentric,5,3.0,20336.0,305864.0,278820.0,332509.0,295119.0
2026-04-07 17:52:29.535662,261123,1419879897,1419880775,-0.91744,-0.095648,0.076128,13.11625,-6.6675,-26.81875,31.288002,17.560001,33.584003,concentric,5,3.0,20354.0,305916.0,278702.0,332032.0,294623.0
2026-04-07 17:52:29.537354,261124,1419888909,1419889591,-0.91744,-0.095648,0.076128,10.745,-4.6025,-26.1275,31.288002,17.560001,33.584003,concentric,5,3.0,20354.0,305916.0,278702.0,332032.0,294623.0
2026-04-07 17:52:29.539117,261125,1419903730,1419904475,-0.903776,-0.089792,0.06832,14.69125,-1.715,-23.1875,30.832,17.064001,32.912003,concentric,5,3.0,20354.0,305916.0,278702.0,332032.0,294623.0
2026-04-07 17:52:29.543230,261126,1419913101,1419915262,-0.903776,-0.089792,0.06832,17.955,1.19875,-20.67625,30.832,17.064001,32.912003,concentric,5,3.0,20354.0,305916.0,278702.0,332032.0,294623.0
2026-04-07 17:52:29.544923,261127,1419922058,1419923966,-0.798368,-0.242048,0.074176,13.43125,0.72625,-21.00875,31.144001,17.464,33.032,concentric,5,3.0,20354.0,305916.0,278702.0,332032.0,294623.0
2026-04-07 17:52:29.547214,261128,1419931015,1419932711,-0.798368,-0.242048,0.074176,9.275,2.12625,-20.74625,31.144001,17.464,33.032,concentric,5,3.0,20354.0,305916.0,278702.0,332032.0,294623.0
2026-04-07 17:52:29.577587,261129,1419945584,1419947655,-0.784704,-0.173728,0.062464,5.9325,2.9575,-17.255,30.936,17.584002,32.944,concentric,5,3.0,20354.0,305916.0,278702.0,332032.0,294623.0
2026-04-07 17:52:29.579865,261130,1419954526,1419956351,-0.784704,-0.173728,0.062464,3.85,1.47875,-12.85375,30.936,17.584002,32.944,concentric,5,3.0,20354.0,305916.0,278702.0,332032.0,294623.0
2026-04-07 17:52:29.584333,261131,1419963455,1419965032,-0.817888,-0.12688,0.00976,7.1225,2.38875,-10.99,30.512001,17.096,33.352,concentric,5,3.0,20354.0,305916.0,278702.0,332032.0,294623.0
2026-04-07 17:52:29.619083,261142,1419977960,1419979925,-0.6832,-0.222528,-0.001952,6.79,2.6075,-12.74875,29.632002,17.464,33.272003,concentric,5,3.0,20624.0,308821.0,281331.0,335293.0,297422.0
2026-04-07 17:52:29.623234,261143,1419986917,1419988716,-0.6832,-0.222528,-0.001952,3.10625,0.2975,-14.175,29.632002,17.464,33.272003,concentric,5,3.0,20624.0,308821.0,281331.0,335293.0,297422.0
2026-04-07 17:52:29.624927,261144,1419995952,1419997483,-0.6832,-0.259616,0.056608,3.33375,-1.0675,-14.14875,29.632002,17.464,33.272003,concentric,5,3.0,20624.0,308821.0,281331.0,335293.0,297422.0
2026-04-07 17:52:29.626384,261145,1420010543,1420012399,-0.76128,-0.259616,0.056608,5.355,-3.57875,-11.87375,30.376001,17.240002,34.232002,concentric,5,3.0,20624.0,308821.0,281331.0,335293.0,297422.0
2026-04-07 17:52:29.630912,261146,1420019490,1420021101,-0.716384,-0.160064,0.001952,3.71,-7.0525,-7.30625,30.944002,17.376001,32.696003,concentric,5,3.0,20624.0,308821.0,281331.0,335293.0,297422.0
2026-04-07 17:52:29.659094,261147,1420028484,1420029800,-0.716384,-0.160064,0.001952,-0.90125,-8.2425,-4.47125,30.944002,17.376001,32.696003,concentric,5,3.0,20624.0,308821.0,281331.0,335293.0,297422.0
2026-04-07 17:52:29.664547,261148,1420037388,1420038476,-0.661728,-0.242048,-0.011712,-9.44125,-10.115,-5.04,30.552002,17.192001,33.616,concentric,5,3.0,20624.0,308821.0,281331.0,335293.0,297422.0
2026-04-07 17:52:29.696582,261149,1420051859,1420053369,-0.661728,-0.242048,-0.011712,-20.1425,-12.46875,-5.3725,30.552002,17.192001,33.616,concentric,5,3.0,20624.0,308821.0,281331.0,335293.0,297422.0
2026-04-07 17:52:29.700428,261150,1420060811,1420062077,-0.694912,-0.183488,-0.031232,-21.65625,-15.1725,-5.9325,30.192001,17.400002,32.72,concentric,5,3.0,20624.0,308821.0,281331.0,335293.0,297422.0
2026-04-07 17:52:29.702721,261151,1420069753,1420070833,-0.694912,-0.183488,-0.031232,-12.3025,-15.0325,-5.285,30.192001,17.400002,32.72,concentric,5,3.0,20624.0,308821.0,281331.0,335293.0,297422.0
2026-04-07 17:52:29.731307,261161,1420084432,1420085828,-0.689056,-0.288896,0.0,-6.15125,-14.02625,-4.655,30.112001,16.952002,32.936,concentric,5,3.0,20475.0,307903.0,280892.0,335050.0,297375.0
2026-04-07 17:52:29.733867,261162,1420093410,1420094506,-0.689056,-0.288896,0.0,-8.435,-12.635,-2.17,30.112001,16.952002,32.936,concentric,5,3.0,20475.0,307903.0,280892.0,335050.0,297375.0
2026-04-07 17:52:29.736308,261163,1420102332,1420103294,-0.694912,-0.261568,0.06832,-13.965,-10.47375,1.5575,30.208002,16.92,32.600002,concentric,5,3.0,20475.0,307903.0,280892.0,335050.0,297375.0
2026-04-07 17:52:29.738832,261164,1420116873,1420118285,-0.80032,-0.171776,0.023424,-10.955,-6.18625,6.4925,30.208002,17.328001,32.048,concentric,5,3.0,20475.0,307903.0,280892.0,335050.0,297375.0
2026-04-07 17:52:29.741585,261165,1420125804,1420126981,-0.80032,-0.171776,0.023424,-9.8,-2.065,11.19125,30.384,17.328001,32.048,concentric,5,3.0,20475.0,307903.0,280892.0,335050.0,297375.0
2026-04-07 17:52:29.743872,261166,1420134759,1420135658,-0.80032,-0.171776,0.023424,-14.14875,-0.23625,12.0225,30.384,17.328001,32.048,concentric,5,3.0,20475.0,307903.0,280892.0,335050.0,297375.0
2026-04-07 17:52:29.774018,261167,1420149213,1420150670,-0.812032,-0.20496,0.00976,-17.395,3.26375,11.27875,30.664001,17.432001,33.816,concentric,5,3.0,20475.0,307903.0,280892.0,335050.0,297375.0
2026-04-07 17:52:29.777602,261168,1420158136,1420159366,-0.851072,-0.271328,0.076128,-16.42375,8.5575,10.43,31.080002,17.136002,33.648003,concentric,5,3.0,20475.0,307903.0,280892.0,335050.0,297375.0
2026-04-07 17:52:29.780253,261169,1420167005,1420168099,-0.851072,-0.271328,0.076128,-13.9825,14.761251,11.1825,31.080002,17.136002,33.648003,concentric,5,3.0,20475.0,307903.0,280892.0,335050.0,297375.0
2026-04-07 17:52:29.785373,261170,1420175921,1420176787,-0.851072,-0.271328,0.076128,-13.22125,19.99375,13.76375,31.080002,17.136002,33.648003,concentric,5,3.0,20475.0,307903.0,280892.0,335050.0,297375.0
2026-04-07 17:52:29.814000,261180,1420190523,1420191787,-0.925248,-0.247904,0.056608,-14.21,23.1875,17.99,31.352001,17.304,33.920002,concentric,5,3.0,20314.0,306639.0,279949.0,334166.0,296779.0
2026-04-07 17:52:29.816369,261181,1420199442,1420200545,-0.913536,-0.148352,-0.044896,-14.8575,24.4125,20.8775,31.560001,16.76,34.048,concentric,5,3.0,20314.0,306639.0,279949.0,334166.0,296779.0
2026-04-07 17:52:29.818863,261182,1420208355,1420209297,-0.913536,-0.148352,-0.044896,-14.1925,23.3625,20.85125,31.560001,16.76,34.048,concentric,5,3.0,20314.0,306639.0,279949.0,334166.0,296779.0
2026-04-07 17:52:29.849100,261183,1420222844,1420224268,-0.909632,-0.20496,-0.070272,-13.32625,22.25125,18.83875,31.176,16.784,32.696003,concentric,5,3.0,20314.0,306639.0,279949.0,334166.0,296779.0
2026-04-07 17:52:29.852630,261184,1420231762,1420232986,-0.909632,-0.20496,-0.070272,-13.265,22.015,16.52,31.176,16.784,32.696003,concentric,5,3.0,20314.0,306639.0,279949.0,334166.0,296779.0
2026-04-07 17:52:29.855128,261185,1420240641,1420241725,-0.909632,-0.245952,-0.027328,-15.225,20.8425,13.09875,32.36,16.912,31.336002,concentric,5,3.0,20314.0,306639.0,279949.0,334166.0,296779.0
2026-04-07 17:52:29.885344,261186,1420255137,1420256626,-0.909632,-0.245952,-0.027328,-11.31375,21.81375,12.985,32.36,16.912,31.336002,concentric,5,3.0,20314.0,306639.0,279949.0,334166.0,296779.0
2026-04-07 17:52:29.888992,261187,1420264054,1420265446,-0.96624,-0.173728,0.050752,-4.9875,22.84625,14.35,32.216003,16.968,30.976002,concentric,5,3.0,20314.0,306639.0,279949.0,334166.0,296779.0
2026-04-07 17:52:29.891349,261188,1420272985,1420274125,-0.96624,-0.173728,0.050752,-2.8,23.94,15.0675,32.216003,16.968,30.976002,concentric,5,3.0,20314.0,306639.0,279949.0,334166.0,296779.0
2026-04-07 17:52:29.918973,261199,1420287538,1420289155,-0.968192,-0.1464,0.025376,-5.0225,24.17625,15.18125,32.792,16.608002,30.984001,concentric,5,3.0,19696.0,300888.0,275002.0,329260.0,293110.0
2026-04-07 17:52:29.921415,261200,1420296495,1420297930,-0.968192,-0.1464,0.025376,-10.33375,24.99875,15.11125,32.792,16.608002,30.984001,concentric,5,3.0,19696.0,300888.0,275002.0,329260.0,293110.0
2026-04-07 17:52:29.923858,261201,1420305411,1420306673,-0.9272,-0.150304,-0.03904,-13.6325,25.03375,13.5275,32.688,17.12,30.992,concentric,5,3.0,19696.0,300888.0,275002.0,329260.0,293110.0
2026-04-07 17:52:29.926344,261202,1420314453,1420315488,-0.9272,-0.150304,-0.03904,-12.845,24.57875,10.84125,32.688,17.12,30.992,concentric,5,3.0,19696.0,300888.0,275002.0,329260.0,293110.0
