pc_time,serial_num,sensor_ts,host_ts,ax,ay,az,gx,gy,gz,mx,my,mz,phase,rpe,weight_kg,ppg_a,ppg_b,ppg_c,ppg_d,ppg_e
2026-04-07 17:52:29.956625,261203,1420328946,1420330458,-1.003328,-0.160064,-0.042944,-8.225,24.08875,9.23125,32.784,16.008001,31.648,eccentric,5,3.0,19696.0,300888.0,275002.0,329260.0,293110.0
2026-04-07 17:52:29.960253,261204,1420337865,1420339150,-0.903776,-0.18544,0.00976,-3.92875,22.9075,9.59,32.784,17.04,29.840002,eccentric,5,3.0,19696.0,300888.0,275002.0,329260.0,293110.0
2026-04-07 17:52:29.962762,261205,1420346766,1420347841,-0.903776,-0.18544,0.00976,-2.59,22.49625,11.64625,32.952,17.04,29.840002,eccentric,5,3.0,19696.0,300888.0,275002.0,329260.0,293110.0
2026-04-07 17:52:30.006306,261206,1420361266,1420362673,-0.976,-0.130784,0.035136,-2.82625,22.7675,11.87375,33.36,16.504002,31.424002,eccentric,5,3.0,19696.0,300888.0,275002.0,329260.0,293110.0
2026-04-07 17:52:30.008520,261207,1420370191,1420371387,-0.976,-0.130784,0.035136,-0.6825,24.15875,12.915,33.36,16.504002,31.424002,eccentric,5,3.0,19696.0,300888.0,275002.0,329260.0,293110.0
2026-04-07 17:52:30.013252,261208,1420379090,1420380113,-0.938912,-0.085888,-0.081984,-0.18375,24.272501,13.90375,33.816,16.272001,29.792002,eccentric,5,3.0,19696.0,300888.0,275002.0,329260.0,293110.0
2026-04-07 17:52:30.038187,261218,1420393574,1420395059,-0.938912,-0.085888,-0.081984,-2.24875,23.80875,12.1975,33.816,16.272001,29.792002,eccentric,5,3.0,19445.0,298654.0,273175.0,327349.0,291439.0
2026-04-07 17:52:30.039835,261219,1420402496,1420403777,-0.952576,-0.119072,-0.054656,-6.09,20.1775,8.5575,34.264,16.424002,29.696001,eccentric,5,3.0,19445.0,298654.0,273175.0,327349.0,291439.0
2026-04-07 17:52:30.042575,261220,1420411450,1420412505,-0.952576,-0.119072,-0.054656,-6.3875,16.91375,8.9775,34.264,16.424002,29.696001,eccentric,5,3.0,19445.0,298654.0,273175.0,327349.0,291439.0
2026-04-07 17:52:30.048210,261221,1420425955,1420427479,-1.042368,-0.07808,-0.02928,0.175,13.3875,10.7275,34.536003,16.104,30.112001,eccentric,5,3.0,19445.0,298654.0,273175.0,327349.0,291439.0
2026-04-07 17:52:30.050586,261222,1420434894,1420436193,-1.042368,-0.07808,-0.02928,5.145,8.82875,11.76,34.536003,16.104,30.112001,eccentric,5,3.0,19445.0,298654.0,273175.0,327349.0,291439.0
2026-04-07 17:52:30.054731,261223,1420443826,1420444894,-0.99552,-0.07808,-0.062464,5.9675,5.775,11.55875,35.2,16.488,29.680002,eccentric,5,3.0,19445.0,298654.0,273175.0,327349.0,291439.0
2026-04-07 17:52:30.061792,261224,1420452760,1420453680,-0.99552,-0.07808,-0.062464,7.63,3.35125,9.98375,35.2,16.488,29.680002,eccentric,5,3.0,19445.0,298654.0,273175.0,327349.0,291439.0
2026-04-07 17:52:30.090260,261225,1420467265,1420468575,-0.960384,-0.152256,-0.121024,7.39375,1.18125,9.1525,34.744003,15.816001,32.496002,eccentric,5,3.0,19445.0,298654.0,273175.0,327349.0,291439.0
2026-04-07 17:52:30.094888,261226,1420476166,1420477246,-0.960384,-0.152256,-0.121024,8.35625,2.275,8.60125,34.744003,15.816001,32.496002,eccentric,5,3.0,19445.0,298654.0,273175.0,327349.0,291439.0
2026-04-07 17:52:30.119796,261236,1420485696,1420486062,-0.96624,-0.169824,0.031232,9.89625,5.1625,8.8025,35.224003,16.096,28.160002,eccentric,5,3.0,19701.0,301075.0,276101.0,329167.0,293987.0
2026-04-07 17:52:30.121297,261237,1420500691,1420501023,-1.14192,0.003904,0.0,9.0125,7.0,9.80875,35.376003,15.712001,30.264002,eccentric,5,3.0,19701.0,301075.0,276101.0,329167.0,293987.0
2026-04-07 17:52:30.125586,261238,1420509918,1420511848,-1.14192,0.003904,0.0,9.625,7.18375,11.75125,35.376003,15.712001,30.264002,eccentric,5,3.0,19701.0,301075.0,276101.0,329167.0,293987.0
2026-04-07 17:52:30.129255,261239,1420518876,1420520566,-1.085312,0.011712,-0.042944,11.96125,7.46375,13.4575,35.408,16.216002,30.344002,eccentric,5,3.0,19701.0,301075.0,276101.0,329167.0,293987.0
2026-04-07 17:52:30.157834,261240,1420527796,1420529267,-1.085312,0.011712,-0.042944,9.65125,7.49,11.87375,35.408,16.216002,30.344002,eccentric,5,3.0,19701.0,301075.0,276101.0,329167.0,293987.0
2026-04-07 17:52:30.162322,261241,1420542292,1420544140,-1.04432,-0.122976,-0.062464,3.5175,8.12875,6.545,36.08,16.168001,30.424002,eccentric,5,3.0,19701.0,301075.0,276101.0,329167.0,293987.0
2026-04-07 17:52:30.164676,261242,1420551270,1420552872,-1.04432,-0.122976,-0.062464,0.3675,10.52625,2.835,36.08,16.168001,30.424002,eccentric,5,3.0,19701.0,301075.0,276101.0,329167.0,293987.0
2026-04-07 17:52:30.169762,261243,1420560203,1420561621,-1.097024,-0.138592,-0.00976,-1.89875,13.09,2.51125,36.280003,16.312,29.800001,eccentric,5,3.0,19701.0,301075.0,276101.0,329167.0,293987.0
2026-04-07 17:52:30.200065,261244,1420574705,1420576534,-1.097024,-0.138592,-0.00976,-1.18125,15.28625,3.3775,36.280003,16.312,29.800001,eccentric,5,3.0,19701.0,301075.0,276101.0,329167.0,293987.0
2026-04-07 17:52:30.231901,261255,1420583983,1420585338,-1.10288,-0.015616,-0.013664,1.63625,16.40625,4.0425,36.544003,16.0,29.616001,eccentric,5,3.0,19789.0,301580.0,275796.0,330065.0,293967.0
2026-04-07 17:52:30.233672,261256,1420592941,1420594055,-1.10288,-0.015616,-0.013664,1.88125,16.87,5.04,36.544003,16.0,29.616001,eccentric,5,3.0,19789.0,301580.0,275796.0,330065.0,293967.0
2026-04-07 17:52:30.235202,261257,1420602044,1420602843,-1.145824,-0.015616,-0.070272,0.875,17.0625,4.76875,36.120003,15.736001,31.192001,eccentric,5,3.0,19789.0,301580.0,275796.0,330065.0,293967.0
2026-04-07 17:52:30.239420,261258,1420617254,1420617786,-1.145824,-0.015616,-0.070272,-1.61,16.24,3.07125,36.120003,15.736001,31.192001,eccentric,5,3.0,19789.0,301580.0,275796.0,330065.0,293967.0
2026-04-07 17:52:30.241047,261259,1420626720,1420628603,-1.147776,-0.06832,-0.07808,-3.82375,14.9625,1.96,36.600002,15.688001,31.056002,eccentric,5,3.0,19789.0,301580.0,275796.0,330065.0,293967.0
2026-04-07 17:52:30.246817,261260,1420635661,1420637305,-1.147776,-0.06832,-0.07808,-2.7125,13.9475,0.35,36.600002,15.688001,31.056002,eccentric,5,3.0,19789.0,301580.0,275796.0,330065.0,293967.0
2026-04-07 17:52:30.297586,261261,1420644625,1420646041,-1.087264,-0.10736,-0.0976,-2.625,13.51875,-0.81375,36.184002,15.56,29.800001,eccentric,5,3.0,19789.0,301580.0,275796.0,330065.0,293967.0
2026-04-07 17:52:30.299817,261262,1420659127,1420660941,-1.10288,-0.10736,-0.093696,-1.295,14.07,-0.70875,36.184002,15.56,30.04,eccentric,5,3.0,19789.0,301580.0,275796.0,330065.0,293967.0
2026-04-07 17:52:30.304428,261263,1420668060,1420669637,-1.106784,-0.10736,-0.093696,1.46125,12.88,-0.5775,36.896,15.840001,30.04,eccentric,5,3.0,19789.0,301580.0,275796.0,330065.0,293967.0
2026-04-07 17:52:30.306241,261264,1420676986,1420678347,-1.106784,-0.10736,-0.093696,5.39875,11.92625,2.1175,36.896,15.840001,30.04,eccentric,5,3.0,19789.0,301580.0,275796.0,330065.0,293967.0
2026-04-07 17:52:30.348281,261274,1420692093,1420693310,-1.10288,-0.037088,-0.091744,6.9825,11.12125,2.40625,37.216003,16.08,32.248,eccentric,5,3.0,19810.0,301807.0,276106.0,330718.0,294710.0
2026-04-07 17:52:30.350331,261275,1420701053,1420702062,-1.124352,-0.03904,-0.072224,6.64125,11.01625,1.32125,37.496002,16.064001,29.664001,eccentric,5,3.0,19810.0,301807.0,276106.0,330718.0,294710.0
2026-04-07 17:52:30.351467,261276,1420709980,1420710823,-1.124352,-0.03904,-0.072224,7.41125,10.91125,1.9775,37.496002,16.064001,29.664001,eccentric,5,3.0,19810.0,301807.0,276106.0,330718.0,294710.0
2026-04-07 17:52:30.355652,261277,1420719592,1420721632,-1.091168,-0.105408,-0.115168,5.10125,9.8175,1.51375,37.496002,15.704,29.968002,eccentric,5,3.0,19810.0,301807.0,276106.0,330718.0,294710.0
2026-04-07 17:52:30.358146,261278,1420734187,1420734507,-1.091168,-0.105408,-0.115168,0.595,8.4,1.09375,38.248,15.704,29.968002,eccentric,5,3.0,19810.0,301807.0,276106.0,330718.0,294710.0
2026-04-07 17:52:30.359885,261279,1420743391,1420745248,-1.08336,-0.08784,-0.142496,1.18125,6.335,1.63625,38.488003,15.688001,30.048002,eccentric,5,3.0,19810.0,301807.0,276106.0,330718.0,294710.0
2026-04-07 17:52:30.361439,261280,1420752410,1420754031,-1.08336,-0.08784,-0.142496,5.355,2.80875,2.00375,38.488003,15.688001,30.048002,eccentric,5,3.0,19810.0,301807.0,276106.0,330718.0,294710.0
2026-04-07 17:52:30.396891,261281,1420766899,1420769024,-1.026752,-0.02928,-0.197152,10.91125,-0.21875,1.26,37.024002,15.184001,32.328003,eccentric,5,3.0,19810.0,301807.0,276106.0,330718.0,294710.0
2026-04-07 17:52:30.402980,261282,1420775815,1420777766,-1.026752,-0.02928,-0.197152,16.03,-3.5525,-1.12,37.024002,15.184001,32.328003,eccentric,5,3.0,19810.0,301807.0,276106.0,330718.0,294710.0
2026-04-07 17:52:30.426512,261292,1420785099,1420786525,-0.997472,-0.013664,-0.181536,16.9925,-7.37625,-3.7975,38.048,15.496,30.520002,eccentric,5,3.0,19907.0,302701.0,276914.0,331445.0,295071.0
2026-04-07 17:52:30.430930,261293,1420794083,1420795220,-0.997472,-0.013664,-0.181536,19.57375,-8.95125,-4.655,38.048,15.496,30.520002,eccentric,5,3.0,19907.0,302701.0,276914.0,331445.0,295071.0
2026-04-07 17:52:30.432381,261294,1420808619,1420810179,-1.079456,-0.017568,-0.011712,26.32875,-7.69125,-4.20875,37.600002,14.928,32.0,eccentric,5,3.0,19907.0,302701.0,276914.0,331445.0,295071.0
2026-04-07 17:52:30.433929,261295,1420817582,1420818910,-1.079456,-0.017568,-0.011712,25.59375,-6.23875,-4.1475,37.600002,14.928,32.0,eccentric,5,3.0,19907.0,302701.0,276914.0,331445.0,295071.0
2026-04-07 17:52:30.441834,261296,1420826548,1420827674,-1.106784,-0.070272,0.040992,18.1825,-4.03375,-4.08625,37.864002,15.216001,31.696001,eccentric,5,3.0,19907.0,302701.0,276914.0,331445.0,295071.0
2026-04-07 17:52:30.470307,261297,1420841100,1420842574,-1.104832,-0.081984,-0.017568,12.81,-0.595,-2.9225,38.136,15.472001,30.656002,eccentric,5,3.0,19907.0,302701.0,276914.0,331445.0,295071.0
2026-04-07 17:52:30.474884,261298,1420850108,1420851264,-1.104832,-0.081984,-0.017568,6.0025,2.135,0.28875,38.136,15.472001,30.656002,eccentric,5,3.0,19907.0,302701.0,276914.0,331445.0,295071.0
2026-04-07 17:52:30.476426,261299,1420859027,1420859930,-1.104832,-0.081984,-0.017568,1.645,5.25,1.1375,38.136,15.472001,30.656002,eccentric,5,3.0,19907.0,302701.0,276914.0,331445.0,295071.0
2026-04-07 17:52:30.482282,261300,1420873573,1420874924,-1.149728,-0.025376,-0.074176,2.98375,9.2575,1.39125,38.432003,15.456,30.632002,eccentric,5,3.0,19907.0,302701.0,276914.0,331445.0,295071.0
2026-04-07 17:52:30.512593,261301,1420882524,1420883625,-1.15168,0.003904,-0.138592,4.655,11.01625,0.805,38.152,14.872001,31.712002,eccentric,5,3.0,19907.0,302701.0,276914.0,331445.0,295071.0
2026-04-07 17:52:30.545664,261312,1420891525,1420892433,-1.15168,0.003904,-0.138592,5.99375,12.25,0.44625,38.152,14.872001,31.712002,eccentric,5,3.0,19833.0,301978.0,276246.0,330536.0,294250.0
2026-04-07 17:52:30.547379,261313,1420900444,1420901163,-1.194624,-0.046848,-0.099552,7.34125,12.18875,-0.06125,38.152,14.568001,31.536001,eccentric,5,3.0,19833.0,301978.0,276246.0,330536.0,294250.0
2026-04-07 17:52:30.549840,261314,1420915483,1420916155,-1.194624,-0.046848,-0.099552,8.56625,10.94625,-0.7875,38.712,14.568001,31.536001,eccentric,5,3.0,19833.0,301978.0,276246.0,330536.0,294250.0
2026-04-07 17:52:30.552343,261315,1420924883,1420926977,-1.16144,-0.105408,-0.099552,7.4025,8.98625,-1.05875,38.488003,14.752001,31.712002,eccentric,5,3.0,19833.0,301978.0,276246.0,330536.0,294250.0
2026-04-07 17:52:30.553922,261316,1420933845,1420935747,-1.16144,-0.105408,-0.099552,5.69625,7.5075,0.1925,38.488003,14.752001,31.712002,eccentric,5,3.0,19833.0,301978.0,276246.0,330536.0,294250.0
2026-04-07 17:52:30.560728,261317,1420948362,1420950669,-1.18096,-0.08784,-0.109312,6.36125,6.1075,1.49625,39.208,14.704,30.896002,eccentric,5,3.0,19833.0,301978.0,276246.0,330536.0,294250.0
2026-04-07 17:52:30.596315,261318,1420957313,1420959391,-1.18096,-0.08784,-0.109312,8.33875,6.06375,2.89625,39.208,14.704,30.896002,eccentric,5,3.0,19833.0,301978.0,276246.0,330536.0,294250.0
2026-04-07 17:52:30.598509,261319,1420966230,1420968061,-1.22,-0.064416,-0.072224,11.06,6.13375,4.7075,39.624,14.448001,30.736002,eccentric,5,3.0,19833.0,301978.0,276246.0,330536.0,294250.0
2026-04-07 17:52:30.603217,261320,1420975154,1420976753,-1.22,-0.064416,-0.072224,12.46875,4.64625,7.49,39.624,14.448001,30.736002,eccentric,5,3.0,19833.0,301978.0,276246.0,330536.0,294250.0
2026-04-07 17:52:30.660121,261330,1420989837,1420991766,-1.221952,-0.066368,-0.06832,13.97375,4.29625,10.49125,39.384003,14.008,30.864002,eccentric,5,3.0,20151.0,305041.0,278980.0,333297.0,296296.0
2026-04-07 17:52:30.664541,261331,1420998833,1421000466,-1.221952,-0.066368,-0.06832,15.44375,4.57625,14.21875,39.384003,14.008,30.864002,eccentric,5,3.0,20151.0,305041.0,278980.0,333297.0,296296.0
2026-04-07 17:52:30.666655,261332,1421007784,1421009177,-1.16144,-0.0976,-0.085888,10.73625,3.91125,15.408751,39.952003,13.416,29.384,eccentric,5,3.0,20151.0,305041.0,278980.0,333297.0,296296.0
2026-04-07 17:52:30.667817,261333,1421022288,1421024129,-1.134112,-0.056608,-0.083936,5.10125,3.77125,16.44125,40.808002,13.8,31.176,eccentric,5,3.0,20151.0,305041.0,278980.0,333297.0,296296.0
2026-04-07 17:52:30.671904,261334,1421031268,1421032822,-1.134112,-0.056608,-0.083936,3.5525,4.0075,18.025,40.808002,13.8,31.176,eccentric,5,3.0,20151.0,305041.0,278980.0,333297.0,296296.0
2026-04-07 17:52:30.673613,261335,1421040197,1421041480,-1.134112,-0.056608,-0.083936,4.025,3.4125,19.1975,40.808002,13.8,31.176,eccentric,5,3.0,20151.0,305041.0,278980.0,333297.0,296296.0
2026-04-07 17:52:30.675284,261336,1421054687,1421056441,-1.136064,0.005856,-0.119072,6.32625,2.80875,20.92125,40.872,13.352,31.488,eccentric,5,3.0,20151.0,305041.0,278980.0,333297.0,296296.0
2026-04-07 17:52:30.679253,261337,1421063648,1421065142,-1.163392,0.0,-0.064416,9.02125,2.75625,22.4875,40.344,12.848001,32.376003,eccentric,5,3.0,20151.0,305041.0,278980.0,333297.0,296296.0
2026-04-07 17:52:30.682220,261338,1421072581,1421073905,-1.163392,0.0,-0.064416,12.15375,2.28375,22.65375,40.344,12.848001,32.376003,eccentric,5,3.0,20151.0,305041.0,278980.0,333297.0,296296.0
2026-04-07 17:52:30.713043,261339,1421081490,1421082606,-1.179008,-0.02928,-0.095648,13.46625,1.8375,22.1725,41.736004,12.728001,31.480001,eccentric,5,3.0,20151.0,305041.0,278980.0,333297.0,296296.0
2026-04-07 17:52:30.741548,261349,1421096068,1421097598,-1.179008,-0.02928,-0.095648,12.64375,0.9275,20.60625,41.736004,12.728001,31.480001,eccentric,5,3.0,21016.0,313089.0,285355.0,339073.0,300352.0
2026-04-07 17:52:30.746390,261350,1421104994,1421106317,-1.157536,-0.027328,-0.07808,13.95625,0.67375,20.92125,41.72,12.360001,31.160002,eccentric,5,3.0,21016.0,313089.0,285355.0,339073.0,300352.0
2026-04-07 17:52:30.748888,261351,1421113906,1421115025,-1.157536,-0.027328,-0.07808,12.99375,-0.1225,22.085001,41.72,12.360001,31.160002,eccentric,5,3.0,21016.0,313089.0,285355.0,339073.0,300352.0
2026-04-07 17:52:30.751784,261352,1421128408,1421129926,-1.11264,-0.0488,-0.072224,8.3125,-0.69125,22.47,41.864002,12.040001,30.392002,eccentric,5,3.0,21016.0,313089.0,285355.0,339073.0,300352.0
2026-04-07 17:52:30.754822,261353,1421137381,1421138684,-1.11264,-0.0488,-0.072224,5.85375,-0.9975,23.31875,41.864002,12.040001,30.392002,eccentric,5,3.0,21016.0,313089.0,285355.0,339073.0,300352.0
2026-04-07 17:52:30.757148,261354,1421146307,1421147412,-1.0736,-0.003904,-0.081984,6.09875,-1.49625,25.57625,42.304,11.488001,32.472,eccentric,5,3.0,21016.0,313089.0,285355.0,339073.0,300352.0
2026-04-07 17:52:30.786601,261355,1421160794,1421162370,-1.0736,-0.003904,-0.01952,6.39625,-0.035,24.45625,42.304,11.488001,32.472,eccentric,5,3.0,21016.0,313089.0,285355.0,339073.0,300352.0
2026-04-07 17:52:30.790155,261356,1421169712,1421171084,-1.104832,0.050752,-0.031232,8.6975,1.575,22.40875,42.72,11.608001,31.528002,eccentric,5,3.0,21016.0,313089.0,285355.0,339073.0,300352.0
2026-04-07 17:52:30.793635,261357,1421178610,1421179765,-1.104832,0.050752,-0.031232,9.49375,1.9075,20.53625,42.72,11.608001,31.528002,eccentric,5,3.0,21016.0,313089.0,285355.0,339073.0,300352.0
2026-04-07 17:52:30.825844,261368,1421193303,1421194832,-1.09312,0.052704,-0.046848,6.4575,0.7875,19.145,42.904003,11.688001,31.232002,eccentric,5,3.0,21332.0,315203.0,286414.0,339045.0,299140.0
2026-04-07 17:52:30.827377,261369,1421202272,1421203614,-1.046272,0.017568,-0.111264,4.9875,-0.55125,18.73375,42.464,11.328,29.224,eccentric,5,3.0,21332.0,315203.0,286414.0,339045.0,299140.0
2026-04-07 17:52:30.829587,261370,1421211230,1421212299,-1.046272,0.017568,-0.111264,2.905,-2.3975,16.17,42.464,11.328,29.224,eccentric,5,3.0,21332.0,315203.0,286414.0,339045.0,299140.0
2026-04-07 17:52:30.832960,261371,1421220208,1421221041,-1.046272,0.017568,-0.111264,3.885,-2.6425,13.405,42.464,11.328,29.224,eccentric,5,3.0,21332.0,315203.0,286414.0,339045.0,299140.0
2026-04-07 17:52:30.895006,261372,1421234675,1421235952,-1.028704,-0.025376,-0.121024,6.83375,-1.0675,10.94625,42.800003,10.304001,34.504,eccentric,5,3.0,21332.0,315203.0,286414.0,339045.0,299140.0
2026-04-07 17:52:30.897268,261373,1421243574,1421244669,-1.089216,0.01952,-0.064416,8.82,-0.3675,10.01875,43.864002,10.376,32.16,eccentric,5,3.0,21332.0,315203.0,286414.0,339045.0,299140.0
2026-04-07 17:52:30.902086,261374,1421252558,1421253360,-1.089216,0.01952,-0.064416,10.73625,-1.18125,7.5425,43.864002,10.376,32.16,eccentric,5,3.0,21332.0,315203.0,286414.0,339045.0,299140.0
2026-04-07 17:52:30.903816,261375,1421266997,1421268305,-1.139968,0.08784,0.003904,13.9125,-0.4725,5.5825,43.528004,10.232,31.600002,eccentric,5,3.0,21332.0,315203.0,286414.0,339045.0,299140.0
2026-04-07 17:52:30.905273,261376,1421275884,1421276988,-1.139968,0.08784,0.003904,16.54625,0.0525,4.025,43.528004,10.232,31.600002,eccentric,5,3.0,21332.0,315203.0,286414.0,339045.0,299140.0
2026-04-07 17:52:30.909935,261377,1421284891,1421285671,-1.159488,0.017568,-0.03904,14.44625,-1.81125,3.54375,43.472004,10.072001,31.688002,eccentric,5,3.0,21332.0,315203.0,286414.0,339045.0,299140.0
2026-04-07 17:52:30.944161,261387,1421299461,1421300702,-1.159488,0.017568,-0.03904,8.56625,-3.59625,4.375,43.472004,10.072001,31.688002,eccentric,5,3.0,21728.0,318701.0,288977.0,341232.0,300879.0
2026-04-07 17:52:30.948209,261388,1421308509,1421309436,-1.130208,-0.03904,-0.083936,4.55,-4.24375,5.1625,43.840004,10.024,32.176003,eccentric,5,3.0,21728.0,318701.0,288977.0,341232.0,300879.0
2026-04-07 17:52:30.949915,261389,1421317500,1421318157,-1.130208,-0.03904,-0.083936,6.09875,-3.77125,5.11875,43.840004,10.024,32.176003,eccentric,5,3.0,21728.0,318701.0,288977.0,341232.0,300879.0
2026-04-07 17:52:30.951564,261390,1421326758,1421328906,-1.106784,-0.027328,-0.11712,7.6825,-2.17875,4.85625,43.408,10.360001,31.920002,eccentric,5,3.0,21728.0,318701.0,288977.0,341232.0,300879.0
2026-04-07 17:52:30.955503,261391,1421341270,1421341815,-1.106784,-0.027328,-0.11712,8.7325,-1.33,5.18,43.408,10.360001,31.920002,eccentric,5,3.0,21728.0,318701.0,288977.0,341232.0,300879.0
2026-04-07 17:52:30.961755,261392,1421350707,1421352605,-1.159488,0.035136,-0.042944,10.465,-0.105,5.66125,43.136,9.56,32.712,eccentric,5,3.0,21728.0,318701.0,288977.0,341232.0,300879.0
2026-04-07 17:52:30.991066,261393,1421359726,1421361313,-1.159488,0.035136,-0.042944,10.01875,1.3475,7.455,43.136,9.56,32.712,eccentric,5,3.0,21728.0,318701.0,288977.0,341232.0,300879.0
2026-04-07 17:52:30.995695,261394,1421374195,1421376195,-1.198528,-0.007808,-0.025376,4.96125,0.95375,9.6775,44.176003,9.784,31.680002,eccentric,5,3.0,21728.0,318701.0,288977.0,341232.0,300879.0
2026-04-07 17:52:30.997387,261395,1421383115,1421384866,-1.165344,-0.113216,-0.12688,-1.015,-0.65625,12.1975,43.896004,9.664001,31.880001,eccentric,5,3.0,21728.0,318701.0,288977.0,341232.0,300879.0
2026-04-07 17:52:31.021402,261405,1421392274,1421393844,-1.165344,-0.113216,-0.12688,-3.29875,-1.7325,14.98875,43.896004,9.664001,31.880001,eccentric,5,3.0,23183.0,330958.0,298758.0,352036.0,308452.0
2026-04-07 17:52:31.025680,261406,1421401279,1421402603,-1.165344,-0.113216,-0.12688,-0.21875,-2.8,18.025,43.896004,9.664001,31.880001,eccentric,5,3.0,23183.0,330958.0,298758.0,352036.0,308452.0
2026-04-07 17:52:31.028142,261407,1421415802,1421417528,-1.130208,-0.132736,-0.173728,7.2275,-3.17625,20.405,44.248,8.976001,33.512,eccentric,5,3.0,23183.0,330958.0,298758.0,352036.0,308452.0
2026-04-07 17:52:31.056568,261408,1421424740,1421426240,-1.097024,-0.03904,-0.124928,17.73625,-3.19375,22.12875,44.432003,8.440001,33.472,eccentric,5,3.0,23183.0,330958.0,298758.0,352036.0,308452.0
2026-04-07 17:52:31.061255,261409,1421433667,1421434949,-1.097024,-0.03904,-0.124928,24.47375,-2.30125,23.397501,44.432003,8.440001,33.472,eccentric,5,3.0,23183.0,330958.0,298758.0,352036.0,308452.0
2026-04-07 17:52:31.063507,261410,1421448160,1421449882,-1.071648,0.040992,-0.037088,27.405,-1.96,22.925,45.04,8.032001,32.688,eccentric,5,3.0,23183.0,330958.0,298758.0,352036.0,308452.0
2026-04-07 17:52:31.067881,261411,1421457073,1421458601,-1.071648,0.040992,-0.037088,25.31375,-0.7525,21.3675,45.04,8.032001,32.688,eccentric,5,3.0,23183.0,330958.0,298758.0,352036.0,308452.0
2026-04-07 17:52:31.097556,261412,1421466016,1421467326,-1.110688,0.080032,0.007808,18.43625,-0.0175,19.32875,45.392002,7.784,33.864002,eccentric,5,3.0,23183.0,330958.0,298758.0,352036.0,308452.0
2026-04-07 17:52:31.099801,261413,1421480515,1421482235,-1.110688,0.080032,0.007808,10.57875,0.65625,17.42125,45.392002,7.784,33.864002,eccentric,5,3.0,23183.0,330958.0,298758.0,352036.0,308452.0
2026-04-07 17:52:31.130199,261424,1421489886,1421490965,-1.157536,0.046848,-0.001952,5.0575,0.7875,15.04125,45.56,8.56,32.272003,eccentric,5,3.0,23791.0,336041.0,302668.0,356180.0,311532.0
2026-04-07 17:52:31.134450,261425,1421498922,1421499717,-1.157536,0.046848,-0.001952,3.01875,-0.2275,12.8625,45.56,8.56,32.272003,eccentric,5,3.0,23791.0,336041.0,302668.0,356180.0,311532.0
2026-04-07 17:52:31.136118,261426,1421508042,1421508473,-1.116544,-0.003904,-0.05856,4.8475,-1.3125,11.29625,44.792004,7.544,33.992,eccentric,5,3.0,23791.0,336041.0,302668.0,356180.0,311532.0
2026-04-07 17:52:31.137702,261427,1421522950,1421523395,-1.069696,-0.033184,-0.162016,7.35,-2.73,8.9075,44.792004,7.544,35.464,eccentric,5,3.0,23791.0,336041.0,302668.0,356180.0,311532.0
2026-04-07 17:52:31.142869,261428,1421532281,1421534186,-1.077504,-0.033184,-0.162016,8.8375,-3.15875,6.79,44.952003,7.296001,35.464,eccentric,5,3.0,23791.0,336041.0,302668.0,356180.0,311532.0
2026-04-07 17:52:31.194122,261429,1421541249,1421542885,-1.077504,-0.033184,-0.162016,7.65625,-3.15875,4.82125,44.952003,7.296001,35.464,eccentric,5,3.0,23791.0,336041.0,302668.0,356180.0,311532.0
2026-04-07 17:52:31.197593,261430,1421550207,1421551590,-1.104832,0.00976,-0.111264,4.7425,-2.135,3.45625,45.496002,7.672,35.176003,eccentric,5,3.0,23791.0,336041.0,302668.0,356180.0,311532.0
2026-04-07 17:52:31.200171,261431,1421564703,1421566525,-1.100928,0.07808,-0.046848,4.10375,-2.19625,1.98625,45.832,7.384,32.576,eccentric,5,3.0,23791.0,336041.0,302668.0,356180.0,311532.0
2026-04-07 17:52:31.202597,261432,1421573607,1421575222,-1.100928,0.07808,-0.046848,4.1125,-1.68875,1.32125,45.832,7.384,32.576,eccentric,5,3.0,23791.0,336041.0,302668.0,356180.0,311532.0
2026-04-07 17:52:31.205165,261433,1421582540,1421583858,-1.100928,0.07808,-0.046848,2.93125,-0.88375,0.9275,45.832,7.384,32.576,eccentric,5,3.0,23791.0,336041.0,302668.0,356180.0,311532.0
2026-04-07 17:52:31.230785,261443,1421597418,1421599414,-1.134112,0.070272,-0.003904,-0.49875,-0.5075,0.9275,45.696003,7.096,32.904003,eccentric,5,3.0,23870.0,336884.0,303423.0,357180.0,312316.0
2026-04-07 17:52:31.232614,261444,1421606381,1421608155,-1.14192,0.07808,-0.001952,-4.55875,-0.98875,-0.20125,44.856003,6.784,34.760002,eccentric,5,3.0,23870.0,336884.0,303423.0,357180.0,312316.0
2026-04-07 17:52:31.235147,261445,1421615372,1421616883,-1.14192,0.07808,-0.001952,-5.08375,-1.42625,-2.065,44.856003,6.784,34.760002,eccentric,5,3.0,23870.0,336884.0,303423.0,357180.0,312316.0
2026-04-07 17:52:31.238968,261446,1421629953,1421631818,-1.10288,0.080032,-0.081984,-4.78625,-1.085,-3.8675,45.048,7.464,34.664,eccentric,5,3.0,23870.0,336884.0,303423.0,357180.0,312316.0
2026-04-07 17:52:31.268996,261447,1421638926,1421640566,-1.10288,0.080032,-0.081984,-8.505,-0.42875,-5.76625,45.048,7.464,34.664,eccentric,5,3.0,23870.0,336884.0,303423.0,357180.0,312316.0
2026-04-07 17:52:31.272703,261448,1421647906,1421649273,-1.10288,0.031232,-0.091744,-14.752501,0.28875,-7.1225,45.872,6.888001,32.472,eccentric,5,3.0,23870.0,336884.0,303423.0,357180.0,312316.0
2026-04-07 17:52:31.275161,261449,1421656829,1421657908,-1.10288,0.031232,-0.091744,-16.555,0.14,-6.1075,45.872,6.888001,32.472,eccentric,5,3.0,23870.0,336884.0,303423.0,357180.0,312316.0
2026-04-07 17:52:31.292698,261450,1421671332,1421672840,-1.124352,0.01952,-0.085888,-14.42875,0.07,-4.375,45.632004,7.112001,32.792,eccentric,5,3.0,23870.0,336884.0,303423.0,357180.0,312316.0
2026-04-07 17:52:31.295131,261451,1421680277,1421681541,-1.124352,0.01952,-0.085888,-8.61875,-0.25375,-2.7125,45.632004,7.112001,32.792,eccentric,5,3.0,23870.0,336884.0,303423.0,357180.0,312316.0
2026-04-07 17:52:31.322624,261461,1421689299,1421690350,-1.114592,0.070272,-0.060512,-3.68375,0.09625,-1.12875,45.744003,7.448,33.104,eccentric,5,3.0,23888.0,337359.0,303850.0,357818.0,312825.0
2026-04-07 17:52:31.325245,261462,1421704001,1421705319,-1.130208,0.099552,-0.05856,-1.04125,0.67375,-1.1025,45.744003,6.752,33.568,eccentric,5,3.0,23888.0,337359.0,303850.0,357818.0,312825.0
2026-04-07 17:52:31.327696,261463,1421713051,1421714018,-1.130208,0.099552,-0.05856,-2.31,0.70875,-2.17875,46.088,6.752,33.568,eccentric,5,3.0,23888.0,337359.0,303850.0,357818.0,312825.0
2026-04-07 17:52:31.330146,261464,1421722072,1421722759,-1.130208,0.099552,-0.05856,-3.29,0.70875,-2.31,46.088,6.752,33.568,eccentric,5,3.0,23888.0,337359.0,303850.0,357818.0,312825.0
2026-04-07 17:52:31.360330,261465,1421731413,1421733510,-1.136064,0.122976,-0.033184,-3.3425,0.5425,-3.35125,45.800003,6.712,34.088,eccentric,5,3.0,23888.0,337359.0,303850.0,357818.0,312825.0
2026-04-07 17:52:31.363970,261466,1421745974,1421746375,-1.118496,0.070272,-0.064416,-0.385,-0.69125,-3.64875,46.024002,7.392,33.280003,eccentric,5,3.0,23888.0,337359.0,303850.0,357818.0,312825.0
2026-04-07 17:52:31.367212,261467,1421755240,1421757149,-1.118496,0.070272,-0.064416,1.785,-1.61,-3.605,46.024002,7.392,33.280003,eccentric,5,3.0,23888.0,337359.0,303850.0,357818.0,312825.0
2026-04-07 17:52:31.375530,261468,1421764176,1421765910,-1.126304,0.02928,-0.0976,2.51125,-1.32125,-2.89625,46.024002,7.392,33.408,eccentric,5,3.0,23888.0,337359.0,303850.0,357818.0,312825.0
2026-04-07 17:52:31.404092,261469,1421778701,1421780806,-1.126304,0.02928,-0.0976,3.26375,-1.16375,-2.68625,46.208004,6.784,33.408,eccentric,5,3.0,23888.0,337359.0,303850.0,357818.0,312825.0
2026-04-07 17:52:31.436426,261480,1421787629,1421789944,-1.143872,0.072224,-0.074176,6.95625,-0.2975,-3.1675,45.952003,6.896,33.072002,eccentric,5,3.0,23583.0,334528.0,301456.0,355125.0,310563.0
2026-04-07 17:52:31.440626,261481,1421796582,1421798802,-1.143872,0.072224,-0.074176,9.7475,0.34125,-3.6925,45.952003,6.896,33.072002,eccentric,5,3.0,23583.0,334528.0,301456.0,355125.0,310563.0
2026-04-07 17:52:31.442276,261482,1421811133,1421811705,-1.128256,0.085888,-0.027328,12.01375,-0.04375,-3.00125,45.568,6.368001,33.752003,eccentric,5,3.0,23583.0,334528.0,301456.0,355125.0,310563.0
2026-04-07 17:52:31.443870,261483,1421820351,1421822512,-1.128256,0.085888,-0.027328,12.45125,-0.91875,-1.68875,45.568,6.368001,33.752003,eccentric,5,3.0,23583.0,334528.0,301456.0,355125.0,310563.0
2026-04-07 17:52:31.448114,261484,1421829358,1421831216,-1.139968,0.040992,-0.046848,10.01,-1.1025,0.2625,45.52,7.024,34.256,eccentric,5,3.0,23583.0,334528.0,301456.0,355125.0,310563.0
2026-04-07 17:52:31.449697,261485,1421838312,1421839969,-1.139968,0.040992,-0.046848,6.50125,-0.245,1.07625,45.52,7.024,34.256,eccentric,5,3.0,23583.0,334528.0,301456.0,355125.0,310563.0
2026-04-07 17:52:31.498798,261486,1421852794,1421854928,-1.147776,0.025376,-0.054656,6.5975,0.2975,2.35375,45.832,6.440001,35.36,eccentric,5,3.0,23583.0,334528.0,301456.0,355125.0,310563.0
2026-04-07 17:52:31.501006,261487,1421861724,1421863619,-1.147776,0.025376,-0.054656,8.58375,0.53375,3.745,45.832,6.440001,35.36,eccentric,5,3.0,23583.0,334528.0,301456.0,355125.0,310563.0
2026-04-07 17:52:31.503927,261488,1421870657,1421872316,-1.128256,0.037088,-0.044896,8.8375,0.945,5.18875,46.08,6.728,33.464,eccentric,5,3.0,23583.0,334528.0,301456.0,355125.0,310563.0
2026-04-07 17:52:31.508218,261489,1421885141,1421887207,-1.149728,0.054656,-0.025376,7.8225,1.37375,6.29125,45.968002,6.296001,33.16,eccentric,5,3.0,23583.0,334528.0,301456.0,355125.0,310563.0
2026-04-07 17:52:31.531423,261499,1421894208,1421896044,-1.149728,0.054656,-0.025376,7.49875,2.31,6.60625,45.968002,6.296001,33.16,eccentric,5,3.0,23511.0,333330.0,300280.0,353603.0,309275.0
2026-04-07 17:52:31.535631,261500,1421903210,1421904858,-1.149728,0.054656,-0.025376,7.39375,3.29875,5.67875,45.968002,6.296001,33.16,eccentric,5,3.0,23511.0,333330.0,300280.0,353603.0,309275.0
2026-04-07 17:52:31.537347,261501,1421917725,1421919819,-1.143872,0.0976,-0.007808,5.10125,3.99875,3.59625,45.136,6.08,32.032,eccentric,5,3.0,23511.0,333330.0,300280.0,353603.0,309275.0
2026-04-07 17:52:31.538889,261502,1421926656,1421928502,-1.169248,0.037088,-0.066368,3.17625,4.68125,2.10875,45.344,6.024,33.936,eccentric,5,3.0,23511.0,333330.0,300280.0,353603.0,309275.0
2026-04-07 17:52:31.546764,261503,1421935636,1421937261,-1.169248,0.037088,-0.066368,2.345,4.76875,2.28375,45.344,6.024,33.936,eccentric,5,3.0,23511.0,333330.0,300280.0,353603.0,309275.0
2026-04-07 17:52:31.575412,261504,1421944579,1421945965,-1.169248,-0.025376,-0.101504,1.26875,4.3225,3.21125,45.344,6.024,33.936,eccentric,5,3.0,23511.0,333330.0,300280.0,353603.0,309275.0
2026-04-07 17:52:31.579782,261505,1421959129,1421960852,-1.126304,-0.02928,-0.101504,3.1325,4.83,3.395,45.992,6.472,32.328003,eccentric,5,3.0,23511.0,333330.0,300280.0,353603.0,309275.0
2026-04-07 17:52:31.582156,261506,1421968030,1421969565,-1.11264,0.037088,-0.081984,8.5925,5.32875,2.61625,46.472004,6.12,33.344,eccentric,5,3.0,23511.0,333330.0,300280.0,353603.0,309275.0
2026-04-07 17:52:31.585897,261507,1421976974,1421978273,-1.11264,0.037088,-0.081984,13.3525,6.0375,2.17875,46.472004,6.12,33.344,eccentric,5,3.0,23511.0,333330.0,300280.0,353603.0,309275.0
2026-04-07 17:52:31.640662,261517,1421991987,1421993327,-1.110688,0.076128,-0.054656,12.285,5.81,1.4,46.216003,5.960001,33.368,eccentric,5,3.0,23312.0,331172.0,298310.0,351130.0,307157.0
2026-04-07 17:52:31.642293,261518,1422001036,1422002074,-1.110688,0.076128,-0.054656,6.34375,5.48625,0.77875,46.216003,5.960001,33.368,eccentric,5,3.0,23312.0,331172.0,298310.0,351130.0,307157.0
2026-04-07 17:52:31.644831,261519,1422009972,1422010769,-1.106784,0.080032,-0.031232,1.25125,5.06625,0.63,45.928,6.184001,33.368,eccentric,5,3.0,23312.0,331172.0,298310.0,351130.0,307157.0
2026-04-07 17:52:31.646313,261520,1422018907,1422019537,-1.106784,0.080032,-0.031232,-2.49375,6.3,0.16625,45.928,6.184001,33.368,eccentric,5,3.0,23312.0,331172.0,298310.0,351130.0,307157.0
2026-04-07 17:52:31.650912,261521,1422033702,1422034497,-1.085312,0.021472,-0.054656,-5.7925,7.49875,-1.75,45.784,5.976,34.656002,eccentric,5,3.0,23312.0,331172.0,298310.0,351130.0,307157.0
2026-04-07 17:52:31.656807,261522,1422043141,1422045258,-1.085312,0.021472,-0.054656,-8.12,8.4525,-1.96875,45.784,5.976,34.656002,eccentric,5,3.0,23312.0,331172.0,298310.0,351130.0,307157.0
2026-04-07 17:52:31.685280,261523,1422052085,1422053958,-1.095072,-0.054656,-0.0976,-9.52,8.40875,-1.18125,45.960003,5.864,32.024002,eccentric,5,3.0,23312.0,331172.0,298310.0,351130.0,307157.0
2026-04-07 17:52:31.688940,261524,1422066575,1422066903,-1.08336,0.007808,-0.091744,-5.7225,7.81375,-0.39375,46.488003,5.68,32.24,eccentric,5,3.0,23312.0,331172.0,298310.0,351130.0,307157.0
2026-04-07 17:52:31.691407,261525,1422075756,1422077664,-1.08336,0.007808,-0.091744,1.81125,8.2075,-0.595,46.488003,5.68,32.24,eccentric,5,3.0,23312.0,331172.0,298310.0,351130.0,307157.0
2026-04-07 17:52:31.693778,261526,1422084651,1422086340,-1.08336,0.007808,-0.091744,7.58625,9.45,-3.00125,46.488003,5.68,32.24,eccentric,5,3.0,23312.0,331172.0,298310.0,351130.0,307157.0
2026-04-07 17:52:31.725150,261537,1422094372,1422095198,-1.126304,0.076128,-0.054656,7.98875,9.59875,-4.725,46.664,6.224001,33.08,eccentric,5,3.0,23144.0,329310.0,296717.0,349241.0,305621.0
2026-04-07 17:52:31.727671,261538,1422108990,1422110219,-1.153632,0.042944,-0.037088,4.85625,9.19625,-5.67875,45.608,5.824,34.352,eccentric,5,3.0,23144.0,329310.0,296717.0,349241.0,305621.0
2026-04-07 17:52:31.730156,261539,1422117877,1422118915,-1.153632,0.042944,-0.037088,1.14625,9.24,-6.1075,45.608,5.824,34.352,eccentric,5,3.0,23144.0,329310.0,296717.0,349241.0,305621.0
2026-04-07 17:52:31.736407,261540,1422126804,1422127610,-1.134112,-0.025376,-0.074176,-0.53375,9.42375,-7.35,45.808002,5.752,33.824,eccentric,5,3.0,23144.0,329310.0,296717.0,349241.0,305621.0
2026-04-07 17:52:31.794143,261541,1422141282,1422142572,-1.134112,-0.025376,-0.074176,-0.27125,9.9575,-9.09125,45.808002,5.752,33.824,concentric,5,3.0,23144.0,329310.0,296717.0,349241.0,305621.0
2026-04-07 17:52:31.797686,261542,1422150184,1422151293,-1.182912,0.01952,-0.080032,0.035,10.98125,-10.84125,45.856003,5.944,32.52,concentric,5,3.0,23144.0,329310.0,296717.0,349241.0,305621.0
2026-04-07 17:52:31.801791,261543,1422159097,1422159970,-1.182912,0.01952,-0.080032,1.56625,11.235,-12.0225,45.856003,5.944,32.52,concentric,5,3.0,23144.0,329310.0,296717.0,349241.0,305621.0
2026-04-07 17:52:31.802582,261544,1422168017,1422168704,-1.28832,0.033184,-0.072224,4.22625,11.06875,-11.935,46.312004,5.824,32.664,concentric,5,3.0,23144.0,329310.0,296717.0,349241.0,305621.0
2026-04-07 17:52:31.805121,261545,1422182881,1422183590,-1.28832,0.033184,-0.072224,6.7725,10.00125,-9.0825,46.312004,5.824,32.664,concentric,5,3.0,23144.0,329310.0,296717.0,349241.0,305621.0
2026-04-07 17:52:31.833841,261555,1422192223,1422194492,-1.257088,-0.025376,-0.111264,10.84125,8.7325,-6.27375,46.424004,6.856,32.488003,concentric,5,3.0,22408.0,323160.0,291809.0,344011.0,301669.0
2026-04-07 17:52:31.836309,261556,1422201267,1422203387,-1.257088,-0.025376,-0.111264,13.230001,7.88375,-5.80125,46.424004,6.856,32.488003,concentric,5,3.0,22408.0,323160.0,291809.0,344011.0,301669.0
2026-04-07 17:52:31.838888,261557,1422215768,1422216299,-1.208288,-0.005856,-0.07808,11.50625,9.24,-5.90625,45.440002,6.56,33.304,concentric,5,3.0,22408.0,323160.0,291809.0,344011.0,301669.0
2026-04-07 17:52:31.841482,261558,1422225164,1422227119,-1.208288,-0.005856,-0.07808,9.5025,9.3625,-6.09,45.440002,6.56,33.304,concentric,5,3.0,22408.0,323160.0,291809.0,344011.0,301669.0
2026-04-07 17:52:31.843772,261559,1422234128,1422235882,-1.260992,0.040992,-0.101504,8.6975,9.1525,-7.14,45.976,6.312,31.368002,concentric,5,3.0,22408.0,323160.0,291809.0,344011.0,301669.0
2026-04-07 17:52:31.874089,261560,1422243080,1422244672,-1.260992,0.040992,-0.101504,8.54875,7.32375,-7.49875,45.976,6.312,31.368002,concentric,5,3.0,22408.0,323160.0,291809.0,344011.0,301669.0
2026-04-07 17:52:31.877690,261561,1422257563,1422259566,-1.276608,0.056608,-0.091744,10.045,7.06125,-5.5125,46.144,6.488,32.624,concentric,5,3.0,22408.0,323160.0,291809.0,344011.0,301669.0
2026-04-07 17:52:31.880133,261562,1422266488,1422268251,-1.202432,-0.00976,-0.040992,7.63875,6.4925,-3.4825,45.608,6.624001,32.088,concentric,5,3.0,22408.0,323160.0,291809.0,344011.0,301669.0
2026-04-07 17:52:31.885168,261563,1422275417,1422276936,-1.202432,-0.00976,-0.040992,0.5425,4.89125,-3.94625,45.608,6.624001,32.088,concentric,5,3.0,22408.0,323160.0,291809.0,344011.0,301669.0
2026-04-07 17:52:31.927803,261564,1422289932,1422291874,-1.175104,0.044896,-0.027328,-1.47875,4.4975,-7.00875,45.392002,6.504,32.568,concentric,5,3.0,22408.0,323160.0,291809.0,344011.0,301669.0
2026-04-07 17:52:31.953811,261574,1422298886,1422300619,-1.175104,0.044896,-0.027328,3.605,4.68125,-10.26375,45.392002,6.504,32.568,concentric,5,3.0,21883.0,318045.0,287622.0,339167.0,297574.0
2026-04-07 17:52:31.956358,261575,1422307831,1422309352,-1.194624,0.132736,-0.05856,5.80125,5.635,-12.2675,45.632004,6.944,33.120003,concentric,5,3.0,21883.0,318045.0,287622.0,339167.0,297574.0
2026-04-07 17:52:31.958929,261576,1422322351,1422324241,-1.194624,0.132736,-0.05856,3.08875,6.3,-15.6625,45.632004,6.944,33.120003,concentric,5,3.0,21883.0,318045.0,287622.0,339167.0,297574.0
2026-04-07 17:52:31.961364,261577,1422331302,1422332974,-1.218048,0.124928,-0.095648,0.44625,7.58625,-17.45625,45.4,6.960001,33.2,concentric,5,3.0,21883.0,318045.0,287622.0,339167.0,297574.0
2026-04-07 17:52:31.963950,261578,1422340258,1422341741,-1.218048,0.124928,-0.095648,-0.44625,9.23125,-17.42125,45.4,6.960001,33.2,concentric,5,3.0,21883.0,318045.0,287622.0,339167.0,297574.0
2026-04-07 17:52:31.966404,261579,1422349248,1422350477,-1.21024,0.037088,0.033184,-2.765,11.87375,-16.63375,45.408,7.328001,33.216003,concentric,5,3.0,21883.0,318045.0,287622.0,339167.0,297574.0
2026-04-07 17:52:31.997451,261580,1422363839,1422365442,-1.21024,0.037088,0.033184,-4.4625,12.495,-18.24375,45.408,7.328001,33.216003,concentric,5,3.0,21883.0,318045.0,287622.0,339167.0,297574.0
2026-04-07 17:52:31.999791,261581,1422372756,1422374142,-1.149728,-0.015616,-0.066368,-7.77875,9.87,-21.4725,44.832,7.792,32.144,concentric,5,3.0,21883.0,318045.0,287622.0,339167.0,297574.0
2026-04-07 17:52:32.004435,261582,1422381704,1422382857,-1.149728,-0.015616,-0.066368,-12.01375,7.86625,-23.1875,44.832,7.792,32.144,concentric,5,3.0,21883.0,318045.0,287622.0,339167.0,297574.0
2026-04-07 17:52:32.030988,261593,1422396982,1422397940,-1.128256,0.132736,-0.144448,-9.26625,6.81625,-25.6025,44.832,8.208,31.840002,concentric,5,3.0,21222.0,312181.0,283014.0,334210.0,293427.0
2026-04-07 17:52:32.034406,261594,1422405963,1422406690,-1.128256,0.132736,-0.144448,-3.77125,6.37875,-28.44625,44.832,8.208,31.840002,concentric,5,3.0,21222.0,312181.0,283014.0,334210.0,293427.0
2026-04-07 17:52:32.036114,261595,1422415342,1422417465,-1.098976,0.210816,-0.134688,-0.13125,6.44875,-30.2575,45.08,8.328,31.320002,concentric,5,3.0,21222.0,312181.0,283014.0,334210.0,293427.0
2026-04-07 17:52:32.037795,261596,1422424340,1422426119,-1.098976,0.210816,-0.134688,-0.53375,7.21,-30.7825,45.08,8.328,31.320002,concentric,5,3.0,21222.0,312181.0,283014.0,334210.0,293427.0
2026-04-07 17:52:32.095029,261597,1422438939,1422441037,-1.159488,0.138592,-0.001952,-3.15,8.25125,-30.00375,44.632004,8.784,32.256,concentric,5,3.0,21222.0,312181.0,283014.0,334210.0,293427.0
2026-04-07 17:52:32.097634,261598,1422447855,1422449722,-1.138016,0.062464,-0.011712,-5.43375,7.14875,-30.695,44.144,9.280001,32.552002,concentric,5,3.0,21222.0,312181.0,283014.0,334210.0,293427.0
2026-04-07 17:52:32.105759,261599,1422456827,1422458406,-1.138016,0.062464,-0.011712,-7.34125,5.0575,-34.2825,44.144,9.280001,32.552002,concentric,5,3.0,21222.0,312181.0,283014.0,334210.0,293427.0
2026-04-07 17:52:32.107748,261600,1422471325,1422473285,-1.169248,0.095648,-0.099552,-9.82625,4.10375,-37.30125,44.136,9.064,32.184002,concentric,5,3.0,21222.0,312181.0,283014.0,334210.0,293427.0
2026-04-07 17:52:32.108927,261601,1422480245,1422481992,-1.169248,0.095648,-0.099552,-8.74125,4.26125,-37.42375,44.136,9.064,32.184002,concentric,5,3.0,21222.0,312181.0,283014.0,334210.0,293427.0
2026-04-07 17:52:32.113137,261602,1422489183,1422490708,-1.177056,0.171776,-0.119072,-7.04375,4.22625,-38.2025,43.24,10.400001,31.680002,concentric,5,3.0,21222.0,312181.0,283014.0,334210.0,293427.0
2026-04-07 17:52:32.136416,261612,1422503776,1422505675,-1.177056,0.171776,-0.119072,-6.58875,4.90875,-36.21625,43.24,10.400001,31.680002,concentric,5,3.0,20845.0,309303.0,280954.0,332791.0,293457.0
2026-04-07 17:52:32.140601,261613,1422512737,1422514420,-1.208288,0.115168,-0.074176,-4.2,7.13125,-35.07875,43.320004,10.672001,33.064003,concentric,5,3.0,20845.0,309303.0,280954.0,332791.0,293457.0
2026-04-07 17:52:32.142425,261614,1422521748,1422523133,-1.208288,0.115168,-0.074176,-2.6425,8.58375,-35.245,43.320004,10.672001,33.064003,concentric,5,3.0,20845.0,309303.0,280954.0,332791.0,293457.0
2026-04-07 17:52:32.143924,261615,1422530849,1422531875,-1.245376,0.07808,0.0,-5.06625,7.49875,-35.3675,42.52,9.856001,32.864002,concentric,5,3.0,20845.0,309303.0,280954.0,332791.0,293457.0
2026-04-07 17:52:32.174958,261616,1422545363,1422546776,-1.245376,0.07808,0.0,-3.5875,6.5625,-36.02375,42.52,9.856001,32.864002,concentric,5,3.0,20845.0,309303.0,280954.0,332791.0,293457.0
2026-04-07 17:52:32.179541,261617,1422554360,1422555464,-1.266848,0.162016,-0.111264,-5.11875,3.71,-34.58,42.952003,11.256001,31.672,concentric,5,3.0,20845.0,309303.0,280954.0,332791.0,293457.0
2026-04-07 17:52:32.181021,261618,1422563386,1422564171,-1.266848,0.162016,-0.111264,-5.635,2.1525,-33.32875,42.952003,11.256001,31.672,concentric,5,3.0,20845.0,309303.0,280954.0,332791.0,293457.0
2026-04-07 17:52:32.188110,261619,1422577933,1422579104,-1.20048,0.17568,-0.10736,-4.82125,1.19,-35.27125,42.144,11.84,31.752,concentric,5,3.0,20845.0,309303.0,280954.0,332791.0,293457.0
2026-04-07 17:52:32.216583,261620,1422586886,1422587796,-1.20048,0.17568,-0.10736,-4.1475,0.84875,-37.47625,42.144,11.84,31.752,concentric,5,3.0,20845.0,309303.0,280954.0,332791.0,293457.0
2026-04-07 17:52:32.245187,261630,1422596357,1422597024,-1.177056,0.12688,-0.080032,-3.96375,1.6975,-39.61125,41.944,11.888001,32.896,concentric,5,3.0,20534.0,306726.0,279351.0,332612.0,295282.0
2026-04-07 17:52:32.249353,261631,1422605692,1422607888,-1.177056,0.12688,-0.080032,-5.6525,1.2075,-42.56,41.944,11.888001,32.896,concentric,5,3.0,20534.0,306726.0,279351.0,332612.0,295282.0
2026-04-07 17:52:32.251166,261632,1422620298,1422620795,-1.280512,0.132736,-0.042944,-3.7275,-0.81375,-43.16375,41.192,12.232,30.008001,concentric,5,3.0,20534.0,306726.0,279351.0,332612.0,295282.0
2026-04-07 17:52:32.252687,261633,1422629653,1422631602,-1.13216,0.115168,-0.08784,1.2775,-2.9925,-42.21,40.664,12.088,32.640003,concentric,5,3.0,20534.0,306726.0,279351.0,332612.0,295282.0
2026-04-07 17:52:32.256880,261634,1422638744,1422640354,-1.13216,0.115168,-0.08784,-1.5575,-5.46,-44.4675,40.664,12.088,32.640003,concentric,5,3.0,20534.0,306726.0,279351.0,332612.0,295282.0
2026-04-07 17:52:32.259457,261635,1422647725,1422649055,-1.13216,0.111264,-0.07808,-5.18875,-8.42625,-48.5275,40.664,12.088,32.640003,concentric,5,3.0,20534.0,306726.0,279351.0,332612.0,295282.0
2026-04-07 17:52:32.287869,261636,1422662237,1422663982,-1.130208,0.111264,-0.07808,-2.0475,-9.7825,-48.65875,40.176003,12.824,32.984,concentric,5,3.0,20534.0,306726.0,279351.0,332612.0,295282.0
2026-04-07 17:52:32.292361,261637,1422671216,1422672700,-1.194624,0.103456,-0.025376,1.40875,-10.5525,-46.61125,39.984,13.480001,31.840002,concentric,5,3.0,20534.0,306726.0,279351.0,332612.0,295282.0
2026-04-07 17:52:32.294713,261638,1422680146,1422681401,-1.194624,0.103456,-0.025376,4.0775,-10.78,-43.46125,39.984,13.480001,31.840002,concentric,5,3.0,20534.0,306726.0,279351.0,332612.0,295282.0
2026-04-07 17:52:32.348600,261648,1422695275,1422696288,-1.143872,0.005856,0.037088,6.9825,-9.6075,-40.88,39.336002,13.496,32.704002,concentric,5,3.0,20379.0,305557.0,278660.0,332459.0,295633.0
2026-04-07 17:52:32.350606,261649,1422704253,1422705055,-1.143872,0.005856,0.037088,5.425,-9.345,-39.76875,39.336002,13.496,32.704002,concentric,5,3.0,20379.0,305557.0,278660.0,332459.0,295633.0
2026-04-07 17:52:32.354402,261650,1422713739,1422715882,-1.18096,0.10736,0.01952,3.535,-9.415,-38.482502,38.568,14.168,32.424,concentric,5,3.0,20379.0,305557.0,278660.0,332459.0,295633.0
2026-04-07 17:52:32.356101,261651,1422722663,1422724590,-1.18096,0.10736,0.01952,5.17125,-7.23625,-34.4925,38.568,14.168,32.424,concentric,5,3.0,20379.0,305557.0,278660.0,332459.0,295633.0
2026-04-07 17:52:32.357617,261652,1422737183,1422739490,-1.059936,0.113216,0.017568,2.1875,-4.87375,-35.39375,37.776,13.608001,34.320004,concentric,5,3.0,20379.0,305557.0,278660.0,332459.0,295633.0
2026-04-07 17:52:32.361767,261653,1422746171,1422748237,-1.059936,0.113216,0.017568,-6.965,-4.05125,-36.715,37.776,13.608001,34.320004,concentric,5,3.0,20379.0,305557.0,278660.0,332459.0,295633.0
2026-04-07 17:52:32.400661,261654,1422755104,1422756942,-1.134112,0.015616,-0.046848,-11.99625,-4.55875,-36.4,37.008003,13.912001,34.36,concentric,5,3.0,20379.0,305557.0,278660.0,332459.0,295633.0
2026-04-07 17:52:32.403153,261655,1422769589,1422771840,-1.059936,0.046848,-0.040992,-9.8525,-5.9675,-34.3875,37.512,14.912001,31.840002,concentric,5,3.0,20379.0,305557.0,278660.0,332459.0,295633.0
2026-04-07 17:52:32.403912,261656,1422778513,1422780548,-1.059936,0.046848,-0.040992,-4.8475,-9.40625,-34.62375,37.512,14.912001,31.840002,concentric,5,3.0,20379.0,305557.0,278660.0,332459.0,295633.0
2026-04-07 17:52:32.407926,261657,1422787453,1422789261,-1.059936,0.046848,-0.040992,4.96125,-10.605001,-34.825,37.512,14.912001,31.840002,concentric,5,3.0,20379.0,305557.0,278660.0,332459.0,295633.0
2026-04-07 17:52:32.436397,261668,1422802042,1422804301,-1.022848,0.06832,-0.064416,8.82,-11.80375,-35.2625,37.736,15.080001,32.16,concentric,5,3.0,20321.0,305313.0,278724.0,332926.0,296263.0
2026-04-07 17:52:32.438881,261669,1422811070,1422813098,-1.022848,0.0488,-0.007808,4.78625,-13.895,-36.82,36.136,14.728001,32.144,concentric,5,3.0,20321.0,305313.0,278724.0,332926.0,296263.0
2026-04-07 17:52:32.441501,261670,1422820041,1422821804,-1.022848,0.0488,-0.007808,3.91125,-15.295,-37.5725,36.136,14.728001,32.144,concentric,5,3.0,20321.0,305313.0,278724.0,332926.0,296263.0
2026-04-07 17:52:32.443869,261671,1422828996,1422830493,-0.987712,0.017568,0.0488,5.1625,-15.26875,-37.96625,36.056004,15.512001,32.24,concentric,5,3.0,20321.0,305313.0,278724.0,332926.0,296263.0
2026-04-07 17:52:32.474088,261672,1422843555,1422845450,-0.987712,0.017568,0.0488,7.37625,-13.335,-37.73875,36.056004,15.512001,32.24,concentric,5,3.0,20321.0,305313.0,278724.0,332926.0,296263.0
2026-04-07 17:52:32.477721,261673,1422852468,1422854156,-1.03456,-0.003904,0.042944,5.6525,-13.16875,-39.29625,35.280003,15.536001,32.632,concentric,5,3.0,20321.0,305313.0,278724.0,332926.0,296263.0
2026-04-07 17:52:32.483839,261674,1422861379,1422862849,-1.03456,-0.003904,0.042944,2.9925,-14.41125,-37.63375,35.280003,15.536001,32.632,concentric,5,3.0,20321.0,305313.0,278724.0,332926.0,296263.0
2026-04-07 17:52:32.486326,261675,1422875956,1422877777,-0.948672,-0.003904,-0.046848,-0.07,-15.5575,-34.81625,34.776,15.648001,32.920002,concentric,5,3.0,20321.0,305313.0,278724.0,332926.0,296263.0
2026-04-07 17:52:32.516596,261676,1422884935,1422886551,-0.948672,-0.003904,-0.046848,-5.24125,-17.57875,-33.39875,34.776,15.648001,32.920002,concentric,5,3.0,20321.0,305313.0,278724.0,332926.0,296263.0
2026-04-07 17:52:32.520196,261677,1422893884,1422895237,-0.938912,-0.02928,-0.093696,-8.435,-20.0375,-33.76625,34.296,15.208001,33.904003,concentric,5,3.0,20321.0,305313.0,278724.0,332926.0,296263.0
2026-04-07 17:52:32.545187,261687,1422908464,1422910199,-0.938912,-0.02928,-0.015616,-5.8975,-22.44375,-34.1775,34.296,15.208001,33.904003,concentric,5,3.0,20462.0,306825.0,279986.0,334319.0,297364.0
2026-04-07 17:52:32.547747,261688,1422917381,1422918922,-0.884256,-0.017568,-0.013664,0.55125,-23.21375,-34.107502,34.272003,15.888001,32.944,concentric,5,3.0,20462.0,306825.0,279986.0,334319.0,297364.0
2026-04-07 17:52:32.550160,261689,1422926335,1422927625,-0.884256,-0.017568,-0.013664,4.795,-22.95125,-32.4975,34.272003,15.888001,32.944,concentric,5,3.0,20462.0,306825.0,279986.0,334319.0,297364.0
2026-04-07 17:52:32.552620,261690,1422935334,1422936376,-0.940864,-0.027328,0.066368,7.28875,-22.40875,-31.19375,33.592003,16.008001,32.976,concentric,5,3.0,20462.0,306825.0,279986.0,334319.0,297364.0
2026-04-07 17:52:32.558938,261691,1422949813,1422951296,-0.864736,-0.02928,0.064416,5.46,-21.647501,-31.43,33.432003,16.024,33.152,concentric,5,3.0,20462.0,306825.0,279986.0,334319.0,297364.0
2026-04-07 17:52:32.589499,261692,1422958822,1422959982,-0.864736,-0.02928,0.064416,1.00625,-19.241251,-30.26625,33.432003,16.024,33.152,concentric,5,3.0,20462.0,306825.0,279986.0,334319.0,297364.0
2026-04-07 17:52:32.592607,261693,1422967743,1422968721,-0.864736,-0.02928,0.064416,-4.1475,-16.6425,-30.24,33.432003,16.024,33.152,concentric,5,3.0,20462.0,306825.0,279986.0,334319.0,297364.0
2026-04-07 17:52:32.595095,261694,1422982231,1422983653,-0.872544,-0.07808,0.023424,-9.695,-15.4,-30.12625,33.256,16.248001,33.208,concentric,5,3.0,20462.0,306825.0,279986.0,334319.0,297364.0
2026-04-07 17:52:32.600185,261695,1422991195,1422992361,-0.851072,-0.11712,-0.021472,-8.8725,-13.055,-26.22375,32.280003,15.976001,32.88,concentric,5,3.0,20462.0,306825.0,279986.0,334319.0,297364.0
2026-04-07 17:52:32.630207,261705,1423000266,1423001144,-0.851072,-0.11712,-0.021472,-9.0475,-14.56875,-24.40375,32.280003,15.976001,32.88,concentric,5,3.0,20585.0,308100.0,280985.0,334985.0,297653.0
2026-04-07 17:52:32.632723,261706,1423014774,1423016195,-0.827648,-0.066368,0.003904,-6.755,-14.62125,-21.27125,32.632,15.768001,32.960003,concentric,5,3.0,20585.0,308100.0,280985.0,334985.0,297653.0
2026-04-07 17:52:32.635192,261707,1423023722,1423024913,-0.827648,-0.066368,0.003904,0.13125,-13.51875,-20.06375,32.632,15.768001,32.960003,concentric,5,3.0,20585.0,308100.0,280985.0,334985.0,297653.0
2026-04-07 17:52:32.643005,261708,1423032708,1423033624,-0.825696,-0.10736,0.001952,3.84125,-12.81875,-19.71375,32.688,16.04,32.856003,concentric,5,3.0,20585.0,308100.0,280985.0,334985.0,297653.0
2026-04-07 17:52:32.695220,261709,1423041636,1423042333,-0.825696,-0.10736,0.001952,0.98875,-12.4425,-18.0075,32.688,16.04,32.856003,concentric,5,3.0,20585.0,308100.0,280985.0,334985.0,297653.0
2026-04-07 17:52:32.699023,261710,1423056483,1423057235,-0.796416,-0.255712,-0.033184,-3.255,-13.125,-15.855001,32.144,15.944001,32.496002,concentric,5,3.0,20585.0,308100.0,280985.0,334985.0,297653.0
2026-04-07 17:52:32.701066,261711,1423065817,1423068032,-0.796416,-0.255712,-0.033184,-6.3,-16.02125,-11.80375,32.144,15.944001,32.496002,concentric,5,3.0,20585.0,308100.0,280985.0,334985.0,297653.0
2026-04-07 17:52:32.703522,261712,1423074722,1423076708,-0.724192,-0.23424,-0.0976,-4.50625,-18.94375,-7.035,32.472,16.44,32.800003,concentric,5,3.0,20585.0,308100.0,280985.0,334985.0,297653.0
2026-04-07 17:52:32.705224,261713,1423089171,1423089565,-0.724192,-0.23424,-0.0976,4.725,-22.23375,-3.6575,32.472,16.44,32.800003,concentric,5,3.0,20585.0,308100.0,280985.0,334985.0,297653.0
2026-04-07 17:52:32.732684,261724,1423099086,1423100506,-0.774944,-0.085888,-0.081984,19.5825,-24.115,-0.98875,31.512001,16.184,32.472,concentric,5,3.0,20721.0,309337.0,281912.0,335778.0,298093.0
2026-04-07 17:52:32.736890,261725,1423108083,1423109265,-0.774944,-0.085888,-0.081984,28.95375,-27.098751,1.33,31.512001,16.184,32.472,concentric,5,3.0,20721.0,309337.0,281912.0,335778.0,298093.0
2026-04-07 17:52:32.738603,261726,1423116974,1423118061,-0.71248,-0.124928,0.007808,25.165,-29.7675,-1.4,31.728,16.208,33.216003,concentric,5,3.0,20721.0,309337.0,281912.0,335778.0,298093.0
2026-04-07 17:52:32.740689,261727,1423131474,1423132969,-0.700768,-0.201056,0.173728,20.1075,-29.1025,-4.375,31.896002,16.072,34.648003,concentric,5,3.0,20721.0,309337.0,281912.0,335778.0,298093.0
2026-04-07 17:52:32.771288,261728,1423140417,1423141744,-0.700768,-0.201056,0.173728,14.525,-24.07125,-2.345,31.896002,16.072,34.648003,concentric,5,3.0,20721.0,309337.0,281912.0,335778.0,298093.0
2026-04-07 17:52:32.775735,261729,1423149334,1423150431,-0.700768,-0.201056,0.173728,7.25375,-18.76,-0.07,31.896002,16.072,34.648003,concentric,5,3.0,20721.0,309337.0,281912.0,335778.0,298093.0
2026-04-07 17:52:32.777293,261730,1423163817,1423165317,-0.786656,-0.201056,0.140544,3.33375,-14.28,1.32125,31.920002,15.728001,34.064003,concentric,5,3.0,20721.0,309337.0,281912.0,335778.0,298093.0
2026-04-07 17:52:32.784207,261731,1423172771,1423174048,-0.776896,-0.142496,0.023424,2.66875,-11.50625,3.605,31.640001,15.888001,34.496002,concentric,5,3.0,20721.0,309337.0,281912.0,335778.0,298093.0
2026-04-07 17:52:32.812824,261732,1423181744,1423182776,-0.776896,-0.142496,0.023424,5.17125,-7.67375,3.7275,31.640001,15.888001,34.496002,concentric,5,3.0,20721.0,309337.0,281912.0,335778.0,298093.0
2026-04-07 17:52:32.817343,261733,1423190679,1423191497,-0.728096,-0.17568,0.095648,7.525,-2.7475,3.29,32.32,15.592001,32.264,concentric,5,3.0,20721.0,309337.0,281912.0,335778.0,298093.0
2026-04-07 17:52:32.843144,261743,1423205211,1423206466,-0.728096,-0.17568,0.095648,9.52875,3.14125,1.085,32.32,15.592001,32.264,concentric,5,3.0,20718.0,309174.0,281766.0,335589.0,297967.0
2026-04-07 17:52:32.844877,261744,1423214172,1423215246,-0.798368,-0.111264,0.18544,12.6525,9.61625,1.70625,32.584003,15.896001,34.056,concentric,5,3.0,20718.0,309174.0,281766.0,335589.0,297967.0
2026-04-07 17:52:32.846434,261745,1423223161,1423224014,-0.798368,-0.111264,0.18544,12.7575,14.980001,2.14375,32.584003,15.896001,34.056,concentric,5,3.0,20718.0,309174.0,281766.0,335589.0,297967.0
2026-04-07 17:52:32.850454,261746,1423237678,1423238950,-0.882304,-0.148352,0.052704,10.386251,18.29625,2.49375,32.656002,15.608001,34.192,concentric,5,3.0,20718.0,309174.0,281766.0,335589.0,297967.0
2026-04-07 17:52:32.879211,261747,1423246636,1423247648,-0.882304,-0.148352,0.052704,5.7925,18.803751,2.8,32.656002,15.608001,34.192,concentric,5,3.0,20718.0,309174.0,281766.0,335589.0,297967.0
2026-04-07 17:52:32.883554,261748,1423255635,1423256436,-0.765184,-0.222528,0.03904,1.18125,19.04,2.7475,32.608,15.624001,33.968002,concentric,5,3.0,20718.0,309174.0,281766.0,335589.0,297967.0
2026-04-07 17:52:32.885132,261749,1423270154,1423271323,-0.765184,-0.222528,0.0488,3.22,20.25625,4.2525,32.608,15.624001,33.968002,concentric,5,3.0,20718.0,309174.0,281766.0,335589.0,297967.0
2026-04-07 17:52:32.889235,261750,1423279091,1423280041,-0.821792,-0.119072,0.0488,9.0475,21.90125,4.9875,32.896,15.288001,34.216003,concentric,5,3.0,20718.0,309174.0,281766.0,335589.0,297967.0
2026-04-07 17:52:32.917826,261751,1423288059,1423288785,-0.821792,-0.119072,0.0488,16.19625,22.522501,6.3525,32.896,15.288001,34.216003,concentric,5,3.0,20718.0,309174.0,281766.0,335589.0,297967.0
2026-04-07 17:52:32.964712,261761,1423297395,1423299631,-0.874496,-0.064416,0.076128,17.272501,22.51375,7.49,32.768,15.320001,35.312,concentric,5,3.0,20469.0,306771.0,279787.0,333777.0,296672.0
2026-04-07 17:52:33.000051,261762,1423312433,1423314617,-0.847168,-0.138592,0.099552,13.2825,21.7,8.0675,33.4,15.176001,34.960003,concentric,5,3.0,20469.0,306771.0,279787.0,333777.0,296672.0
2026-04-07 17:52:33.002281,261763,1423321369,1423323436,-0.847168,-0.138592,0.099552,10.43,21.2625,9.948751,33.4,15.176001,34.960003,concentric,5,3.0,20469.0,306771.0,279787.0,333777.0,296672.0
2026-04-07 17:52:33.006936,261764,1423330348,1423332163,-0.847168,-0.138592,0.037088,5.1275,20.2825,11.2175,33.4,15.176001,34.960003,concentric,5,3.0,20469.0,306771.0,279787.0,333777.0,296672.0
2026-04-07 17:52:33.008713,261765,1423344876,1423347154,-0.821792,-0.183488,0.037088,4.55875,20.5625,12.5475,33.168003,15.152,32.128002,concentric,5,3.0,20469.0,306771.0,279787.0,333777.0,296672.0
2026-04-07 17:52:33.010144,261766,1423353983,1423355854,-0.845216,-0.080032,0.091744,9.555,20.9825,14.752501,33.096,15.008,35.072002,concentric,5,3.0,20469.0,306771.0,279787.0,333777.0,296672.0
2026-04-07 17:52:33.014410,261767,1423362938,1423364596,-0.845216,-0.080032,0.091744,14.805,21.0175,15.9075,33.096,15.008,35.072002,concentric,5,3.0,20469.0,306771.0,279787.0,333777.0,296672.0
2026-04-07 17:52:33.016083,261768,1423371927,1423373343,-0.8784,-0.021472,0.07808,16.4675,21.245,17.47375,33.984,15.064001,33.176003,concentric,5,3.0,20469.0,306771.0,279787.0,333777.0,296672.0
2026-04-07 17:52:33.017649,261769,1423386402,1423388229,-0.8784,-0.021472,0.07808,15.12875,21.16625,17.928751,33.984,15.064001,33.176003,concentric,5,3.0,20469.0,306771.0,279787.0,333777.0,296672.0
