pc_time,serial_num,sensor_ts,host_ts,ax,ay,az,gx,gy,gz,mx,my,mz,phase,rpe,weight_kg,ppg_a,ppg_b,ppg_c,ppg_d,ppg_e
2026-04-07 17:38:50.551025,108321,600952402,600953879,0.874496,0.025376,-0.144448,2.49375,7.88375,-5.39875,-7.824,-21.256,17.704,inter_set_rest,0,3.0,33138.0,403431.0,364577.0,403431.0,366658.0
2026-04-07 17:38:50.556870,108322,600961330,600962653,0.874496,0.025376,-0.144448,1.46125,8.42625,-6.3175,-7.824,-21.256,17.704,inter_set_rest,0,3.0,33138.0,403431.0,364577.0,403431.0,366658.0
2026-04-07 17:38:50.557318,108323,600970261,600971354,0.874496,0.025376,-0.144448,0.28,8.98625,-6.64125,-7.824,-21.256,17.704,inter_set_rest,0,3.0,33138.0,403431.0,364577.0,403431.0,366658.0
2026-04-07 17:38:50.587494,108324,600984723,600986242,0.862784,0.015616,-0.154208,-0.09625,8.84625,-7.2975,-8.8,-21.632002,21.84,inter_set_rest,0,3.0,33138.0,403431.0,364577.0,403431.0,366658.0
2026-04-07 17:38:50.612647,108334,600993641,600995456,0.851072,0.013664,-0.15616,0.2625,8.925,-8.198751,-8.04,-21.552002,19.536001,inter_set_rest,0,3.0,33154.0,403431.0,364655.0,403431.0,366845.0
2026-04-07 17:38:50.616884,108335,601002581,601004198,0.851072,0.013664,-0.15616,1.09375,8.42625,-7.9275,-8.04,-21.552002,19.536001,inter_set_rest,0,3.0,33154.0,403431.0,364655.0,403431.0,366845.0
2026-04-07 17:38:50.618662,108336,601017131,601019105,0.851072,0.027328,-0.158112,1.925,8.02375,-7.0,-8.392,-22.016,20.952002,inter_set_rest,0,3.0,33154.0,403431.0,364655.0,403431.0,366845.0
2026-04-07 17:38:50.620174,108337,601026128,601027838,0.851072,0.027328,-0.158112,2.12625,7.51625,-6.23,-8.392,-22.016,20.952002,inter_set_rest,0,3.0,33154.0,403431.0,364655.0,403431.0,366845.0
2026-04-07 17:38:50.626349,108338,601035042,601036568,0.847168,0.02928,-0.138592,0.84875,7.60375,-5.76625,-8.72,-22.424002,21.36,inter_set_rest,0,3.0,33154.0,403431.0,364655.0,403431.0,366845.0
2026-04-07 17:38:50.652766,108339,601049523,601051464,0.847168,0.02928,-0.138592,0.09625,7.07,-5.92375,-8.72,-22.424002,21.36,inter_set_rest,0,3.0,33154.0,403431.0,364655.0,403431.0,366845.0
2026-04-07 17:38:50.657259,108340,601058460,601060185,0.83936,0.027328,-0.134688,-0.0875,6.825,-5.48625,-8.208,-22.072,19.784,inter_set_rest,0,3.0,33154.0,403431.0,364655.0,403431.0,366845.0
2026-04-07 17:38:50.658767,108341,601067361,601068880,0.83936,0.027328,-0.134688,-0.1925,7.06125,-5.32,-8.208,-22.072,19.784,inter_set_rest,0,3.0,33154.0,403431.0,364655.0,403431.0,366845.0
2026-04-07 17:38:50.662998,108342,601076300,601077642,0.853024,0.023424,-0.140544,1.05875,5.9675,-5.62625,-8.0,-21.824001,19.048,inter_set_rest,0,3.0,33154.0,403431.0,364655.0,403431.0,366845.0
2026-04-07 17:38:50.705694,108343,601090788,601092561,0.853024,0.023424,-0.140544,1.855,5.81,-5.50375,-8.0,-21.824001,19.048,inter_set_rest,0,3.0,33154.0,403431.0,364655.0,403431.0,366845.0
2026-04-07 17:38:50.753214,108353,601099886,601101330,0.860832,0.02928,-0.140544,1.9775,5.66125,-4.585,-7.832,-21.848001,19.320002,inter_set_rest,0,3.0,33145.0,403431.0,364640.0,403431.0,366896.0
2026-04-07 17:38:50.754857,108354,601108828,601110052,0.860832,0.02928,-0.140544,1.75875,5.1625,-3.94625,-7.832,-21.848001,19.320002,inter_set_rest,0,3.0,33145.0,403431.0,364640.0,403431.0,366896.0
2026-04-07 17:38:50.756371,108355,601123266,601124972,0.866688,0.025376,-0.150304,1.61,4.34875,-3.78,-8.424001,-22.096,19.792002,inter_set_rest,0,3.0,33145.0,403431.0,364640.0,403431.0,366896.0
2026-04-07 17:38:50.760635,108356,601132204,601133711,0.874496,0.035136,-0.130784,2.23125,3.395,-3.73625,-8.400001,-21.640001,19.352001,inter_set_rest,0,3.0,33145.0,403431.0,364640.0,403431.0,366896.0
2026-04-07 17:38:50.762343,108357,601141135,601142416,0.874496,0.035136,-0.130784,3.75375,3.14125,-3.7975,-8.400001,-21.640001,19.352001,inter_set_rest,0,3.0,33145.0,403431.0,364640.0,403431.0,366896.0
2026-04-07 17:38:50.763906,108358,601155597,601157370,0.890112,0.0488,-0.128832,4.69875,3.0975,-4.5675,-8.544001,-21.608002,19.952002,inter_set_rest,0,3.0,33145.0,403431.0,364640.0,403431.0,366896.0
2026-04-07 17:38:50.767338,108359,601164536,601166092,0.890112,0.0488,-0.128832,4.52375,3.7625,-5.0575,-8.544001,-21.608002,19.952002,inter_set_rest,0,3.0,33145.0,403431.0,364640.0,403431.0,366896.0
2026-04-07 17:38:50.768942,108360,601173488,601174829,0.894016,0.037088,-0.122976,3.47375,4.235,-5.57375,-8.096001,-21.824001,19.720001,inter_set_rest,0,3.0,33145.0,403431.0,364640.0,403431.0,366896.0
2026-04-07 17:38:50.775550,108361,601187990,601189850,0.894016,0.037088,-0.122976,2.79125,4.34,-6.4925,-8.096001,-21.824001,19.720001,inter_set_rest,0,3.0,33145.0,403431.0,364640.0,403431.0,366896.0
2026-04-07 17:38:50.833932,108372,601197348,601198677,0.892064,0.02928,-0.128832,2.86125,4.31375,-7.6125,-8.104,-21.808,19.560001,inter_set_rest,0,3.0,33166.0,403431.0,364865.0,403431.0,367112.0
2026-04-07 17:38:50.838169,108373,601206462,601207498,0.892064,0.02928,-0.128832,3.6925,4.83,-8.12875,-8.104,-21.808,19.560001,inter_set_rest,0,3.0,33166.0,403431.0,364865.0,403431.0,367112.0
2026-04-07 17:38:50.839791,108374,601215393,601216197,0.880352,0.035136,-0.128832,4.52375,4.97,-8.88125,-7.568,-21.920002,19.488,inter_set_rest,0,3.0,33166.0,403431.0,364865.0,403431.0,367112.0
2026-04-07 17:38:50.842258,108375,601229884,601231138,0.880352,0.035136,-0.128832,4.4975,5.0225,-9.03,-7.568,-21.920002,19.488,inter_set_rest,0,3.0,33166.0,403431.0,364865.0,403431.0,367112.0
2026-04-07 17:38:50.843776,108376,601238840,601239839,0.872544,0.037088,-0.124928,3.50875,5.20625,-9.292501,-8.864,-21.616001,21.152,inter_set_rest,0,3.0,33166.0,403431.0,364865.0,403431.0,367112.0
2026-04-07 17:38:50.848136,108377,601247800,601248538,0.872544,0.037088,-0.124928,2.68625,5.34625,-9.00375,-8.864,-21.616001,21.152,inter_set_rest,0,3.0,33166.0,403431.0,364865.0,403431.0,367112.0
2026-04-07 17:38:50.851376,108378,601262730,601263499,0.860832,0.033184,-0.12688,2.35375,5.08375,-9.10875,-8.120001,-21.752,20.728,inter_set_rest,0,3.0,33166.0,403431.0,364865.0,403431.0,367112.0
2026-04-07 17:38:50.882382,108379,601272200,601274287,0.845216,0.033184,-0.138592,2.3625,5.01375,-9.31,-8.120001,-21.752,20.728,inter_set_rest,0,3.0,33166.0,403431.0,364865.0,403431.0,367112.0
2026-04-07 17:38:50.886927,108380,601281143,601282960,0.84912,0.033184,-0.138592,3.045,4.27,-9.292501,-7.960001,-22.696001,21.336,inter_set_rest,0,3.0,33166.0,403431.0,364865.0,403431.0,367112.0
2026-04-07 17:38:50.888622,108381,601290070,601291653,0.84912,0.033184,-0.138592,4.19125,3.92,-9.1175,-7.960001,-22.696001,21.336,inter_set_rest,0,3.0,33166.0,403431.0,364865.0,403431.0,367112.0
2026-04-07 17:38:50.916041,108391,601304630,601306621,0.851072,0.037088,-0.138592,5.17125,3.4825,-8.89875,-8.192,-21.960001,19.808,inter_set_rest,0,3.0,33078.0,403431.0,364541.0,403431.0,366645.0
2026-04-07 17:38:50.918531,108392,601313679,601315422,0.853024,0.035136,-0.13664,4.9525,2.87,-8.925,-8.752001,-22.192001,21.072,inter_set_rest,0,3.0,33078.0,403431.0,364541.0,403431.0,366645.0
2026-04-07 17:38:50.920957,108393,601322670,601324140,0.853024,0.035136,-0.13664,4.235,2.8175,-8.505,-8.752001,-22.192001,21.072,inter_set_rest,0,3.0,33078.0,403431.0,364541.0,403431.0,366645.0
2026-04-07 17:38:50.925490,108394,601337184,601339052,0.862784,0.031232,-0.132736,3.84125,2.5025,-7.42,-8.92,-22.664001,19.800001,inter_set_rest,0,3.0,33078.0,403431.0,364541.0,403431.0,366645.0
2026-04-07 17:38:50.948197,108395,601346115,601347747,0.862784,0.031232,-0.132736,2.96625,2.16125,-7.1575,-8.92,-22.664001,19.800001,inter_set_rest,0,3.0,33078.0,403431.0,364541.0,403431.0,366645.0
2026-04-07 17:38:50.949842,108396,601355046,601356463,0.862784,0.037088,-0.134688,3.01,2.415,-7.105,-8.248,-21.6,19.768002,inter_set_rest,0,3.0,33078.0,403431.0,364541.0,403431.0,366645.0
2026-04-07 17:38:50.951513,108397,601363987,601365146,0.862784,0.037088,-0.134688,3.54375,2.80875,-6.4225,-8.248,-21.6,19.768002,inter_set_rest,0,3.0,33078.0,403431.0,364541.0,403431.0,366645.0
2026-04-07 17:38:51.000020,108398,601378559,601380095,0.864736,0.037088,-0.144448,2.835,3.08875,-5.73125,-8.816,-22.128,20.992,inter_set_rest,0,3.0,33078.0,403431.0,364541.0,403431.0,366645.0
2026-04-07 17:38:51.002262,108399,601387452,601388783,0.864736,0.037088,-0.144448,1.47875,2.7825,-5.8975,-8.816,-22.128,20.992,inter_set_rest,0,3.0,33078.0,403431.0,364541.0,403431.0,366645.0
2026-04-07 17:38:51.028952,108409,601396388,601397569,0.874496,0.033184,-0.1464,1.4,2.6075,-5.85375,-8.472,-21.856,19.352001,inter_set_rest,0,3.0,33140.0,403431.0,364963.0,403431.0,367259.0
2026-04-07 17:38:51.031097,108410,601411817,601412492,0.874496,0.033184,-0.1464,1.72375,2.19625,-5.6,-8.472,-21.856,19.352001,inter_set_rest,0,3.0,33140.0,403431.0,364963.0,403431.0,367259.0
2026-04-07 17:38:51.033515,108411,601421126,601423262,0.870592,0.040992,-0.1464,1.49625,2.07375,-5.71375,-8.136001,-21.752,20.488,inter_set_rest,0,3.0,33140.0,403431.0,364963.0,403431.0,367259.0
2026-04-07 17:38:51.035125,108412,601430128,601431996,0.870592,0.040992,-0.1464,1.79375,2.975,-6.22125,-8.136001,-21.752,20.488,inter_set_rest,0,3.0,33140.0,403431.0,364963.0,403431.0,367259.0
2026-04-07 17:38:51.039340,108413,601439104,601440693,0.874496,0.03904,-0.142496,1.715,2.87875,-6.4575,-8.528001,-22.024,19.824001,inter_set_rest,0,3.0,33140.0,403431.0,364963.0,403431.0,367259.0
2026-04-07 17:38:51.040935,108414,601453671,601455600,0.86864,0.040992,-0.150304,1.72375,2.9225,-6.72,-7.856,-21.664001,20.12,inter_set_rest,0,3.0,33140.0,403431.0,364963.0,403431.0,367259.0
2026-04-07 17:38:51.071368,108415,601462637,601464345,0.86864,0.040992,-0.150304,2.35375,2.5725,-7.49,-7.856,-21.664001,20.12,inter_set_rest,0,3.0,33140.0,403431.0,364963.0,403431.0,367259.0
2026-04-07 17:38:51.073560,108416,601471568,601473031,0.86864,0.040992,-0.150304,2.84375,2.12625,-8.11125,-7.856,-21.664001,20.12,inter_set_rest,0,3.0,33140.0,403431.0,364963.0,403431.0,367259.0
2026-04-07 17:38:51.076418,108417,601486029,601487944,0.874496,0.040992,-0.142496,2.94,2.135,-7.6825,-8.344001,-21.84,19.416,inter_set_rest,0,3.0,33140.0,403431.0,364963.0,403431.0,367259.0
2026-04-07 17:38:51.083264,108418,601494941,601496641,0.864736,0.040992,-0.138592,2.6425,2.37125,-7.665,-8.864,-22.168001,21.024,inter_set_rest,0,3.0,33140.0,403431.0,364963.0,403431.0,367259.0
2026-04-07 17:38:51.114446,108429,601503944,601505397,0.864736,0.040992,-0.138592,2.38,2.23125,-8.015,-8.864,-22.168001,21.024,inter_set_rest,0,3.0,33237.0,403431.0,365160.0,403431.0,367594.0
2026-04-07 17:38:51.116164,108430,601518489,601520307,0.85888,0.044896,-0.134688,2.31,2.10875,-8.0325,-9.224,-22.176,21.248001,inter_set_rest,0,3.0,33237.0,403431.0,365160.0,403431.0,367594.0
2026-04-07 17:38:51.117707,108431,601527424,601529035,0.85888,0.044896,-0.134688,2.3625,2.28375,-8.32125,-9.224,-22.176,21.248001,inter_set_rest,0,3.0,33237.0,403431.0,365160.0,403431.0,367594.0
2026-04-07 17:38:51.123050,108432,601536386,601537730,0.860832,0.040992,-0.150304,2.21375,2.14375,-7.91,-8.144,-21.984001,19.712002,inter_set_rest,0,3.0,33237.0,403431.0,365160.0,403431.0,367594.0
2026-04-07 17:38:51.151733,108433,601545383,601546461,0.860832,0.040992,-0.150304,1.925,1.58375,-7.60375,-8.144,-21.984001,19.712002,inter_set_rest,0,3.0,33237.0,403431.0,365160.0,403431.0,367594.0
2026-04-07 17:38:51.160068,108434,601559874,601561350,0.85888,0.040992,-0.1464,2.16125,1.04125,-7.07875,-7.880001,-22.088001,19.688002,inter_set_rest,0,3.0,33237.0,403431.0,365160.0,403431.0,367594.0
2026-04-07 17:38:51.162510,108435,601568855,601570091,0.85888,0.040992,-0.1464,2.02125,0.84,-6.23,-7.880001,-22.088001,19.688002,inter_set_rest,0,3.0,33237.0,403431.0,365160.0,403431.0,367594.0
2026-04-07 17:38:51.166749,108436,601577756,601578827,0.85888,0.0488,-0.142496,2.09125,0.67375,-6.125,-7.712,-21.84,20.392,inter_set_rest,0,3.0,33237.0,403431.0,365160.0,403431.0,367594.0
2026-04-07 17:38:51.195324,108437,601592297,601593732,0.85888,0.0488,-0.142496,2.56375,0.55125,-5.95,-7.712,-21.84,20.392,inter_set_rest,0,3.0,33237.0,403431.0,365160.0,403431.0,367594.0
2026-04-07 17:38:51.222348,108447,601601600,601602853,0.86864,0.054656,-0.142496,2.695,0.4725,-6.29125,-7.896,-22.256,20.640001,inter_set_rest,0,3.0,33138.0,403431.0,364505.0,403431.0,366798.0
2026-04-07 17:38:51.223899,108448,601610670,601611546,0.86864,0.054656,-0.142496,2.7125,0.7875,-6.65875,-7.896,-22.256,20.640001,inter_set_rest,0,3.0,33138.0,403431.0,364505.0,403431.0,366798.0
2026-04-07 17:38:51.228110,108449,601619575,601620354,0.86864,0.050752,-0.130784,2.70375,1.47,-6.99125,-8.144,-22.184002,19.84,inter_set_rest,0,3.0,33138.0,403431.0,364505.0,403431.0,366798.0
2026-04-07 17:38:51.230137,108450,601634581,601635372,0.874496,0.0488,-0.144448,2.51125,1.32125,-7.6125,-9.128,-22.408,20.424002,inter_set_rest,0,3.0,33138.0,403431.0,364505.0,403431.0,366798.0
2026-04-07 17:38:51.231773,108451,601644012,601646163,0.874496,0.0488,-0.144448,2.14375,1.54875,-7.5075,-9.128,-22.408,20.424002,inter_set_rest,0,3.0,33138.0,403431.0,364505.0,403431.0,366798.0
2026-04-07 17:38:51.241781,108452,601652968,601654866,0.874496,0.0488,-0.144448,1.3825,1.9775,-7.84875,-9.128,-22.408,20.424002,inter_set_rest,0,3.0,33138.0,403431.0,364505.0,403431.0,366798.0
2026-04-07 17:38:51.302002,108453,601667540,601669846,0.874496,0.046848,-0.142496,0.6475,2.4675,-7.56,-7.544,-21.672,19.896002,inter_set_rest,0,3.0,33138.0,403431.0,364505.0,403431.0,366798.0
2026-04-07 17:38:51.303588,108454,601676503,601678576,0.876448,0.0488,-0.152256,0.175,2.2225,-7.70875,-7.928001,-22.072,19.752,inter_set_rest,0,3.0,33138.0,403431.0,364505.0,403431.0,366798.0
2026-04-07 17:38:51.305124,108455,601685413,601687255,0.876448,0.0488,-0.152256,0.9975,2.0475,-7.39375,-7.928001,-22.072,19.752,inter_set_rest,0,3.0,33138.0,403431.0,364505.0,403431.0,366798.0
2026-04-07 17:38:51.309568,108456,601694324,601695932,0.872544,0.05856,-0.150304,2.135,1.9075,-7.56,-7.968,-21.664001,19.400002,inter_set_rest,0,3.0,33138.0,403431.0,364505.0,403431.0,366798.0
2026-04-07 17:38:51.334388,108466,601708884,601710905,0.872544,0.05856,-0.150304,2.35375,2.2575,-7.56875,-7.968,-21.664001,19.400002,inter_set_rest,0,3.0,33114.0,403431.0,364516.0,403431.0,366835.0
2026-04-07 17:38:51.336077,108467,601717829,601719618,0.874496,0.066368,-0.148352,2.12625,1.89875,-7.6825,-7.960001,-21.912,19.496,inter_set_rest,0,3.0,33114.0,403431.0,364516.0,403431.0,366835.0
2026-04-07 17:38:51.337714,108468,601726854,601728328,0.874496,0.066368,-0.148352,1.09375,2.40625,-7.9625,-7.960001,-21.912,19.496,inter_set_rest,0,3.0,33114.0,403431.0,364516.0,403431.0,366835.0
2026-04-07 17:38:51.341852,108469,601741352,601743278,0.866688,0.05856,-0.138592,0.42,2.56375,-8.12,-8.744,-22.672,22.856,inter_set_rest,0,3.0,33114.0,403431.0,364516.0,403431.0,366835.0
2026-04-07 17:38:51.344743,108470,601750326,601751970,0.866688,0.05856,-0.138592,0.175,2.59,-8.7325,-8.744,-22.672,22.856,inter_set_rest,0,3.0,33114.0,403431.0,364516.0,403431.0,366835.0
2026-04-07 17:38:51.345176,108471,601759320,601760685,0.86864,0.050752,-0.148352,0.63875,3.22875,-8.88125,-8.400001,-22.776001,22.672,inter_set_rest,0,3.0,33114.0,403431.0,364516.0,403431.0,366835.0
2026-04-07 17:38:51.377438,108472,601773874,601775645,0.86864,0.066368,-0.152256,1.40875,2.87,-8.81125,-8.400001,-22.776001,22.672,inter_set_rest,0,3.0,33114.0,403431.0,364516.0,403431.0,366835.0
2026-04-07 17:38:51.379741,108473,601782826,601784336,0.86864,0.064416,-0.152256,1.5225,3.24625,-8.1375,-8.168,-22.456001,18.104,inter_set_rest,0,3.0,33114.0,403431.0,364516.0,403431.0,366835.0
2026-04-07 17:38:51.382642,108474,601791764,601792995,0.86864,0.064416,-0.152256,1.47,3.2375,-7.945,-8.168,-22.456001,18.104,inter_set_rest,0,3.0,33114.0,403431.0,364516.0,403431.0,366835.0
2026-04-07 17:38:51.410126,108485,601801283,601801954,0.86864,0.054656,-0.150304,1.1025,3.26375,-7.9625,-8.0,-21.904001,19.52,inter_set_rest,0,3.0,33145.0,403431.0,364760.0,403431.0,367069.0
2026-04-07 17:38:51.414648,108486,601816244,601816899,0.862784,0.066368,-0.150304,1.2075,3.4825,-7.525,-8.712001,-22.872002,19.824001,inter_set_rest,0,3.0,33145.0,403431.0,364760.0,403431.0,367069.0
2026-04-07 17:38:51.423739,108487,601825501,601827661,0.862784,0.066368,-0.150304,2.1175,3.08875,-7.20125,-8.712001,-22.872002,19.824001,inter_set_rest,0,3.0,33145.0,403431.0,364760.0,403431.0,367069.0
2026-04-07 17:38:51.425949,108488,601834475,601836376,0.862784,0.06832,-0.148352,2.7125,3.0975,-7.76125,-8.712001,-20.824001,21.2,inter_set_rest,0,3.0,33145.0,403431.0,364760.0,403431.0,367069.0
2026-04-07 17:38:51.430845,108489,601843404,601845112,0.862784,0.06832,-0.148352,2.30125,3.675,-7.53375,-8.528001,-22.232,21.2,inter_set_rest,0,3.0,33145.0,403431.0,364760.0,403431.0,367069.0
2026-04-07 17:38:51.464924,108490,601857866,601860036,0.864736,0.056608,-0.150304,1.63625,3.49125,-7.53375,-8.240001,-22.176,19.560001,inter_set_rest,0,3.0,33145.0,403431.0,364760.0,403431.0,367069.0
2026-04-07 17:38:51.469345,108491,601866784,601868719,0.864736,0.056608,-0.150304,1.3475,3.4825,-7.48125,-8.240001,-22.176,19.560001,inter_set_rest,0,3.0,33145.0,403431.0,364760.0,403431.0,367069.0
2026-04-07 17:38:51.471127,108492,601875707,601877451,0.866688,0.05856,-0.1464,1.26875,3.6225,-7.4025,-8.456,-22.416,19.0,inter_set_rest,0,3.0,33145.0,403431.0,364760.0,403431.0,367069.0
2026-04-07 17:38:51.478091,108493,601890182,601892369,0.866688,0.05856,-0.1464,1.61875,3.5,-7.4375,-8.456,-22.416,19.0,inter_set_rest,0,3.0,33145.0,403431.0,364760.0,403431.0,367069.0
2026-04-07 17:38:51.530649,108503,601899118,601901141,0.862784,0.05856,-0.152256,1.93375,3.255,-7.455,-7.68,-22.336,20.568,inter_set_rest,0,3.0,33091.0,403431.0,364557.0,403431.0,366753.0
2026-04-07 17:38:51.534239,108504,601908529,601909924,0.862784,0.05856,-0.152256,2.03,3.56125,-7.28,-7.68,-22.336,20.568,inter_set_rest,0,3.0,33091.0,403431.0,364557.0,403431.0,366753.0
2026-04-07 17:38:51.538091,108505,601923055,601924950,0.870592,0.05856,-0.1464,2.26625,3.9375,-6.615,-7.696001,-22.160002,19.664001,inter_set_rest,0,3.0,33091.0,403431.0,364557.0,403431.0,366753.0
2026-04-07 17:38:51.539771,108506,601932134,601933681,0.870592,0.05856,-0.1464,1.96,3.98125,-6.60625,-7.696001,-22.160002,19.664001,inter_set_rest,0,3.0,33091.0,403431.0,364557.0,403431.0,366753.0
2026-04-07 17:38:51.542264,108507,601941102,601942420,0.874496,0.060512,-0.1464,1.58375,3.675,-6.72,-8.432,-22.264002,21.216002,inter_set_rest,0,3.0,33091.0,403431.0,364557.0,403431.0,366753.0
2026-04-07 17:38:51.543764,108508,601950066,601951163,0.874496,0.060512,-0.1464,0.91,4.19125,-7.14,-8.432,-22.264002,21.216002,inter_set_rest,0,3.0,33091.0,403431.0,364557.0,403431.0,366753.0
2026-04-07 17:38:51.600387,108509,601964577,601966092,0.876448,0.060512,-0.144448,1.12,4.36625,-7.04375,-8.528001,-22.392,19.776001,inter_set_rest,0,3.0,33091.0,403431.0,364557.0,403431.0,366753.0
2026-04-07 17:38:51.606957,108510,601973499,601974853,0.876448,0.060512,-0.144448,1.33,4.12125,-7.4025,-8.528001,-22.392,19.776001,inter_set_rest,0,3.0,33091.0,403431.0,364557.0,403431.0,366753.0
2026-04-07 17:38:51.608650,108511,601982430,601983547,0.8784,0.064416,-0.142496,2.03,4.27875,-8.11125,-7.984,-22.008001,19.488,inter_set_rest,0,3.0,33091.0,403431.0,364557.0,403431.0,366753.0
2026-04-07 17:38:51.611085,108512,601996878,601998432,0.876448,0.064416,-0.142496,1.88125,4.1125,-8.42625,-8.312,-21.944,20.176,inter_set_rest,0,3.0,33091.0,403431.0,364557.0,403431.0,366753.0
2026-04-07 17:38:51.635179,108522,602005867,602007217,0.876448,0.064416,-0.142496,1.19,4.26125,-8.53125,-8.312,-21.944,20.176,inter_set_rest,0,3.0,33022.0,403431.0,364208.0,403431.0,366270.0
2026-04-07 17:38:51.639398,108523,602014807,602015906,0.876448,0.064416,-0.144448,0.5775,4.725,-8.435,-8.312,-21.944,20.176,inter_set_rest,0,3.0,33022.0,403431.0,364208.0,403431.0,366270.0
2026-04-07 17:38:51.641030,108524,602029348,602030816,0.874496,0.066368,-0.144448,-0.2275,5.3025,-8.8725,-8.072001,-22.640001,19.584002,inter_set_rest,0,3.0,33022.0,403431.0,364208.0,403431.0,366270.0
2026-04-07 17:38:51.642588,108525,602038264,602039541,0.866688,0.072224,-0.144448,-0.39375,5.495,-9.03875,-7.888001,-22.088001,19.92,inter_set_rest,0,3.0,33022.0,403431.0,364208.0,403431.0,366270.0
2026-04-07 17:38:51.646483,108526,602047356,602048274,0.866688,0.072224,-0.144448,0.07,5.32875,-9.09125,-7.888001,-22.088001,19.92,inter_set_rest,0,3.0,33022.0,403431.0,364208.0,403431.0,366270.0
2026-04-07 17:38:51.653048,108527,602056296,602057035,0.862784,0.076128,-0.134688,0.6475,5.25875,-9.31,-8.064,-22.168001,19.504002,inter_set_rest,0,3.0,33022.0,403431.0,364208.0,403431.0,366270.0
2026-04-07 17:38:51.657150,108528,602071216,602071955,0.862784,0.076128,-0.134688,0.8575,5.6,-9.75625,-8.064,-22.168001,19.504002,inter_set_rest,0,3.0,33022.0,403431.0,364208.0,403431.0,366270.0
2026-04-07 17:38:51.688971,108529,602080683,602082722,0.856928,0.081984,-0.138592,0.27125,5.3025,-9.89625,-8.048,-22.6,21.464,inter_set_rest,0,3.0,33022.0,403431.0,364208.0,403431.0,366270.0
2026-04-07 17:38:51.691299,108530,602089619,602091436,0.856928,0.081984,-0.138592,-0.9625,6.1425,-10.05375,-8.048,-22.6,21.464,inter_set_rest,0,3.0,33022.0,403431.0,364208.0,403431.0,366270.0
2026-04-07 17:38:51.719834,108541,602104793,602106468,0.870592,0.072224,-0.13664,-2.84375,6.5275,-9.8,-7.912,-22.264002,19.352001,inter_set_rest,0,3.0,32946.0,403431.0,363986.0,403431.0,366034.0
2026-04-07 17:38:51.722253,108542,602113741,602115215,0.870592,0.072224,-0.13664,-3.92875,6.8425,-9.44125,-7.912,-22.264002,19.352001,inter_set_rest,0,3.0,32946.0,403431.0,363986.0,403431.0,366034.0
2026-04-07 17:38:51.724730,108543,602122744,602123938,0.872544,0.070272,-0.13664,-3.78,6.5625,-9.21375,-9.04,-23.28,21.544,inter_set_rest,0,3.0,32946.0,403431.0,363986.0,403431.0,366034.0
2026-04-07 17:38:51.726256,108544,602131717,602132646,0.872544,0.070272,-0.13664,-3.4475,6.6675,-9.03,-9.04,-23.28,21.544,inter_set_rest,0,3.0,32946.0,403431.0,363986.0,403431.0,366034.0
2026-04-07 17:38:51.734287,108545,602146245,602147552,0.86864,0.07808,-0.138592,-2.94,7.07875,-8.855001,-9.080001,-22.912,21.976002,inter_set_rest,0,3.0,32946.0,403431.0,363986.0,403431.0,366034.0
2026-04-07 17:38:51.762838,108546,602155190,602156268,0.86864,0.07808,-0.154208,-2.8525,6.93,-7.7525,-9.080001,-22.912,21.976002,inter_set_rest,0,3.0,32946.0,403431.0,363986.0,403431.0,366034.0
2026-04-07 17:38:51.767318,108547,602164109,602164963,0.872544,0.07808,-0.148352,-2.33625,7.56,-7.35,-7.816001,-23.008001,19.704,inter_set_rest,0,3.0,32946.0,403431.0,363986.0,403431.0,366034.0
2026-04-07 17:38:51.768842,108548,602178620,602179857,0.86864,0.07808,-0.140544,-2.17875,7.5425,-6.97375,-8.376,-22.504002,20.240002,inter_set_rest,0,3.0,32946.0,403431.0,363986.0,403431.0,366034.0
2026-04-07 17:38:51.775463,108549,602187522,602188595,0.86864,0.07808,-0.140544,-1.84625,7.63875,-6.55375,-8.376,-22.504002,20.240002,inter_set_rest,0,3.0,32946.0,403431.0,363986.0,403431.0,366034.0
2026-04-07 17:38:51.804082,108550,602196452,602197270,0.862784,0.085888,-0.132736,-1.32125,6.95625,-6.93,-8.320001,-22.752,21.184002,inter_set_rest,0,3.0,32946.0,403431.0,363986.0,403431.0,366034.0
2026-04-07 17:38:51.831850,108560,602205606,602206282,0.862784,0.085888,-0.132736,-0.72625,7.04375,-6.755,-8.320001,-22.752,21.184002,inter_set_rest,0,3.0,33227.0,403431.0,365366.0,403431.0,367743.0
2026-04-07 17:38:51.833561,108561,602220568,602221245,0.85888,0.080032,-0.134688,-0.49875,6.97375,-6.95625,-7.880001,-22.256,20.12,inter_set_rest,0,3.0,33227.0,403431.0,365366.0,403431.0,367743.0
2026-04-07 17:38:51.835236,108562,602229879,602232030,0.85888,0.080032,-0.134688,0.23625,6.7025,-6.7725,-7.880001,-22.256,20.12,inter_set_rest,0,3.0,33227.0,403431.0,365366.0,403431.0,367743.0
2026-04-07 17:38:51.839221,108563,602238867,602240721,0.870592,0.07808,-0.134688,0.74375,6.58875,-6.7725,-8.120001,-23.064001,21.656,inter_set_rest,0,3.0,33227.0,403431.0,365366.0,403431.0,367743.0
2026-04-07 17:38:51.844210,108564,602253448,602255695,0.870592,0.07808,-0.134688,1.0325,6.09875,-6.30875,-8.120001,-23.064001,21.656,inter_set_rest,0,3.0,33227.0,403431.0,365366.0,403431.0,367743.0
2026-04-07 17:38:51.850661,108565,602262394,602264425,0.866688,0.080032,-0.12688,1.575,6.58,-6.09,-8.736,-22.936,21.816002,inter_set_rest,0,3.0,33227.0,403431.0,365366.0,403431.0,367743.0
2026-04-07 17:38:51.861822,108566,602271370,602273134,0.866688,0.080032,-0.12688,1.96875,6.8425,-5.97625,-8.736,-22.936,21.816002,inter_set_rest,0,3.0,33227.0,403431.0,365366.0,403431.0,367743.0
2026-04-07 17:38:51.866413,108567,602280300,602281818,0.862784,0.076128,-0.134688,1.75,6.51,-5.8275,-8.416,-22.896002,20.68,inter_set_rest,0,3.0,33227.0,403431.0,365366.0,403431.0,367743.0
2026-04-07 17:38:51.900282,108568,602294809,602296708,0.862784,0.076128,-0.134688,1.51375,6.405,-5.67875,-8.416,-22.896002,20.68,inter_set_rest,0,3.0,33227.0,403431.0,365366.0,403431.0,367743.0
2026-04-07 17:38:51.930020,108578,602304095,602305468,0.862784,0.074176,-0.12688,1.4875,6.39625,-5.39875,-8.016001,-22.672,17.768002,inter_set_rest,0,3.0,33242.0,403431.0,365038.0,403431.0,367358.0
2026-04-07 17:38:51.932596,108579,602313120,602314206,0.862784,0.074176,-0.12688,2.38,6.37875,-5.36375,-8.016001,-22.672,17.768002,inter_set_rest,0,3.0,33242.0,403431.0,365038.0,403431.0,367358.0
2026-04-07 17:38:51.935044,108580,602327779,602329114,0.866688,0.085888,-0.132736,2.8875,6.335,-5.34625,-8.496,-22.832,20.408,inter_set_rest,0,3.0,33242.0,403431.0,365038.0,403431.0,367358.0
2026-04-07 17:38:51.937565,108581,602336739,602337867,0.86864,0.08784,-0.128832,1.93375,6.86,-4.8475,-8.496,-22.952002,21.728,inter_set_rest,0,3.0,33242.0,403431.0,365038.0,403431.0,367358.0
2026-04-07 17:38:51.940048,108582,602345694,602346560,0.86864,0.08784,-0.128832,0.72625,7.00875,-4.64625,-8.592,-22.952002,21.728,inter_set_rest,0,3.0,33242.0,403431.0,365038.0,403431.0,367358.0
2026-04-07 17:38:51.942638,108583,602354644,602355314,0.86864,0.08784,-0.128832,0.3675,6.51,-4.48,-8.592,-22.952002,21.728,inter_set_rest,0,3.0,33242.0,403431.0,365038.0,403431.0,367358.0
2026-04-07 17:38:51.972848,108584,602369497,602370248,0.870592,0.070272,-0.124928,0.7175,6.57125,-4.61125,-8.888001,-23.072,23.336,inter_set_rest,0,3.0,33242.0,403431.0,365038.0,403431.0,367358.0
2026-04-07 17:38:51.976355,108585,602378893,602381003,0.86864,0.076128,-0.128832,2.42375,6.8775,-4.66375,-8.528001,-22.328001,20.552,inter_set_rest,0,3.0,33242.0,403431.0,365038.0,403431.0,367358.0
2026-04-07 17:38:51.978909,108586,602387829,602389764,0.86864,0.076128,-0.128832,4.8825,7.13125,-5.075,-8.528001,-22.328001,20.552,inter_set_rest,0,3.0,33242.0,403431.0,365038.0,403431.0,367358.0
2026-04-07 17:38:51.986274,108587,602402358,602402674,0.86864,0.083936,-0.132736,6.15125,7.42,-5.17125,-7.944,-23.056002,20.784,inter_set_rest,0,3.0,33242.0,403431.0,365038.0,403431.0,367358.0
2026-04-07 17:38:52.013746,108598,602412150,602413515,0.86864,0.083936,-0.132736,6.16,8.1725,-5.25,-7.944,-23.056002,20.784,inter_set_rest,0,3.0,32997.0,403431.0,363574.0,403431.0,365567.0
2026-04-07 17:38:52.016344,108599,602421154,602422331,0.86864,0.07808,-0.11712,4.76,8.11125,-5.08375,-8.360001,-22.552002,20.560001,inter_set_rest,0,3.0,32997.0,403431.0,363574.0,403431.0,365567.0
2026-04-07 17:38:52.018863,108600,602430081,602431042,0.86864,0.07808,-0.11712,4.06,8.3475,-4.7775,-8.360001,-22.552002,20.560001,inter_set_rest,0,3.0,32997.0,403431.0,363574.0,403431.0,365567.0
2026-04-07 17:38:52.049085,108601,602444584,602445936,0.862784,0.072224,-0.122976,3.745,8.4525,-4.935,-8.168,-22.616001,20.544,inter_set_rest,0,3.0,32997.0,403431.0,363574.0,403431.0,365567.0
2026-04-07 17:38:52.052611,108602,602453525,602454709,0.862784,0.072224,-0.122976,3.89375,8.4875,-5.08375,-8.168,-22.616001,20.544,inter_set_rest,0,3.0,32997.0,403431.0,363574.0,403431.0,365567.0
2026-04-07 17:38:52.055637,108603,602462441,602463405,0.862784,0.081984,-0.121024,4.34875,8.74125,-4.655,-8.232,-22.256,20.768002,inter_set_rest,0,3.0,32997.0,403431.0,363574.0,403431.0,365567.0
2026-04-07 17:38:52.074271,108604,602476945,602478299,0.862784,0.074176,-0.115168,4.27,8.88125,-4.71625,-8.232,-22.256,20.768002,inter_set_rest,0,3.0,32997.0,403431.0,363574.0,403431.0,365567.0
2026-04-07 17:38:52.076623,108605,602485876,602487007,0.864736,0.074176,-0.115168,4.29625,8.9425,-4.76,-8.624001,-22.992,22.2,inter_set_rest,0,3.0,32997.0,403431.0,363574.0,403431.0,365567.0
2026-04-07 17:38:52.081294,108606,602494744,602495724,0.864736,0.074176,-0.115168,3.8325,8.96875,-5.04875,-8.624001,-22.992,22.2,inter_set_rest,0,3.0,32997.0,403431.0,363574.0,403431.0,365567.0
2026-04-07 17:38:52.133572,108616,602503850,602504410,0.866688,0.070272,-0.121024,3.78875,8.995,-5.22375,-8.144,-22.496,20.704,inter_set_rest,0,3.0,32930.0,403431.0,363348.0,403431.0,365321.0
2026-04-07 17:38:52.135174,108617,602518571,602519361,0.862784,0.074176,-0.10736,4.69875,8.67125,-5.20625,-8.536,-22.184002,22.080002,inter_set_rest,0,3.0,32930.0,403431.0,363348.0,403431.0,365321.0
2026-04-07 17:38:52.139328,108618,602527501,602528075,0.862784,0.074176,-0.10736,4.8825,8.785,-4.73375,-8.536,-22.184002,22.080002,inter_set_rest,0,3.0,32930.0,403431.0,363348.0,403431.0,365321.0
2026-04-07 17:38:52.141264,108619,602536824,602538927,0.862784,0.074176,-0.113216,5.215,8.86375,-4.235,-8.536,-22.184002,22.080002,inter_set_rest,0,3.0,32930.0,403431.0,363348.0,403431.0,365321.0
2026-04-07 17:38:52.142627,108620,602551320,602551800,0.866688,0.080032,-0.113216,5.0225,8.54,-4.06875,-8.968,-22.608002,24.264002,inter_set_rest,0,3.0,32930.0,403431.0,363348.0,403431.0,365321.0
2026-04-07 17:38:52.148021,108621,602560743,602562628,0.862784,0.070272,-0.103456,4.10375,8.4525,-3.955,-9.376,-22.768002,20.768002,inter_set_rest,0,3.0,32930.0,403431.0,363348.0,403431.0,365321.0
2026-04-07 17:38:52.201575,108622,602569752,602571334,0.862784,0.070272,-0.103456,3.7275,8.47875,-3.6575,-9.376,-22.768002,20.768002,inter_set_rest,0,3.0,32930.0,403431.0,363348.0,403431.0,365321.0
2026-04-07 17:38:52.206879,108623,602578663,602580042,0.866688,0.074176,-0.103456,4.22625,7.93625,-3.3075,-8.552,-22.536001,19.968,inter_set_rest,0,3.0,32930.0,403431.0,363348.0,403431.0,365321.0
2026-04-07 17:38:52.208558,108624,602593164,602594956,0.866688,0.074176,-0.103456,5.39,8.1375,-3.40375,-8.552,-22.536001,19.968,inter_set_rest,0,3.0,32930.0,403431.0,363348.0,403431.0,365321.0
2026-04-07 17:38:52.210163,108625,602602101,602603713,0.86864,0.080032,-0.101504,5.62625,7.93625,-3.4825,-8.64,-22.368002,21.064001,inter_set_rest,0,3.0,32930.0,403431.0,363348.0,403431.0,365321.0
2026-04-07 17:38:52.237162,108635,602611119,602612458,0.86864,0.080032,-0.101504,5.01375,7.65625,-3.2025,-8.64,-22.368002,21.064001,inter_set_rest,0,3.0,32899.0,403431.0,363280.0,403431.0,365295.0
2026-04-07 17:38:52.243118,108636,602625599,602627383,0.870592,0.062464,-0.105408,5.0925,7.98,-3.03625,-8.8,-22.240002,20.736,inter_set_rest,0,3.0,32899.0,403431.0,363280.0,403431.0,365295.0
2026-04-07 17:38:52.244793,108637,602634560,602636137,0.870592,0.062464,-0.105408,5.915,7.56875,-2.84375,-8.8,-22.240002,20.736,inter_set_rest,0,3.0,32899.0,403431.0,363280.0,403431.0,365295.0
2026-04-07 17:38:52.247375,108638,602643479,602644833,0.866688,0.072224,-0.0976,6.64125,7.6125,-2.4675,-8.896001,-22.384,20.800001,inter_set_rest,0,3.0,32899.0,403431.0,363280.0,403431.0,365295.0
2026-04-07 17:38:52.248941,108639,602658155,602659775,0.862784,0.070272,-0.08784,6.93,6.85125,-2.31,-7.968,-21.824001,20.088001,inter_set_rest,0,3.0,32899.0,403431.0,363280.0,403431.0,365295.0
2026-04-07 17:38:52.254216,108640,602667087,602668485,0.862784,0.070272,-0.08784,6.72,6.44875,-1.855,-7.968,-21.824001,20.088001,inter_set_rest,0,3.0,32899.0,403431.0,363280.0,403431.0,365295.0
2026-04-07 17:38:52.282820,108641,602676094,602677171,0.862784,0.070272,-0.08784,6.36125,6.4225,-0.9975,-7.968,-21.824001,20.088001,inter_set_rest,0,3.0,32899.0,403431.0,363280.0,403431.0,365295.0
2026-04-07 17:38:52.287313,108642,602685079,602685805,0.866688,0.064416,-0.089792,6.7725,6.18625,-1.4,-8.536,-22.536001,22.288,inter_set_rest,0,3.0,32899.0,403431.0,363280.0,403431.0,365295.0
2026-04-07 17:38:52.288896,108643,602699938,602700687,0.86864,0.066368,-0.095648,7.35,5.78375,-1.2075,-8.328,-22.512001,20.656,inter_set_rest,0,3.0,32899.0,403431.0,363280.0,403431.0,365295.0
2026-04-07 17:38:52.316546,108654,602709509,602711529,0.86864,0.066368,-0.095648,7.72625,5.27625,-0.70875,-8.328,-22.512001,20.656,inter_set_rest,0,3.0,32788.0,403431.0,362896.0,403431.0,364923.0
2026-04-07 17:38:52.320668,108655,602718605,602720301,0.872544,0.070272,-0.089792,8.33875,5.4075,-0.3675,-9.624001,-23.04,21.856,inter_set_rest,0,3.0,32788.0,403431.0,362896.0,403431.0,364923.0
2026-04-07 17:38:52.322138,108656,602727736,602729034,0.872544,0.070272,-0.089792,8.60125,5.7225,-0.3325,-9.624001,-23.04,21.856,inter_set_rest,0,3.0,32788.0,403431.0,362896.0,403431.0,364923.0
2026-04-07 17:38:52.329270,108657,602742264,602743971,0.872544,0.060512,-0.089792,8.2775,5.74875,-0.63,-9.968,-22.384,22.688002,inter_set_rest,0,3.0,32788.0,403431.0,362896.0,403431.0,364923.0
2026-04-07 17:38:52.357805,108658,602751204,602752656,0.872544,0.060512,-0.089792,8.81125,5.4425,-0.41125,-9.968,-22.384,22.688002,inter_set_rest,0,3.0,32788.0,403431.0,362896.0,403431.0,364923.0
2026-04-07 17:38:52.362330,108659,602760126,602761336,0.866688,0.060512,-0.089792,9.37125,5.3025,-0.2975,-8.624001,-21.952002,20.992,inter_set_rest,0,3.0,32788.0,403431.0,362896.0,403431.0,364923.0
2026-04-07 17:38:52.363879,108660,602774613,602776283,0.866688,0.060512,-0.089792,10.56125,5.48625,-0.32375,-8.624001,-21.952002,20.992,inter_set_rest,0,3.0,32788.0,403431.0,362896.0,403431.0,364923.0
2026-04-07 17:38:52.370613,108661,602783532,602785007,0.866688,0.060512,-0.091744,10.955,6.09,-0.6125,-8.92,-22.392,21.176,inter_set_rest,0,3.0,32788.0,403431.0,362896.0,403431.0,364923.0
2026-04-07 17:38:52.401533,108662,602792459,602793696,0.866688,0.060512,-0.091744,10.1325,5.62625,-0.37625,-8.92,-22.392,21.176,inter_set_rest,0,3.0,32788.0,403431.0,362896.0,403431.0,364923.0
2026-04-07 17:38:52.432411,108672,602807386,602808649,0.85888,0.050752,-0.099552,9.835,5.18875,-0.18375,-8.472,-21.664001,20.52,inter_set_rest,0,3.0,32598.0,403176.0,362002.0,403431.0,363873.0
2026-04-07 17:38:52.433928,108673,602816422,602817386,0.85888,0.050752,-0.099552,9.485,5.7225,0.28,-8.472,-21.664001,20.52,inter_set_rest,0,3.0,32598.0,403176.0,362002.0,403431.0,363873.0
2026-04-07 17:38:52.438127,108674,602825329,602826119,0.860832,0.046848,-0.101504,9.625,4.9525,0.76125,-8.528001,-21.968,20.576,inter_set_rest,0,3.0,32598.0,403176.0,362002.0,403431.0,363873.0
2026-04-07 17:38:52.439822,108675,602834931,602836893,0.860832,0.046848,-0.101504,11.06,4.2525,1.2425,-8.528001,-21.968,20.576,inter_set_rest,0,3.0,32598.0,403176.0,362002.0,403431.0,363873.0
2026-04-07 17:38:52.441337,108676,602849416,602849773,0.862784,0.0488,-0.103456,12.10125,3.87625,0.9275,-9.616,-22.752,22.536001,inter_set_rest,0,3.0,32598.0,403176.0,362002.0,403431.0,363873.0
2026-04-07 17:38:52.447995,108677,602858753,602860555,0.86864,0.050752,-0.099552,14.21875,3.43,0.60375,-9.568001,-22.192001,20.608002,inter_set_rest,0,3.0,32598.0,403176.0,362002.0,403431.0,363873.0
2026-04-07 17:38:52.456811,108678,602867698,602869278,0.86864,0.050752,-0.099552,16.28375,3.4825,0.20125,-9.568001,-22.192001,20.608002,inter_set_rest,0,3.0,32598.0,403176.0,362002.0,403431.0,363873.0
2026-04-07 17:38:52.502353,108679,602876611,602877974,0.86864,0.050752,-0.099552,17.6575,3.31625,-0.2975,-9.568001,-22.192001,20.608002,inter_set_rest,0,3.0,32598.0,403176.0,362002.0,403431.0,363873.0
2026-04-07 17:38:52.506881,108680,602891107,602892857,0.876448,0.044896,-0.095648,19.1975,2.72125,-0.6125,-9.808001,-22.232,22.648,inter_set_rest,0,3.0,32598.0,403176.0,362002.0,403431.0,363873.0
2026-04-07 17:38:52.508634,108681,602900054,602901554,0.886208,0.046848,-0.08784,19.5825,2.52875,-1.02375,-8.912001,-21.688002,20.504002,inter_set_rest,0,3.0,32598.0,403176.0,362002.0,403431.0,363873.0
2026-04-07 17:38:52.538487,108691,602909461,602910423,0.886208,0.046848,-0.08784,19.97625,3.17625,-1.3125,-8.912001,-21.688002,20.504002,inter_set_rest,0,3.0,32262.0,401974.0,360044.0,403431.0,361761.0
2026-04-07 17:38:52.542116,108692,602923972,602925355,0.892064,0.056608,-0.080032,20.37,3.9025,-1.4,-9.280001,-21.904001,20.608002,inter_set_rest,0,3.0,32262.0,401974.0,360044.0,403431.0,361761.0
2026-04-07 17:38:52.549405,108693,602933014,602934088,0.892064,0.056608,-0.080032,19.1275,4.43625,-1.72375,-9.280001,-21.904001,20.608002,inter_set_rest,0,3.0,32262.0,401974.0,360044.0,403431.0,361761.0
2026-04-07 17:38:52.551166,108694,602942044,602942865,0.890112,0.03904,-0.080032,16.91375,5.94125,-2.19625,-9.56,-21.288,20.416,inter_set_rest,0,3.0,32262.0,401974.0,360044.0,403431.0,361761.0
2026-04-07 17:38:52.552711,108695,602951722,602953802,0.890112,0.03904,-0.080032,15.4875,6.37875,-2.58125,-9.56,-21.288,20.416,inter_set_rest,0,3.0,32262.0,401974.0,360044.0,403431.0,361761.0
2026-04-07 17:38:52.556808,108696,602966236,602966660,0.8784,0.044896,-0.074176,15.1025,7.0,-3.045,-9.152,-21.096,20.088001,inter_set_rest,0,3.0,32262.0,401974.0,360044.0,403431.0,361761.0
2026-04-07 17:38:52.562996,108697,602975515,602977455,0.8784,0.044896,-0.074176,14.67375,7.95375,-3.6225,-9.152,-21.096,20.088001,inter_set_rest,0,3.0,32262.0,401974.0,360044.0,403431.0,361761.0
2026-04-07 17:38:52.591601,108698,602984501,602986154,0.874496,0.042944,-0.066368,14.0175,8.60125,-3.5175,-9.88,-21.808,20.696001,inter_set_rest,0,3.0,32262.0,401974.0,360044.0,403431.0,361761.0
2026-04-07 17:38:52.596165,108699,602998994,603001028,0.862784,0.02928,-0.070272,12.53875,8.715,-3.1675,-9.88,-21.808,19.752,inter_set_rest,0,3.0,32262.0,401974.0,360044.0,403431.0,361761.0
2026-04-07 17:38:52.624957,108710,603008295,603009816,0.862784,0.02928,-0.070272,12.0225,8.91625,-3.0275,-9.232,-21.36,19.752,inter_set_rest,0,3.0,31890.0,400697.0,357940.0,403431.0,359747.0
2026-04-07 17:38:52.626036,108711,603017313,603018625,0.862784,0.02928,-0.070272,12.285,9.09125,-3.29875,-9.232,-21.36,19.752,inter_set_rest,0,3.0,31890.0,400697.0,357940.0,403431.0,359747.0
2026-04-07 17:38:52.627612,108712,603026260,603027345,0.862784,0.033184,-0.064416,12.88875,9.0475,-3.77125,-9.888001,-21.728,23.12,inter_set_rest,0,3.0,31890.0,400697.0,357940.0,403431.0,359747.0
2026-04-07 17:38:52.631703,108713,603040874,603042227,0.85888,0.033184,-0.066368,13.62375,8.645,-4.34875,-9.928,-21.864,23.960001,inter_set_rest,0,3.0,31890.0,400697.0,357940.0,403431.0,359747.0
2026-04-07 17:38:52.636784,108714,603049863,603051023,0.85888,0.033184,-0.066368,13.71125,8.47,-4.31375,-9.928,-21.864,23.960001,inter_set_rest,0,3.0,31890.0,400697.0,357940.0,403431.0,359747.0
2026-04-07 17:38:52.665277,108715,603058806,603059729,0.85888,0.017568,-0.06832,13.99125,8.11125,-4.31375,-9.928,-21.864,23.960001,inter_set_rest,0,3.0,31890.0,400697.0,357940.0,403431.0,359747.0
2026-04-07 17:38:52.669906,108716,603073331,603074616,0.856928,0.027328,-0.06832,14.83125,7.37625,-4.38375,-9.872001,-21.736002,23.392,inter_set_rest,0,3.0,31890.0,400697.0,357940.0,403431.0,359747.0
2026-04-07 17:38:52.671316,108717,603082261,603083322,0.84912,0.02928,-0.062464,15.54,7.09625,-4.445,-9.480001,-21.312,20.232,inter_set_rest,0,3.0,31890.0,400697.0,357940.0,403431.0,359747.0
2026-04-07 17:38:52.681839,108718,603091200,603092019,0.84912,0.02928,-0.062464,15.98625,6.2825,-4.375,-9.480001,-21.312,20.232,inter_set_rest,0,3.0,31890.0,400697.0,357940.0,403431.0,359747.0
2026-04-07 17:38:52.761017,108728,603105684,603107352,0.841312,0.025376,-0.064416,16.7125,5.215,-4.08625,-8.408,-20.888,20.480001,inter_set_rest,0,3.0,31531.0,398068.0,355623.0,403431.0,357603.0
2026-04-07 17:38:52.763508,108729,603114608,603116020,0.841312,0.025376,-0.064416,16.5725,4.725,-3.99875,-8.408,-20.888,20.480001,inter_set_rest,0,3.0,31531.0,398068.0,355623.0,403431.0,357603.0
2026-04-07 17:38:52.765123,108730,603123526,603124767,0.837408,0.01952,-0.066368,16.59875,3.36,-4.165,-9.536,-21.648,20.320002,inter_set_rest,0,3.0,31531.0,398068.0,355623.0,403431.0,357603.0
2026-04-07 17:38:52.769510,108731,603132441,603133492,0.837408,0.01952,-0.066368,17.28125,2.31875,-3.8675,-9.536,-21.648,20.320002,inter_set_rest,0,3.0,31531.0,398068.0,355623.0,403431.0,357603.0
2026-04-07 17:38:52.804905,108732,603146944,603148366,0.835456,0.015616,-0.06832,18.2,1.67125,-3.12375,-9.128,-21.448002,19.992,inter_set_rest,0,3.0,31531.0,398068.0,355623.0,403431.0,357603.0
2026-04-07 17:38:52.809346,108733,603155876,603157049,0.835456,0.015616,-0.06832,18.585001,0.06125,-2.12625,-9.128,-21.448002,19.992,inter_set_rest,0,3.0,31531.0,398068.0,355623.0,403431.0,357603.0
2026-04-07 17:38:52.811030,108734,603164853,603165733,0.841312,0.015616,-0.072224,18.19125,-0.5425,-1.4,-9.432,-20.960001,20.296001,inter_set_rest,0,3.0,31531.0,398068.0,355623.0,403431.0,357603.0
2026-04-07 17:38:52.812642,108735,603179426,603180687,0.841312,0.01952,-0.076128,18.305,-1.3125,-0.44625,-9.432,-20.960001,20.296001,inter_set_rest,0,3.0,31531.0,398068.0,355623.0,403431.0,357603.0
2026-04-07 17:38:52.816079,108736,603188367,603189444,0.85888,0.01952,-0.076128,18.62,-2.02125,0.49,-10.440001,-21.480001,21.408,inter_set_rest,0,3.0,31531.0,398068.0,355623.0,403431.0,357603.0
2026-04-07 17:38:52.818585,108737,603197297,603198129,0.85888,0.01952,-0.076128,19.0575,-2.66875,0.84,-10.440001,-21.480001,21.408,inter_set_rest,0,3.0,31531.0,398068.0,355623.0,403431.0,357603.0
2026-04-07 17:38:52.842604,108747,603212048,603213106,0.876448,0.021472,-0.080032,19.60875,-2.65125,0.8925,-8.952001,-20.776001,20.2,inter_set_rest,0,3.0,31328.0,396660.0,354415.0,403431.0,356531.0
2026-04-07 17:38:52.846106,108748,603220993,603221814,0.895968,0.023424,-0.085888,19.88,-2.30125,1.0675,-9.088,-20.624,19.136002,inter_set_rest,0,3.0,31328.0,396660.0,354415.0,403431.0,356531.0
2026-04-07 17:38:52.847460,108749,603229956,603230533,0.895968,0.023424,-0.085888,19.95875,-2.59,0.49875,-9.088,-20.624,19.136002,inter_set_rest,0,3.0,31328.0,396660.0,354415.0,403431.0,356531.0
2026-04-07 17:38:52.850142,108750,603239179,603241323,0.895968,0.023424,-0.085888,20.23875,-2.02125,0.34125,-9.088,-20.624,19.136002,inter_set_rest,0,3.0,31328.0,396660.0,354415.0,403431.0,356531.0
2026-04-07 17:38:52.852691,108751,603253846,603254197,0.90768,0.027328,-0.081984,20.57125,-1.3125,-0.14875,-9.728001,-20.584002,19.536001,inter_set_rest,0,3.0,31328.0,396660.0,354415.0,403431.0,356531.0
2026-04-07 17:38:52.855162,108752,603263097,603265034,0.915488,0.02928,-0.089792,20.195,-0.8925,-1.0675,-10.192,-20.632002,19.480001,inter_set_rest,0,3.0,31328.0,396660.0,354415.0,403431.0,356531.0
2026-04-07 17:38:52.857560,108753,603272034,603273761,0.915488,0.02928,-0.089792,20.475,-0.21,-2.0475,-10.192,-20.632002,19.480001,inter_set_rest,0,3.0,31328.0,396660.0,354415.0,403431.0,356531.0
2026-04-07 17:38:52.887795,108754,603286534,603288685,0.911584,0.040992,-0.076128,20.2825,1.0675,-3.42125,-9.896001,-20.6,19.904001,inter_set_rest,0,3.0,31328.0,396660.0,354415.0,403431.0,356531.0
2026-04-07 17:38:52.891254,108755,603295470,603297373,0.911584,0.040992,-0.076128,20.57125,1.74125,-4.4275,-9.896001,-20.6,19.904001,inter_set_rest,0,3.0,31328.0,396660.0,354415.0,403431.0,356531.0
2026-04-07 17:38:52.893832,108756,603304395,603306046,0.909632,0.033184,-0.07808,20.2825,2.6425,-5.8275,-9.584001,-20.352001,19.720001,inter_set_rest,0,3.0,31328.0,396660.0,354415.0,403431.0,356531.0
2026-04-07 17:38:52.921324,108767,603313450,603314808,0.909632,0.033184,-0.07808,18.62875,3.08,-6.48375,-9.584001,-20.352001,19.720001,inter_set_rest,0,3.0,31210.0,396035.0,353950.0,403431.0,356151.0
2026-04-07 17:38:52.926319,108768,603328004,603329796,0.890112,0.027328,-0.076128,18.38375,3.40375,-7.67375,-10.272,-20.352001,21.880001,inter_set_rest,0,3.0,31210.0,396035.0,353950.0,403431.0,356151.0
2026-04-07 17:38:52.931365,108769,603336945,603338494,0.890112,0.027328,-0.076128,18.865,3.77125,-8.56625,-10.272,-20.352001,21.880001,inter_set_rest,0,3.0,31210.0,396035.0,353950.0,403431.0,356151.0
2026-04-07 17:38:52.933797,108770,603345937,603347230,0.882304,0.02928,-0.083936,19.0925,3.3075,-9.2225,-9.976001,-21.336,22.28,inter_set_rest,0,3.0,31210.0,396035.0,353950.0,403431.0,356151.0
2026-04-07 17:38:52.963979,108771,603360526,603362178,0.86864,0.033184,-0.083936,19.81,3.33375,-9.44125,-9.976001,-19.288,20.44,inter_set_rest,0,3.0,31210.0,396035.0,353950.0,403431.0,356151.0
2026-04-07 17:38:52.967646,108772,603369582,603370912,0.86864,0.033184,-0.083936,20.16,3.01,-10.2725,-9.896001,-20.208,20.44,inter_set_rest,0,3.0,31210.0,396035.0,353950.0,403431.0,356151.0
2026-04-07 17:38:52.970079,108773,603378518,603379593,0.86864,0.033184,-0.083936,20.2825,2.93125,-10.07125,-9.896001,-20.208,20.44,inter_set_rest,0,3.0,31210.0,396035.0,353950.0,403431.0,356151.0
2026-04-07 17:38:52.985105,108774,603393022,603394524,0.856928,0.035136,-0.091744,21.11375,2.59,-10.01875,-9.016001,-19.808,19.320002,inter_set_rest,0,3.0,31210.0,396035.0,353950.0,403431.0,356151.0
2026-04-07 17:38:52.987540,108775,603401970,603403217,0.84912,0.035136,-0.089792,20.9825,1.8725,-9.63375,-9.744,-19.984001,19.312,inter_set_rest,0,3.0,31210.0,396035.0,353950.0,403431.0,356151.0
2026-04-07 17:38:53.015234,108785,603410972,603411972,0.84912,0.035136,-0.089792,21.805,1.05875,-9.12625,-9.744,-19.984001,19.312,inter_set_rest,0,3.0,31211.0,396209.0,354163.0,403431.0,356528.0
2026-04-07 17:38:53.017673,108786,603419943,603420705,0.84912,0.035136,-0.089792,22.98625,0.56,-9.30125,-9.744,-19.984001,19.312,inter_set_rest,0,3.0,31211.0,396209.0,354163.0,403431.0,356528.0
2026-04-07 17:38:53.024459,108787,603434916,603435629,0.84912,0.033184,-0.081984,23.37125,0.0875,-8.77625,-9.632001,-19.856,17.776001,inter_set_rest,0,3.0,31211.0,396209.0,354163.0,403431.0,356528.0
2026-04-07 17:38:53.054016,108788,603444237,603446430,0.847168,0.031232,-0.085888,23.7475,-1.1725,-7.72625,-9.144,-20.704,18.880001,inter_set_rest,0,3.0,31211.0,396209.0,354163.0,403431.0,356528.0
2026-04-07 17:38:53.057626,108789,603453149,603455129,0.847168,0.031232,-0.085888,23.975,-1.42625,-6.895,-9.144,-20.704,18.880001,inter_set_rest,0,3.0,31211.0,396209.0,354163.0,403431.0,356528.0
2026-04-07 17:38:53.060042,108790,603467627,603467967,0.845216,0.023424,-0.099552,24.63125,-2.14375,-6.0725,-9.744,-19.824001,19.12,inter_set_rest,0,3.0,31211.0,396209.0,354163.0,403431.0,356528.0
2026-04-07 17:38:53.063914,108791,603476807,603478805,0.845216,0.023424,-0.099552,25.3925,-2.8175,-5.6875,-9.744,-19.824001,19.12,inter_set_rest,0,3.0,31211.0,396209.0,354163.0,403431.0,356528.0
2026-04-07 17:38:53.104045,108792,603485752,603487499,0.837408,0.025376,-0.091744,26.10125,-3.78875,-4.6025,-9.464001,-19.824001,19.0,inter_set_rest,0,3.0,31211.0,396209.0,354163.0,403431.0,356528.0
2026-04-07 17:38:53.106019,108793,603494670,603496216,0.837408,0.025376,-0.091744,26.6875,-5.0575,-3.4475,-9.464001,-19.824001,19.0,inter_set_rest,0,3.0,31211.0,396209.0,354163.0,403431.0,356528.0
2026-04-07 17:38:53.135611,108803,603509561,603511157,0.843264,0.027328,-0.113216,27.15125,-6.2125,-2.79125,-9.552,-19.968,19.072,inter_set_rest,0,3.0,31340.0,397300.0,355152.0,403431.0,357602.0
2026-04-07 17:38:53.137317,108804,603518575,603519889,0.843264,0.027328,-0.113216,26.9675,-6.58,-1.82,-9.552,-19.968,19.072,inter_set_rest,0,3.0,31340.0,397300.0,355152.0,403431.0,357602.0
2026-04-07 17:38:53.138870,108805,603527504,603528631,0.841312,0.02928,-0.105408,27.536251,-6.83375,-1.14625,-9.76,-19.272001,18.328001,inter_set_rest,0,3.0,31340.0,397300.0,355152.0,403431.0,357602.0
2026-04-07 17:38:53.143123,108806,603542007,603543599,0.862784,0.01952,-0.113216,28.09625,-6.79,-1.04125,-10.224001,-19.552,19.056002,inter_set_rest,0,3.0,31340.0,397300.0,355152.0,403431.0,357602.0
2026-04-07 17:38:53.144841,108807,603551026,603552337,0.862784,0.01952,-0.113216,27.825,-6.79875,-0.90125,-10.224001,-19.552,19.056002,inter_set_rest,0,3.0,31340.0,397300.0,355152.0,403431.0,357602.0
2026-04-07 17:38:53.147543,108808,603559957,603561052,0.862784,0.01952,-0.113216,28.192501,-7.0,-0.49,-10.224001,-19.552,19.056002,inter_set_rest,0,3.0,31340.0,397300.0,355152.0,403431.0,357602.0
2026-04-07 17:38:53.176609,108809,603568961,603569824,0.870592,0.013664,-0.119072,28.35875,-6.8075,0.35,-9.552,-19.488,17.560001,inter_set_rest,0,3.0,31340.0,397300.0,355152.0,403431.0,357602.0
2026-04-07 17:38:53.181683,108810,603583452,603584778,0.880352,0.005856,-0.122976,26.985,-6.46625,0.74375,-9.504001,-19.096,18.088001,inter_set_rest,0,3.0,31340.0,397300.0,355152.0,403431.0,357602.0
2026-04-07 17:38:53.182557,108811,603592352,603593493,0.880352,0.005856,-0.122976,25.655,-6.01125,1.74125,-9.504001,-19.096,18.088001,inter_set_rest,0,3.0,31340.0,397300.0,355152.0,403431.0,357602.0
2026-04-07 17:38:53.188065,108812,603601270,603602195,0.89792,0.003904,-0.128832,24.50875,-5.74875,2.52875,-9.504001,-19.096,21.392,inter_set_rest,0,3.0,31340.0,397300.0,355152.0,403431.0,357602.0
2026-04-07 17:38:53.241842,108822,603615828,603617143,0.89792,0.003904,-0.128832,25.03375,-5.01375,2.37125,-9.912001,-18.936,21.392,inter_set_rest,0,3.0,31357.0,397617.0,355535.0,403431.0,357960.0
2026-04-07 17:38:53.243543,108823,603624714,603625905,0.901824,0.023424,-0.122976,24.70125,-3.99,1.54875,-9.696,-18.448,18.152,inter_set_rest,0,3.0,31357.0,397617.0,355535.0,403431.0,357960.0
2026-04-07 17:38:53.246046,108824,603633634,603634613,0.901824,0.023424,-0.122976,25.03375,-2.87875,0.4725,-9.696,-18.448,18.152,inter_set_rest,0,3.0,31357.0,397617.0,355535.0,403431.0,357960.0
2026-04-07 17:38:53.247569,108825,603648120,603649686,0.899872,0.013664,-0.132736,24.395,-2.0475,-0.1225,-10.216001,-19.400002,20.824001,inter_set_rest,0,3.0,31357.0,397617.0,355535.0,403431.0,357960.0
2026-04-07 17:38:53.251878,108826,603657044,603658381,0.899872,0.013664,-0.132736,22.25125,-1.54,-1.60125,-10.216001,-19.400002,20.824001,inter_set_rest,0,3.0,31357.0,397617.0,355535.0,403431.0,357960.0
2026-04-07 17:38:53.254395,108827,603665987,603667125,0.901824,0.007808,-0.130784,20.57125,-0.46375,-2.1875,-9.568001,-18.544,20.456001,inter_set_rest,0,3.0,31357.0,397617.0,355535.0,403431.0,357960.0
2026-04-07 17:38:53.287384,108828,603680447,603682069,0.901824,0.007808,-0.130784,19.94125,0.2275,-3.00125,-9.568001,-18.544,20.456001,inter_set_rest,0,3.0,31357.0,397617.0,355535.0,403431.0,357960.0
2026-04-07 17:38:53.291874,108829,603689350,603690791,0.895968,0.005856,-0.140544,18.6025,0.84875,-3.29875,-9.304001,-18.088001,17.288,inter_set_rest,0,3.0,31357.0,397617.0,355535.0,403431.0,357960.0
2026-04-07 17:38:53.294552,108830,603698259,603699496,0.895968,0.005856,-0.140544,18.06875,1.00625,-4.06875,-9.304001,-18.088001,17.288,inter_set_rest,0,3.0,31357.0,397617.0,355535.0,403431.0,357960.0
2026-04-07 17:38:53.327319,108841,603713267,603715026,0.886208,0.00976,-0.140544,18.585001,1.7675,-5.53875,-9.376,-18.528002,17.656,inter_set_rest,0,3.0,31211.0,396874.0,354998.0,403431.0,357513.0
2026-04-07 17:38:53.329008,108842,603722322,603723743,0.874496,0.00976,-0.140544,19.87125,2.37125,-6.69375,-9.64,-18.288,18.52,inter_set_rest,0,3.0,31211.0,396874.0,354998.0,403431.0,357513.0
2026-04-07 17:38:53.333133,108843,603731300,603732469,0.874496,0.00976,-0.140544,19.74875,2.59875,-7.21875,-9.64,-18.288,18.52,inter_set_rest,0,3.0,31211.0,396874.0,354998.0,403431.0,357513.0
2026-04-07 17:38:53.334783,108844,603740253,603741254,0.874496,0.00976,-0.140544,19.3025,2.73875,-7.945,-9.64,-18.288,18.52,inter_set_rest,0,3.0,31211.0,396874.0,354998.0,403431.0,357513.0
2026-04-07 17:38:53.341751,108845,603754786,603756186,0.864736,0.017568,-0.134688,19.15375,2.98375,-8.26,-9.440001,-18.68,17.728,inter_set_rest,0,3.0,31211.0,396874.0,354998.0,403431.0,357513.0
2026-04-07 17:38:53.399972,108846,603763746,603764902,0.854976,0.013664,-0.142496,17.26375,2.8875,-8.417501,-9.904,-18.864,19.344002,inter_set_rest,0,3.0,31211.0,396874.0,354998.0,403431.0,357513.0
2026-04-07 17:38:53.401488,108847,603772762,603773598,0.854976,0.013664,-0.142496,15.190001,2.765,-8.61875,-9.904,-18.864,19.344002,inter_set_rest,0,3.0,31211.0,396874.0,354998.0,403431.0,357513.0
2026-04-07 17:38:53.406030,108848,603787220,603788458,0.837408,0.0,-0.152256,14.2975,2.19625,-7.90125,-9.072001,-18.392,17.888,inter_set_rest,0,3.0,31211.0,396874.0,354998.0,403431.0,357513.0
2026-04-07 17:38:53.408559,108849,603796191,603797260,0.837408,0.0,-0.152256,14.735,2.03875,-6.99125,-9.072001,-18.392,17.888,inter_set_rest,0,3.0,31211.0,396874.0,354998.0,403431.0,357513.0
2026-04-07 17:38:53.410085,108850,603805134,603805956,0.833504,0.001952,-0.152256,16.1875,1.72375,-6.25625,-9.392,-17.872002,17.392,inter_set_rest,0,3.0,31211.0,396874.0,354998.0,403431.0,357513.0
2026-04-07 17:38:53.436024,108860,603814569,603816803,0.833504,0.001952,-0.152256,18.17375,1.1375,-5.04,-9.392,-17.872002,17.392,inter_set_rest,0,3.0,31423.0,398230.0,356101.0,403431.0,358780.0
2026-04-07 17:38:53.437637,108861,603829190,603829671,0.823744,0.013664,-0.154208,20.29125,-0.06125,-4.43625,-9.736,-17.68,18.496,inter_set_rest,0,3.0,31423.0,398230.0,356101.0,403431.0,358780.0
2026-04-07 17:38:53.441889,108862,603838593,603840487,0.823744,0.013664,-0.154208,21.5425,-0.77875,-3.7275,-9.736,-17.68,18.496,inter_set_rest,0,3.0,31423.0,398230.0,356101.0,403431.0,358780.0
2026-04-07 17:38:53.443626,108863,603847552,603849187,0.827648,0.017568,-0.158112,21.55125,-1.21625,-2.9925,-9.816001,-18.2,19.064001,inter_set_rest,0,3.0,31423.0,398230.0,356101.0,403431.0,358780.0
2026-04-07 17:38:53.445437,108864,603856535,603857920,0.827648,0.017568,-0.158112,21.13125,-1.4525,-2.40625,-9.816001,-18.2,19.064001,inter_set_rest,0,3.0,31423.0,398230.0,356101.0,403431.0,358780.0
2026-04-07 17:38:53.476227,108865,603871053,603872850,0.835456,0.007808,-0.158112,20.51875,-1.68875,-2.065,-9.864,-18.408,18.536001,inter_set_rest,0,3.0,31423.0,398230.0,356101.0,403431.0,358780.0
2026-04-07 17:38:53.478503,108866,603879970,603881557,0.835456,0.007808,-0.158112,19.705,-1.0325,-1.925,-9.864,-18.408,18.536001,inter_set_rest,0,3.0,31423.0,398230.0,356101.0,403431.0,358780.0
2026-04-07 17:38:53.483084,108867,603888981,603890279,0.854976,0.001952,-0.150304,18.1125,-0.1575,-1.89875,-9.304001,-17.808,17.896,inter_set_rest,0,3.0,31423.0,398230.0,356101.0,403431.0,358780.0
2026-04-07 17:38:53.511516,108868,603903558,603905212,0.8784,-0.005856,-0.15616,16.2575,0.56,-1.19875,-10.0,-17.672,18.776001,inter_set_rest,0,3.0,31423.0,398230.0,356101.0,403431.0,358780.0
2026-04-07 17:38:53.538519,108878,603912706,603914070,0.8784,-0.005856,-0.15616,15.32125,1.3125,-0.90125,-10.0,-17.672,18.776001,inter_set_rest,0,3.0,31564.0,399173.0,356825.0,403431.0,359591.0
2026-04-07 17:38:53.540997,108879,603921696,603922798,0.8784,-0.005856,-0.15616,15.00625,1.54,-0.805,-10.0,-17.672,18.776001,inter_set_rest,0,3.0,31564.0,399173.0,356825.0,403431.0,359591.0
2026-04-07 17:38:53.542559,108880,603936166,603937734,0.892064,0.0,-0.150304,14.44625,2.0475,-0.77,-9.384001,-17.712,17.088001,inter_set_rest,0,3.0,31564.0,399173.0,356825.0,403431.0,359591.0
2026-04-07 17:38:53.547016,108881,603945215,603946479,0.899872,-0.003904,-0.163968,13.58,2.59,-1.05,-9.096001,-17.608002,17.112001,inter_set_rest,0,3.0,31564.0,399173.0,356825.0,403431.0,359591.0
2026-04-07 17:38:53.548717,108882,603954144,603955237,0.899872,-0.003904,-0.163968,13.11625,3.0625,-1.085,-9.096001,-17.608002,17.112001,inter_set_rest,0,3.0,31564.0,399173.0,356825.0,403431.0,359591.0
2026-04-07 17:38:53.550527,108883,603963090,603963938,0.915488,-0.001952,-0.154208,12.60875,3.5875,-1.1375,-8.928,-17.160002,17.152,inter_set_rest,0,3.0,31564.0,399173.0,356825.0,403431.0,359591.0
2026-04-07 17:38:53.581223,108884,603977626,603978890,0.915488,-0.001952,-0.154208,12.52125,4.2175,-1.44375,-8.928,-17.160002,17.152,inter_set_rest,0,3.0,31564.0,399173.0,356825.0,403431.0,359591.0
2026-04-07 17:38:53.586008,108885,603986541,603987630,0.919392,0.00976,-0.150304,12.62625,5.81,-2.12625,-9.432,-17.2,17.216002,inter_set_rest,0,3.0,31564.0,399173.0,356825.0,403431.0,359591.0
2026-04-07 17:38:53.587181,108886,603995472,603996312,0.919392,0.00976,-0.150304,12.55625,6.64125,-3.40375,-9.432,-17.2,17.216002,inter_set_rest,0,3.0,31564.0,399173.0,356825.0,403431.0,359591.0
2026-04-07 17:38:53.617385,108887,604009968,604011255,0.90768,0.013664,-0.124928,11.50625,8.2425,-4.85625,-10.288,-17.336,20.312,inter_set_rest,0,3.0,31564.0,399173.0,356825.0,403431.0,359591.0
2026-04-07 17:38:53.651603,108898,604018912,604020096,0.90768,0.013664,-0.124928,10.7625,9.52875,-6.50125,-10.288,-17.336,20.312,inter_set_rest,0,3.0,31606.0,399550.0,357201.0,403431.0,360084.0
2026-04-07 17:38:53.655611,108899,604027806,604028874,0.901824,0.001952,-0.119072,8.995,10.33375,-7.76125,-9.76,-17.352001,17.416,inter_set_rest,0,3.0,31606.0,399550.0,357201.0,403431.0,360084.0
2026-04-07 17:38:53.657291,108900,604042329,604043795,0.901824,0.001952,-0.122976,7.76125,11.585,-8.7325,-9.76,-17.352001,17.416,inter_set_rest,0,3.0,31606.0,399550.0,357201.0,403431.0,360084.0
2026-04-07 17:38:53.658885,108901,604051278,604052617,0.892064,0.003904,-0.122976,6.99125,12.3025,-9.42375,-9.832001,-17.552,16.952002,inter_set_rest,0,3.0,31606.0,399550.0,357201.0,403431.0,360084.0
2026-04-07 17:38:53.663543,108902,604060246,604061316,0.892064,0.003904,-0.122976,6.23,12.48625,-10.15875,-9.832001,-17.552,16.952002,inter_set_rest,0,3.0,31606.0,399550.0,357201.0,403431.0,360084.0
2026-04-07 17:38:53.664788,108903,604074779,604076258,0.8784,0.011712,-0.128832,5.99375,13.51,-10.31625,-11.112,-17.92,20.296001,inter_set_rest,0,3.0,31606.0,399550.0,357201.0,403431.0,360084.0
2026-04-07 17:38:53.703717,108904,604083755,604085066,0.85888,0.015616,-0.119072,6.01125,13.71125,-10.71,-11.280001,-18.072,18.480001,inter_set_rest,0,3.0,31606.0,399550.0,357201.0,403431.0,360084.0
2026-04-07 17:38:53.705996,108905,604092691,604093754,0.85888,0.015616,-0.119072,6.53625,13.6325,-10.605001,-11.280001,-18.072,18.480001,inter_set_rest,0,3.0,31606.0,399550.0,357201.0,403431.0,360084.0
2026-04-07 17:38:53.711035,108906,604101614,604102460,0.85888,0.015616,-0.119072,6.615,13.7725,-10.5,-11.280001,-18.072,18.480001,inter_set_rest,0,3.0,31606.0,399550.0,357201.0,403431.0,360084.0
2026-04-07 17:38:53.733966,108916,604116273,604117443,0.837408,0.011712,-0.119072,6.79875,13.335,-10.43,-9.392,-17.552,17.072,inter_set_rest,0,3.0,31683.0,400141.0,357784.0,403431.0,360691.0
2026-04-07 17:38:53.737413,108917,604125242,604126117,0.83936,0.005856,-0.105408,6.86,12.83625,-10.43875,-10.144,-17.512001,17.048,inter_set_rest,0,3.0,31683.0,400141.0,357784.0,403431.0,360691.0
2026-04-07 17:38:53.738984,108918,604134210,604134906,0.83936,0.005856,-0.105408,6.58,12.1275,-9.7125,-10.144,-17.512001,17.048,inter_set_rest,0,3.0,31683.0,400141.0,357784.0,403431.0,360691.0
2026-04-07 17:38:53.743118,108919,604149251,604149868,0.825696,0.0,-0.103456,5.985,11.82125,-8.79375,-10.096001,-17.808,19.008001,inter_set_rest,0,3.0,31683.0,400141.0,357784.0,403431.0,360691.0
2026-04-07 17:38:53.746768,108920,604158597,604160662,0.825696,0.0,-0.103456,5.7925,11.13875,-7.77875,-10.096001,-17.808,19.008001,inter_set_rest,0,3.0,31683.0,400141.0,357784.0,403431.0,360691.0
2026-04-07 17:38:53.775170,108921,604167513,604169341,0.8296,0.003904,-0.099552,6.685,9.765,-6.5625,-10.416,-17.528002,18.552,inter_set_rest,0,3.0,31683.0,400141.0,357784.0,403431.0,360691.0
2026-04-07 17:38:53.779756,108922,604176453,604178024,0.8296,0.003904,-0.099552,7.48125,9.0475,-5.50375,-10.416,-17.528002,18.552,inter_set_rest,0,3.0,31683.0,400141.0,357784.0,403431.0,360691.0
2026-04-07 17:38:53.781268,108923,604191010,604193170,0.83936,0.017568,-0.099552,8.015,8.37375,-4.87375,-10.088,-17.728,17.792002,inter_set_rest,0,3.0,31683.0,400141.0,357784.0,403431.0,360691.0
2026-04-07 17:38:53.789283,108924,604199931,604201863,0.83936,0.017568,-0.099552,8.74125,8.25125,-4.795,-10.088,-17.728,17.792002,inter_set_rest,0,3.0,31683.0,400141.0,357784.0,403431.0,360691.0
2026-04-07 17:38:53.817858,108925,604208881,604210578,0.84912,0.005856,-0.095648,8.32125,8.417501,-4.55875,-10.440001,-17.856,19.336,inter_set_rest,0,3.0,31683.0,400141.0,357784.0,403431.0,360691.0
2026-04-07 17:38:53.853115,108935,604223542,604223930,0.864736,-0.005856,-0.095648,7.62125,8.4525,-4.33125,-10.440001,-17.856,17.800001,inter_set_rest,0,3.0,31512.0,399017.0,356845.0,403431.0,359638.0
2026-04-07 17:38:53.854837,108936,604232803,604234684,0.860832,-0.005856,-0.095648,7.02625,8.60125,-4.29625,-10.696,-17.696001,17.800001,inter_set_rest,0,3.0,31512.0,399017.0,356845.0,403431.0,359638.0
2026-04-07 17:38:53.856380,108937,604241734,604243450,0.860832,-0.005856,-0.095648,6.65875,8.58375,-4.2875,-10.696,-17.696001,17.800001,inter_set_rest,0,3.0,31512.0,399017.0,356845.0,403431.0,359638.0
2026-04-07 17:38:53.865640,108938,604250827,604252143,0.8784,-0.003904,-0.101504,6.36125,9.00375,-4.2175,-11.568001,-17.648,20.312,inter_set_rest,0,3.0,31512.0,399017.0,356845.0,403431.0,359638.0
2026-04-07 17:38:53.867321,108939,604265360,604267091,0.882304,-0.001952,-0.095648,5.7575,9.38,-4.27875,-11.52,-17.848001,19.656,inter_set_rest,0,3.0,31512.0,399017.0,356845.0,403431.0,359638.0
2026-04-07 17:38:53.869140,108940,604274261,604275808,0.882304,-0.001952,-0.095648,5.04875,10.08,-4.34,-11.52,-17.848001,19.656,inter_set_rest,0,3.0,31512.0,399017.0,356845.0,403431.0,359638.0
2026-04-07 17:38:53.873115,108941,604283208,604284502,0.882304,-0.001952,-0.103456,4.1125,10.63125,-4.80375,-11.52,-17.848001,19.656,inter_set_rest,0,3.0,31512.0,399017.0,356845.0,403431.0,359638.0
2026-04-07 17:38:53.904663,108942,604297690,604299462,0.905728,-0.003904,-0.103456,3.85,11.10375,-6.04625,-10.024,-17.656,18.832,inter_set_rest,0,3.0,31512.0,399017.0,356845.0,403431.0,359638.0
2026-04-07 17:38:53.907598,108943,604306609,604308177,0.915488,0.003904,-0.093696,3.77125,12.145,-6.9825,-10.56,-17.568,18.056002,inter_set_rest,0,3.0,31512.0,399017.0,356845.0,403431.0,359638.0
2026-04-07 17:38:53.938827,108954,604315791,604316930,0.915488,0.003904,-0.093696,2.9225,13.440001,-7.42875,-10.56,-17.568,18.056002,inter_set_rest,0,3.0,31167.0,396751.0,354992.0,403431.0,357732.0
2026-04-07 17:38:53.941311,108955,604330530,604331921,0.915488,0.00976,-0.099552,1.60125,14.56875,-8.82,-10.624001,-17.608002,18.208,inter_set_rest,0,3.0,31167.0,396751.0,354992.0,403431.0,357732.0
2026-04-07 17:38:53.943869,108956,604339506,604340674,0.915488,0.00976,-0.099552,0.2975,15.61,-10.0275,-10.624001,-17.608002,18.208,inter_set_rest,0,3.0,31167.0,396751.0,354992.0,403431.0,357732.0
2026-04-07 17:38:53.946320,108957,604348524,604349393,0.90768,0.001952,-0.099552,0.11375,16.58125,-11.03375,-11.128,-18.488,20.84,inter_set_rest,0,3.0,31167.0,396751.0,354992.0,403431.0,357732.0
2026-04-07 17:38:53.948967,108958,604357478,604358144,0.90768,0.001952,-0.099552,0.2975,17.2025,-12.2675,-11.128,-18.488,20.84,inter_set_rest,0,3.0,31167.0,396751.0,354992.0,403431.0,357732.0
2026-04-07 17:38:54.024035,108959,604372353,604373099,0.905728,0.015616,-0.0976,1.4525,17.22875,-13.69375,-11.032001,-18.064001,18.208,inter_set_rest,0,3.0,31167.0,396751.0,354992.0,403431.0,357732.0
2026-04-07 17:38:54.027540,108960,604381760,604383894,0.905728,0.015616,-0.0976,2.31875,18.05125,-14.44625,-11.032001,-18.064001,18.208,inter_set_rest,0,3.0,31167.0,396751.0,354992.0,403431.0,357732.0
2026-04-07 17:38:54.038975,108961,604390690,604392610,0.890112,0.017568,-0.074176,2.00375,18.9,-15.190001,-12.296001,-18.544,21.776001,inter_set_rest,0,3.0,31167.0,396751.0,354992.0,403431.0,357732.0
2026-04-07 17:38:54.041340,108962,604405144,604405462,0.882304,0.01952,-0.081984,1.53125,19.18,-16.63375,-10.592001,-17.432001,18.624,inter_set_rest,0,3.0,31167.0,396751.0,354992.0,403431.0,357732.0
2026-04-07 17:38:54.072652,108972,604414418,604416866,0.882304,0.01952,-0.081984,0.805,19.7925,-17.5875,-10.592001,-17.432001,18.624,inter_set_rest,0,3.0,30843.0,394430.0,353104.0,403431.0,355940.0
2026-04-07 17:38:54.075057,108973,604423410,604425548,0.882304,0.01952,-0.081984,-0.11375,20.3875,-18.33125,-10.592001,-17.432001,18.624,inter_set_rest,0,3.0,30843.0,394430.0,353104.0,403431.0,355940.0
2026-04-07 17:38:54.077570,108974,604432337,604434232,0.876448,0.017568,-0.060512,-1.44375,21.6125,-18.20875,-11.344001,-18.0,19.104,inter_set_rest,0,3.0,30843.0,394430.0,353104.0,403431.0,355940.0
2026-04-07 17:38:54.080046,108975,604446817,604447158,0.864736,0.017568,-0.060512,-1.51375,22.3475,-17.6575,-11.416,-18.208,19.296001,inter_set_rest,0,3.0,30843.0,394430.0,353104.0,403431.0,355940.0
2026-04-07 17:38:54.082640,108976,604455999,604457855,0.864736,0.017568,-0.060512,-1.1375,22.98625,-17.22875,-11.416,-18.208,19.296001,inter_set_rest,0,3.0,30843.0,394430.0,353104.0,403431.0,355940.0
2026-04-07 17:38:54.085207,108977,604464965,604466563,0.856928,0.023424,-0.054656,-0.805,23.66875,-17.3425,-11.592001,-18.768002,17.304,inter_set_rest,0,3.0,30843.0,394430.0,353104.0,403431.0,355940.0
2026-04-07 17:38:54.087906,108978,604479528,604481534,0.856928,0.023424,-0.054656,0.11375,23.24875,-17.0625,-11.592001,-18.768002,17.304,inter_set_rest,0,3.0,30843.0,394430.0,353104.0,403431.0,355940.0
2026-04-07 17:38:54.094780,108979,604488554,604490287,0.864736,0.02928,-0.046848,1.39125,23.12625,-17.0275,-11.232,-18.472,20.792002,inter_set_rest,0,3.0,30843.0,394430.0,353104.0,403431.0,355940.0
2026-04-07 17:38:54.097251,108980,604497498,604499019,0.864736,0.02928,-0.046848,3.54375,23.3275,-17.36875,-11.232,-18.472,20.792002,inter_set_rest,0,3.0,30843.0,394430.0,353104.0,403431.0,355940.0
2026-04-07 17:38:54.099806,108981,604506448,604507741,0.862784,0.046848,-0.037088,5.32875,23.616251,-17.45625,-11.56,-19.168001,19.272001,inter_set_rest,0,3.0,30843.0,394430.0,353104.0,403431.0,355940.0
2026-04-07 17:38:54.139459,108991,604521052,604522738,0.862784,0.046848,-0.037088,5.36375,23.8875,-18.15625,-11.56,-19.168001,19.272001,inter_set_rest,0,3.0,30868.0,394325.0,352972.0,403431.0,355868.0
2026-04-07 17:38:54.141231,108992,604530205,604531431,0.85888,0.033184,-0.037088,5.4075,24.255,-18.55875,-11.312,-18.552,20.672,inter_set_rest,0,3.0,30868.0,394325.0,352972.0,403431.0,355868.0
2026-04-07 17:38:54.144362,108993,604539148,604540187,0.85888,0.033184,-0.037088,6.06375,23.72125,-18.33125,-11.312,-18.552,20.672,inter_set_rest,0,3.0,30868.0,394325.0,352972.0,403431.0,355868.0
2026-04-07 17:38:54.153160,108994,604553659,604555094,0.86864,0.02928,-0.031232,8.155,22.4175,-18.7425,-11.632001,-18.976002,22.008001,inter_set_rest,0,3.0,30868.0,394325.0,352972.0,403431.0,355868.0
2026-04-07 17:38:54.154691,108995,604562670,604563798,0.86864,0.02928,-0.031232,10.4825,21.79625,-18.41875,-11.632001,-18.976002,22.008001,inter_set_rest,0,3.0,30868.0,394325.0,352972.0,403431.0,355868.0
2026-04-07 17:38:54.159198,108996,604571600,604572528,0.866688,0.052704,-0.013664,11.7425,21.46375,-18.5675,-12.024,-19.320002,19.960001,inter_set_rest,0,3.0,30868.0,394325.0,352972.0,403431.0,355868.0
2026-04-07 17:38:54.192566,108997,604586137,604587511,0.860832,0.056608,0.0,12.29375,20.25625,-18.9175,-11.672001,-18.992,20.0,inter_set_rest,0,3.0,30868.0,394325.0,352972.0,403431.0,355868.0
2026-04-07 17:38:54.197020,108998,604595062,604596205,0.860832,0.056608,0.0,11.96125,20.3525,-19.25,-11.672001,-18.992,20.0,inter_set_rest,0,3.0,30868.0,394325.0,352972.0,403431.0,355868.0
2026-04-07 17:38:54.198591,108999,604603972,604604899,0.860832,0.056608,0.0,11.6025,19.87125,-19.022501,-11.672001,-18.992,20.0,inter_set_rest,0,3.0,30868.0,394325.0,352972.0,403431.0,355868.0
2026-04-07 17:38:54.200280,109000,604612968,604613591,0.86864,0.033184,-0.021472,13.16875,18.82125,-19.69625,-11.912001,-19.296001,20.584002,inter_set_rest,0,3.0,30868.0,394325.0,352972.0,403431.0,355868.0
2026-04-07 17:38:54.231382,109011,604627925,604628578,0.870592,0.056608,-0.017568,16.4675,18.0075,-20.1425,-11.648001,-19.160002,20.504002,inter_set_rest,0,3.0,30793.0,393492.0,352121.0,403431.0,355011.0
2026-04-07 17:38:54.235689,109012,604637449,604639361,0.870592,0.056608,-0.017568,21.13125,16.87875,-20.3875,-11.648001,-19.160002,20.504002,inter_set_rest,0,3.0,30793.0,393492.0,352121.0,403431.0,355011.0
2026-04-07 17:38:54.238342,109013,604646405,604648128,0.860832,0.062464,0.011712,24.36,16.00375,-20.44875,-12.472,-19.016,22.232,inter_set_rest,0,3.0,30793.0,393492.0,352121.0,403431.0,355011.0
2026-04-07 17:38:54.300014,109014,604660925,604663036,0.860832,0.062464,0.011712,25.59375,15.4525,-19.83625,-12.472,-19.016,22.232,inter_set_rest,0,3.0,30793.0,393492.0,352121.0,403431.0,355011.0
2026-04-07 17:38:54.302235,109015,604669847,604671740,0.856928,0.056608,0.007808,24.78,14.60375,-19.80125,-11.280001,-18.976002,20.088001,inter_set_rest,0,3.0,30793.0,393492.0,352121.0,403431.0,355011.0
2026-04-07 17:38:54.310620,109016,604678766,604680454,0.856928,0.056608,0.007808,25.06875,13.57125,-20.25625,-11.280001,-18.976002,20.088001,inter_set_rest,0,3.0,30793.0,393492.0,352121.0,403431.0,355011.0
2026-04-07 17:38:54.312327,109017,604687715,604689109,0.85888,0.062464,0.015616,27.15125,12.67875,-20.3525,-11.112,-19.44,20.032001,inter_set_rest,0,3.0,30793.0,393492.0,352121.0,403431.0,355011.0
2026-04-07 17:38:54.313906,109018,604702219,604703985,0.85888,0.062464,0.015616,29.575,12.87125,-20.16,-11.112,-19.44,20.032001,inter_set_rest,0,3.0,30793.0,393492.0,352121.0,403431.0,355011.0
2026-04-07 17:38:54.318136,109019,604711147,604712676,0.853024,0.054656,0.031232,32.138752,12.52125,-20.23875,-11.336,-19.352001,20.256,inter_set_rest,0,3.0,30793.0,393492.0,352121.0,403431.0,355011.0
2026-04-07 17:38:54.342344,109029,604720249,604721461,0.853024,0.054656,0.031232,35.34125,12.6525,-20.2825,-11.336,-19.352001,20.256,inter_set_rest,0,3.0,30672.0,392477.0,351203.0,403431.0,354079.0
2026-04-07 17:38:54.343856,109030,604734935,604736413,0.854976,0.072224,0.040992,39.48,12.11875,-20.51,-12.312,-20.464,24.168001,inter_set_rest,0,3.0,30672.0,392477.0,351203.0,403431.0,354079.0
2026-04-07 17:38:54.348070,109031,604743995,604745187,0.854976,0.072224,0.040992,41.6325,12.24125,-19.92375,-12.312,-20.464,24.168001,inter_set_rest,0,3.0,30672.0,392477.0,351203.0,403431.0,354079.0
2026-04-07 17:38:54.350037,109032,604752959,604754044,0.84912,0.138592,0.050752,40.67875,12.87125,-19.355,-12.808001,-19.832,23.328001,inter_set_rest,0,3.0,30672.0,392477.0,351203.0,403431.0,354079.0
2026-04-07 17:38:54.352619,109033,604767535,604769036,0.84912,0.130784,0.040992,36.3475,13.39625,-19.57375,-12.352,-19.944,21.464,inter_set_rest,0,3.0,30672.0,392477.0,351203.0,403431.0,354079.0
2026-04-07 17:38:54.386075,109034,604776442,604777756,0.84912,0.130784,0.040992,29.47875,13.53625,-19.6,-12.352,-19.944,21.464,inter_set_rest,0,3.0,30672.0,392477.0,351203.0,403431.0,354079.0
2026-04-07 17:38:54.387334,109035,604785360,604786450,0.84912,0.07808,0.060512,23.10875,13.7025,-19.29375,-12.352,-19.944,21.464,inter_set_rest,0,3.0,30672.0,392477.0,351203.0,403431.0,354079.0
2026-04-07 17:38:54.388902,109036,604794273,604795127,0.854976,0.07808,0.060512,21.4725,14.35875,-19.241251,-11.272,-19.504002,20.712002,inter_set_rest,0,3.0,30672.0,392477.0,351203.0,403431.0,354079.0
2026-04-07 17:38:54.395494,109037,604808789,604810125,0.854976,0.11712,0.0488,24.78875,15.295,-19.50375,-12.272,-19.944,20.984001,inter_set_rest,0,3.0,30672.0,392477.0,351203.0,403431.0,354079.0
2026-04-07 17:38:54.451164,109047,604818320,604818966,0.854976,0.11712,0.0488,28.74375,15.5925,-19.7575,-12.272,-19.944,20.984001,inter_set_rest,0,3.0,30869.0,393646.0,352164.0,403431.0,354973.0
2026-04-07 17:38:54.452771,109048,604827614,604829718,0.856928,0.163968,0.056608,29.1725,16.21375,-19.425,-10.968,-19.216002,19.304,inter_set_rest,0,3.0,30869.0,393646.0,352164.0,403431.0,354973.0
2026-04-07 17:38:54.455284,109049,604836536,604838433,0.856928,0.163968,0.056608,25.29625,15.95125,-19.27625,-10.968,-19.216002,19.304,inter_set_rest,0,3.0,30869.0,393646.0,352164.0,403431.0,354973.0
2026-04-07 17:38:54.459534,109050,604851192,604853346,0.85888,0.142496,0.052704,20.22125,15.408751,-19.005,-12.296001,-19.352001,20.024,inter_set_rest,0,3.0,30869.0,393646.0,352164.0,403431.0,354973.0
2026-04-07 17:38:54.465601,109051,604860198,604862056,0.85888,0.142496,0.052704,16.66875,15.05,-18.8125,-12.296001,-19.352001,20.024,inter_set_rest,0,3.0,30869.0,393646.0,352164.0,403431.0,354973.0
2026-04-07 17:38:54.467158,109052,604869164,604870819,0.862784,0.130784,0.054656,17.0625,14.7175,-18.55,-11.864,-19.496,21.256,inter_set_rest,0,3.0,30869.0,393646.0,352164.0,403431.0,354973.0
2026-04-07 17:38:54.473035,109053,604883691,604885745,0.862784,0.130784,0.054656,20.1075,14.3325,-18.7425,-11.864,-19.496,21.256,inter_set_rest,0,3.0,30869.0,393646.0,352164.0,403431.0,354973.0
2026-04-07 17:38:54.501472,109054,604892693,604894537,0.860832,0.173728,0.042944,23.0125,13.7375,-19.46875,-12.208,-19.888,21.984001,inter_set_rest,0,3.0,30869.0,393646.0,352164.0,403431.0,354973.0
2026-04-07 17:38:54.506086,109055,604901651,604903236,0.860832,0.173728,0.042944,23.9925,13.23875,-18.935,-12.208,-19.888,21.984001,inter_set_rest,0,3.0,30869.0,393646.0,352164.0,403431.0,354973.0
2026-04-07 17:38:54.534365,109066,604916187,604918126,0.862784,0.18544,0.050752,21.98,12.48625,-17.9725,-11.976001,-19.544,20.016,inter_set_rest,0,3.0,30803.0,393222.0,351762.0,403431.0,354457.0
2026-04-07 17:38:54.536084,109067,604925665,604926912,0.862784,0.18544,0.054656,17.885,11.90875,-16.98375,-11.976001,-19.544,20.016,inter_set_rest,0,3.0,30803.0,393222.0,351762.0,403431.0,354457.0
2026-04-07 17:38:54.537716,109068,604934784,604935657,0.854976,0.167872,0.054656,15.61,11.13,-15.79375,-12.256001,-20.008001,21.784,inter_set_rest,0,3.0,30803.0,393222.0,351762.0,403431.0,354457.0
2026-04-07 17:38:54.541697,109069,604943700,604944362,0.854976,0.167872,0.054656,15.4525,10.255,-14.88375,-12.256001,-20.008001,21.784,inter_set_rest,0,3.0,30803.0,393222.0,351762.0,403431.0,354457.0
2026-04-07 17:38:54.545459,109070,604958669,604959300,0.86864,0.197152,0.060512,16.275,9.6075,-14.385,-11.984,-20.056002,21.872002,inter_set_rest,0,3.0,30803.0,393222.0,351762.0,403431.0,354457.0
2026-04-07 17:38:54.600018,109071,604967925,604970127,0.862784,0.226432,0.062464,15.79375,9.8,-14.11375,-11.336,-19.84,20.664001,inter_set_rest,0,3.0,30803.0,393222.0,351762.0,403431.0,354457.0
2026-04-07 17:38:54.602238,109072,604976830,604978812,0.862784,0.226432,0.062464,13.5275,9.59875,-13.755,-11.336,-19.84,20.664001,inter_set_rest,0,3.0,30803.0,393222.0,351762.0,403431.0,354457.0
2026-04-07 17:38:54.606866,109073,604985748,604987485,0.862784,0.226432,0.046848,9.6075,9.44125,-13.29125,-11.336,-19.84,20.664001,inter_set_rest,0,3.0,30803.0,393222.0,351762.0,403431.0,354457.0
2026-04-07 17:38:54.608643,109074,605000213,605002381,0.86864,0.210816,0.046848,7.595,8.9425,-12.7225,-11.264001,-20.176,18.896002,inter_set_rest,0,3.0,30803.0,393222.0,351762.0,403431.0,354457.0
2026-04-07 17:38:54.610138,109075,605009113,605011069,0.864736,0.193248,0.052704,7.34125,8.6275,-11.87375,-11.76,-20.224,20.512001,inter_set_rest,0,3.0,30803.0,393222.0,351762.0,403431.0,354457.0
2026-04-07 17:38:54.637674,109085,605018425,605020180,0.864736,0.193248,0.052704,7.245,8.715,-11.05125,-11.76,-20.224,20.512001,inter_set_rest,0,3.0,30608.0,391802.0,350646.0,403431.0,353365.0
2026-04-07 17:38:54.641826,109086,605032985,605035158,0.870592,0.199104,0.064416,5.67,8.198751,-9.3625,-12.216001,-20.312,23.088001,inter_set_rest,0,3.0,30608.0,391802.0,350646.0,403431.0,353365.0
2026-04-07 17:38:54.643603,109087,605042012,605043868,0.870592,0.199104,0.064416,3.91125,8.21625,-7.5075,-12.216001,-20.312,23.088001,inter_set_rest,0,3.0,30608.0,391802.0,350646.0,403431.0,353365.0
2026-04-07 17:38:54.645490,109088,605050993,605052553,0.862784,0.222528,0.070272,2.44125,8.47,-5.27625,-12.448001,-20.528002,23.624,inter_set_rest,0,3.0,30608.0,391802.0,350646.0,403431.0,353365.0
2026-04-07 17:38:54.652962,109089,605065486,605067496,0.862784,0.222528,0.070272,0.77,8.12875,-4.01625,-12.448001,-20.528002,23.624,inter_set_rest,0,3.0,30608.0,391802.0,350646.0,403431.0,353365.0
2026-04-07 17:38:54.681562,109090,605074433,605076189,0.856928,0.22448,0.070272,-1.4,8.295,-3.07125,-12.776001,-20.52,23.688002,inter_set_rest,0,3.0,30608.0,391802.0,350646.0,403431.0,353365.0
2026-04-07 17:38:54.686041,109091,605083372,605084886,0.856928,0.22448,0.070272,-3.70125,7.5075,-2.2225,-12.776001,-20.52,23.688002,inter_set_rest,0,3.0,30608.0,391802.0,350646.0,403431.0,353365.0
2026-04-07 17:38:54.687533,109092,605092323,605093617,0.862784,0.208864,0.05856,-4.6375,6.825,-2.03,-11.88,-19.992,20.664001,inter_set_rest,0,3.0,30608.0,391802.0,350646.0,403431.0,353365.0
2026-04-07 17:38:54.694219,109093,605106779,605108545,0.856928,0.1952,0.076128,-5.08375,6.3875,-1.39125,-11.88,-19.992,22.248001,inter_set_rest,0,3.0,30608.0,391802.0,350646.0,403431.0,353365.0
2026-04-07 17:38:54.722812,109094,605115694,605117264,0.856928,0.1952,0.076128,-4.54125,6.195,-0.0875,-12.632001,-20.04,22.248001,inter_set_rest,0,3.0,30608.0,391802.0,350646.0,403431.0,353365.0
2026-04-07 17:38:54.754400,109104,605124680,605125990,0.856928,0.1952,0.076128,-4.99625,5.74,1.33875,-12.632001,-20.04,22.248001,inter_set_rest,0,3.0,30497.0,391035.0,350047.0,403431.0,352811.0
2026-04-07 17:38:54.756050,109105,605139168,605140944,0.85888,0.191296,0.080032,-5.7225,6.01125,2.79125,-12.280001,-19.592001,20.576,inter_set_rest,0,3.0,30497.0,391035.0,350047.0,403431.0,352811.0
2026-04-07 17:38:54.757590,109106,605148153,605149689,0.853024,0.193248,0.07808,-6.67625,5.985,3.98125,-12.696001,-19.872002,19.408,inter_set_rest,0,3.0,30497.0,391035.0,350047.0,403431.0,352811.0
2026-04-07 17:38:54.761054,109107,605157103,605158397,0.853024,0.193248,0.07808,-7.20125,5.55625,4.78625,-12.696001,-19.872002,19.408,inter_set_rest,0,3.0,30497.0,391035.0,350047.0,403431.0,352811.0
2026-04-07 17:38:54.762574,109108,605171596,605173312,0.856928,0.173728,0.072224,-7.945,5.145,5.705,-12.536,-20.376001,22.68,inter_set_rest,0,3.0,30497.0,391035.0,350047.0,403431.0,352811.0
2026-04-07 17:38:54.769316,109109,605180553,605182060,0.856928,0.173728,0.072224,-8.0325,4.92625,6.48375,-12.536,-20.376001,22.68,inter_set_rest,0,3.0,30497.0,391035.0,350047.0,403431.0,352811.0
2026-04-07 17:38:54.797811,109110,605189482,605190811,0.862784,0.167872,0.072224,-7.62125,4.2875,7.525,-12.480001,-19.272001,21.04,inter_set_rest,0,3.0,30497.0,391035.0,350047.0,403431.0,352811.0
2026-04-07 17:38:54.802281,109111,605203967,605205710,0.862784,0.167872,0.072224,-7.23625,3.64,7.28,-12.480001,-19.272001,21.04,inter_set_rest,0,3.0,30497.0,391035.0,350047.0,403431.0,352811.0
2026-04-07 17:38:54.804063,109112,605212869,605214411,0.85888,0.163968,0.06832,-6.5975,3.78,8.05875,-12.376,-19.656,20.84,inter_set_rest,0,3.0,30497.0,391035.0,350047.0,403431.0,352811.0
2026-04-07 17:38:54.834905,109123,605222260,605223252,0.85888,0.163968,0.06832,-6.86,3.325,8.9075,-12.376,-19.656,20.84,inter_set_rest,0,3.0,30734.0,392716.0,351422.0,403431.0,354294.0
2026-04-07 17:38:54.836419,109124,605231263,605231978,0.864736,0.15616,0.07808,-7.315,2.86125,9.1,-11.88,-19.544,22.712002,inter_set_rest,0,3.0,30734.0,392716.0,351422.0,403431.0,354294.0
2026-04-07 17:38:54.840461,109125,605246175,605246938,0.864736,0.15616,0.07808,-7.9275,2.68625,9.073751,-11.88,-19.544,22.712002,inter_set_rest,0,3.0,30734.0,392716.0,351422.0,403431.0,354294.0
2026-04-07 17:38:54.844194,109126,605255710,605257730,0.862784,0.132736,0.070272,-7.84875,3.05375,9.66,-12.392,-19.568,21.920002,inter_set_rest,0,3.0,30734.0,392716.0,351422.0,403431.0,354294.0
2026-04-07 17:38:54.902009,109127,605264621,605266390,0.862784,0.132736,0.070272,-7.84875,2.7475,10.08875,-12.392,-19.568,21.920002,inter_set_rest,0,3.0,30734.0,392716.0,351422.0,403431.0,354294.0
2026-04-07 17:38:54.903583,109128,605273562,605275099,0.866688,0.124928,0.066368,-7.3325,2.26625,10.395,-13.024,-19.896002,21.296001,inter_set_rest,0,3.0,30734.0,392716.0,351422.0,403431.0,354294.0
2026-04-07 17:38:54.905122,109129,605288056,605290029,0.85888,0.121024,0.054656,-5.1975,1.8725,11.1125,-12.504001,-19.192001,21.176,inter_set_rest,0,3.0,30734.0,392716.0,351422.0,403431.0,354294.0
2026-04-07 17:38:54.909490,109130,605296961,605298719,0.85888,0.121024,0.054656,-3.2025,1.7675,11.24375,-12.504001,-19.192001,21.176,inter_set_rest,0,3.0,30734.0,392716.0,351422.0,403431.0,354294.0
2026-04-07 17:38:54.911184,109131,605305865,605307375,0.85888,0.121024,0.054656,-1.295,1.63625,11.24375,-12.504001,-19.192001,21.176,inter_set_rest,0,3.0,30734.0,392716.0,351422.0,403431.0,354294.0
2026-04-07 17:38:54.936059,109141,605320475,605322352,0.862784,0.121024,0.050752,0.48125,1.015,11.34875,-12.52,-19.048,22.592001,inter_set_rest,0,3.0,30605.0,391543.0,350281.0,403431.0,353166.0
2026-04-07 17:38:54.938516,109142,605329531,605331105,0.851072,0.085888,0.044896,0.8925,0.81375,11.99625,-12.288,-19.376001,20.824001,inter_set_rest,0,3.0,30605.0,391543.0,350281.0,403431.0,353166.0
2026-04-07 17:38:54.940042,109143,605338630,605339846,0.851072,0.085888,0.044896,1.295,0.28,11.935,-12.288,-19.376001,20.824001,inter_set_rest,0,3.0,30605.0,391543.0,350281.0,403431.0,353166.0
2026-04-07 17:38:54.944487,109144,605353118,605354864,0.851072,0.08784,0.023424,3.14125,0.20125,12.635,-12.664001,-18.824001,20.76,inter_set_rest,0,3.0,30605.0,391543.0,350281.0,403431.0,353166.0
2026-04-07 17:38:54.948443,109145,605362046,605363592,0.851072,0.08784,0.023424,6.69375,0.035,12.90625,-12.664001,-18.824001,20.76,inter_set_rest,0,3.0,30605.0,391543.0,350281.0,403431.0,353166.0
2026-04-07 17:38:54.981466,109146,605371016,605372300,0.847168,0.105408,0.021472,9.02125,-0.6125,13.04625,-12.448001,-18.608002,22.184002,inter_set_rest,0,3.0,30605.0,391543.0,350281.0,403431.0,353166.0
2026-04-07 17:38:54.994577,109147,605379937,605381015,0.847168,0.105408,0.021472,9.73875,-0.93625,13.658751,-12.448001,-18.608002,22.184002,inter_set_rest,0,3.0,30605.0,391543.0,350281.0,403431.0,353166.0
2026-04-07 17:38:54.996044,109148,605394441,605395962,0.84912,0.081984,0.003904,8.61875,-0.84,13.92125,-11.912001,-18.160002,20.176,inter_set_rest,0,3.0,30605.0,391543.0,350281.0,403431.0,353166.0
2026-04-07 17:38:54.997604,109149,605403395,605404707,0.84912,0.081984,0.003904,8.225,-0.63875,14.00875,-11.912001,-18.160002,20.176,inter_set_rest,0,3.0,30605.0,391543.0,350281.0,403431.0,353166.0
2026-04-07 17:38:55.004147,109150,605412316,605413386,0.84912,0.072224,0.003904,8.98625,-0.83125,14.0525,-12.416,-18.176,20.392,inter_set_rest,0,3.0,30605.0,391543.0,350281.0,403431.0,353166.0
2026-04-07 17:38:55.033106,109160,605426854,605428570,0.84912,0.072224,0.003904,9.8875,-0.14875,14.1925,-12.416,-18.176,20.392,inter_set_rest,0,3.0,30263.0,389009.0,348119.0,403431.0,351092.0
2026-04-07 17:38:55.034897,109161,605435808,605437312,0.845216,0.052704,-0.005856,10.89375,0.23625,14.81375,-12.592001,-17.824001,22.920002,inter_set_rest,0,3.0,30263.0,389009.0,348119.0,403431.0,351092.0
2026-04-07 17:38:55.036776,109162,605444838,605446058,0.845216,0.052704,-0.005856,11.9875,0.77875,15.575,-12.592001,-17.824001,22.920002,inter_set_rest,0,3.0,30263.0,389009.0,348119.0,403431.0,351092.0
2026-04-07 17:38:55.067702,109163,605459613,605460963,0.837408,0.056608,-0.001952,13.16,1.2775,16.0475,-14.096001,-18.392,22.072,inter_set_rest,0,3.0,30263.0,389009.0,348119.0,403431.0,351092.0
2026-04-07 17:38:55.068985,109164,605468562,605469698,0.841312,0.05856,0.0,14.7,2.45875,16.44125,-12.624001,-18.008001,20.496,inter_set_rest,0,3.0,30263.0,389009.0,348119.0,403431.0,351092.0
2026-04-07 17:38:55.074513,109165,605477503,605478388,0.841312,0.05856,0.0,14.65625,3.7975,17.08,-12.624001,-18.008001,20.496,inter_set_rest,0,3.0,30263.0,389009.0,348119.0,403431.0,351092.0
2026-04-07 17:38:55.075989,109166,605486435,605487082,0.841312,0.05856,0.0,14.48125,5.03125,17.75375,-12.624001,-18.008001,20.496,inter_set_rest,0,3.0,30263.0,389009.0,348119.0,403431.0,351092.0
2026-04-07 17:38:55.106160,109167,605501319,605502025,0.841312,0.03904,0.0,14.74375,6.93,17.87625,-12.880001,-17.2,20.232,inter_set_rest,0,3.0,30263.0,389009.0,348119.0,403431.0,351092.0
2026-04-07 17:38:55.110662,109168,605510637,605512797,0.843264,0.033184,0.0,16.03,8.81125,18.725,-12.976001,-17.08,20.432001,inter_set_rest,0,3.0,30263.0,389009.0,348119.0,403431.0,351092.0
2026-04-07 17:38:55.136395,109179,605519611,605521488,0.843264,0.033184,0.0,15.89875,9.93125,18.76875,-12.976001,-17.08,20.432001,inter_set_rest,0,3.0,29889.0,386376.0,345986.0,403431.0,349217.0
2026-04-07 17:38:55.140664,109180,605529002,605530222,0.845216,0.025376,0.0,16.975,10.9375,19.52125,-13.496,-16.288,23.776001,inter_set_rest,0,3.0,29889.0,386376.0,345986.0,403431.0,349217.0
2026-04-07 17:38:55.142302,109181,605543516,605545218,0.845216,0.025376,0.0,18.3575,11.52375,20.57125,-13.496,-16.288,23.776001,inter_set_rest,0,3.0,29889.0,386376.0,345986.0,403431.0,349217.0
2026-04-07 17:38:55.143880,109182,605552464,605553920,0.847168,0.025376,0.001952,20.195,12.215,21.315,-13.304001,-16.352001,22.000002,inter_set_rest,0,3.0,29889.0,386376.0,345986.0,403431.0,349217.0
2026-04-07 17:38:55.149360,109183,605561415,605562630,0.847168,0.025376,0.001952,21.3325,13.20375,22.1025,-13.304001,-16.352001,22.000002,inter_set_rest,0,3.0,29889.0,386376.0,345986.0,403431.0,349217.0
2026-04-07 17:38:55.202579,109184,605575876,605577570,0.853024,0.033184,0.00976,22.015,14.1925,22.54,-13.616,-16.08,22.088001,inter_set_rest,0,3.0,29889.0,386376.0,345986.0,403431.0,349217.0
2026-04-07 17:38:55.204803,109185,605584794,605586260,0.853024,0.033184,0.00976,22.40875,14.752501,22.82,-13.616,-16.08,22.088001,inter_set_rest,0,3.0,29889.0,386376.0,345986.0,403431.0,349217.0
2026-04-07 17:38:55.209410,109186,605593750,605594966,0.860832,0.025376,0.023424,22.60125,15.085,22.61875,-13.440001,-15.832001,20.576,inter_set_rest,0,3.0,29889.0,386376.0,345986.0,403431.0,349217.0
2026-04-07 17:38:55.211105,109187,605608246,605609841,0.860832,0.00976,0.031232,22.42625,16.1525,22.91625,-13.440001,-15.832001,20.576,inter_set_rest,0,3.0,29889.0,386376.0,345986.0,403431.0,349217.0
2026-04-07 17:38:55.212759,109188,605617188,605618533,0.862784,0.007808,0.031232,21.55125,17.325,22.95125,-13.448001,-15.68,20.384,inter_set_rest,0,3.0,29889.0,386376.0,345986.0,403431.0,349217.0
2026-04-07 17:38:55.241268,109198,605626274,605627605,0.862784,0.007808,0.031232,20.50125,18.585001,23.45875,-13.448001,-15.68,20.384,inter_set_rest,0,3.0,29556.0,383933.0,344073.0,402780.0,347541.0
2026-04-07 17:38:55.245622,109199,605640800,605642578,0.85888,-0.005856,0.031232,20.475,19.4075,23.87875,-14.208001,-15.376,21.992,inter_set_rest,0,3.0,29556.0,383933.0,344073.0,402780.0,347541.0
2026-04-07 17:38:55.247310,109200,605649696,605651281,0.853024,-0.013664,0.025376,20.93875,19.18,24.3075,-13.936001,-15.208001,22.064001,inter_set_rest,0,3.0,29556.0,383933.0,344073.0,402780.0,347541.0
2026-04-07 17:38:55.249948,109201,605658710,605659963,0.853024,-0.013664,0.025376,22.5925,19.2325,25.03375,-13.936001,-15.208001,22.064001,inter_set_rest,0,3.0,29556.0,383933.0,344073.0,402780.0,347541.0
2026-04-07 17:38:55.253786,109202,605667648,605668788,0.853024,-0.013664,0.025376,24.63125,20.29125,25.41875,-13.936001,-15.208001,22.064001,inter_set_rest,0,3.0,29556.0,383933.0,344073.0,402780.0,347541.0
2026-04-07 17:38:55.293696,109203,605682147,605683734,0.843264,-0.015616,0.033184,25.97875,20.3875,25.13,-14.096001,-13.552001,18.448,inter_set_rest,0,3.0,29556.0,383933.0,344073.0,402780.0,347541.0
2026-04-07 17:38:55.295961,109204,605691089,605692430,0.854976,-0.031232,0.044896,25.87375,20.30875,25.515,-14.032001,-13.424001,21.320002,inter_set_rest,0,3.0,29556.0,383933.0,344073.0,402780.0,347541.0
2026-04-07 17:38:55.300584,109205,605699991,605701127,0.854976,-0.031232,0.044896,24.94625,20.23,25.76875,-14.032001,-13.424001,21.320002,inter_set_rest,0,3.0,29556.0,383933.0,344073.0,402780.0,347541.0
2026-04-07 17:38:55.303054,109206,605714538,605716086,0.862784,-0.060512,0.06832,23.91375,20.6325,25.55,-14.280001,-13.632001,20.960001,inter_set_rest,0,3.0,29556.0,383933.0,344073.0,402780.0,347541.0
2026-04-07 17:38:55.328989,109216,605723681,605724879,0.862784,-0.060512,0.06832,23.93125,22.58375,26.285,-14.280001,-13.632001,20.960001,inter_set_rest,0,3.0,29214.0,381510.0,342216.0,401348.0,346057.0
2026-04-07 17:38:55.333115,109217,605732689,605733666,0.841312,-0.066368,0.076128,24.885,23.765,26.64375,-14.264001,-13.328001,21.008001,inter_set_rest,0,3.0,29214.0,381510.0,342216.0,401348.0,346057.0
2026-04-07 17:38:55.335628,109218,605747278,605748590,0.841312,-0.066368,0.076128,25.15625,24.57,25.92625,-14.264001,-13.328001,21.008001,inter_set_rest,0,3.0,29214.0,381510.0,342216.0,401348.0,346057.0
2026-04-07 17:38:55.364006,109219,605756218,605757315,0.843264,-0.0976,0.033184,26.1275,23.66875,23.8525,-14.824,-12.992001,23.024,inter_set_rest,0,3.0,29214.0,381510.0,342216.0,401348.0,346057.0
2026-04-07 17:38:55.368501,109220,605765137,605765986,0.843264,-0.0976,0.033184,28.67375,22.40875,21.647501,-14.824,-12.992001,23.024,inter_set_rest,0,3.0,29214.0,381510.0,342216.0,401348.0,346057.0
2026-04-07 17:38:55.369995,109221,605774041,605774677,0.854976,-0.093696,0.013664,32.50625,21.74375,19.0925,-14.552001,-12.856001,21.584002,inter_set_rest,0,3.0,29214.0,381510.0,342216.0,401348.0,346057.0
2026-04-07 17:38:55.374988,109222,605788842,605789582,0.854976,-0.093696,0.0488,35.7525,21.0525,15.4525,-14.552001,-12.856001,21.584002,inter_set_rest,0,3.0,29214.0,381510.0,342216.0,401348.0,346057.0
2026-04-07 17:38:55.405322,109223,605798331,605800362,0.864736,-0.080032,0.0488,37.3275,20.9475,12.53875,-14.904,-13.088,23.432001,inter_set_rest,0,3.0,29214.0,381510.0,342216.0,401348.0,346057.0
2026-04-07 17:38:55.408901,109224,605807248,605809066,0.864736,-0.080032,0.0488,34.62375,21.20125,8.98625,-14.904,-13.088,23.432001,inter_set_rest,0,3.0,29214.0,381510.0,342216.0,401348.0,346057.0
2026-04-07 17:38:55.433829,109234,605822340,605823949,0.85888,-0.122976,0.050752,30.79125,21.5075,5.06625,-14.480001,-12.120001,22.488,inter_set_rest,0,3.0,28766.0,377700.0,339169.0,398199.0,343400.0
2026-04-07 17:38:55.436483,109235,605831475,605832758,0.84912,-0.144448,0.0976,28.84,23.44125,2.54625,-14.576001,-12.696001,21.816002,inter_set_rest,0,3.0,28766.0,377700.0,339169.0,398199.0,343400.0
2026-04-07 17:38:55.440635,109236,605840446,605841563,0.84912,-0.144448,0.0976,25.33125,25.78625,-1.61875,-14.576001,-12.696001,21.816002,inter_set_rest,0,3.0,28766.0,377700.0,339169.0,398199.0,343400.0
2026-04-07 17:38:55.442275,109237,605849354,605850272,0.84912,-0.130784,0.109312,22.44375,27.772501,-5.95875,-14.576001,-12.696001,25.912,inter_set_rest,0,3.0,28766.0,377700.0,339169.0,398199.0,343400.0
2026-04-07 17:38:55.500047,109238,605863875,605865186,0.825696,-0.130784,0.109312,19.87125,30.2575,-8.6975,-15.064001,-12.84,25.136002,inter_set_rest,0,3.0,28766.0,377700.0,339169.0,398199.0,343400.0
2026-04-07 17:38:55.502649,109239,605872823,605873871,0.806176,-0.134688,0.12688,17.80625,33.013752,-10.99,-15.416,-12.576,22.52,inter_set_rest,0,3.0,28766.0,377700.0,339169.0,398199.0,343400.0
2026-04-07 17:38:55.510612,109240,605881754,605882551,0.806176,-0.134688,0.12688,15.72375,36.0675,-14.34125,-15.416,-12.576,22.52,inter_set_rest,0,3.0,28766.0,377700.0,339169.0,398199.0,343400.0
2026-04-07 17:38:55.512310,109241,605896232,605897513,0.77104,-0.115168,0.152256,14.14875,39.2175,-18.1125,-15.664001,-13.008,22.480001,inter_set_rest,0,3.0,28766.0,377700.0,339169.0,398199.0,343400.0
2026-04-07 17:38:55.513870,109242,605905147,605906237,0.77104,-0.115168,0.152256,11.83,42.638752,-21.035,-15.664001,-13.008,22.480001,inter_set_rest,0,3.0,28766.0,377700.0,339169.0,398199.0,343400.0
2026-04-07 17:38:55.518124,109243,605914053,605914912,0.782752,-0.140544,0.150304,9.1875,45.3425,-23.94875,-15.464001,-13.536,22.608002,inter_set_rest,0,3.0,28766.0,377700.0,339169.0,398199.0,343400.0
2026-04-07 17:38:55.545609,109254,605928632,605929955,0.782752,-0.140544,0.150304,8.47,47.74,-25.94375,-15.464001,-13.536,22.608002,inter_set_rest,0,3.0,28408.0,374050.0,336085.0,394705.0,340398.0
2026-04-07 17:38:55.547309,109255,605937591,605938747,0.730048,-0.11712,0.13664,9.6075,50.855,-27.2475,-16.176,-13.768001,23.264002,inter_set_rest,0,3.0,28408.0,374050.0,336085.0,394705.0,340398.0
2026-04-07 17:38:55.549031,109256,605946647,605947488,0.730048,-0.11712,0.13664,12.31125,51.86125,-28.39375,-16.176,-13.768001,23.264002,inter_set_rest,0,3.0,28408.0,374050.0,336085.0,394705.0,340398.0
2026-04-07 17:38:55.553002,109257,605955662,605956222,0.739808,-0.105408,0.206912,15.7325,52.01,-29.35625,-16.304,-14.232,24.632002,inter_set_rest,0,3.0,28408.0,374050.0,336085.0,394705.0,340398.0
2026-04-07 17:38:55.558291,109258,605970480,605971197,0.728096,-0.080032,0.191296,19.565,52.38625,-30.3275,-16.072,-13.968,25.616001,inter_set_rest,0,3.0,28408.0,374050.0,336085.0,394705.0,340398.0
2026-04-07 17:38:55.588697,109259,605979812,605981957,0.728096,-0.080032,0.191296,23.31875,52.675,-32.725,-16.072,-13.968,25.616001,inter_set_rest,0,3.0,28408.0,374050.0,336085.0,394705.0,340398.0
2026-04-07 17:38:55.593164,109260,605988731,605990656,0.728096,-0.080032,0.191296,27.65875,53.05125,-34.71125,-16.072,-13.968,25.616001,inter_set_rest,0,3.0,28408.0,374050.0,336085.0,394705.0,340398.0
2026-04-07 17:38:55.594698,109261,605997631,605999342,0.718336,-0.076128,0.208864,32.33125,53.59375,-36.1025,-15.808001,-13.752001,24.984001,inter_set_rest,0,3.0,28408.0,374050.0,336085.0,394705.0,340398.0
2026-04-07 17:38:55.600452,109262,606012114,606014244,0.724192,-0.07808,0.236192,35.857502,53.55,-36.925,-16.888,-15.024001,27.464,inter_set_rest,0,3.0,28408.0,374050.0,336085.0,394705.0,340398.0
2026-04-07 17:38:55.629224,109263,606021113,606022948,0.724192,-0.07808,0.236192,39.8125,54.3375,-37.975,-16.888,-15.024001,27.464,inter_set_rest,0,3.0,28408.0,374050.0,336085.0,394705.0,340398.0
2026-04-07 17:38:55.656940,109273,606030060,606031651,0.69296,-0.044896,0.296704,44.1525,55.3875,-38.59625,-16.888,-15.024001,25.416,inter_set_rest,0,3.0,28445.0,373948.0,335898.0,394330.0,340059.0
2026-04-07 17:38:55.658572,109274,606044550,606046572,0.694912,-0.044896,0.296704,46.6375,56.25375,-39.6375,-16.616001,-15.160001,26.456001,inter_set_rest,0,3.0,28445.0,373948.0,335898.0,394330.0,340059.0
2026-04-07 17:38:55.661257,109275,606053545,606055280,0.70272,-0.027328,0.281088,49.84875,56.84,-41.23875,-16.512001,-15.832001,26.448002,inter_set_rest,0,3.0,28445.0,373948.0,335898.0,394330.0,340059.0
2026-04-07 17:38:55.662511,109276,606062485,606063989,0.70272,-0.027328,0.281088,52.1675,57.916252,-42.74375,-16.512001,-15.832001,26.448002,inter_set_rest,0,3.0,28445.0,373948.0,335898.0,394330.0,340059.0
2026-04-07 17:38:55.666670,109277,606076996,606078854,0.700768,-0.011712,0.23424,56.39375,58.16125,-45.2725,-16.744001,-16.144001,28.736002,inter_set_rest,0,3.0,28445.0,373948.0,335898.0,394330.0,340059.0
2026-04-07 17:38:55.672964,109278,606085960,606087598,0.700768,-0.011712,0.23424,64.16375,59.8675,-47.888752,-16.744001,-16.144001,28.736002,inter_set_rest,0,3.0,28445.0,373948.0,335898.0,394330.0,340059.0
2026-04-07 17:38:55.702670,109279,606094896,606096330,0.685152,0.050752,0.2928,69.86875,62.23875,-50.61875,-17.648,-16.872002,28.392002,inter_set_rest,0,3.0,28445.0,373948.0,335898.0,394330.0,340059.0
2026-04-07 17:38:55.705097,109280,606109357,606111229,0.685152,0.050752,0.2928,71.505,65.05625,-53.92625,-17.648,-16.872002,28.392002,inter_set_rest,0,3.0,28445.0,373948.0,335898.0,394330.0,340059.0
2026-04-07 17:38:55.707555,109281,606118256,606119961,0.679296,0.074176,0.366976,67.9175,68.41625,-56.09625,-16.448,-16.960001,27.952002,inter_set_rest,0,3.0,28445.0,373948.0,335898.0,394330.0,340059.0
2026-04-07 17:38:55.732645,109291,606127545,606128777,0.679296,0.074176,0.366976,63.3675,70.621254,-58.1175,-16.448,-16.960001,27.952002,inter_set_rest,0,3.0,28669.0,375550.0,337034.0,395489.0,341013.0
2026-04-07 17:38:55.735063,109292,606136617,606137600,0.6832,0.021472,0.329888,60.27,72.8,-60.655,-17.04,-17.408,28.008001,inter_set_rest,0,3.0,28669.0,375550.0,337034.0,395489.0,341013.0
2026-04-07 17:38:55.737658,109293,606151130,606152523,0.675392,0.062464,0.298656,64.96875,74.87375,-62.55375,-16.928001,-17.976002,29.344002,inter_set_rest,0,3.0,28669.0,375550.0,337034.0,395489.0,341013.0
2026-04-07 17:38:55.800322,109294,606160040,606161213,0.675392,0.062464,0.298656,73.2375,77.07,-65.0475,-16.928001,-17.976002,29.344002,inter_set_rest,0,3.0,28669.0,375550.0,337034.0,395489.0,341013.0
2026-04-07 17:38:55.803839,109295,606168971,606169959,0.675392,0.062464,0.298656,79.87875,79.555,-67.558754,-16.928001,-17.976002,29.344002,inter_set_rest,0,3.0,28669.0,375550.0,337034.0,395489.0,341013.0
2026-04-07 17:38:55.806343,109296,606183457,606184884,0.636352,0.167872,0.324032,80.57875,80.43875,-71.12875,-17.112001,-19.080002,29.536001,inter_set_rest,0,3.0,28669.0,375550.0,337034.0,395489.0,341013.0
2026-04-07 17:38:55.808834,109297,606192417,606193585,0.626592,0.12688,0.3416,75.6175,80.43875,-74.34875,-16.568,-20.536001,30.008001,inter_set_rest,0,3.0,28669.0,375550.0,337034.0,395489.0,341013.0
2026-04-07 17:38:55.811463,109298,606201347,606202277,0.626592,0.12688,0.3416,70.67375,80.1325,-76.58875,-16.568,-20.536001,30.008001,inter_set_rest,0,3.0,28669.0,375550.0,337034.0,395489.0,341013.0
2026-04-07 17:38:55.813836,109299,606215841,606217204,0.618784,0.177632,0.365024,71.09375,80.0625,-78.1375,-16.752,-20.880001,30.176,inter_set_rest,0,3.0,28669.0,375550.0,337034.0,395489.0,341013.0
2026-04-07 17:38:55.857482,109310,606224787,606225904,0.618784,0.177632,0.365024,75.5825,80.92,-80.325,-16.752,-20.880001,30.176,inter_set_rest,0,3.0,29538.0,382388.0,342365.0,401040.0,345896.0
2026-04-07 17:38:55.860028,109311,606233930,606234762,0.610976,0.251808,0.359168,77.9625,82.99375,-83.9125,-17.088001,-22.528002,31.248001,inter_set_rest,0,3.0,29538.0,382388.0,342365.0,401040.0,345896.0
2026-04-07 17:38:55.862550,109312,606243023,606243492,0.610976,0.251808,0.359168,74.585,83.9475,-87.4125,-17.088001,-22.528002,31.248001,inter_set_rest,0,3.0,29538.0,382388.0,342365.0,401040.0,345896.0
2026-04-07 17:38:55.865039,109313,606257905,606258420,0.538752,0.2928,0.347456,68.39875,83.46625,-90.825,-17.176,-23.2,30.896002,inter_set_rest,0,3.0,29538.0,382388.0,342365.0,401040.0,345896.0
2026-04-07 17:38:55.867522,109314,606267393,606269175,0.538752,0.2928,0.347456,66.465004,81.6725,-93.98375,-17.176,-23.2,30.896002,inter_set_rest,0,3.0,29538.0,382388.0,342365.0,401040.0,345896.0
2026-04-07 17:38:55.870209,109315,606276343,606277923,0.495808,0.318176,0.378688,66.73625,80.14125,-95.095,-16.368,-24.264002,33.472,inter_set_rest,0,3.0,29538.0,382388.0,342365.0,401040.0,345896.0
2026-04-07 17:38:55.872584,109316,606285352,606286635,0.495808,0.318176,0.378688,64.04125,79.21375,-96.46875,-16.368,-24.264002,33.472,inter_set_rest,0,3.0,29538.0,382388.0,342365.0,401040.0,345896.0
2026-04-07 17:38:55.902761,109317,606299847,606301570,0.51728,0.343552,0.36112,61.7575,79.02125,-97.64125,-16.552,-25.544,33.752003,inter_set_rest,0,3.0,29538.0,382388.0,342365.0,401040.0,345896.0
2026-04-07 17:38:55.906297,109318,606308765,606310279,0.51728,0.343552,0.36112,60.4275,80.71,-99.1025,-16.552,-25.544,33.752003,inter_set_rest,0,3.0,29538.0,382388.0,342365.0,401040.0,345896.0
2026-04-07 17:38:55.908822,109319,606317690,606318966,0.445056,0.460672,0.421632,61.03125,84.06125,-101.71875,-15.416,-26.784,32.664,inter_set_rest,0,3.0,29538.0,382388.0,342365.0,401040.0,345896.0
2026-04-07 17:38:55.933810,109329,606332367,606334003,0.411872,0.493856,0.456768,59.47375,85.6275,-103.9325,-14.152,-27.792002,33.264,inter_set_rest,0,3.0,29858.0,384338.0,343737.0,402240.0,346852.0
2026-04-07 17:38:55.938866,109330,606341327,606342727,0.411872,0.493856,0.456768,55.37875,86.9225,-106.30375,-14.152,-27.792002,33.264,inter_set_rest,0,3.0,29858.0,384338.0,343737.0,402240.0,346852.0
2026-04-07 17:38:55.941275,109331,606350292,606351440,0.411872,0.493856,0.456768,49.9275,87.683754,-109.19125,-14.152,-27.792002,33.264,inter_set_rest,0,3.0,29858.0,384338.0,343737.0,402240.0,346852.0
2026-04-07 17:38:55.971593,109332,606364868,606366320,0.365024,0.499712,0.407968,47.94125,88.41,-110.18875,-14.200001,-29.184002,33.216003,inter_set_rest,0,3.0,29858.0,384338.0,343737.0,402240.0,346852.0
2026-04-07 17:38:55.975169,109333,606373798,606375041,0.37088,0.56608,0.445056,46.66375,89.4775,-110.24125,-12.984,-30.784002,34.096,inter_set_rest,0,3.0,29858.0,384338.0,343737.0,402240.0,346852.0
2026-04-07 17:38:55.977531,109334,606382704,606383772,0.37088,0.56608,0.445056,42.6475,91.65625,-112.0525,-12.984,-30.784002,34.096,inter_set_rest,0,3.0,29858.0,384338.0,343737.0,402240.0,346852.0
2026-04-07 17:38:55.992601,109335,606397208,606398656,0.281088,0.648064,0.499712,37.42375,94.99875,-115.22,-12.152,-31.920002,34.408,inter_set_rest,0,3.0,29858.0,384338.0,343737.0,402240.0,346852.0
2026-04-07 17:38:55.994995,109336,606406116,606407353,0.281088,0.648064,0.499712,31.64875,97.1075,-118.195,-12.152,-31.920002,34.408,inter_set_rest,0,3.0,29858.0,384338.0,343737.0,402240.0,346852.0
2026-04-07 17:38:56.001397,109337,606415002,606416099,0.222528,0.610976,0.509472,24.7625,96.4425,-119.8925,-11.448001,-33.04,35.232002,inter_set_rest,0,3.0,29858.0,384338.0,343737.0,402240.0,346852.0
2026-04-07 17:38:56.031654,109338,606423996,606424886,0.222528,0.610976,0.509472,20.9125,95.27875,-119.07,-11.448001,-33.04,35.232002,inter_set_rest,0,3.0,29858.0,384338.0,343737.0,402240.0,346852.0
2026-04-07 17:38:56.061718,109348,606438537,606439804,0.28304,0.64416,0.482144,18.76,95.8125,-116.78625,-10.632001,-34.408,37.808002,inter_set_rest,0,3.0,30024.0,384829.0,343917.0,402243.0,346721.0
2026-04-07 17:38:56.065841,109349,606447449,606448532,0.28304,0.64416,0.482144,16.4675,98.00875,-116.41875,-10.632001,-34.408,37.808002,inter_set_rest,0,3.0,30024.0,384829.0,343917.0,402243.0,346721.0
2026-04-07 17:38:56.066331,109350,606456394,606457216,0.206912,0.64416,0.538752,11.92625,102.3225,-116.76875,-9.504001,-36.176003,36.600002,inter_set_rest,0,3.0,30024.0,384829.0,343917.0,402243.0,346721.0
2026-04-07 17:38:56.102479,109351,606470959,606472182,0.206912,0.64416,0.538752,6.44,106.855,-116.90875,-9.504001,-36.176003,36.600002,inter_set_rest,0,3.0,30024.0,384829.0,343917.0,402243.0,346721.0
2026-04-07 17:38:56.104724,109352,606479848,606480938,0.12688,0.698816,0.571936,2.89625,109.8475,-116.5325,-8.592,-37.488003,39.032,inter_set_rest,0,3.0,30024.0,384829.0,343917.0,402243.0,346721.0
2026-04-07 17:38:56.109476,109353,606488856,606489662,0.12688,0.698816,0.571936,3.84125,111.92125,-116.095,-8.592,-37.488003,39.032,inter_set_rest,0,3.0,30024.0,384829.0,343917.0,402243.0,346721.0
2026-04-07 17:38:56.111223,109354,606503365,606504533,0.037088,0.718336,0.542656,2.70375,111.9825,-115.3075,-6.216,-38.496002,38.232002,inter_set_rest,0,3.0,30024.0,384829.0,343917.0,402243.0,346721.0
2026-04-07 17:38:56.112699,109355,606512296,606513251,0.021472,0.733952,0.568032,1.7325,111.2825,-113.61875,-5.832,-39.344,37.328003,inter_set_rest,0,3.0,30024.0,384829.0,343917.0,402243.0,346721.0
2026-04-07 17:38:56.116942,109356,606521238,606521935,0.021472,0.733952,0.568032,0.84,111.3,-113.35625,-5.832,-39.344,37.328003,inter_set_rest,0,3.0,30024.0,384829.0,343917.0,402243.0,346721.0
2026-04-07 17:38:56.148630,109367,606530763,606532917,0.021472,0.733952,0.568032,0.16625,113.6275,-113.505,-5.832,-39.344,37.328003,inter_set_rest,0,3.0,30204.0,385535.0,344350.0,402473.0,346747.0
2026-04-07 17:38:56.150260,109368,606545378,606545778,-0.062464,0.74176,0.64416,-4.19125,117.38125,-113.39125,-3.648,-40.448,40.864002,inter_set_rest,0,3.0,30204.0,385535.0,344350.0,402473.0,346747.0
2026-04-07 17:38:56.154356,109369,606554669,606556598,-0.138592,0.700768,0.659776,-10.8675,118.65,-110.7925,-2.968,-41.432003,41.584003,inter_set_rest,0,3.0,30204.0,385535.0,344350.0,402473.0,346747.0
2026-04-07 17:38:56.155877,109370,606563600,606565320,-0.138592,0.700768,0.659776,-13.86,120.058754,-107.31,-2.968,-41.432003,41.584003,inter_set_rest,0,3.0,30204.0,385535.0,344350.0,402473.0,346747.0
2026-04-07 17:38:56.186198,109371,606578175,606580245,-0.216672,0.69296,0.669536,-10.77125,120.6625,-104.2825,-1.456,-42.600002,40.416,inter_set_rest,0,3.0,30204.0,385535.0,344350.0,402473.0,346747.0
2026-04-07 17:38:56.188464,109372,606587118,606588938,-0.216672,0.69296,0.669536,-7.175,119.875,-101.84125,-1.456,-42.600002,40.416,inter_set_rest,0,3.0,30204.0,385535.0,344350.0,402473.0,346747.0
2026-04-07 17:38:56.193284,109373,606596041,606597636,-0.228384,0.759328,0.62464,-4.06,118.65,-99.75,0.816,-43.56,41.408,inter_set_rest,0,3.0,30204.0,385535.0,344350.0,402473.0,346747.0
2026-04-07 17:38:56.194857,109374,606604962,606606332,-0.228384,0.759328,0.62464,-2.51125,119.2275,-99.995,0.816,-43.56,41.408,inter_set_rest,0,3.0,30204.0,385535.0,344350.0,402473.0,346747.0
2026-04-07 17:38:56.228806,109375,606619409,606621248,-0.2928,0.765184,0.646112,-5.99375,118.6675,-100.0475,1.984,-44.312,43.288002,inter_set_rest,0,3.0,30204.0,385535.0,344350.0,402473.0,346747.0
2026-04-07 17:38:56.255603,109385,606628908,606630067,-0.2928,0.765184,0.646112,-11.27,117.565,-98.76125,1.984,-44.312,43.288002,inter_set_rest,0,3.0,30295.0,385804.0,344357.0,402399.0,346399.0
2026-04-07 17:38:56.257289,109386,606637940,606638873,-0.32208,0.681248,0.726144,-14.875,117.0225,-97.15125,3.848,-44.464,42.592003,inter_set_rest,0,3.0,30295.0,385804.0,344357.0,402399.0,346399.0
2026-04-07 17:38:56.258854,109387,606652412,606653781,-0.32208,0.763232,0.739808,-13.09875,117.08375,-95.47125,3.848,-44.464,48.736004,inter_set_rest,0,3.0,30295.0,385804.0,344357.0,402399.0,346399.0
2026-04-07 17:38:56.263153,109388,606661435,606662531,-0.374784,0.763232,0.739808,-8.785,117.7225,-93.16125,5.32,-45.368004,47.376003,inter_set_rest,0,3.0,30295.0,385804.0,344357.0,402399.0,346399.0
2026-04-07 17:38:56.265544,109389,606670391,606671232,-0.374784,0.763232,0.739808,-8.435,116.935,-91.3325,5.32,-45.368004,47.376003,inter_set_rest,0,3.0,30295.0,385804.0,344357.0,402399.0,346399.0
2026-04-07 17:38:56.271864,109390,606684896,606686199,-0.415776,0.767136,0.714432,-9.47625,116.34875,-90.5975,7.024,-46.288002,46.272003,inter_set_rest,0,3.0,30295.0,385804.0,344357.0,402399.0,346399.0
2026-04-07 17:38:56.301211,109391,606693851,606694924,-0.443104,0.739808,0.704672,-8.7325,114.75625,-90.37,9.192,-46.664,43.368004,inter_set_rest,0,3.0,30295.0,385804.0,344357.0,402399.0,346399.0
2026-04-07 17:38:56.304117,109392,606702787,606703613,-0.443104,0.739808,0.704672,-7.14,114.8875,-89.97625,9.192,-46.664,43.368004,inter_set_rest,0,3.0,30295.0,385804.0,344357.0,402399.0,346399.0
2026-04-07 17:38:56.307126,109393,606711698,606712315,-0.443104,0.739808,0.704672,-4.3575,113.933754,-89.55625,9.192,-46.664,43.368004,inter_set_rest,0,3.0,30295.0,385804.0,344357.0,402399.0,346399.0
2026-04-07 17:38:56.337613,109403,606726486,606727771,-0.534848,0.825696,0.739808,-0.14,112.2625,-89.32875,10.712001,-46.88,42.544003,inter_set_rest,0,3.0,30557.0,387235.0,345405.0,402956.0,347331.0
2026-04-07 17:38:56.341842,109404,606736451,606738629,-0.530944,0.776896,0.76128,1.3825,110.433754,-90.02875,11.776001,-47.904003,45.856003,inter_set_rest,0,3.0,30557.0,387235.0,345405.0,402956.0,347331.0
2026-04-07 17:38:56.343556,109405,606745392,606747441,-0.530944,0.776896,0.76128,0.2625,108.40375,-91.91875,11.776001,-47.904003,45.856003,inter_set_rest,0,3.0,30557.0,387235.0,345405.0,402956.0,347331.0
2026-04-07 17:38:56.345892,109406,606754300,606756193,-0.55632,0.74176,0.763232,2.28375,108.027504,-92.295,14.256001,-48.112003,44.816,inter_set_rest,0,3.0,30557.0,387235.0,345405.0,402956.0,347331.0
2026-04-07 17:38:56.402807,109407,606768843,606771138,-0.55632,0.74176,0.763232,5.1975,107.5025,-91.97125,14.256001,-48.112003,44.816,inter_set_rest,0,3.0,30557.0,387235.0,345405.0,402956.0,347331.0
2026-04-07 17:38:56.407972,109408,606777763,606779870,-0.57584,0.823744,0.763232,5.20625,106.8025,-91.72625,16.168001,-48.208004,43.176003,inter_set_rest,0,3.0,30557.0,387235.0,345405.0,402956.0,347331.0
2026-04-07 17:38:56.408763,109409,606786666,606788587,-0.57584,0.823744,0.763232,3.50875,106.65375,-91.46375,16.168001,-48.208004,43.176003,inter_set_rest,0,3.0,30557.0,387235.0,345405.0,402956.0,347331.0
2026-04-07 17:38:56.413087,109410,606801199,606803490,-0.646112,0.7808,0.757376,0.5425,104.335,-90.0375,17.992,-48.184002,43.496002,inter_set_rest,0,3.0,30557.0,387235.0,345405.0,402956.0,347331.0
2026-04-07 17:38:56.414820,109411,606810103,606812189,-0.646112,0.7808,0.757376,2.3275,101.027504,-88.57625,17.992,-48.184002,43.496002,inter_set_rest,0,3.0,30557.0,387235.0,345405.0,402956.0,347331.0
2026-04-07 17:38:56.417302,109412,606819032,606820936,-0.671488,0.749568,0.83936,4.1125,99.53125,-87.2725,19.512001,-48.432003,42.960003,inter_set_rest,0,3.0,30557.0,387235.0,345405.0,402956.0,347331.0
2026-04-07 17:38:56.445635,109423,606833595,606835910,-0.714432,0.747616,0.714432,2.79125,99.09375,-88.76,20.696001,-48.544003,44.848003,inter_set_rest,0,3.0,30842.0,388921.0,346442.0,403419.0,348164.0
2026-04-07 17:38:56.447319,109424,606842580,606844708,-0.714432,0.747616,0.714432,15.68,94.92,-80.00125,20.696001,-48.544003,44.848003,inter_set_rest,0,3.0,30842.0,388921.0,346442.0,403419.0,348164.0
2026-04-07 17:38:56.448938,109425,606851586,606853399,-0.714432,0.747616,0.714432,10.56125,90.99125,-77.28,20.696001,-48.544003,44.848003,inter_set_rest,0,3.0,30842.0,388921.0,346442.0,403419.0,348164.0
2026-04-07 17:38:56.452963,109426,606860657,606862051,-0.730048,0.74176,0.817888,6.99125,88.54125,-73.4125,22.336,-48.904003,44.448,inter_set_rest,0,3.0,30842.0,388921.0,346442.0,403419.0,348164.0
2026-04-07 17:38:56.481538,109427,606875207,606876998,-0.681248,0.718336,0.81008,12.38125,84.9625,-68.03125,22.928001,-49.424004,40.448,inter_set_rest,0,3.0,30842.0,388921.0,346442.0,403419.0,348164.0
2026-04-07 17:38:56.486002,109428,606884102,606885677,-0.681248,0.718336,0.81008,15.96,80.59625,-62.78125,22.928001,-49.424004,40.448,inter_set_rest,0,3.0,30842.0,388921.0,346442.0,403419.0,348164.0
2026-04-07 17:38:56.487596,109429,606893077,606894366,-0.681248,0.718336,0.812032,19.46875,78.63625,-58.135002,22.928001,-49.424004,40.448,inter_set_rest,0,3.0,30842.0,388921.0,346442.0,403419.0,348164.0
2026-04-07 17:38:56.495471,109430,606907598,606909320,-0.720288,0.80032,0.812032,21.07,77.32375,-54.39875,24.640001,-49.032,42.68,inter_set_rest,0,3.0,30842.0,388921.0,346442.0,403419.0,348164.0
2026-04-07 17:38:56.524041,109431,606916515,606918014,-0.728096,0.77104,0.753472,19.897501,73.325,-51.72125,25.880001,-48.488003,40.784,inter_set_rest,0,3.0,30842.0,388921.0,346442.0,403419.0,348164.0
2026-04-07 17:38:56.528595,109432,606925427,606926705,-0.728096,0.77104,0.753472,22.89,68.11875,-50.70625,25.880001,-48.488003,40.784,inter_set_rest,0,3.0,30842.0,388921.0,346442.0,403419.0,348164.0
2026-04-07 17:38:56.586179,109442,606939982,606941702,-0.765184,0.767136,0.698816,28.34125,62.22125,-50.19875,26.704,-48.944004,39.952003,inter_set_rest,0,3.0,30552.0,386893.0,344617.0,402322.0,345962.0
2026-04-07 17:38:56.590666,109443,606948919,606950421,-0.765184,0.767136,0.698816,32.08625,55.53625,-48.48375,26.704,-48.944004,39.952003,inter_set_rest,0,3.0,30552.0,386893.0,344617.0,402322.0,345962.0
2026-04-07 17:38:56.597007,109444,606957871,606959119,-0.735904,0.700768,0.743712,32.71625,50.68,-46.52375,26.760002,-49.08,40.952003,inter_set_rest,0,3.0,30552.0,386893.0,344617.0,402322.0,345962.0
2026-04-07 17:38:56.599818,109445,606972423,606974043,-0.735904,0.700768,0.743712,33.013752,46.4975,-45.0275,26.760002,-49.08,40.952003,inter_set_rest,0,3.0,30552.0,386893.0,344617.0,402322.0,345962.0
2026-04-07 17:38:56.604835,109446,606981338,606982755,-0.755424,0.757376,0.767136,35.2975,43.67125,-41.72,27.728,-48.824,39.672,inter_set_rest,0,3.0,30552.0,386893.0,344617.0,402322.0,345962.0
2026-04-07 17:38:56.607242,109447,606990268,606991439,-0.755424,0.757376,0.767136,35.7525,41.44,-39.0775,27.728,-48.824,39.672,inter_set_rest,0,3.0,30552.0,386893.0,344617.0,402322.0,345962.0
2026-04-07 17:38:56.609832,109448,606999272,607000167,-0.763232,0.724192,0.704672,28.51625,39.6025,-36.89,28.28,-48.768,37.816,inter_set_rest,0,3.0,30552.0,386893.0,344617.0,402322.0,345962.0
2026-04-07 17:38:56.612290,109449,607013740,607015047,-0.763232,0.72224,0.626592,24.535,36.6625,-35.09625,28.28,-48.768,41.912003,inter_set_rest,0,3.0,30552.0,386893.0,344617.0,402322.0,345962.0
2026-04-07 17:38:56.613770,109450,607022736,607023800,-0.753472,0.72224,0.626592,27.991251,31.911251,-33.97625,28.152,-48.960003,40.984,inter_set_rest,0,3.0,30552.0,386893.0,344617.0,402322.0,345962.0
2026-04-07 17:38:56.640628,109460,607032124,607032577,-0.753472,0.72224,0.626592,34.615,27.43125,-33.06625,28.152,-48.960003,40.984,inter_set_rest,0,3.0,30507.0,386854.0,344457.0,402096.0,345704.0
2026-04-07 17:38:56.642352,109461,607047004,607047491,-0.796416,0.753472,0.618784,36.6975,22.12,-30.6425,29.136002,-48.224003,36.488003,inter_set_rest,0,3.0,30507.0,386854.0,344457.0,402096.0,345704.0
2026-04-07 17:38:56.643879,109462,607056362,607058274,-0.786656,0.655872,0.65392,33.34625,16.8875,-28.34125,28.752,-48.288002,36.528,inter_set_rest,0,3.0,30507.0,386854.0,344457.0,402096.0,345704.0
2026-04-07 17:38:56.706237,109463,607065311,607067007,-0.786656,0.655872,0.65392,29.19,11.1125,-26.11,28.752,-48.288002,36.528,inter_set_rest,0,3.0,30507.0,386854.0,344457.0,402096.0,345704.0
2026-04-07 17:38:56.707657,109464,607074211,607075689,-0.772992,0.640256,0.599264,31.28125,6.43125,-21.97125,28.752,-48.288002,35.504,inter_set_rest,0,3.0,30507.0,386854.0,344457.0,402096.0,345704.0
2026-04-07 17:38:56.712301,109465,607088685,607090566,-0.772992,0.640256,0.599264,36.35625,3.31625,-19.38125,29.176,-48.536003,35.504,inter_set_rest,0,3.0,30507.0,386854.0,344457.0,402096.0,345704.0
2026-04-07 17:38:56.714841,109466,607097621,607099277,-0.782752,0.69296,0.562176,36.67125,1.26,-17.08875,29.2,-48.104004,35.376003,inter_set_rest,0,3.0,30507.0,386854.0,344457.0,402096.0,345704.0
2026-04-07 17:38:56.716473,109467,607106527,607107963,-0.782752,0.69296,0.562176,32.8475,-1.19,-13.3,29.2,-48.104004,35.376003,inter_set_rest,0,3.0,30507.0,386854.0,344457.0,402096.0,345704.0
2026-04-07 17:38:56.720396,109468,607121017,607122856,-0.772992,0.609024,0.55632,28.3675,-3.8325,-10.50875,29.184002,-47.680004,35.904003,inter_set_rest,0,3.0,30507.0,386854.0,344457.0,402096.0,345704.0
2026-04-07 17:38:56.747362,109479,607130552,607132125,-0.772992,0.609024,0.55632,26.8625,-7.2625,-9.02125,29.184002,-47.680004,35.904003,inter_set_rest,0,3.0,30352.0,385842.0,343563.0,401167.0,344959.0
2026-04-07 17:38:56.748997,109480,607139688,607140993,-0.782752,0.620736,0.552416,29.07625,-8.70625,-7.7,28.872002,-47.536003,35.184002,inter_set_rest,0,3.0,30352.0,385842.0,343563.0,401167.0,344959.0
2026-04-07 17:38:56.753138,109481,607148764,607149800,-0.782752,0.620736,0.552416,31.38625,-9.38,-7.95375,28.872002,-47.536003,35.184002,inter_set_rest,0,3.0,30352.0,385842.0,343563.0,401167.0,344959.0
2026-04-07 17:38:56.754692,109482,607163425,607164756,-0.749568,0.597312,0.49776,31.63125,-11.261251,-8.32125,28.968002,-47.384003,36.576,inter_set_rest,0,3.0,30352.0,385842.0,343563.0,401167.0,344959.0
2026-04-07 17:38:56.760486,109483,607172360,607173461,-0.749568,0.597312,0.49776,32.8825,-12.43375,-8.70625,28.968002,-47.384003,36.576,inter_set_rest,0,3.0,30352.0,385842.0,343563.0,401167.0,344959.0
2026-04-07 17:38:56.789036,109484,607181323,607182161,-0.733952,0.59536,0.509472,31.1325,-12.95875,-8.7325,28.680002,-47.984,35.624,inter_set_rest,0,3.0,30352.0,385842.0,343563.0,401167.0,344959.0
2026-04-07 17:38:56.793586,109485,607195849,607197084,-0.728096,0.569984,0.503616,28.60375,-12.74875,-8.5225,28.728,-47.416,34.56,inter_set_rest,0,3.0,30352.0,385842.0,343563.0,401167.0,344959.0
2026-04-07 17:38:56.795098,109486,607204755,607205795,-0.728096,0.569984,0.503616,27.37875,-13.2125,-7.6125,28.728,-47.416,34.56,inter_set_rest,0,3.0,30352.0,385842.0,343563.0,401167.0,344959.0
2026-04-07 17:38:56.800462,109487,607213679,607214510,-0.728096,0.569984,0.503616,26.18875,-14.39375,-7.58625,28.728,-47.416,34.56,inter_set_rest,0,3.0,30352.0,385842.0,343563.0,401167.0,344959.0
2026-04-07 17:38:56.829193,109488,607228229,607229410,-0.72224,0.52704,0.42944,25.83875,-17.01,-6.08125,27.648,-47.56,34.120003,inter_set_rest,0,3.0,30352.0,385842.0,343563.0,401167.0,344959.0
2026-04-07 17:38:56.856133,109498,607237193,607238197,-0.685152,0.54656,0.417728,26.95875,-19.678751,-5.11875,27.960001,-47.36,34.280003,inter_set_rest,0,3.0,29825.0,382260.0,340734.0,398103.0,342295.0
2026-04-07 17:38:56.857605,109499,607246180,607246889,-0.685152,0.54656,0.417728,26.005,-19.635,-4.69875,27.960001,-47.36,34.280003,inter_set_rest,0,3.0,29825.0,382260.0,340734.0,398103.0,342295.0
2026-04-07 17:38:56.861863,109500,607255530,607257728,-0.687104,0.52704,0.466528,20.16,-20.7025,-3.5525,28.152,-46.872,33.68,inter_set_rest,0,3.0,29825.0,382260.0,340734.0,398103.0,342295.0
2026-04-07 17:38:56.864414,109501,607270096,607270592,-0.687104,0.52704,0.466528,16.94,-20.86875,-3.325,28.152,-46.872,33.68,inter_set_rest,0,3.0,29825.0,382260.0,340734.0,398103.0,342295.0
2026-04-07 17:38:56.867130,109502,607279473,607281371,-0.716384,0.538752,0.454816,18.89125,-19.95875,-2.9225,28.160002,-46.832,34.648003,inter_set_rest,0,3.0,29825.0,382260.0,340734.0,398103.0,342295.0
2026-04-07 17:38:56.896480,109503,607288424,607290114,-0.716384,0.538752,0.454816,19.4075,-19.85375,-1.9425,28.160002,-46.832,34.648003,inter_set_rest,0,3.0,29825.0,382260.0,340734.0,398103.0,342295.0
2026-04-07 17:38:56.901061,109504,607297368,607298799,-0.677344,0.534848,0.37088,17.12375,-21.14,-1.435,27.472002,-46.800003,34.672,inter_set_rest,0,3.0,29825.0,382260.0,340734.0,398103.0,342295.0
2026-04-07 17:38:56.902489,109505,607311957,607313757,-0.677344,0.534848,0.37088,15.05875,-22.58375,-2.0825,27.472002,-46.800003,34.672,inter_set_rest,0,3.0,29825.0,382260.0,340734.0,398103.0,342295.0
2026-04-07 17:38:56.907912,109506,607320943,607322471,-0.71248,0.528992,0.368928,10.07125,-24.045,-1.79375,26.960001,-47.208004,34.616,inter_set_rest,0,3.0,29825.0,382260.0,340734.0,398103.0,342295.0
2026-04-07 17:38:56.963891,109516,607329891,607331142,-0.71248,0.528992,0.368928,6.79875,-24.675,-1.26875,26.960001,-47.208004,34.616,inter_set_rest,0,3.0,29614.0,380653.0,339487.0,396760.0,341358.0
2026-04-07 17:38:56.968207,109517,607344860,607346034,-0.696864,0.525088,0.398208,6.3525,-24.9725,0.13125,27.12,-46.656002,35.288002,inter_set_rest,0,3.0,29614.0,380653.0,339487.0,396760.0,341358.0
2026-04-07 17:38:57.004040,109518,607353856,607354723,-0.696864,0.525088,0.398208,5.74,-24.00125,0.7875,27.12,-46.656002,35.288002,inter_set_rest,0,3.0,29614.0,380653.0,339487.0,396760.0,341358.0
2026-04-07 17:38:57.013660,109519,607362895,607363448,-0.757376,0.542656,0.40992,4.57625,-22.61875,1.88125,26.640001,-47.128002,32.2,inter_set_rest,0,3.0,29614.0,380653.0,339487.0,396760.0,341358.0
2026-04-07 17:38:57.015132,109520,607372441,607374229,-0.757376,0.542656,0.40992,2.975,-22.1725,3.14125,26.640001,-47.128002,32.2,inter_set_rest,0,3.0,29614.0,380653.0,339487.0,396760.0,341358.0
2026-04-07 17:38:57.017632,109521,607386940,607389168,-0.74176,0.548512,0.411872,1.7325,-21.34125,4.445,25.288002,-47.280003,36.656002,inter_set_rest,0,3.0,29614.0,380653.0,339487.0,396760.0,341358.0
2026-04-07 17:38:57.019720,109522,607395879,607397867,-0.763232,0.488,0.320128,1.0675,-20.15125,5.31125,25.784,-46.336002,34.672,inter_set_rest,0,3.0,29614.0,380653.0,339487.0,396760.0,341358.0
2026-04-07 17:38:57.024333,109523,607404782,607406541,-0.763232,0.488,0.320128,-0.21,-19.31125,7.0,25.784,-46.336002,34.672,inter_set_rest,0,3.0,29614.0,380653.0,339487.0,396760.0,341358.0
