pc_time,serial_num,sensor_ts,host_ts,ax,ay,az,gx,gy,gz,mx,my,mz,phase,rpe,weight_kg,ppg_a,ppg_b,ppg_c,ppg_d,ppg_e
2026-04-07 18:04:36.602204,395590,2146903951,2146905825,-1.360544,0.187392,0.093696,11.9525,3.745,0.74375,42.656002,0.736,58.200005,eccentric,6,3.0,22941.0,314364.0,280024.0,325288.0,287555.0
2026-04-07 18:04:36.604717,395591,2146913247,2146914540,-1.360544,0.187392,0.093696,11.3225,3.64,0.14875,42.656002,0.736,58.200005,eccentric,6,3.0,22941.0,314364.0,280024.0,325288.0,287555.0
2026-04-07 18:04:36.608075,395592,2146922191,2146923463,-1.342976,0.197152,0.076128,11.261251,3.395,-0.5775,42.312,0.112,58.248,eccentric,6,3.0,22941.0,314364.0,280024.0,325288.0,287555.0
2026-04-07 18:04:36.609705,395593,2146936719,2146938428,-1.333216,0.199104,0.072224,10.12375,3.3075,-1.82,41.968002,-0.208,57.784004,eccentric,6,3.0,22941.0,314364.0,280024.0,325288.0,287555.0
2026-04-07 18:04:36.612217,395594,2146945614,2146947125,-1.333216,0.199104,0.072224,9.38,3.0625,-3.00125,41.968002,-0.208,57.784004,eccentric,6,3.0,22941.0,314364.0,280024.0,325288.0,287555.0
2026-04-07 18:04:36.614697,395595,2146954544,2146955812,-1.333216,0.199104,0.072224,7.8575,3.045,-3.605,41.968002,-0.208,57.784004,eccentric,6,3.0,22941.0,314364.0,280024.0,325288.0,287555.0
2026-04-07 18:04:36.618547,395596,2146969083,2146970741,-1.331264,0.177632,0.05856,7.49,3.63125,-4.515,41.568,0.352,55.576004,eccentric,6,3.0,22941.0,314364.0,280024.0,325288.0,287555.0
2026-04-07 18:04:36.619767,395597,2146978026,2146979502,-1.303936,0.154208,0.060512,8.295,2.68625,-5.29375,41.816,0.368,58.656002,eccentric,6,3.0,22941.0,314364.0,280024.0,325288.0,287555.0
2026-04-07 18:04:36.622217,395598,2146987032,2146988216,-1.303936,0.154208,0.060512,10.0975,2.3625,-5.57375,41.816,0.368,58.656002,eccentric,6,3.0,22941.0,314364.0,280024.0,325288.0,287555.0
2026-04-07 18:04:36.652387,395599,2147001533,2147003154,-1.28832,0.144448,0.062464,11.515,2.37125,-5.39,41.392002,0.16,59.504,eccentric,6,3.0,22941.0,314364.0,280024.0,325288.0,287555.0
2026-04-07 18:04:36.682260,395609,2147010510,2147011916,-1.28832,0.144448,0.062464,12.25875,2.58125,-4.9525,41.392002,0.16,59.504,eccentric,6,3.0,22930.0,313973.0,279501.0,324561.0,286918.0
2026-04-07 18:04:36.684803,395610,2147019450,2147020667,-1.28832,0.148352,0.054656,11.305,2.56375,-4.76875,41.512,0.248,58.096004,eccentric,6,3.0,22930.0,313973.0,279501.0,324561.0,286918.0
2026-04-07 18:04:36.687244,395611,2147033928,2147035636,-1.28832,0.148352,0.054656,10.325,2.695,-4.29625,41.512,0.248,58.096004,eccentric,6,3.0,22930.0,313973.0,279501.0,324561.0,286918.0
2026-04-07 18:04:36.689820,395612,2147042921,2147044367,-1.247328,0.1464,0.037088,9.96625,2.91375,-3.45625,41.464,0.088,57.936005,eccentric,6,3.0,22930.0,313973.0,279501.0,324561.0,286918.0
2026-04-07 18:04:36.692220,395613,2147051879,2147053055,-1.247328,0.1464,0.037088,9.58125,3.0275,-2.30125,41.464,0.088,57.936005,eccentric,6,3.0,22930.0,313973.0,279501.0,324561.0,286918.0
2026-04-07 18:04:36.694756,395614,2147060832,2147061817,-1.223904,0.152256,0.037088,8.84625,3.71,-1.365,42.056004,0.352,58.512,eccentric,6,3.0,22930.0,313973.0,279501.0,324561.0,286918.0
2026-04-07 18:04:36.728437,395615,2147075350,2147076770,-1.223904,0.152256,0.037088,7.8925,4.15625,0.14875,42.056004,0.352,58.512,eccentric,6,3.0,22930.0,313973.0,279501.0,324561.0,286918.0
2026-04-07 18:04:36.728523,395616,2147084259,2147085470,-1.20048,0.152256,0.033184,6.46625,4.80375,1.1375,41.632004,-0.184,57.576004,eccentric,6,3.0,22930.0,313973.0,279501.0,324561.0,286918.0
2026-04-07 18:04:36.730942,395617,2147093181,2147094154,-1.20048,0.152256,0.033184,6.16,5.18,1.6975,41.632004,-0.184,57.576004,eccentric,6,3.0,22930.0,313973.0,279501.0,324561.0,286918.0
2026-04-07 18:04:36.760720,395628,2147107820,2147109095,-1.175104,0.163968,0.027328,6.95625,5.7575,1.68,41.320004,-0.232,57.536003,eccentric,6,3.0,22744.0,311939.0,277509.0,322065.0,284705.0
2026-04-07 18:04:36.762326,395629,2147116833,2147117899,-1.175104,0.163968,0.021472,7.25375,6.265,1.4175,41.320004,-0.232,57.536003,eccentric,6,3.0,22744.0,311939.0,277509.0,322065.0,284705.0
2026-04-07 18:04:36.766472,395630,2147125821,2147126650,-1.136064,0.163968,0.021472,6.86,6.23,0.98,41.144,-0.416,57.848003,eccentric,6,3.0,22744.0,311939.0,277509.0,322065.0,284705.0
2026-04-07 18:04:36.772618,395631,2147140306,2147141534,-1.104832,0.148352,0.02928,6.25625,6.86875,1.1375,40.512,-0.16,59.320004,eccentric,6,3.0,22744.0,311939.0,277509.0,322065.0,284705.0
2026-04-07 18:04:36.801104,395632,2147149315,2147150295,-1.104832,0.148352,0.02928,4.795,7.06125,1.3125,40.512,-0.16,59.320004,eccentric,6,3.0,22744.0,311939.0,277509.0,322065.0,284705.0
2026-04-07 18:04:36.806645,395633,2147158220,2147159003,-1.067744,0.122976,0.017568,3.4475,7.4725,1.35625,41.224003,0.536,57.264004,eccentric,6,3.0,22744.0,311939.0,277509.0,322065.0,284705.0
2026-04-07 18:04:36.807246,395634,2147167189,2147167697,-1.067744,0.122976,0.017568,3.35125,7.0175,1.75,41.224003,0.536,57.264004,eccentric,6,3.0,22744.0,311939.0,277509.0,322065.0,284705.0
2026-04-07 18:04:36.812669,395635,2147182178,2147182611,-1.016992,0.101504,0.007808,3.73625,6.06375,2.66,40.784,0.616,56.664,eccentric,6,3.0,22744.0,311939.0,277509.0,322065.0,284705.0
2026-04-07 18:04:36.841278,395636,2147191474,2147193362,-1.016992,0.101504,0.007808,4.29625,6.16875,3.15,40.784,0.616,56.664,eccentric,6,3.0,22744.0,311939.0,277509.0,322065.0,284705.0
2026-04-07 18:04:36.845888,395637,2147200579,2147202104,-0.981856,0.101504,0.003904,5.06625,5.48625,3.955,41.824,1.096,56.216003,eccentric,6,3.0,22744.0,311939.0,277509.0,322065.0,284705.0
2026-04-07 18:04:36.904634,395647,2147215113,2147217044,-0.981856,0.101504,0.003904,5.34625,5.04875,5.145,41.824,1.096,56.216003,eccentric,6,3.0,22598.0,310462.0,276044.0,320187.0,283016.0
2026-04-07 18:04:36.907354,395648,2147224069,2147225743,-0.993568,0.105408,-0.027328,5.85375,4.13,6.09,41.160004,0.288,56.872,eccentric,6,3.0,22598.0,310462.0,276044.0,320187.0,283016.0
2026-04-07 18:04:36.909747,395649,2147233038,2147234452,-0.993568,0.105408,-0.027328,7.58625,4.29625,6.895,41.160004,0.288,56.872,eccentric,6,3.0,22598.0,310462.0,276044.0,320187.0,283016.0
2026-04-07 18:04:36.912231,395650,2147241975,2147243151,-0.94672,0.1464,0.005856,10.96375,3.4825,6.65875,41.4,0.448,56.56,eccentric,6,3.0,22598.0,310462.0,276044.0,320187.0,283016.0
2026-04-07 18:04:36.914696,395651,2147256486,2147258083,-0.94672,0.1464,0.005856,13.81625,3.10625,5.985,41.4,0.448,56.56,eccentric,6,3.0,22598.0,310462.0,276044.0,320187.0,283016.0
2026-04-07 18:04:36.917223,395652,2147265424,2147266979,-0.960384,0.169824,0.0,14.42,2.38875,4.9875,41.864002,-0.072,57.272003,eccentric,6,3.0,22598.0,310462.0,276044.0,320187.0,283016.0
2026-04-07 18:04:36.919725,395653,2147274404,2147275706,-0.960384,0.169824,0.0,12.0925,1.4875,4.06875,41.864002,-0.072,57.272003,eccentric,6,3.0,22598.0,310462.0,276044.0,320187.0,283016.0
2026-04-07 18:04:36.922237,395654,2147288958,2147290681,-0.95648,0.140544,-0.017568,8.56625,1.1375,3.77125,40.896004,0.008,57.128002,eccentric,6,3.0,22598.0,310462.0,276044.0,320187.0,283016.0
2026-04-07 18:04:36.928904,395655,2147297891,2147299395,-0.952576,0.105408,-0.013664,6.1775,-0.21875,3.675,40.896004,0.008,55.952003,eccentric,6,3.0,22598.0,310462.0,276044.0,320187.0,283016.0
2026-04-07 18:04:36.982231,395665,2147306871,2147308252,-0.952576,0.105408,-0.013664,6.30875,-1.1375,2.56375,41.008003,-0.08,55.952003,eccentric,6,3.0,22303.0,307846.0,273733.0,317622.0,280820.0
2026-04-07 18:04:36.984731,395666,2147321427,2147323395,-0.968192,0.122976,-0.005856,8.4,-1.88125,1.2775,40.760002,0.656,55.792004,eccentric,6,3.0,22303.0,307846.0,273733.0,317622.0,280820.0
2026-04-07 18:04:36.987272,395667,2147330372,2147332103,-0.968192,0.122976,-0.005856,11.7075,-2.49375,0.25375,40.760002,0.656,55.792004,eccentric,6,3.0,22303.0,307846.0,273733.0,317622.0,280820.0
2026-04-07 18:04:36.989691,395668,2147339309,2147340805,-0.948672,0.144448,0.011712,14.9625,-2.7125,-0.51625,41.096,-0.056,56.2,eccentric,6,3.0,22303.0,307846.0,273733.0,317622.0,280820.0
2026-04-07 18:04:36.992188,395669,2147348323,2147349536,-0.948672,0.144448,0.011712,16.345,-3.28125,-1.1725,41.096,-0.056,56.2,eccentric,6,3.0,22303.0,307846.0,273733.0,317622.0,280820.0
2026-04-07 18:04:36.994714,395670,2147362890,2147364482,-0.940864,0.163968,0.027328,15.505,-3.54375,-1.16375,40.584003,0.08,55.72,eccentric,6,3.0,22303.0,307846.0,273733.0,317622.0,280820.0
2026-04-07 18:04:37.001015,395671,2147371843,2147373215,-0.940864,0.163968,0.027328,12.9675,-4.165,-2.275,40.584003,0.08,55.72,eccentric,6,3.0,22303.0,307846.0,273733.0,317622.0,280820.0
2026-04-07 18:04:37.031096,395672,2147380806,2147381909,-0.921344,0.162016,0.0488,10.0975,-4.305,-2.19625,40.088,-0.904,57.520004,eccentric,6,3.0,22303.0,307846.0,273733.0,317622.0,280820.0
2026-04-07 18:04:37.034741,395673,2147395336,2147396833,-0.921344,0.162016,0.0488,5.73125,-4.47125,-2.8175,40.088,-0.904,57.520004,eccentric,6,3.0,22303.0,307846.0,273733.0,317622.0,280820.0
2026-04-07 18:04:37.037218,395674,2147404276,2147405520,-0.933056,0.142496,0.025376,0.2625,-4.73375,-2.84375,40.208,0.232,55.608,eccentric,6,3.0,22303.0,307846.0,273733.0,317622.0,280820.0
2026-04-07 18:04:37.064751,395685,2147413327,2147414275,-0.933056,0.142496,0.025376,-3.21125,-4.795,-2.75625,40.208,0.232,55.608,eccentric,6,3.0,22428.0,308335.0,273809.0,317414.0,280538.0
2026-04-07 18:04:37.067288,395686,2147427973,2147429240,-0.921344,0.111264,-0.001952,-4.0425,-5.60875,-3.5875,40.536003,-0.008,55.888004,eccentric,6,3.0,22428.0,308335.0,273809.0,317414.0,280538.0
2026-04-07 18:04:37.069741,395687,2147436944,2147438016,-0.921344,0.111264,-0.001952,-3.5175,-6.04625,-4.54125,40.536003,-0.008,55.888004,eccentric,6,3.0,22428.0,308335.0,273809.0,317414.0,280538.0
2026-04-07 18:04:37.076044,395688,2147445890,2147446731,-0.90768,0.10736,-0.00976,-1.435,-6.7725,-5.075,39.440002,0.008,54.600002,eccentric,6,3.0,22428.0,308335.0,273809.0,317414.0,280538.0
2026-04-07 18:04:37.106134,395689,2147454801,2147455427,-0.90768,0.10736,-0.00976,2.17,-8.085,-5.4425,39.440002,0.008,54.600002,eccentric,6,3.0,22428.0,308335.0,273809.0,317414.0,280538.0
2026-04-07 18:04:37.110655,395690,2147469531,2147470372,-0.903776,0.115168,0.0,6.44,-8.98625,-5.25,39.928,-0.312,55.520004,eccentric,6,3.0,22428.0,308335.0,273809.0,317414.0,280538.0
2026-04-07 18:04:37.112305,395691,2147478981,2147481164,-0.89792,0.12688,0.015616,9.8175,-9.75625,-4.90875,39.928,0.008,55.632004,eccentric,6,3.0,22428.0,308335.0,273809.0,317414.0,280538.0
2026-04-07 18:04:37.120098,395692,2147487883,2147489855,-0.89792,0.12688,0.015616,12.3725,-10.9725,-4.75125,40.208,0.008,55.632004,eccentric,6,3.0,22428.0,308335.0,273809.0,317414.0,280538.0
2026-04-07 18:04:37.183427,395693,2147502484,2147504779,-0.899872,0.152256,0.044896,13.97375,-10.4475,-3.87625,40.120003,0.328,55.56,eccentric,6,3.0,22428.0,308335.0,273809.0,317414.0,280538.0
2026-04-07 18:04:37.209439,395703,2147511616,2147513599,-0.899872,0.152256,0.044896,13.71125,-10.31625,-3.57875,40.120003,0.328,55.56,eccentric,6,3.0,22411.0,308158.0,273655.0,317245.0,280380.0
2026-04-07 18:04:37.211093,395704,2147520629,2147522360,-0.884256,0.169824,0.080032,12.32875,-8.9075,-3.64875,39.792004,0.152,55.928,eccentric,6,3.0,22411.0,308158.0,273655.0,317245.0,280380.0
2026-04-07 18:04:37.215251,395705,2147529555,2147531041,-0.884256,0.169824,0.080032,8.26875,-7.8575,-3.29875,39.792004,0.152,55.928,eccentric,6,3.0,22411.0,308158.0,273655.0,317245.0,280380.0
2026-04-07 18:04:37.217344,395706,2147544123,2147545945,-0.85888,0.152256,0.08784,2.205,-6.09875,-3.0275,39.728,-0.504,55.808002,eccentric,6,3.0,22411.0,308158.0,273655.0,317245.0,280380.0
2026-04-07 18:04:37.226630,395707,2147553045,2147554615,-0.85888,0.152256,0.08784,-3.94625,-5.215,-2.89625,39.728,-0.504,55.808002,eccentric,6,3.0,22411.0,308158.0,273655.0,317245.0,280380.0
2026-04-07 18:04:37.228234,395708,2147562006,2147563349,-0.84912,0.095648,0.042944,-8.9075,-4.82125,-2.21375,39.008003,0.096,55.296,eccentric,6,3.0,22411.0,308158.0,273655.0,317245.0,280380.0
2026-04-07 18:04:37.229767,395709,2147576577,2147578364,-0.84912,0.095648,0.042944,-10.15,-4.45375,-1.23375,39.008003,0.096,55.296,eccentric,6,3.0,22411.0,308158.0,273655.0,317245.0,280380.0
2026-04-07 18:04:37.234041,395710,2147585530,2147587124,-0.784704,0.060512,0.06832,-8.09375,-5.94125,-0.51625,38.944,-0.096,56.896004,eccentric,6,3.0,22411.0,308158.0,273655.0,317245.0,280380.0
2026-04-07 18:04:37.235841,395711,2147594495,2147595816,-0.784704,0.060512,0.06832,-2.10875,-5.845,0.16625,38.944,-0.096,56.896004,eccentric,6,3.0,22411.0,308158.0,273655.0,317245.0,280380.0
2026-04-07 18:04:37.261499,395721,2147609452,2147610789,-0.851072,0.134688,0.074176,5.78375,-4.62,0.09625,39.576,-0.176,56.016003,eccentric,6,3.0,22530.0,309312.0,274670.0,318361.0,281315.0
2026-04-07 18:04:37.263286,395722,2147618614,2147619595,-0.851072,0.134688,0.074176,11.6025,-4.40125,-1.6275,39.576,-0.176,56.016003,eccentric,6,3.0,22530.0,309312.0,274670.0,318361.0,281315.0
2026-04-07 18:04:37.264779,395723,2147627588,2147628399,-0.825696,0.23424,0.109312,13.825,-4.19125,-1.98625,38.88,-0.696,55.72,eccentric,6,3.0,22530.0,309312.0,274670.0,318361.0,281315.0
2026-04-07 18:04:37.268904,395724,2147636502,2147637125,-0.825696,0.23424,0.109312,9.87,-3.38625,-3.0975,38.88,-0.696,55.72,eccentric,6,3.0,22530.0,309312.0,274670.0,318361.0,281315.0
2026-04-07 18:04:37.297471,395725,2147651338,2147652040,-0.835456,0.23424,0.162016,-0.93625,-2.35375,-4.375,39.064003,-0.12,56.704002,eccentric,6,3.0,22530.0,309312.0,274670.0,318361.0,281315.0
2026-04-07 18:04:37.301970,395726,2147660640,2147662781,-0.860832,0.162016,0.167872,-13.09,-1.89875,-4.6725,38.88,0.664,54.728004,eccentric,6,3.0,22530.0,309312.0,274670.0,318361.0,281315.0
2026-04-07 18:04:37.303461,395727,2147669553,2147671543,-0.860832,0.162016,0.167872,-19.565,-2.1875,-5.8975,38.88,0.664,54.728004,eccentric,6,3.0,22530.0,309312.0,274670.0,318361.0,281315.0
2026-04-07 18:04:37.310253,395728,2147678462,2147680338,-0.860832,0.162016,0.167872,-20.06375,-2.9225,-7.2625,38.88,0.664,54.728004,eccentric,6,3.0,22530.0,309312.0,274670.0,318361.0,281315.0
2026-04-07 18:04:37.338654,395729,2147692934,2147693263,-0.886208,0.160064,0.115168,-17.8325,-3.78,-8.72375,38.904003,0.872,55.04,eccentric,6,3.0,22530.0,309312.0,274670.0,318361.0,281315.0
2026-04-07 18:04:37.343229,395730,2147702186,2147704027,-0.913536,0.173728,0.076128,-15.61,-4.22625,-10.28125,39.048,0.216,55.496002,eccentric,6,3.0,22530.0,309312.0,274670.0,318361.0,281315.0
2026-04-07 18:04:37.370624,395741,2147711653,2147712868,-0.913536,0.173728,0.076128,-15.11125,-4.1475,-11.48875,39.048,0.216,55.496002,eccentric,6,3.0,22704.0,310478.0,275474.0,319126.0,281914.0
2026-04-07 18:04:37.373357,395742,2147726210,2147727840,-0.931104,0.173728,0.066368,-14.91875,-3.4475,-12.74,38.256,0.224,56.840004,eccentric,6,3.0,22704.0,310478.0,275474.0,319126.0,281914.0
2026-04-07 18:04:37.375188,395743,2147735166,2147736565,-0.931104,0.173728,0.066368,-15.60125,-3.31625,-13.545,38.256,0.224,56.840004,eccentric,6,3.0,22704.0,310478.0,275474.0,319126.0,281914.0
2026-04-07 18:04:37.377918,395744,2147744096,2147745262,-0.952576,0.171776,0.07808,-16.0125,-2.89625,-13.440001,37.936,1.12,56.288002,eccentric,6,3.0,22704.0,310478.0,275474.0,319126.0,281914.0
2026-04-07 18:04:37.381349,395745,2147753043,2147753997,-0.952576,0.171776,0.07808,-16.6075,-1.91625,-13.04625,37.936,1.12,56.288002,eccentric,6,3.0,22704.0,310478.0,275474.0,319126.0,281914.0
2026-04-07 18:04:37.413907,395746,2147767506,2147769021,-0.979904,0.148352,0.07808,-17.47375,-1.6275,-13.1075,38.344,1.048,56.296,eccentric,6,3.0,22704.0,310478.0,275474.0,319126.0,281914.0
2026-04-07 18:04:37.416534,395747,2147776432,2147777723,-0.979904,0.148352,0.07808,-16.975,-1.2425,-12.95875,38.344,1.048,56.296,eccentric,6,3.0,22704.0,310478.0,275474.0,319126.0,281914.0
2026-04-07 18:04:37.418104,395748,2147785338,2147786406,-1.009184,0.148352,0.089792,-14.55125,-1.28625,-12.81,39.064003,2.16,55.456,eccentric,6,3.0,22704.0,310478.0,275474.0,319126.0,281914.0
2026-04-07 18:04:37.480973,395749,2147799822,2147801424,-1.009184,0.158112,0.105408,-11.80375,-0.8925,-12.4425,39.064003,2.16,55.456,eccentric,6,3.0,22704.0,310478.0,275474.0,319126.0,281914.0
2026-04-07 18:04:37.511586,395759,2147808750,2147810147,-1.036512,0.158112,0.105408,-8.5225,-0.37625,-11.97875,39.128002,2.072,54.456,eccentric,6,3.0,22662.0,310008.0,274942.0,318457.0,281331.0
2026-04-07 18:04:37.513221,395760,2147818212,2147818888,-1.036512,0.158112,0.105408,-5.0575,0.44625,-11.6025,39.128002,2.072,54.456,eccentric,6,3.0,22662.0,310008.0,274942.0,318457.0,281331.0
2026-04-07 18:04:37.514786,395761,2147833049,2147833783,-1.0248,0.144448,0.130784,-3.955,1.26,-10.89375,39.04,1.728,56.632004,eccentric,6,3.0,22662.0,310008.0,274942.0,318457.0,281331.0
2026-04-07 18:04:37.517210,395762,2147842414,2147844566,-1.065792,0.138592,0.119072,-3.99875,1.4175,-10.49125,38.36,1.632,55.632004,eccentric,6,3.0,22662.0,310008.0,274942.0,318457.0,281331.0
2026-04-07 18:04:37.520625,395763,2147851326,2147853262,-1.065792,0.138592,0.119072,-1.9775,2.1875,-10.33375,38.36,1.632,55.632004,eccentric,6,3.0,22662.0,310008.0,274942.0,318457.0,281331.0
2026-04-07 18:04:37.522187,395764,2147860291,2147861990,-1.050176,0.140544,0.130784,2.37125,1.7675,-9.59875,38.36,1.632,55.632004,eccentric,6,3.0,22662.0,310008.0,274942.0,318457.0,281331.0
2026-04-07 18:04:37.527058,395765,2147874801,2147876925,-1.050176,0.140544,0.130784,7.21,1.67125,-9.33625,38.272003,1.608,56.672,eccentric,6,3.0,22662.0,310008.0,274942.0,318457.0,281331.0
2026-04-07 18:04:37.529151,395766,2147883808,2147885631,-1.057984,0.142496,0.138592,12.92375,1.79375,-9.87,37.744003,1.144,55.536003,eccentric,6,3.0,22662.0,310008.0,274942.0,318457.0,281331.0
2026-04-07 18:04:37.529836,395767,2147892855,2147894360,-1.057984,0.142496,0.138592,19.0575,1.51375,-9.52875,37.744003,1.144,55.536003,eccentric,6,3.0,22662.0,310008.0,274942.0,318457.0,281331.0
2026-04-07 18:04:37.561024,395768,2147907359,2147909390,-1.040416,0.140544,0.1464,25.4625,1.32125,-8.6975,38.320004,1.152,53.904003,eccentric,6,3.0,22662.0,310008.0,274942.0,318457.0,281331.0
2026-04-07 18:04:37.584808,395778,2147916349,2147918159,-1.040416,0.140544,0.1464,30.7825,0.805,-8.1025,38.320004,1.152,53.904003,eccentric,6,3.0,22629.0,309525.0,274468.0,317889.0,280838.0
2026-04-07 18:04:37.589437,395779,2147925276,2147926851,-1.018944,0.13664,0.142496,35.25375,1.02375,-7.51625,38.976,0.704,55.792004,eccentric,6,3.0,22629.0,309525.0,274468.0,317889.0,280838.0
2026-04-07 18:04:37.591082,395780,2147934189,2147935567,-1.018944,0.13664,0.142496,39.96125,0.4725,-7.0875,38.976,0.704,55.792004,eccentric,6,3.0,22629.0,309525.0,274468.0,317889.0,280838.0
2026-04-07 18:04:37.595386,395781,2147948843,2147950509,-1.030656,0.160064,0.11712,43.56625,0.77875,-6.7025,37.976,0.52,56.784004,eccentric,6,3.0,22629.0,309525.0,274468.0,317889.0,280838.0
2026-04-07 18:04:37.597919,395782,2147957891,2147959213,-1.030656,0.160064,0.11712,45.920002,1.23375,-7.13125,37.976,0.52,56.784004,eccentric,6,3.0,22629.0,309525.0,274468.0,317889.0,280838.0
2026-04-07 18:04:37.601823,395783,2147966882,2147967949,-1.030656,0.160064,0.0976,46.48,2.1175,-7.84,37.848003,-0.088,58.320004,eccentric,6,3.0,22629.0,309525.0,274468.0,317889.0,280838.0
2026-04-07 18:04:37.632117,395784,2147981407,2147982865,-1.018944,0.169824,0.07808,47.635,2.59875,-8.085,38.104,-0.744,57.016003,eccentric,6,3.0,22629.0,309525.0,274468.0,317889.0,280838.0
2026-04-07 18:04:37.634471,395785,2147990391,2147991557,-1.018944,0.169824,0.07808,47.43375,3.5175,-8.785,38.104,-0.744,57.016003,eccentric,6,3.0,22629.0,309525.0,274468.0,317889.0,280838.0
2026-04-07 18:04:37.639117,395786,2147999282,2148000293,-1.018944,0.169824,0.07808,46.15625,4.36625,-9.49375,38.104,-0.744,57.016003,eccentric,6,3.0,22629.0,309525.0,274468.0,317889.0,280838.0
2026-04-07 18:04:37.698116,395797,2148014154,2148015263,-1.020896,0.167872,0.08784,42.11375,5.95875,-10.115,38.088,-0.456,56.272003,eccentric,6,3.0,22921.0,312042.0,276530.0,320212.0,282885.0
2026-04-07 18:04:37.702778,395798,2148023129,2148023979,-1.046272,0.111264,0.130784,35.385,7.53375,-11.15625,38.816,-0.688,56.760002,eccentric,6,3.0,22921.0,312042.0,276530.0,320212.0,282885.0
2026-04-07 18:04:37.704400,395799,2148032092,2148032752,-1.046272,0.111264,0.130784,28.245,8.365,-12.1975,38.816,-0.688,56.760002,eccentric,6,3.0,22921.0,312042.0,276530.0,320212.0,282885.0
2026-04-07 18:04:37.706057,395800,2148041386,2148043525,-1.069696,0.070272,0.16592,22.575,7.60375,-13.86875,38.816,-0.784,58.776,eccentric,6,3.0,22921.0,312042.0,276530.0,320212.0,282885.0
2026-04-07 18:04:37.710240,395801,2148055885,2148056443,-1.069696,0.070272,0.16592,18.935,7.84875,-15.295,38.736,-0.784,58.776,eccentric,6,3.0,22921.0,312042.0,276530.0,320212.0,282885.0
2026-04-07 18:04:37.712017,395802,2148065110,2148067208,-1.087264,0.10736,0.18544,16.94875,7.7175,-16.44125,37.992,-0.512,56.08,eccentric,6,3.0,22921.0,312042.0,276530.0,320212.0,282885.0
2026-04-07 18:04:37.713542,395803,2148074015,2148075912,-1.087264,0.10736,0.18544,16.40625,6.65,-17.3775,37.992,-0.512,56.08,eccentric,6,3.0,22921.0,312042.0,276530.0,320212.0,282885.0
2026-04-07 18:04:37.720606,395804,2148088540,2148090850,-1.077504,0.169824,0.171776,16.96625,5.5475,-17.10625,38.632,-1.072,57.344,eccentric,6,3.0,22921.0,312042.0,276530.0,320212.0,282885.0
2026-04-07 18:04:37.786698,395805,2148097513,2148099537,-1.077504,0.169824,0.171776,15.5575,4.2875,-15.30375,38.632,-1.072,57.344,eccentric,6,3.0,22921.0,312042.0,276530.0,320212.0,282885.0
2026-04-07 18:04:37.788325,395806,2148106454,2148108286,-1.065792,0.18544,0.134688,13.0725,3.15,-13.69375,37.688004,-1.192,57.856003,eccentric,6,3.0,22921.0,312042.0,276530.0,320212.0,282885.0
2026-04-07 18:04:37.813311,395816,2148115535,2148117013,-1.065792,0.18544,0.134688,10.80625,1.785,-12.145,37.688004,-1.192,57.856003,eccentric,6,3.0,22829.0,311193.0,275891.0,319491.0,282256.0
2026-04-07 18:04:37.814778,395817,2148130038,2148131903,-1.056032,0.197152,0.099552,10.7625,1.30375,-10.6575,37.744003,-0.984,57.008003,eccentric,6,3.0,22829.0,311193.0,275891.0,319491.0,282256.0
2026-04-07 18:04:37.819064,395818,2148138955,2148140602,-1.056032,0.197152,0.099552,12.18,0.35,-8.81125,37.744003,-0.984,57.008003,eccentric,6,3.0,22829.0,311193.0,275891.0,319491.0,282256.0
2026-04-07 18:04:37.820746,395819,2148147937,2148149275,-1.048224,0.212768,0.07808,15.23375,0.35,-7.9625,38.072002,-1.72,56.88,eccentric,6,3.0,22829.0,311193.0,275891.0,319491.0,282256.0
2026-04-07 18:04:37.822367,395820,2148162467,2148164248,-1.046272,0.208864,0.081984,18.6375,-0.7525,-7.6475,37.552002,-1.816,58.112003,eccentric,6,3.0,22829.0,311193.0,275891.0,319491.0,282256.0
2026-04-07 18:04:37.824809,395821,2148171409,2148172980,-1.046272,0.208864,0.081984,21.3675,-1.33875,-7.665,37.552002,-1.816,58.112003,eccentric,6,3.0,22829.0,311193.0,275891.0,319491.0,282256.0
2026-04-07 18:04:37.828155,395822,2148180364,2148181730,-1.046272,0.208864,0.081984,23.135,-1.47,-7.8225,37.552002,-1.816,58.112003,eccentric,6,3.0,22829.0,311193.0,275891.0,319491.0,282256.0
2026-04-07 18:04:37.829776,395823,2148194948,2148196673,-1.03456,0.206912,0.08784,23.30125,-1.8725,-7.70875,37.072002,-2.136,58.712,eccentric,6,3.0,22829.0,311193.0,275891.0,319491.0,282256.0
2026-04-07 18:04:37.835095,395824,2148203869,2148205398,-1.03456,0.191296,0.093696,23.47625,-1.5925,-8.23375,37.320004,-2.328,58.08,eccentric,6,3.0,22829.0,311193.0,275891.0,319491.0,282256.0
2026-04-07 18:04:37.867036,395834,2148213498,2148214197,-1.03456,0.191296,0.093696,21.90125,-0.595,-8.47875,37.320004,-2.328,58.08,eccentric,6,3.0,22720.0,310523.0,275515.0,319193.0,282063.0
2026-04-07 18:04:37.868568,395835,2148222942,2148224980,-1.038464,0.163968,0.091744,19.83625,-0.2975,-8.3825,37.856003,-1.736,58.272003,eccentric,6,3.0,22720.0,310523.0,275515.0,319193.0,282063.0
2026-04-07 18:04:37.872608,395836,2148237757,2148239930,-1.038464,0.163968,0.091744,18.3575,0.3675,-8.23375,37.856003,-1.736,58.272003,eccentric,6,3.0,22720.0,310523.0,275515.0,319193.0,282063.0
2026-04-07 18:04:37.878849,395837,2148246702,2148248699,-1.04432,0.1464,0.08784,17.21125,0.97125,-8.16375,37.608,-2.544,57.384003,eccentric,6,3.0,22720.0,310523.0,275515.0,319193.0,282063.0
2026-04-07 18:04:37.907464,395838,2148255633,2148257405,-1.04432,0.1464,0.08784,16.73875,1.47875,-7.86625,37.608,-2.544,57.384003,eccentric,6,3.0,22720.0,310523.0,275515.0,319193.0,282063.0
2026-04-07 18:04:37.911943,395839,2148264574,2148266080,-1.05408,0.152256,0.080032,16.065,1.68,-8.12,37.992,-2.504,57.424004,eccentric,6,3.0,22720.0,310523.0,275515.0,319193.0,282063.0
2026-04-07 18:04:37.913494,395840,2148279070,2148281025,-1.05408,0.152256,0.080032,15.225,2.45,-8.12,37.992,-2.504,57.424004,eccentric,6,3.0,22720.0,310523.0,275515.0,319193.0,282063.0
2026-04-07 18:04:37.920122,395841,2148288020,2148289734,-1.050176,0.160064,0.091744,14.20125,2.625,-7.6475,37.744003,-3.12,57.304,eccentric,6,3.0,22720.0,310523.0,275515.0,319193.0,282063.0
2026-04-07 18:04:37.927457,395842,2148297019,2148298419,-1.050176,0.160064,0.091744,12.32875,2.555,-7.945,37.744003,-3.12,57.304,eccentric,6,3.0,22720.0,310523.0,275515.0,319193.0,282063.0
2026-04-07 18:04:37.993952,395853,2148311500,2148313387,-1.05408,0.169824,0.089792,9.54625,2.975,-7.665,37.816,-2.824,57.112003,eccentric,6,3.0,22646.0,309981.0,275102.0,318762.0,281672.0
2026-04-07 18:04:37.995667,395854,2148320979,2148322272,-1.05408,0.169824,0.089792,6.8775,3.87625,-7.55125,37.816,-2.824,57.112003,eccentric,6,3.0,22646.0,309981.0,275102.0,318762.0,281672.0
2026-04-07 18:04:37.997225,395855,2148329911,2148330976,-1.057984,0.173728,0.0976,5.74,3.78875,-6.8075,37.824,-2.52,57.984,eccentric,6,3.0,22646.0,309981.0,275102.0,318762.0,281672.0
2026-04-07 18:04:38.001470,395856,2148344561,2148345903,-1.059936,0.181536,0.101504,5.5475,4.22625,-6.37,37.704002,-2.608,57.624004,eccentric,6,3.0,22646.0,309981.0,275102.0,318762.0,281672.0
2026-04-07 18:04:38.003159,395857,2148353535,2148354654,-1.059936,0.181536,0.101504,5.38125,4.27875,-6.4925,37.704002,-2.608,57.624004,eccentric,6,3.0,22646.0,309981.0,275102.0,318762.0,281672.0
2026-04-07 18:04:38.010388,395858,2148362594,2148363395,-1.05408,0.177632,0.099552,5.7225,4.55875,-6.615,37.704002,-2.608,58.168003,eccentric,6,3.0,22646.0,309981.0,275102.0,318762.0,281672.0
2026-04-07 18:04:38.011929,395859,2148371587,2148372156,-1.05408,0.177632,0.099552,5.13625,4.305,-6.5275,37.592003,-2.688,58.168003,eccentric,6,3.0,22646.0,309981.0,275102.0,318762.0,281672.0
2026-04-07 18:04:38.017619,395860,2148386359,2148387085,-1.052128,0.169824,0.10736,4.7775,4.41875,-6.55375,37.928,-2.048,58.272003,eccentric,6,3.0,22646.0,309981.0,275102.0,318762.0,281672.0
2026-04-07 18:04:38.046223,395861,2148395735,2148397862,-1.052128,0.169824,0.10736,4.26125,4.7775,-6.405,37.928,-2.048,58.272003,eccentric,6,3.0,22646.0,309981.0,275102.0,318762.0,281672.0
2026-04-07 18:04:38.082060,395862,2148404650,2148406543,-1.052128,0.163968,0.099552,3.98125,4.55,-6.23,38.008003,-3.008,57.392002,eccentric,6,3.0,22646.0,309981.0,275102.0,318762.0,281672.0
2026-04-07 18:04:38.107281,395872,2148413762,2148415276,-1.052128,0.163968,0.099552,4.6025,4.13,-6.0025,38.008003,-3.008,57.392002,eccentric,6,3.0,22512.0,308791.0,274122.0,317646.0,280735.0
2026-04-07 18:04:38.111566,395873,2148428314,2148430248,-1.056032,0.154208,0.0976,4.305,3.96375,-5.6875,38.112003,-2.432,57.456,eccentric,6,3.0,22512.0,308791.0,274122.0,317646.0,280735.0
2026-04-07 18:04:38.113199,395874,2148437237,2148438934,-1.056032,0.154208,0.0976,3.49125,4.05125,-5.075,38.112003,-2.432,57.456,eccentric,6,3.0,22512.0,308791.0,274122.0,317646.0,280735.0
2026-04-07 18:04:38.114747,395875,2148446147,2148447591,-1.052128,0.154208,0.105408,3.4475,4.08625,-4.935,37.896,-2.456,57.312004,eccentric,6,3.0,22512.0,308791.0,274122.0,317646.0,280735.0
2026-04-07 18:04:38.119054,395876,2148460667,2148462624,-1.052128,0.154208,0.105408,3.465,3.535,-4.68125,37.896,-2.456,57.312004,eccentric,6,3.0,22512.0,308791.0,274122.0,317646.0,280735.0
2026-04-07 18:04:38.120698,395877,2148469609,2148471398,-1.059936,0.140544,0.105408,2.9925,3.1325,-5.13625,37.232002,-2.728,57.376003,eccentric,6,3.0,22512.0,308791.0,274122.0,317646.0,280735.0
2026-04-07 18:04:38.122251,395878,2148478537,2148480175,-1.059936,0.140544,0.105408,3.54375,3.08,-4.78625,37.232002,-2.728,57.376003,eccentric,6,3.0,22512.0,308791.0,274122.0,317646.0,280735.0
2026-04-07 18:04:38.126387,395879,2148493146,2148495129,-1.042368,0.152256,0.105408,3.745,2.38875,-4.6025,37.328003,-2.752,56.960003,eccentric,6,3.0,22512.0,308791.0,274122.0,317646.0,280735.0
2026-04-07 18:04:38.154844,395880,2148502117,2148503890,-1.042368,0.152256,0.105408,3.92,2.54625,-4.7775,37.328003,-2.752,56.960003,eccentric,6,3.0,22512.0,308791.0,274122.0,317646.0,280735.0
2026-04-07 18:04:38.158435,395881,2148511036,2148512568,-1.052128,0.1464,0.103456,3.12375,2.82625,-4.69875,37.904003,-2.56,58.608,eccentric,6,3.0,22512.0,308791.0,274122.0,317646.0,280735.0
2026-04-07 18:04:38.183435,395891,2148525522,2148527511,-1.040416,0.1464,0.095648,2.16125,3.255,-4.6025,37.832,-1.88,57.424004,eccentric,6,3.0,22254.0,306766.0,272481.0,315881.0,279225.0
2026-04-07 18:04:38.186057,395892,2148534430,2148536223,-1.040416,0.1464,0.095648,2.17875,3.2025,-4.59375,37.832,-1.88,57.424004,eccentric,6,3.0,22254.0,306766.0,272481.0,315881.0,279225.0
2026-04-07 18:04:38.188479,395893,2148543558,2148544937,-1.042368,0.150304,0.080032,1.2775,3.24625,-4.305,37.832,-3.144,59.320004,eccentric,6,3.0,22254.0,306766.0,272481.0,315881.0,279225.0
2026-04-07 18:04:38.190934,395894,2148552509,2148553694,-1.042368,0.150304,0.080032,0.2275,3.77125,-3.82375,37.480003,-3.144,59.320004,eccentric,6,3.0,22254.0,306766.0,272481.0,315881.0,279225.0
2026-04-07 18:04:38.197189,395895,2148567149,2148568614,-1.04432,0.158112,0.080032,-0.04375,4.78625,-4.01625,37.392002,-2.984,59.296,eccentric,6,3.0,22254.0,306766.0,272481.0,315881.0,279225.0
2026-04-07 18:04:38.227324,395896,2148576067,2148577331,-1.04432,0.158112,0.080032,0.02625,5.1275,-4.27,37.392002,-2.984,59.296,eccentric,6,3.0,22254.0,306766.0,272481.0,315881.0,279225.0
2026-04-07 18:04:38.230964,395897,2148584975,2148586053,-1.038464,0.16592,0.101504,-0.06125,6.1425,-4.80375,38.464,-2.512,55.328003,eccentric,6,3.0,22254.0,306766.0,272481.0,315881.0,279225.0
2026-04-07 18:04:38.237205,395898,2148599432,2148600938,-1.038464,0.16592,0.101504,-0.42875,6.8425,-4.99625,38.464,-2.512,55.328003,eccentric,6,3.0,22254.0,306766.0,272481.0,315881.0,279225.0
2026-04-07 18:04:38.239677,395899,2148608350,2148609625,-1.046272,0.160064,0.0976,-1.575,8.1375,-5.53,38.312,-2.504,57.264004,eccentric,6,3.0,22254.0,306766.0,272481.0,315881.0,279225.0
2026-04-07 18:04:38.276011,395910,2148617413,2148618438,-1.046272,0.160064,0.0976,-2.52,8.785,-5.27625,38.312,-2.504,57.264004,eccentric,6,3.0,22149.0,305765.0,271651.0,315017.0,278527.0
2026-04-07 18:04:38.278530,395911,2148632015,2148633356,-1.048224,0.15616,0.095648,-3.5525,8.93375,-5.53,38.552002,-2.16,57.296,eccentric,6,3.0,22149.0,305765.0,271651.0,315017.0,278527.0
2026-04-07 18:04:38.280988,395912,2148640940,2148642038,-1.048224,0.15616,0.095648,-3.45625,9.26625,-6.16,38.552002,-2.16,57.296,eccentric,6,3.0,22149.0,305765.0,271651.0,315017.0,278527.0
2026-04-07 18:04:38.283460,395913,2148649881,2148650737,-1.046272,0.158112,0.089792,-3.3425,10.01875,-6.79875,38.120003,-2.328,57.792004,eccentric,6,3.0,22149.0,305765.0,271651.0,315017.0,278527.0
2026-04-07 18:04:38.287224,395914,2148658831,2148659470,-1.046272,0.158112,0.089792,-3.815,10.4475,-7.21875,38.120003,-2.328,57.792004,eccentric,6,3.0,22149.0,305765.0,271651.0,315017.0,278527.0
2026-04-07 18:04:38.318635,395915,2148673637,2148674418,-1.048224,0.152256,0.08784,-3.94625,10.78,-7.4725,38.256,-2.04,57.384003,eccentric,6,3.0,22149.0,305765.0,271651.0,315017.0,278527.0
2026-04-07 18:04:38.322809,395916,2148683087,2148685198,-1.048224,0.152256,0.08784,-3.82375,10.63125,-7.46375,38.256,-2.04,57.384003,eccentric,6,3.0,22149.0,305765.0,271651.0,315017.0,278527.0
2026-04-07 18:04:38.327079,395917,2148692010,2148693880,-1.048224,0.144448,0.085888,-3.89375,11.025,-7.28,38.656002,-2.136,55.160004,eccentric,6,3.0,22149.0,305765.0,271651.0,315017.0,278527.0
2026-04-07 18:04:38.380985,395918,2148706481,2148706830,-1.052128,0.144448,0.095648,-3.29875,11.40125,-7.42875,38.272003,-2.08,58.120003,eccentric,6,3.0,22149.0,305765.0,271651.0,315017.0,278527.0
2026-04-07 18:04:38.407841,395928,2148716184,2148717626,-1.052128,0.144448,0.095648,-2.8175,10.7625,-7.51625,38.272003,-2.08,58.120003,eccentric,6,3.0,22064.0,305008.0,271049.0,314364.0,278032.0
2026-04-07 18:04:38.409430,395929,2148725126,2148726344,-1.050176,0.1464,0.103456,-1.9775,10.17625,-7.30625,38.36,-2.096,56.728004,eccentric,6,3.0,22064.0,305008.0,271049.0,314364.0,278032.0
2026-04-07 18:04:38.411061,395930,2148734058,2148735061,-1.050176,0.1464,0.103456,-1.4875,10.386251,-7.4725,38.36,-2.096,56.728004,eccentric,6,3.0,22064.0,305008.0,271049.0,314364.0,278032.0
2026-04-07 18:04:38.415227,395931,2148748504,2148749974,-1.050176,0.1464,0.101504,-1.1375,9.44125,-7.49875,38.640003,-2.0,56.808002,eccentric,6,3.0,22064.0,305008.0,271049.0,314364.0,278032.0
2026-04-07 18:04:38.416948,395932,2148757430,2148758721,-1.050176,0.1464,0.101504,-0.49,8.91625,-7.76125,38.640003,-2.0,56.808002,eccentric,6,3.0,22064.0,305008.0,271049.0,314364.0,278032.0
2026-04-07 18:04:38.419456,395933,2148766414,2148767472,-1.046272,0.152256,0.091744,-0.1225,8.11125,-7.42,38.504,-2.32,56.632004,eccentric,6,3.0,22064.0,305008.0,271049.0,314364.0,278032.0
2026-04-07 18:04:38.420969,395934,2148780942,2148782421,-1.046272,0.152256,0.091744,0.04375,7.35,-7.0525,38.504,-2.32,56.632004,eccentric,6,3.0,22064.0,305008.0,271049.0,314364.0,278032.0
2026-04-07 18:04:38.425164,395935,2148789885,2148791119,-1.040416,0.158112,0.085888,-0.07875,7.595,-7.14875,38.304,-1.984,56.368004,eccentric,6,3.0,22064.0,305008.0,271049.0,314364.0,278032.0
2026-04-07 18:04:38.430138,395936,2148798845,2148799843,-1.040416,0.158112,0.085888,-1.18125,7.51625,-7.49,38.304,-1.984,56.368004,eccentric,6,3.0,22064.0,305008.0,271049.0,314364.0,278032.0
2026-04-07 18:04:38.462148,395937,2148807755,2148808542,-1.050176,0.15616,0.074176,-2.1875,7.46375,-7.76125,38.592003,-1.672,57.144,eccentric,6,3.0,22064.0,305008.0,271049.0,314364.0,278032.0
2026-04-07 18:04:38.492455,395947,2148822321,2148823661,-1.050176,0.15616,0.074176,-3.4825,6.5975,-7.385,38.592003,-1.672,57.144,eccentric,6,3.0,22039.0,304936.0,271020.0,314353.0,277997.0
2026-04-07 18:04:38.496501,395948,2148831235,2148832368,-1.040416,0.154208,0.064416,-3.92875,6.23,-7.2275,38.352,-1.336,56.88,eccentric,6,3.0,22039.0,304936.0,271020.0,314353.0,277997.0
2026-04-07 18:04:38.498205,395949,2148840123,2148841050,-1.040416,0.154208,0.064416,-3.8325,6.055,-7.0,38.352,-1.336,56.88,eccentric,6,3.0,22039.0,304936.0,271020.0,314353.0,277997.0
2026-04-07 18:04:38.499784,395950,2148854694,2148855991,-1.040416,0.148352,0.054656,-3.7625,6.06375,-6.81625,38.08,-2.648,58.856003,eccentric,6,3.0,22039.0,304936.0,271020.0,314353.0,277997.0
2026-04-07 18:04:38.504064,395951,2148863619,2148864760,-1.040416,0.148352,0.054656,-4.235,5.83625,-6.62375,38.08,-2.648,58.856003,eccentric,6,3.0,22039.0,304936.0,271020.0,314353.0,277997.0
2026-04-07 18:04:38.506708,395952,2148872574,2148873501,-1.0248,0.144448,0.064416,-3.42125,5.6,-6.02875,38.128002,-2.064,58.800003,eccentric,6,3.0,22039.0,304936.0,271020.0,314353.0,277997.0
2026-04-07 18:04:38.538357,395953,2148887093,2148888396,-1.028704,0.138592,0.06832,-2.8,5.5825,-6.13375,38.56,-2.352,56.496002,eccentric,6,3.0,22039.0,304936.0,271020.0,314353.0,277997.0
2026-04-07 18:04:38.541244,395954,2148896005,2148897065,-1.028704,0.138592,0.06832,-2.75625,5.565,-5.845,38.56,-2.352,56.496002,eccentric,6,3.0,22039.0,304936.0,271020.0,314353.0,277997.0
2026-04-07 18:04:38.544456,395955,2148904888,2148905789,-1.028704,0.134688,0.062464,-2.9225,5.25875,-5.45125,38.56,-2.352,56.368004,eccentric,6,3.0,22039.0,304936.0,271020.0,314353.0,277997.0
2026-04-07 18:04:38.568462,395965,2148919551,2148920763,-1.028704,0.134688,0.062464,-2.7125,5.31125,-5.1625,38.744003,-1.752,56.368004,eccentric,6,3.0,22112.0,305570.0,271565.0,314999.0,278609.0
2026-04-07 18:04:38.572709,395966,2148928618,2148929524,-1.030656,0.13664,0.070272,-2.7475,4.94375,-4.76,38.896004,-1.744,56.600002,eccentric,6,3.0,22112.0,305570.0,271565.0,314999.0,278609.0
2026-04-07 18:04:38.574269,395967,2148937649,2148938284,-1.030656,0.13664,0.070272,-2.14375,4.94375,-5.03125,38.896004,-1.744,56.600002,eccentric,6,3.0,22112.0,305570.0,271565.0,314999.0,278609.0
2026-04-07 18:04:38.578047,395968,2148946955,2148949045,-1.038464,0.138592,0.080032,-1.61,4.8475,-5.32,38.784,-1.28,56.696003,eccentric,6,3.0,22112.0,305570.0,271565.0,314999.0,278609.0
2026-04-07 18:04:38.608318,395969,2148961556,2148961898,-1.038464,0.138592,0.080032,-1.8725,4.4275,-4.85625,38.784,-1.28,56.696003,eccentric,6,3.0,22112.0,305570.0,271565.0,314999.0,278609.0
2026-04-07 18:04:38.612741,395970,2148970762,2148972619,-1.038464,0.142496,0.08784,-1.07625,4.515,-4.725,39.120003,-1.256,56.520004,eccentric,6,3.0,22112.0,305570.0,271565.0,314999.0,278609.0
2026-04-07 18:04:38.614333,395971,2148979756,2148981320,-1.038464,0.142496,0.08784,-0.7,3.96375,-4.73375,39.120003,-1.256,56.520004,eccentric,6,3.0,22112.0,305570.0,271565.0,314999.0,278609.0
2026-04-07 18:04:38.644014,395972,2148994307,2148996223,-1.042368,0.140544,0.080032,-1.6275,4.2,-4.48875,38.592003,-1.824,57.752003,concentric,6,3.0,22112.0,305570.0,271565.0,314999.0,278609.0
2026-04-07 18:04:38.649111,395973,2149003327,2149004917,-1.042368,0.140544,0.080032,-2.8525,3.52625,-4.57625,38.592003,-1.824,57.752003,concentric,6,3.0,22112.0,305570.0,271565.0,314999.0,278609.0
2026-04-07 18:04:38.682214,395974,2149012269,2149013626,-1.038464,0.134688,0.076128,-3.66625,4.01625,-4.4975,39.096,-1.464,56.08,concentric,6,3.0,22112.0,305570.0,271565.0,314999.0,278609.0
2026-04-07 18:04:38.723636,395985,2149021314,2149022564,-1.038464,0.134688,0.076128,-3.99875,4.375,-4.3575,39.096,-1.464,56.08,concentric,6,3.0,22038.0,305165.0,271261.0,314742.0,278429.0
2026-04-07 18:04:38.727992,395986,2149035831,2149037505,-1.050176,0.142496,0.062464,-4.97875,4.375,-4.4975,39.216003,-2.352,56.536003,concentric,6,3.0,22038.0,305165.0,271261.0,314742.0,278429.0
2026-04-07 18:04:38.729564,395987,2149044734,2149046204,-1.050176,0.142496,0.062464,-6.8075,4.8125,-4.96125,39.216003,-2.352,56.536003,concentric,6,3.0,22038.0,305165.0,271261.0,314742.0,278429.0
2026-04-07 18:04:38.731092,395988,2149053754,2149054901,-1.057984,0.1464,0.060512,-8.00625,5.5475,-4.865,38.960003,-1.32,55.632004,concentric,6,3.0,22038.0,305165.0,271261.0,314742.0,278429.0
2026-04-07 18:04:38.735251,395989,2149068296,2149069795,-1.057984,0.152256,0.05856,-8.49625,5.74875,-5.36375,39.088,-1.512,56.568,concentric,6,3.0,22038.0,305165.0,271261.0,314742.0,278429.0
2026-04-07 18:04:38.736962,395990,2149077299,2149078516,-1.057984,0.152256,0.05856,-8.575,5.915,-5.39875,39.088,-1.512,56.568,concentric,6,3.0,22038.0,305165.0,271261.0,314742.0,278429.0
2026-04-07 18:04:38.738522,395991,2149086249,2149087218,-1.061888,0.154208,0.0488,-8.4525,5.97625,-5.985,39.272003,-1.2,56.456,concentric,6,3.0,22038.0,305165.0,271261.0,314742.0,278429.0
2026-04-07 18:04:38.742796,395992,2149100789,2149102170,-1.061888,0.154208,0.0488,-8.32125,6.5625,-5.99375,39.272003,-1.2,56.456,concentric,6,3.0,22038.0,305165.0,271261.0,314742.0,278429.0
2026-04-07 18:04:38.744522,395993,2149109708,2149110856,-1.040416,0.142496,0.035136,-8.785,7.00875,-5.8975,38.136,-1.424,58.376003,concentric,6,3.0,22038.0,305165.0,271261.0,314742.0,278429.0
2026-04-07 18:04:38.770233,396003,2149119413,2149121743,-1.040416,0.142496,0.035136,-9.03,7.3675,-5.71375,38.136,-1.424,58.376003,concentric,6,3.0,22083.0,305468.0,271537.0,315042.0,278730.0
2026-04-07 18:04:38.771979,396004,2149128554,2149130493,-1.036512,0.130784,0.03904,-9.555,8.015,-5.81875,37.68,-1.28,58.216003,concentric,6,3.0,22083.0,305468.0,271537.0,315042.0,278730.0
2026-04-07 18:04:38.774240,396005,2149143117,2149145442,-1.036512,0.130784,0.03904,-10.3075,8.46125,-5.7575,37.68,-1.28,58.216003,concentric,6,3.0,22083.0,305468.0,271537.0,315042.0,278730.0
2026-04-07 18:04:38.805451,396006,2149152079,2149154186,-1.032608,0.11712,0.02928,-10.85875,8.4525,-5.57375,38.552002,-0.968,57.232002,concentric,6,3.0,22083.0,305468.0,271537.0,315042.0,278730.0
2026-04-07 18:04:38.809021,396007,2149161033,2149162824,-1.032608,0.11712,0.02928,-10.885,8.26,-5.6875,38.552002,-0.968,57.232002,concentric,6,3.0,22083.0,305468.0,271537.0,315042.0,278730.0
2026-04-07 18:04:38.811405,396008,2149169936,2149171520,-1.04432,0.11712,0.0488,-10.12375,8.085,-5.985,39.704002,-0.76,56.288002,concentric,6,3.0,22083.0,305468.0,271537.0,315042.0,278730.0
2026-04-07 18:04:38.815506,396009,2149184455,2149186423,-1.04432,0.11712,0.0488,-8.68,7.56,-5.41625,39.704002,-0.76,56.288002,concentric,6,3.0,22083.0,305468.0,271537.0,315042.0,278730.0
2026-04-07 18:04:38.845960,396010,2149193403,2149195151,-1.05408,0.128832,0.066368,-7.21875,7.21,-5.3025,39.496002,-0.6,55.728004,concentric,6,3.0,22083.0,305468.0,271537.0,315042.0,278730.0
2026-04-07 18:04:38.847392,396011,2149202337,2149203847,-1.05408,0.128832,0.066368,-5.74875,6.9825,-5.67875,39.496002,-0.6,55.728004,concentric,6,3.0,22083.0,305468.0,271537.0,315042.0,278730.0
2026-04-07 18:04:38.878251,396021,2149217329,2149218781,-1.05408,0.140544,0.093696,-4.06,6.48375,-5.5125,38.912003,-0.536,56.288002,concentric,6,3.0,22020.0,304834.0,271017.0,314538.0,278297.0
2026-04-07 18:04:38.879726,396022,2149226355,2149227507,-1.038464,0.142496,0.10736,-2.24,6.65,-5.7225,38.912003,-0.536,57.248,concentric,6,3.0,22020.0,304834.0,271017.0,314538.0,278297.0
2026-04-07 18:04:38.884021,396023,2149235350,2149236193,-1.04432,0.142496,0.10736,-1.00625,6.48375,-6.02875,38.984,-0.776,57.248,concentric,6,3.0,22020.0,304834.0,271017.0,314538.0,278297.0
2026-04-07 18:04:38.886168,396024,2149249884,2149251139,-1.026752,0.124928,0.105408,0.14,5.31125,-5.78375,39.216003,-0.752,56.768,concentric,6,3.0,22020.0,304834.0,271017.0,314538.0,278297.0
2026-04-07 18:04:38.890111,396025,2149258796,2149259873,-1.026752,0.124928,0.105408,1.2425,4.725,-5.4775,39.216003,-0.752,56.768,concentric,6,3.0,22020.0,304834.0,271017.0,314538.0,278297.0
2026-04-07 18:04:38.898928,396026,2149267907,2149268801,-1.01504,0.113216,0.101504,1.7325,4.31375,-5.15375,38.488003,-1.184,57.760002,concentric,6,3.0,22020.0,304834.0,271017.0,314538.0,278297.0
2026-04-07 18:04:38.927492,396027,2149276857,2149277525,-1.01504,0.113216,0.101504,3.12375,4.27875,-6.15125,38.488003,-1.184,57.760002,concentric,6,3.0,22020.0,304834.0,271017.0,314538.0,278297.0
2026-04-07 18:04:38.931928,396028,2149291741,2149292470,-1.01504,0.13664,0.095648,5.32875,4.0075,-6.81625,39.728,-0.816,56.24,concentric,6,3.0,22020.0,304834.0,271017.0,314538.0,278297.0
2026-04-07 18:04:38.934264,396029,2149301204,2149303226,-1.01504,0.13664,0.095648,6.86,4.0075,-6.755,39.728,-0.816,56.24,concentric,6,3.0,22020.0,304834.0,271017.0,314538.0,278297.0
2026-04-07 18:04:38.941624,396030,2149310177,2149311953,-0.99552,0.158112,0.083936,6.895,4.3575,-6.72,38.936,-0.808,56.576004,concentric,6,3.0,22020.0,304834.0,271017.0,314538.0,278297.0
2026-04-07 18:04:39.045885,396041,2149319470,2149320683,-0.99552,0.158112,0.083936,5.17125,3.89375,-6.9475,38.936,-0.808,56.576004,concentric,6,3.0,21842.0,303179.0,269512.0,312723.0,276686.0
2026-04-07 18:04:39.047259,396042,2149334118,2149335701,-0.983808,0.158112,0.072224,3.15875,3.99875,-6.93875,38.904003,-0.432,56.424004,concentric,6,3.0,21842.0,303179.0,269512.0,312723.0,276686.0
2026-04-07 18:04:39.050119,396043,2149343046,2149344428,-0.983808,0.158112,0.072224,0.95375,4.71625,-6.65875,38.904003,-0.432,56.424004,concentric,6,3.0,21842.0,303179.0,269512.0,312723.0,276686.0
2026-04-07 18:04:39.056055,396044,2149351955,2149353108,-0.977952,0.144448,0.05856,-0.7175,5.52125,-6.85125,39.712,-0.68,56.264004,concentric,6,3.0,21842.0,303179.0,269512.0,312723.0,276686.0
2026-04-07 18:04:39.058535,396045,2149366488,2149368050,-0.977952,0.144448,0.042944,-2.3625,5.08375,-7.385,39.712,-0.68,56.264004,concentric,6,3.0,21842.0,303179.0,269512.0,312723.0,276686.0
2026-04-07 18:04:39.060985,396046,2149375426,2149376744,-1.003328,0.142496,0.035136,-2.6775,5.15375,-7.9975,39.672,-0.208,54.504,concentric,6,3.0,21842.0,303179.0,269512.0,312723.0,276686.0
2026-04-07 18:04:39.063532,396047,2149384359,2149385424,-1.003328,0.142496,0.035136,-1.77625,5.11,-8.68875,39.672,-0.208,54.504,concentric,6,3.0,21842.0,303179.0,269512.0,312723.0,276686.0
2026-04-07 18:04:39.066051,396048,2149398856,2149400407,-1.001376,0.132736,0.023424,-1.26,4.71625,-9.135,39.944,-0.4,56.504,concentric,6,3.0,21842.0,303179.0,269512.0,312723.0,276686.0
2026-04-07 18:04:39.072264,396049,2149407766,2149409135,-1.003328,0.122976,0.037088,-0.875,5.0225,-9.292501,38.688004,-0.408,60.88,concentric,6,3.0,21842.0,303179.0,269512.0,312723.0,276686.0
2026-04-07 18:04:39.074830,396050,2149416689,2149417848,-1.003328,0.122976,0.037088,-0.46375,4.725,-9.3625,38.688004,-0.408,60.88,concentric,6,3.0,21842.0,303179.0,269512.0,312723.0,276686.0
2026-04-07 18:04:39.105912,396060,2149425663,2149426665,-1.003328,0.122976,0.037088,0.2975,4.26125,-8.6275,38.688004,-0.408,60.88,concentric,6,3.0,21845.0,303271.0,269590.0,312775.0,276740.0
2026-04-07 18:04:39.108476,396061,2149440148,2149441600,-1.001376,0.11712,0.06832,1.11125,3.0975,-7.875,38.864002,-0.256,57.344,concentric,6,3.0,21845.0,303271.0,269590.0,312775.0,276740.0
2026-04-07 18:04:39.110905,396062,2149449089,2149450324,-1.026752,0.111264,0.085888,1.3475,2.54625,-6.93875,39.592003,-0.656,58.968002,concentric,6,3.0,21845.0,303271.0,269590.0,312775.0,276740.0
2026-04-07 18:04:39.113563,396063,2149458036,2149459108,-1.026752,0.111264,0.085888,0.7525,2.35375,-6.71125,39.592003,-0.656,58.968002,concentric,6,3.0,21845.0,303271.0,269590.0,312775.0,276740.0
2026-04-07 18:04:39.116002,396064,2149472531,2149474014,-1.059936,0.119072,0.076128,-0.0175,2.16125,-6.48375,40.144,-0.432,56.592003,concentric,6,3.0,21845.0,303271.0,269590.0,312775.0,276740.0
2026-04-07 18:04:39.118427,396065,2149481531,2149482657,-1.059936,0.119072,0.076128,0.315,0.95375,-5.25,40.144,-0.432,56.592003,concentric,6,3.0,21845.0,303271.0,269590.0,312775.0,276740.0
2026-04-07 18:04:39.120939,396066,2149490448,2149491391,-1.04432,0.13664,0.076128,1.3475,-0.00875,-4.85625,39.224003,-0.376,57.712,concentric,6,3.0,21845.0,303271.0,269590.0,312775.0,276740.0
2026-04-07 18:04:39.151218,396067,2149504917,2149506313,-1.04432,0.13664,0.076128,2.3275,-0.21875,-4.5325,39.224003,-0.376,57.712,concentric,6,3.0,21845.0,303271.0,269590.0,312775.0,276740.0
2026-04-07 18:04:39.154771,396068,2149513818,2149515032,-1.042368,0.167872,0.083936,3.0275,-0.4725,-3.9725,39.896004,-0.768,56.992004,concentric,6,3.0,21845.0,303271.0,269590.0,312775.0,276740.0
2026-04-07 18:04:39.186020,396078,2149522851,2149523785,-1.042368,0.167872,0.083936,3.99,-0.77875,-3.535,39.896004,-0.768,56.992004,concentric,6,3.0,22090.0,305183.0,271076.0,314336.0,278051.0
2026-04-07 18:04:39.188452,396079,2149537414,2149538753,-1.061888,0.181536,0.099552,2.9925,-0.77,-3.87625,39.976,-0.624,56.88,concentric,6,3.0,22090.0,305183.0,271076.0,314336.0,278051.0
2026-04-07 18:04:39.191019,396080,2149546326,2149547453,-1.061888,0.181536,0.099552,0.27125,-0.27125,-4.06875,39.976,-0.624,56.88,concentric,6,3.0,22090.0,305183.0,271076.0,314336.0,278051.0
2026-04-07 18:04:39.193473,396081,2149555221,2149556136,-1.081408,0.173728,0.089792,-2.9575,-0.1225,-4.05125,39.320004,-0.36,57.08,concentric,6,3.0,22090.0,305183.0,271076.0,314336.0,278051.0
2026-04-07 18:04:39.195979,396082,2149564155,2149564872,-1.081408,0.173728,0.089792,-4.9525,-0.105,-4.515,39.320004,-0.36,57.08,concentric,6,3.0,22090.0,305183.0,271076.0,314336.0,278051.0
2026-04-07 18:04:39.226268,396083,2149578995,2149579801,-1.042368,0.158112,0.0976,-6.08125,0.34125,-5.46875,39.088,-0.552,58.128002,concentric,6,3.0,22090.0,305183.0,271076.0,314336.0,278051.0
2026-04-07 18:04:39.229733,396084,2149587911,2149588522,-1.042368,0.128832,0.091744,-8.32125,1.07625,-6.48375,39.088,-0.552,58.128002,concentric,6,3.0,22090.0,305183.0,271076.0,314336.0,278051.0
2026-04-07 18:04:39.232179,396085,2149597119,2149599272,-1.01504,0.128832,0.091744,-10.43875,1.26,-7.0,38.096,-1.024,60.416004,concentric,6,3.0,22090.0,305183.0,271076.0,314336.0,278051.0
2026-04-07 18:04:39.289767,396086,2149611619,2149612125,-1.032608,0.13664,0.06832,-11.20875,0.945,-6.5275,39.368,-0.576,57.168003,concentric,6,3.0,22090.0,305183.0,271076.0,314336.0,278051.0
2026-04-07 18:04:39.323273,396097,2149621635,2149622941,-1.032608,0.13664,0.06832,-9.49375,1.435,-5.67875,39.368,-0.576,57.168003,concentric,6,3.0,22216.0,305974.0,271662.0,314881.0,278454.0
2026-04-07 18:04:39.324962,396098,2149630613,2149631691,-1.079456,0.167872,0.05856,-8.67125,1.86375,-4.585,39.696003,-0.32,57.032,concentric,6,3.0,22216.0,305974.0,271662.0,314881.0,278454.0
2026-04-07 18:04:39.329068,396099,2149639530,2149640381,-1.079456,0.167872,0.05856,-8.715,1.75875,-3.43,39.696003,-0.32,57.032,concentric,6,3.0,22216.0,305974.0,271662.0,314881.0,278454.0
2026-04-07 18:04:39.330778,396100,2149654007,2149655257,-1.069696,0.158112,0.031232,-11.75125,1.61,-2.975,39.456,0.288,57.360004,concentric,6,3.0,22216.0,305974.0,271662.0,314881.0,278454.0
2026-04-07 18:04:39.333132,396101,2149662906,2149663986,-1.069696,0.158112,0.031232,-13.3175,1.86375,-2.59875,39.456,0.288,57.360004,concentric,6,3.0,22216.0,305974.0,271662.0,314881.0,278454.0
2026-04-07 18:04:39.334808,396102,2149671981,2149672720,-1.05408,0.173728,0.05856,-13.0725,2.59875,-3.0275,39.336002,-0.224,56.912003,concentric,6,3.0,22216.0,305974.0,271662.0,314881.0,278454.0
2026-04-07 18:04:39.342994,396103,2149681316,2149683525,-1.05408,0.173728,0.05856,-12.285,2.98375,-3.01,39.336002,-0.224,56.912003,concentric,6,3.0,22216.0,305974.0,271662.0,314881.0,278454.0
2026-04-07 18:04:39.349022,396104,2149695877,2149696445,-1.036512,0.122976,0.080032,-14.5075,2.3625,-3.57,39.408,0.464,56.480003,concentric,6,3.0,22216.0,305974.0,271662.0,314881.0,278454.0
2026-04-07 18:04:39.350749,396105,2149705203,2149707327,-1.036512,0.122976,0.080032,-14.875,1.79375,-3.185,39.408,0.464,56.480003,concentric,6,3.0,22216.0,305974.0,271662.0,314881.0,278454.0
2026-04-07 18:04:39.352464,396106,2149714187,2149716045,-1.042368,0.179584,0.074176,-13.8425,2.61625,-2.33625,39.144,0.04,56.904003,concentric,6,3.0,22216.0,305974.0,271662.0,314881.0,278454.0
2026-04-07 18:04:39.391574,396116,2149729193,2149731078,-1.061888,0.160064,0.070272,-14.34125,3.87625,-1.68,39.376003,0.632,59.632004,concentric,6,3.0,22252.0,306177.0,271799.0,314994.0,278562.0
2026-04-07 18:04:39.393257,396117,2149738257,2149739905,-1.061888,0.160064,0.070272,-18.4275,4.3925,-1.28625,39.376003,0.632,59.632004,concentric,6,3.0,22252.0,306177.0,271799.0,314994.0,278562.0
2026-04-07 18:04:39.394904,396118,2149747258,2149748725,-1.061888,0.160064,0.070272,-23.37125,4.29625,-1.35625,39.376003,0.632,59.632004,concentric,6,3.0,22252.0,306177.0,271799.0,314994.0,278562.0
2026-04-07 18:04:39.397256,396119,2149756237,2149757434,-1.087264,0.167872,0.033184,-23.91375,4.655,-0.5775,38.512,-0.112,58.392002,concentric,6,3.0,22252.0,306177.0,271799.0,314994.0,278562.0
2026-04-07 18:04:39.402592,396120,2149770756,2149772325,-1.071648,0.171776,0.046848,-21.805,5.06625,-1.5575,40.056004,0.512,57.624004,concentric,6,3.0,22252.0,306177.0,271799.0,314994.0,278562.0
2026-04-07 18:04:39.431160,396121,2149779718,2149781051,-1.071648,0.171776,0.046848,-20.65875,6.1775,-2.16125,40.056004,0.512,57.624004,concentric,6,3.0,22252.0,306177.0,271799.0,314994.0,278562.0
2026-04-07 18:04:39.435636,396122,2149788640,2149789721,-1.071648,0.171776,0.113216,-19.5475,6.34375,-2.3625,40.056004,0.512,57.624004,concentric,6,3.0,22252.0,306177.0,271799.0,314994.0,278562.0
2026-04-07 18:04:39.437212,396123,2149803142,2149804608,-1.069696,0.148352,0.113216,-21.21875,5.71375,-2.37125,39.304,1.184,56.936,concentric,6,3.0,22252.0,306177.0,271799.0,314994.0,278562.0
2026-04-07 18:04:39.444160,396124,2149812082,2149813298,-1.071648,0.119072,0.12688,-24.5175,5.18,-2.73875,39.344,0.752,57.656002,concentric,6,3.0,22252.0,306177.0,271799.0,314994.0,278562.0
2026-04-07 18:04:39.497749,396134,2149821556,2149822023,-1.071648,0.119072,0.12688,-26.64375,4.7075,-2.26625,39.344,0.752,57.656002,concentric,6,3.0,22271.0,306398.0,271999.0,315235.0,278749.0
2026-04-07 18:04:39.499450,396135,2149830894,2149832815,-1.0736,0.113216,0.105408,-27.335001,4.62875,-1.18125,39.976,1.64,56.280003,concentric,6,3.0,22271.0,306398.0,271999.0,315235.0,278749.0
2026-04-07 18:04:39.501037,396136,2149846147,2149847791,-1.0736,0.113216,0.105408,-25.7425,3.94625,-0.7175,39.976,1.64,56.280003,concentric,6,3.0,22271.0,306398.0,271999.0,315235.0,278749.0
2026-04-07 18:04:39.505269,396137,2149855097,2149856516,-1.081408,0.128832,0.099552,-23.7825,3.3775,0.07,40.104,1.84,56.08,concentric,6,3.0,22271.0,306398.0,271999.0,315235.0,278749.0
2026-04-07 18:04:39.506986,396138,2149864084,2149865237,-1.081408,0.128832,0.099552,-22.785,2.3275,0.09625,40.104,1.84,56.08,concentric,6,3.0,22271.0,306398.0,271999.0,315235.0,278749.0
2026-04-07 18:04:39.508869,396139,2149878671,2149880252,-1.077504,0.121024,0.12688,-22.225,1.5225,0.97125,40.280003,1.704,56.248,concentric,6,3.0,22271.0,306398.0,271999.0,315235.0,278749.0
2026-04-07 18:04:39.539615,396140,2149887639,2149888991,-1.077504,0.121024,0.12688,-21.647501,0.35,1.32125,40.280003,1.704,56.248,concentric,6,3.0,22271.0,306398.0,271999.0,315235.0,278749.0
2026-04-07 18:04:39.543981,396141,2149896569,2149897678,-1.075552,0.132736,0.148352,-19.4775,-0.49875,2.3625,39.56,2.08,57.448,concentric,6,3.0,22271.0,306398.0,271999.0,315235.0,278749.0
2026-04-07 18:04:39.545622,396142,2149905513,2149906360,-1.075552,0.132736,0.148352,-16.8875,-2.7125,2.84375,39.56,2.08,57.448,concentric,6,3.0,22271.0,306398.0,271999.0,315235.0,278749.0
2026-04-07 18:04:39.608206,396153,2149919999,2149921531,-1.09312,0.1464,0.124928,-14.8925,-3.68375,2.6775,39.408,1.672,56.224003,concentric,6,3.0,22169.0,305787.0,271590.0,314943.0,278548.0
2026-04-07 18:04:39.609754,396154,2149928980,2149930298,-1.09312,0.1464,0.124928,-13.3875,-4.8825,2.87875,39.408,1.672,56.224003,concentric,6,3.0,22169.0,305787.0,271590.0,314943.0,278548.0
2026-04-07 18:04:39.614018,396155,2149937986,2149938998,-1.046272,0.173728,0.081984,-12.0925,-5.2675,2.33625,39.640003,2.4,56.952003,concentric,6,3.0,22169.0,305787.0,271590.0,314943.0,278548.0
2026-04-07 18:04:39.616716,396156,2149952488,2149953882,-1.032608,0.191296,0.095648,-11.59375,-4.585,1.3825,39.72,2.432,56.432003,concentric,6,3.0,22169.0,305787.0,271590.0,314943.0,278548.0
2026-04-07 18:04:39.622745,396157,2149961431,2149962648,-1.032608,0.191296,0.095648,-11.48875,-4.2,-0.42,39.72,2.432,56.432003,concentric,6,3.0,22169.0,305787.0,271590.0,314943.0,278548.0
2026-04-07 18:04:39.624439,396158,2149970423,2149971383,-1.020896,0.173728,0.109312,-12.62625,-4.4275,-1.11125,39.096,1.96,57.440002,concentric,6,3.0,22169.0,305787.0,271590.0,314943.0,278548.0
2026-04-07 18:04:39.626267,396159,2149985059,2149986375,-1.020896,0.173728,0.109312,-14.62125,-4.47125,-1.5925,39.096,1.96,57.440002,concentric,6,3.0,22169.0,305787.0,271590.0,314943.0,278548.0
2026-04-07 18:04:39.630147,396160,2149994035,2149995121,-1.038464,0.142496,0.119072,-15.715,-4.13,-1.68875,39.672,2.656,56.992004,concentric,6,3.0,22169.0,305787.0,271590.0,314943.0,278548.0
2026-04-07 18:04:39.634223,396161,2150003008,2150003833,-1.038464,0.142496,0.119072,-15.74125,-4.13875,-2.09125,39.672,2.656,56.992004,concentric,6,3.0,22169.0,305787.0,271590.0,314943.0,278548.0
2026-04-07 18:04:39.664570,396162,2150011964,2150012551,-1.059936,0.134688,0.08784,-14.98875,-4.165,-2.24,38.984,2.304,57.72,concentric,6,3.0,22169.0,305787.0,271590.0,314943.0,278548.0
2026-04-07 18:04:39.695325,396172,2150026915,2150027535,-1.059936,0.134688,0.08784,-13.23875,-4.10375,-2.59875,38.984,2.304,57.72,concentric,6,3.0,22331.0,307151.0,272786.0,316303.0,279719.0
2026-04-07 18:04:39.696962,396173,2150036234,2150038331,-1.05408,0.1464,0.066368,-10.87625,-3.045,-2.49375,39.552002,2.632,56.816,concentric,6,3.0,22331.0,307151.0,272786.0,316303.0,279719.0
2026-04-07 18:04:39.698497,396174,2150045279,2150047047,-1.05408,0.1464,0.066368,-9.61625,-2.94,-2.59875,39.552002,2.632,56.816,concentric,6,3.0,22331.0,307151.0,272786.0,316303.0,279719.0
2026-04-07 18:04:39.702724,396175,2150054210,2150055789,-1.040416,0.160064,0.06832,-9.47625,-2.56375,-2.6075,39.008003,2.376,57.736004,concentric,6,3.0,22331.0,307151.0,272786.0,316303.0,279719.0
2026-04-07 18:04:39.704313,396176,2150068738,2150070677,-1.040416,0.160064,0.06832,-10.36875,-1.61875,-1.9775,39.008003,2.376,57.736004,concentric,6,3.0,22331.0,307151.0,272786.0,316303.0,279719.0
2026-04-07 18:04:39.708957,396177,2150077778,2150079424,-1.036512,0.144448,0.093696,-12.01375,-1.2425,-1.37375,38.784,2.72,57.768,concentric,6,3.0,22331.0,307151.0,272786.0,316303.0,279719.0
2026-04-07 18:04:39.737441,396178,2150086718,2150088136,-1.036512,0.144448,0.093696,-13.99125,-1.785,-1.05,38.784,2.72,57.768,concentric,6,3.0,22331.0,307151.0,272786.0,316303.0,279719.0
2026-04-07 18:04:39.741972,396179,2150101264,2150103014,-1.056032,0.121024,0.113216,-14.2625,-1.40875,-0.4375,38.552002,3.216,56.464005,concentric,6,3.0,22331.0,307151.0,272786.0,316303.0,279719.0
2026-04-07 18:04:39.743501,396180,2150110283,2150111701,-1.056032,0.105408,0.122976,-13.405,-1.8025,-0.34125,38.552002,3.216,56.464005,concentric,6,3.0,22331.0,307151.0,272786.0,316303.0,279719.0
2026-04-07 18:04:39.750320,396181,2150119232,2150120450,-1.067744,0.105408,0.122976,-11.0775,-1.5925,-0.175,39.848003,3.264,55.872,concentric,6,3.0,22331.0,307151.0,272786.0,316303.0,279719.0
2026-04-07 18:04:39.775269,396191,2150133811,2150135467,-1.036512,0.124928,0.095648,-7.4025,-1.75875,-0.13125,39.064003,3.28,57.368004,concentric,6,3.0,22390.0,308023.0,273644.0,317370.0,280641.0
2026-04-07 18:04:39.776823,396192,2150142837,2150144187,-1.036512,0.124928,0.095648,-4.13,-2.35375,0.3675,39.064003,3.28,57.368004,concentric,6,3.0,22390.0,308023.0,273644.0,317370.0,280641.0
2026-04-07 18:04:39.783912,396193,2150151801,2150152928,-0.99552,0.089792,0.070272,-2.10875,-1.715,0.3325,38.896004,2.576,58.336002,concentric,6,3.0,22390.0,308023.0,273644.0,317370.0,280641.0
2026-04-07 18:04:39.812463,396194,2150160681,2150161742,-0.99552,0.089792,0.070272,-0.98875,-1.75,0.07,38.896004,2.576,58.336002,concentric,6,3.0,22390.0,308023.0,273644.0,317370.0,280641.0
2026-04-07 18:04:39.816871,396195,2150175207,2150176635,-0.997472,0.179584,0.109312,2.16125,-3.29,-0.315,38.912003,2.752,57.440002,concentric,6,3.0,22390.0,308023.0,273644.0,317370.0,280641.0
2026-04-07 18:04:39.822792,396196,2150184115,2150185320,-0.997472,0.179584,0.109312,9.37125,-2.86125,-0.6475,38.912003,2.752,57.440002,concentric,6,3.0,22390.0,308023.0,273644.0,317370.0,280641.0
2026-04-07 18:04:39.825181,396197,2150193054,2150194120,-1.036512,0.193248,0.093696,10.56125,-3.64875,-1.04125,38.904003,2.656,59.288002,concentric,6,3.0,22390.0,308023.0,273644.0,317370.0,280641.0
2026-04-07 18:04:39.880967,396198,2150207569,2150209020,-1.036512,0.193248,0.093696,4.62875,-4.34875,-0.98,38.904003,2.656,59.288002,concentric,6,3.0,22390.0,308023.0,273644.0,317370.0,280641.0
2026-04-07 18:04:39.885276,396199,2150216479,2150217699,-1.009184,0.130784,0.076128,-1.82,-4.20875,-0.7,39.712,3.328,57.016003,concentric,6,3.0,22390.0,308023.0,273644.0,317370.0,280641.0
2026-04-07 18:04:39.915731,396210,2150225899,2150226440,-1.009184,0.130784,0.076128,-3.36,-3.75375,-0.7,39.712,3.328,57.016003,concentric,6,3.0,22424.0,308461.0,274012.0,317789.0,280919.0
2026-04-07 18:04:39.917252,396211,2150235366,2150237237,-1.042368,0.119072,0.076128,-1.54,-2.09125,-1.3125,39.72,2.928,57.048004,concentric,6,3.0,22424.0,308461.0,274012.0,317789.0,280919.0
2026-04-07 18:04:39.921965,396212,2150249932,2150252161,-1.042368,0.119072,0.076128,1.1025,-1.32125,-2.54625,39.72,2.928,57.048004,concentric,6,3.0,22424.0,308461.0,274012.0,317789.0,280919.0
2026-04-07 18:04:39.923237,396213,2150258859,2150260865,-1.057984,0.15616,0.093696,2.135,-0.35875,-3.57875,39.736,3.04,57.736004,concentric,6,3.0,22424.0,308461.0,274012.0,317789.0,280919.0
2026-04-07 18:04:39.925148,396214,2150267833,2150269669,-1.057984,0.15616,0.093696,2.02125,0.42875,-4.45375,39.736,3.04,57.736004,concentric,6,3.0,22424.0,308461.0,274012.0,317789.0,280919.0
2026-04-07 18:04:39.928994,396215,2150282508,2150284596,-1.071648,0.177632,0.10736,1.9775,1.12875,-5.48625,39.368,2.928,58.288002,concentric,6,3.0,22424.0,308461.0,274012.0,317789.0,280919.0
2026-04-07 18:04:39.930687,396216,2150291555,2150293440,-1.056032,0.173728,0.144448,0.0525,1.93375,-6.27375,39.368,2.76,58.304005,concentric,6,3.0,22424.0,308461.0,274012.0,317789.0,280919.0
2026-04-07 18:04:39.932234,396217,2150300511,2150302153,-1.056032,0.173728,0.144448,-2.58125,2.68625,-6.1425,39.032,2.76,58.304005,concentric,6,3.0,22424.0,308461.0,274012.0,317789.0,280919.0
2026-04-07 18:04:39.963390,396218,2150315006,2150317161,-1.048224,0.113216,0.130784,-5.9325,2.0475,-5.39875,39.36,2.856,58.288002,concentric,6,3.0,22424.0,308461.0,274012.0,317789.0,280919.0
2026-04-07 18:04:39.992168,396228,2150324454,2150325899,-1.048224,0.113216,0.130784,-9.2225,1.91625,-4.2875,39.36,2.856,58.288002,concentric,6,3.0,22557.0,309714.0,275161.0,319130.0,282044.0
2026-04-07 18:04:39.997229,396229,2150333397,2150334646,-1.069696,0.080032,0.081984,-11.2525,1.995,-3.28125,38.960003,3.176,57.312004,concentric,6,3.0,22557.0,309714.0,275161.0,319130.0,282044.0
2026-04-07 18:04:39.999659,396230,2150342298,2150343424,-1.069696,0.080032,0.081984,-8.6975,1.925,-3.28125,38.960003,3.176,57.312004,concentric,6,3.0,22557.0,309714.0,275161.0,319130.0,282044.0
2026-04-07 18:04:40.002482,396231,2150356889,2150358357,-1.079456,0.128832,0.052704,-4.54125,1.84625,-3.605,39.072002,2.896,58.840004,concentric,6,3.0,22557.0,309714.0,275161.0,319130.0,282044.0
2026-04-07 18:04:40.005299,396232,2150365851,2150367032,-1.079456,0.128832,0.052704,-1.3825,3.01875,-4.3925,39.072002,2.896,58.840004,concentric,6,3.0,22557.0,309714.0,275161.0,319130.0,282044.0
2026-04-07 18:04:40.007790,396233,2150374789,2150375782,-1.067744,0.162016,0.080032,-0.16625,4.165,-4.78625,39.336002,2.96,58.728004,concentric,6,3.0,22557.0,309714.0,275161.0,319130.0,282044.0
2026-04-07 18:04:40.039957,396234,2150389248,2150390702,-1.067744,0.162016,0.080032,-1.56625,4.6025,-5.13625,39.336002,2.96,58.728004,concentric,6,3.0,22557.0,309714.0,275161.0,319130.0,282044.0
2026-04-07 18:04:40.043489,396235,2150398139,2150399373,-1.067744,0.144448,0.11712,-4.22625,4.40125,-4.78625,39.536003,3.256,57.320004,concentric,6,3.0,22557.0,309714.0,275161.0,319130.0,282044.0
2026-04-07 18:04:40.046032,396236,2150406990,2150408083,-1.067744,0.144448,0.11712,-6.25625,3.94625,-4.2,39.536003,3.256,57.320004,concentric,6,3.0,22557.0,309714.0,275161.0,319130.0,282044.0
2026-04-07 18:04:40.050901,396237,2150421475,2150423020,-1.052128,0.10736,0.115168,-6.23,3.54375,-3.66625,39.280003,3.376,57.312004,concentric,6,3.0,22557.0,309714.0,275161.0,319130.0,282044.0
2026-04-07 18:04:40.075947,396247,2150430460,2150431764,-1.052128,0.10736,0.115168,-4.48,3.05375,-3.84125,39.280003,3.376,57.312004,concentric,6,3.0,22703.0,311266.0,276578.0,320858.0,283562.0
2026-04-07 18:04:40.078486,396248,2150439473,2150440525,-1.059936,0.119072,0.101504,-1.23375,3.91125,-4.24375,39.312,3.56,57.456,concentric,6,3.0,22703.0,311266.0,276578.0,320858.0,283562.0
2026-04-07 18:04:40.082776,396249,2150448466,2150449289,-1.059936,0.119072,0.101504,1.7675,4.2,-4.96125,39.312,3.56,57.456,concentric,6,3.0,22703.0,311266.0,276578.0,320858.0,283562.0
2026-04-07 18:04:40.111263,396250,2150462954,2150464223,-1.056032,0.152256,0.105408,4.13,4.52375,-6.0025,39.176003,3.12,58.016003,concentric,6,3.0,22703.0,311266.0,276578.0,320858.0,283562.0
2026-04-07 18:04:40.114717,396251,2150471885,2150472950,-1.056032,0.183488,0.093696,5.5125,5.25875,-7.02625,39.176003,3.12,58.016003,concentric,6,3.0,22703.0,311266.0,276578.0,320858.0,283562.0
2026-04-07 18:04:40.117218,396252,2150480838,2150481652,-1.061888,0.177632,0.093696,5.46,6.125,-8.19,38.992,2.392,57.504,concentric,6,3.0,22703.0,311266.0,276578.0,320858.0,283562.0
2026-04-07 18:04:40.182411,396253,2150495331,2150496653,-1.04432,0.160064,0.10736,4.06875,6.3525,-8.855001,38.960003,2.704,59.032,concentric,6,3.0,22703.0,311266.0,276578.0,320858.0,283562.0
2026-04-07 18:04:40.186092,396254,2150504259,2150505459,-1.04432,0.160064,0.10736,2.28375,6.72,-9.45,38.960003,2.704,59.032,concentric,6,3.0,22703.0,311266.0,276578.0,320858.0,283562.0
2026-04-07 18:04:40.188539,396255,2150513190,2150514152,-1.046272,0.144448,0.124928,1.40875,6.8075,-9.52875,39.616,2.944,58.304005,concentric,6,3.0,22703.0,311266.0,276578.0,320858.0,283562.0
2026-04-07 18:04:40.220234,396266,2150528013,2150529120,-1.046272,0.144448,0.124928,-0.09625,7.3675,-9.9575,39.616,2.944,58.304005,concentric,6,3.0,22874.0,312736.0,277928.0,322402.0,284879.0
2026-04-07 18:04:40.222834,396267,2150536937,2150537796,-1.046272,0.11712,0.111264,-0.79625,8.05875,-10.9375,39.144,3.12,57.72,concentric,6,3.0,22874.0,312736.0,277928.0,322402.0,284879.0
2026-04-07 18:04:40.257107,396268,2150545843,2150546501,-1.046272,0.11712,0.111264,-0.39375,7.90125,-11.13,39.144,3.12,57.72,concentric,6,3.0,22874.0,312736.0,277928.0,322402.0,284879.0
2026-04-07 18:04:40.259425,396269,2150555123,2150557292,-1.042368,0.11712,0.091744,1.505,7.76125,-11.1475,39.208,3.688,57.512,concentric,6,3.0,22874.0,312736.0,277928.0,322402.0,284879.0
2026-04-07 18:04:40.264032,396270,2150569671,2150570211,-1.042368,0.11712,0.091744,4.4975,7.69125,-11.31375,39.208,3.688,57.512,concentric,6,3.0,22874.0,312736.0,277928.0,322402.0,284879.0
2026-04-07 18:04:40.265734,396271,2150579207,2150581029,-1.042368,0.12688,0.091744,7.2625,8.07625,-11.83875,39.632004,3.344,60.408005,concentric,6,3.0,22874.0,312736.0,277928.0,322402.0,284879.0
2026-04-07 18:04:40.267273,396272,2150588218,2150589743,-1.042368,0.12688,0.091744,8.70625,8.07625,-12.0575,39.632004,3.344,60.408005,concentric,6,3.0,22874.0,312736.0,277928.0,322402.0,284879.0
2026-04-07 18:04:40.271467,396273,2150602837,2150604692,-1.038464,0.152256,0.080032,8.47875,8.365,-11.8475,39.176003,3.192,59.000004,concentric,6,3.0,22874.0,312736.0,277928.0,322402.0,284879.0
2026-04-07 18:04:40.273203,396274,2150611774,2150613402,-1.038464,0.152256,0.080032,7.525,9.17,-11.9525,39.176003,3.192,59.000004,concentric,6,3.0,22874.0,312736.0,277928.0,322402.0,284879.0
2026-04-07 18:04:40.274821,396275,2150620811,2150622105,-1.04432,0.163968,0.091744,7.1925,9.03,-12.10125,39.368,2.752,57.912003,concentric,6,3.0,22874.0,312736.0,277928.0,322402.0,284879.0
2026-04-07 18:04:40.300689,396285,2150629813,2150630839,-1.04432,0.163968,0.091744,7.00875,9.135,-13.08125,39.368,2.752,57.912003,concentric,6,3.0,22980.0,314019.0,279216.0,323959.0,286224.0
2026-04-07 18:04:40.302340,396286,2150644405,2150645748,-1.042368,0.162016,0.11712,7.84875,9.26625,-13.58,40.344,3.128,58.128002,concentric,6,3.0,22980.0,314019.0,279216.0,323959.0,286224.0
2026-04-07 18:04:40.306557,396287,2150653458,2150654509,-1.050176,0.148352,0.111264,8.86375,9.10875,-14.1225,39.792004,3.088,57.864002,concentric,6,3.0,22980.0,314019.0,279216.0,323959.0,286224.0
2026-04-07 18:04:40.308173,396288,2150662505,2150663280,-1.050176,0.148352,0.111264,9.05625,9.35375,-14.69125,39.792004,3.088,57.864002,concentric,6,3.0,22980.0,314019.0,279216.0,323959.0,286224.0
2026-04-07 18:04:40.309839,396289,2150677440,2150678169,-1.057984,0.134688,0.111264,8.28625,9.45,-14.95375,40.24,3.264,58.160004,concentric,6,3.0,22980.0,314019.0,279216.0,323959.0,286224.0
2026-04-07 18:04:40.340745,396290,2150686851,2150688971,-1.057984,0.134688,0.111264,8.18125,9.8875,-15.05,40.24,3.264,58.160004,concentric,6,3.0,22980.0,314019.0,279216.0,323959.0,286224.0
2026-04-07 18:04:40.345267,396291,2150695764,2150697663,-1.061888,0.148352,0.0976,9.4325,10.42125,-15.42625,39.992,2.664,59.360004,concentric,6,3.0,22980.0,314019.0,279216.0,323959.0,286224.0
2026-04-07 18:04:40.346809,396292,2150704832,2150706364,-1.061888,0.148352,0.0976,11.33125,10.19375,-15.88125,39.992,2.664,59.360004,concentric,6,3.0,22980.0,314019.0,279216.0,323959.0,286224.0
2026-04-07 18:04:40.352564,396293,2150719354,2150721248,-1.06384,0.160064,0.0976,12.73125,10.52625,-16.31875,40.232002,3.368,58.120003,concentric,6,3.0,22980.0,314019.0,279216.0,323959.0,286224.0
2026-04-07 18:04:40.376146,396303,2150728842,2150730076,-1.06384,0.160064,0.0976,12.8275,10.22,-16.625,40.232002,3.368,58.120003,concentric,6,3.0,23074.0,315091.0,280242.0,325219.0,287257.0
2026-04-07 18:04:40.380411,396304,2150737815,2150738902,-1.071648,0.1464,0.105408,12.69625,9.730001,-16.03875,39.480003,2.56,60.296,concentric,6,3.0,23074.0,315091.0,280242.0,325219.0,287257.0
2026-04-07 18:04:40.394042,396305,2150746773,2150747627,-1.071648,0.1464,0.105408,12.5475,9.8175,-15.636251,39.480003,2.56,60.296,concentric,6,3.0,23074.0,315091.0,280242.0,325219.0,287257.0
2026-04-07 18:04:40.396437,396306,2150761282,2150762540,-1.0736,0.142496,0.105408,13.658751,9.8,-15.05,38.944,2.448,59.456,concentric,6,3.0,23074.0,315091.0,280242.0,325219.0,287257.0
2026-04-07 18:04:40.400527,396307,2150770218,2150771264,-1.0736,0.142496,0.105408,14.455,10.0275,-14.69125,38.944,2.448,59.456,concentric,6,3.0,23074.0,315091.0,280242.0,325219.0,287257.0
2026-04-07 18:04:40.430894,396308,2150779176,2150780035,-1.089216,0.144448,0.10736,15.417501,10.6575,-15.198751,40.608,2.888,58.280003,concentric,6,3.0,23074.0,315091.0,280242.0,325219.0,287257.0
2026-04-07 18:04:40.433167,396309,2150793668,2150794938,-1.100928,0.162016,0.08784,15.32125,10.07125,-14.7,40.608,2.888,58.392002,concentric,6,3.0,23074.0,315091.0,280242.0,325219.0,287257.0
2026-04-07 18:04:40.437994,396310,2150802603,2150803662,-1.100928,0.162016,0.08784,15.5575,10.29875,-14.385,40.272003,2.112,58.392002,concentric,6,3.0,23074.0,315091.0,280242.0,325219.0,287257.0
2026-04-07 18:04:40.446600,396311,2150811560,2150812413,-1.100928,0.162016,0.08784,15.68875,9.9225,-13.86,40.272003,2.112,58.392002,concentric,6,3.0,23074.0,315091.0,280242.0,325219.0,287257.0
2026-04-07 18:04:40.507551,396322,2150826172,2150827326,-1.108736,0.15616,0.06832,15.46125,9.96625,-13.39625,39.976,1.768,61.576004,concentric,6,3.0,23113.0,315492.0,280660.0,325717.0,287652.0
2026-04-07 18:04:40.529150,396323,2150835269,2150836064,-1.10288,0.15616,0.095648,15.25125,9.695,-13.20375,40.488003,2.04,57.440002,concentric,6,3.0,23113.0,315492.0,280660.0,325717.0,287652.0
2026-04-07 18:04:40.530799,396324,2150844203,2150844821,-1.10288,0.15616,0.095648,15.54,9.68625,-12.4775,40.488003,2.04,57.440002,concentric,6,3.0,23113.0,315492.0,280660.0,325717.0,287652.0
2026-04-07 18:04:40.532343,396325,2150853478,2150855584,-1.10288,0.15616,0.124928,15.68875,9.8175,-11.66375,40.488003,2.04,57.440002,concentric,6,3.0,23113.0,315492.0,280660.0,325717.0,287652.0
2026-04-07 18:04:40.536517,396326,2150868009,2150868482,-1.110688,0.140544,0.124928,15.9425,9.58125,-10.87625,40.4,2.032,58.320004,concentric,6,3.0,23113.0,315492.0,280660.0,325717.0,287652.0
2026-04-07 18:04:40.538272,396327,2150877391,2150879258,-1.114592,0.128832,0.119072,16.26625,8.785,-9.52,40.792004,1.776,59.952003,concentric,6,3.0,23113.0,315492.0,280660.0,325717.0,287652.0
2026-04-07 18:04:40.539820,396328,2150886370,2150888011,-1.114592,0.128832,0.119072,16.415,8.1375,-8.61875,40.792004,1.776,59.952003,concentric,6,3.0,23113.0,315492.0,280660.0,325717.0,287652.0
2026-04-07 18:04:40.543963,396329,2150900889,2150902923,-1.11264,0.091744,0.091744,18.85625,7.77875,-7.76125,40.352,1.624,58.952003,concentric,6,3.0,23113.0,315492.0,280660.0,325717.0,287652.0
2026-04-07 18:04:40.545647,396330,2150909886,2150911682,-1.11264,0.091744,0.091744,26.25,7.245,-6.965,40.352,1.624,58.952003,concentric,6,3.0,23113.0,315492.0,280660.0,325717.0,287652.0
2026-04-07 18:04:40.551404,396331,2150918878,2150920412,-1.08336,0.201056,0.066368,35.28,6.79,-6.65875,39.912003,0.672,60.048004,concentric,6,3.0,23113.0,315492.0,280660.0,325717.0,287652.0
2026-04-07 18:04:40.581495,396341,2150927887,2150929225,-1.08336,0.201056,0.066368,31.43875,5.60875,-7.23625,39.912003,0.672,60.048004,concentric,6,3.0,22993.0,314432.0,279631.0,324473.0,286548.0
2026-04-07 18:04:40.583189,396342,2150942507,2150944256,-1.087264,0.115168,0.085888,24.6575,6.335,-6.335,40.0,0.52,60.464005,concentric,6,3.0,22993.0,314432.0,279631.0,324473.0,286548.0
2026-04-07 18:04:40.584756,396343,2150951501,2150952951,-1.087264,0.115168,0.085888,28.9625,5.67875,-4.34875,40.0,0.52,60.464005,concentric,6,3.0,22993.0,314432.0,279631.0,324473.0,286548.0
2026-04-07 18:04:40.591053,396344,2150960506,2150961683,-1.079456,0.226432,0.066368,22.522501,4.87375,-5.11875,40.2,0.68,60.208004,concentric,6,3.0,22993.0,314432.0,279631.0,324473.0,286548.0
2026-04-07 18:04:40.622024,396345,2150975029,2150976701,-1.136064,0.103456,0.081984,5.39875,5.985,-6.15125,40.984,0.768,59.344,concentric,6,3.0,22993.0,314432.0,279631.0,324473.0,286548.0
2026-04-07 18:04:40.626525,396346,2150983986,2150985411,-1.136064,0.103456,0.081984,-7.35875,7.69125,-5.52125,40.984,0.768,59.344,concentric,6,3.0,22993.0,314432.0,279631.0,324473.0,286548.0
2026-04-07 18:04:40.628009,396347,2150992923,2150994089,-1.136064,0.103456,0.081984,-1.75,8.86375,-3.7975,40.984,0.768,59.344,concentric,6,3.0,22993.0,314432.0,279631.0,324473.0,286548.0
2026-04-07 18:04:40.658458,396348,2151007428,2151009020,-1.126304,0.130784,0.089792,4.80375,7.27125,-4.31375,41.672,0.856,58.896004,concentric,6,3.0,22993.0,314432.0,279631.0,324473.0,286548.0
2026-04-07 18:04:40.660653,396349,2151016366,2151017711,-1.139968,0.162016,0.08784,12.915,6.83375,-6.37875,40.936,0.464,58.840004,concentric,6,3.0,22993.0,314432.0,279631.0,324473.0,286548.0
2026-04-07 18:04:40.665098,396350,2151025275,2151026425,-1.139968,0.162016,0.08784,15.5575,6.755,-6.97375,40.936,0.464,58.840004,concentric,6,3.0,22993.0,314432.0,279631.0,324473.0,286548.0
2026-04-07 18:04:40.692226,396360,2151039803,2151041450,-1.143872,0.154208,0.115168,13.895,6.615,-6.685,40.528004,1.032,59.008003,concentric,6,3.0,23156.0,315981.0,281058.0,326222.0,288139.0
2026-04-07 18:04:40.695696,396361,2151048795,2151050218,-1.143872,0.154208,0.115168,10.19375,6.4225,-6.825,40.528004,1.032,59.008003,concentric,6,3.0,23156.0,315981.0,281058.0,326222.0,288139.0
2026-04-07 18:04:40.697228,396362,2151057725,2151058950,-1.184864,0.121024,0.101504,9.7475,6.8425,-6.23,40.208,0.536,60.208004,concentric,6,3.0,23156.0,315981.0,281058.0,326222.0,288139.0
2026-04-07 18:04:40.701599,396363,2151066657,2151067665,-1.184864,0.121024,0.101504,9.42375,6.6675,-5.88875,40.208,0.536,60.208004,concentric,6,3.0,23156.0,315981.0,281058.0,326222.0,288139.0
2026-04-07 18:04:40.734465,396364,2151081157,2151082594,-1.208288,0.132736,0.089792,9.80875,6.0725,-5.2325,40.384003,0.28,59.872,concentric,6,3.0,23156.0,315981.0,281058.0,326222.0,288139.0
2026-04-07 18:04:40.738993,396365,2151090067,2151091270,-1.208288,0.132736,0.089792,10.01875,6.29125,-4.7075,40.384003,0.28,59.872,concentric,6,3.0,23156.0,315981.0,281058.0,326222.0,288139.0
2026-04-07 18:04:40.740536,396366,2151098988,2151099971,-1.247328,0.132736,0.074176,11.62,6.02875,-4.1825,40.968002,0.2,59.592003,concentric,6,3.0,23156.0,315981.0,281058.0,326222.0,288139.0
2026-04-07 18:04:40.744322,396367,2151113471,2151114906,-1.247328,0.132736,0.074176,13.5275,4.865,-3.75375,40.968002,0.2,59.592003,concentric,6,3.0,23156.0,315981.0,281058.0,326222.0,288139.0
2026-04-07 18:04:40.809673,396368,2151122453,2151123604,-1.266848,0.15616,0.076128,16.52,4.4275,-3.92,40.784,-0.2,60.064003,concentric,6,3.0,23156.0,315981.0,281058.0,326222.0,288139.0
2026-04-07 18:04:40.838997,396379,2151131530,2151132406,-1.266848,0.15616,0.076128,18.57625,3.9725,-4.64625,40.784,-0.2,60.064003,concentric,6,3.0,23328.0,317471.0,282340.0,327696.0,289411.0
2026-04-07 18:04:40.840709,396380,2151146004,2151147331,-1.276608,0.169824,0.101504,17.91125,4.33125,-4.33125,41.000004,-0.432,59.008003,concentric,6,3.0,23328.0,317471.0,282340.0,327696.0,289411.0
2026-04-07 18:04:40.842399,396381,2151154916,2151156012,-1.276608,0.18544,0.11712,15.14625,4.43625,-4.50625,41.000004,-0.432,59.008003,concentric,6,3.0,23328.0,317471.0,282340.0,327696.0,289411.0
2026-04-07 18:04:40.846514,396382,2151163832,2151164694,-1.311744,0.171776,0.11712,13.3,3.8675,-5.25875,41.376003,0.4,61.016003,concentric,6,3.0,23328.0,317471.0,282340.0,327696.0,289411.0
2026-04-07 18:04:40.848134,396383,2151172747,2151173382,-1.311744,0.171776,0.11712,11.585,3.85,-5.11875,41.376003,0.4,61.016003,concentric,6,3.0,23328.0,317471.0,282340.0,327696.0,289411.0
2026-04-07 18:04:40.849762,396384,2151187526,2151188295,-1.335168,0.171776,0.109312,8.6975,4.57625,-5.2325,41.064003,0.232,59.248,concentric,6,3.0,23328.0,317471.0,282340.0,327696.0,289411.0
2026-04-07 18:04:40.854029,396385,2151196894,2151199097,-1.344928,0.158112,0.103456,6.37875,5.52125,-5.285,41.088,-0.432,59.976,concentric,6,3.0,23328.0,317471.0,282340.0,327696.0,289411.0
2026-04-07 18:04:40.855674,396386,2151205909,2151207784,-1.344928,0.158112,0.103456,6.055,5.8975,-5.39,41.088,-0.432,59.976,concentric,6,3.0,23328.0,317471.0,282340.0,327696.0,289411.0
2026-04-07 18:04:40.857443,396387,2151220488,2151222740,-1.329312,0.189344,0.10736,7.86625,5.73125,-4.82125,40.84,-0.544,59.4,concentric,6,3.0,23328.0,317471.0,282340.0,327696.0,289411.0
2026-04-07 18:04:40.883974,396397,2151229484,2151231586,-1.329312,0.189344,0.10736,10.01875,5.36375,-4.59375,40.84,-0.544,59.4,concentric,6,3.0,23423.0,318444.0,283240.0,328818.0,290335.0
2026-04-07 18:04:40.885960,396398,2151238576,2151240298,-1.323456,0.171776,0.115168,8.53125,5.60875,-4.725,41.208,0.032,59.128002,concentric,6,3.0,23423.0,318444.0,283240.0,328818.0,290335.0
2026-04-07 18:04:40.887311,396399,2151247533,2151249045,-1.323456,0.171776,0.115168,5.3025,5.43375,-4.43625,41.208,0.032,59.128002,concentric,6,3.0,23423.0,318444.0,283240.0,328818.0,290335.0
2026-04-07 18:04:40.893836,396400,2151262061,2151264027,-1.333216,0.152256,0.089792,3.43875,4.83875,-4.4275,41.352,-0.52,59.224003,concentric,6,3.0,23423.0,318444.0,283240.0,328818.0,290335.0
2026-04-07 18:04:40.922438,396401,2151271078,2151272747,-1.333216,0.152256,0.089792,3.80625,4.165,-3.29,41.352,-0.52,59.224003,concentric,6,3.0,23423.0,318444.0,283240.0,328818.0,290335.0
2026-04-07 18:04:40.927771,396402,2151280054,2151281438,-1.313696,0.160064,0.066368,5.4425,4.17375,-3.045,40.704002,-0.912,60.096004,concentric,6,3.0,23423.0,318444.0,283240.0,328818.0,290335.0
2026-04-07 18:04:40.929326,396403,2151294531,2151296325,-1.313696,0.160064,0.066368,6.76375,3.84125,-3.40375,40.704002,-0.912,60.096004,concentric,6,3.0,23423.0,318444.0,283240.0,328818.0,290335.0
2026-04-07 18:04:40.935080,396404,2151303475,2151305070,-1.300032,0.162016,0.064416,7.46375,3.955,-3.255,40.896004,-0.176,58.680004,concentric,6,3.0,23423.0,318444.0,283240.0,328818.0,290335.0
