pc_time,serial_num,sensor_ts,host_ts,ax,ay,az,gx,gy,gz,mx,my,mz,phase,rpe,weight_kg,ppg_a,ppg_b,ppg_c,ppg_d,ppg_e
2026-04-07 18:04:56.705930,399343,2167016473,2167016851,-1.097024,0.16592,0.05856,-4.83,7.9625,-5.46,36.424004,-3.192,61.904003,eccentric,6,3.0,22588.0,310770.0,275820.0,319438.0,281180.0
2026-04-07 18:04:56.707616,399344,2167025905,2167027756,-1.097024,0.134688,0.044896,-8.3125,10.36875,-6.9125,36.424004,-3.192,61.904003,eccentric,6,3.0,22588.0,310770.0,275820.0,319438.0,281180.0
2026-04-07 18:04:56.709377,399345,2167040421,2167042717,-1.069696,0.12688,0.044896,-9.33625,12.775,-7.35,36.456,-2.208,61.640003,eccentric,6,3.0,22588.0,310770.0,275820.0,319438.0,281180.0
2026-04-07 18:04:56.710935,399346,2167049335,2167051411,-1.0248,0.13664,0.037088,-8.37375,14.21,-6.97375,36.256,-2.584,60.864002,eccentric,6,3.0,22588.0,310770.0,275820.0,319438.0,281180.0
2026-04-07 18:04:56.715173,399347,2167058253,2167060132,-1.0248,0.13664,0.037088,-6.78125,15.96875,-7.16625,36.256,-2.584,60.864002,eccentric,6,3.0,22588.0,310770.0,275820.0,319438.0,281180.0
2026-04-07 18:04:56.716858,399348,2167072823,2167075089,-1.009184,0.169824,0.037088,-6.58,18.6375,-7.60375,36.216003,-2.624,60.232002,eccentric,6,3.0,22588.0,310770.0,275820.0,319438.0,281180.0
2026-04-07 18:04:56.718419,399349,2167081784,2167083828,-1.009184,0.169824,0.037088,-8.085,20.23,-8.636251,36.216003,-2.624,60.232002,eccentric,6,3.0,22588.0,310770.0,275820.0,319438.0,281180.0
2026-04-07 18:04:56.723044,399350,2167090761,2167092525,-0.950624,0.169824,0.046848,-11.80375,21.595,-8.60125,36.616,-2.288,60.128002,eccentric,6,3.0,22588.0,310770.0,275820.0,319438.0,281180.0
2026-04-07 18:04:56.753714,399351,2167105252,2167107429,-0.950624,0.169824,0.046848,-15.4525,21.95375,-8.93375,36.616,-2.288,60.128002,eccentric,6,3.0,22588.0,310770.0,275820.0,319438.0,281180.0
2026-04-07 18:04:56.780685,399361,2167114173,2167116427,-0.911584,0.134688,0.050752,-19.25875,23.00375,-9.065,36.704002,-1.552,59.872,eccentric,6,3.0,22528.0,310641.0,275753.0,319399.0,281097.0
2026-04-07 18:04:56.782257,399362,2167123146,2167125145,-0.911584,0.134688,0.050752,-20.20375,23.65125,-9.12625,36.704002,-1.552,59.872,eccentric,6,3.0,22528.0,310641.0,275753.0,319399.0,281097.0
2026-04-07 18:04:56.786511,399363,2167132058,2167133873,-0.83936,0.080032,0.013664,-18.5325,23.555,-9.42375,36.896,-1.704,59.568005,eccentric,6,3.0,22528.0,310641.0,275753.0,319399.0,281097.0
2026-04-07 18:04:56.788130,399364,2167146603,2167148880,-0.83936,0.081984,0.007808,-13.545,23.275,-9.3625,36.896,-1.704,57.520004,eccentric,6,3.0,22528.0,310641.0,275753.0,319399.0,281097.0
2026-04-07 18:04:56.789689,399365,2167155549,2167157639,-0.769088,0.081984,0.007808,-8.86375,23.135,-8.8725,36.496002,-1.072,59.136,eccentric,6,3.0,22528.0,310641.0,275753.0,319399.0,281097.0
2026-04-07 18:04:56.797601,399366,2167164469,2167166345,-0.769088,0.081984,0.007808,-6.11625,23.72125,-8.21625,36.496002,-1.072,59.136,eccentric,6,3.0,22528.0,310641.0,275753.0,319399.0,281097.0
2026-04-07 18:04:56.826269,399367,2167178975,2167181268,-0.732,0.111264,0.005856,-5.81875,24.21125,-8.085,37.432003,-1.176,60.328003,eccentric,6,3.0,22528.0,310641.0,275753.0,319399.0,281097.0
2026-04-07 18:04:56.830658,399368,2167187905,2167189986,-0.681248,0.121024,0.015616,-7.69125,23.80875,-6.86,37.544003,-1.144,57.904003,eccentric,6,3.0,22528.0,310641.0,275753.0,319399.0,281097.0
2026-04-07 18:04:56.832204,399369,2167196792,2167198697,-0.681248,0.121024,0.015616,-12.99375,23.47625,-4.33125,37.544003,-1.144,57.904003,eccentric,6,3.0,22528.0,310641.0,275753.0,319399.0,281097.0
2026-04-07 18:04:56.883385,399370,2167211319,2167213604,-0.655872,0.095648,0.01952,-19.69625,23.1525,-2.03,37.504,-1.008,59.144,eccentric,6,3.0,22528.0,310641.0,275753.0,319399.0,281097.0
2026-04-07 18:04:56.911913,399381,2167220383,2167222328,-0.655872,0.095648,0.01952,-25.725,22.21625,-0.49875,37.504,-1.008,59.144,eccentric,6,3.0,22286.0,309361.0,274974.0,318790.0,280444.0
2026-04-07 18:04:56.913410,399382,2167229333,2167231062,-0.659776,0.076128,0.011712,-30.96625,22.0675,1.37375,38.048,-0.024,57.376003,eccentric,6,3.0,22286.0,309361.0,274974.0,318790.0,280444.0
2026-04-07 18:04:56.917805,399383,2167238229,2167239740,-0.659776,0.076128,0.011712,-32.0075,21.07875,2.80875,38.048,-0.024,57.376003,eccentric,6,3.0,22286.0,309361.0,274974.0,318790.0,280444.0
2026-04-07 18:04:56.921807,399384,2167252714,2167254646,-0.70272,0.085888,0.005856,-30.63375,20.9475,3.73625,38.184002,0.072,57.248,eccentric,6,3.0,22286.0,309361.0,274974.0,318790.0,280444.0
2026-04-07 18:04:56.923377,399385,2167261617,2167263360,-0.70272,0.085888,0.005856,-27.0375,20.41375,4.10375,38.184002,0.072,57.248,eccentric,6,3.0,22286.0,309361.0,274974.0,318790.0,280444.0
2026-04-07 18:04:56.927693,399386,2167270819,2167272071,-0.72224,0.066368,0.001952,-19.3725,19.7225,3.94625,37.960003,0.152,57.672,eccentric,6,3.0,22286.0,309361.0,274974.0,318790.0,280444.0
2026-04-07 18:04:56.929376,399387,2167285312,2167287056,-0.72224,0.066368,0.001952,-11.3575,18.0425,3.4475,37.960003,0.152,57.672,eccentric,6,3.0,22286.0,309361.0,274974.0,318790.0,280444.0
2026-04-07 18:04:56.930906,399388,2167294263,2167295796,-0.72224,0.091744,0.013664,-2.275,16.8525,2.33625,38.600002,-0.104,55.592003,eccentric,6,3.0,22286.0,309361.0,274974.0,318790.0,280444.0
2026-04-07 18:04:56.933326,399389,2167303195,2167304510,-0.72224,0.091744,0.013664,8.7675,16.93125,0.945,38.600002,-0.104,55.592003,eccentric,6,3.0,22286.0,309361.0,274974.0,318790.0,280444.0
2026-04-07 18:04:57.007149,399399,2167318095,2167319679,-0.75152,0.199104,0.072224,15.295,17.675,0.77875,38.656002,-0.032,57.344,eccentric,6,3.0,22330.0,310010.0,275688.0,319732.0,281261.0
2026-04-07 18:04:57.009682,399400,2167327067,2167328367,-0.75152,0.199104,0.119072,13.5625,19.4775,0.13125,38.656002,-0.032,57.344,eccentric,6,3.0,22330.0,310010.0,275688.0,319732.0,281261.0
2026-04-07 18:04:57.013965,399401,2167335981,2167337043,-0.782752,0.206912,0.119072,3.26375,21.37625,-0.91875,39.552002,-0.024,54.832,eccentric,6,3.0,22330.0,310010.0,275688.0,319732.0,281261.0
2026-04-07 18:04:57.015588,399402,2167344881,2167345705,-0.782752,0.206912,0.119072,-8.575,23.975,-0.81375,39.552002,-0.024,54.832,eccentric,6,3.0,22330.0,310010.0,275688.0,319732.0,281261.0
2026-04-07 18:04:57.018119,399403,2167359368,2167360633,-0.8296,0.052704,0.101504,-14.67375,25.45375,-0.91875,39.568,-0.384,55.144,eccentric,6,3.0,22330.0,310010.0,275688.0,319732.0,281261.0
2026-04-07 18:04:57.019600,399404,2167368530,2167369370,-0.84912,0.072224,0.07808,-10.6575,25.40125,-1.42625,39.056004,-0.52,57.872,eccentric,6,3.0,22330.0,310010.0,275688.0,319732.0,281261.0
2026-04-07 18:04:57.022145,399405,2167377474,2167378096,-0.84912,0.072224,0.07808,3.7625,24.61375,-1.37375,39.056004,-0.52,57.872,eccentric,6,3.0,22330.0,310010.0,275688.0,319732.0,281261.0
2026-04-07 18:04:57.025425,399406,2167392378,2167393022,-0.864736,0.245952,0.085888,19.6525,23.9925,-2.3625,39.912003,-0.168,55.064003,eccentric,6,3.0,22330.0,310010.0,275688.0,319732.0,281261.0
2026-04-07 18:04:57.055740,399407,2167401645,2167403875,-0.864736,0.245952,0.085888,25.41,24.4825,-3.08,39.912003,-0.168,55.064003,eccentric,6,3.0,22330.0,310010.0,275688.0,319732.0,281261.0
2026-04-07 18:04:57.058171,399408,2167410556,2167412557,-0.8784,0.290848,0.105408,18.20875,25.59375,-2.93125,39.912003,-0.44,55.24,eccentric,6,3.0,22330.0,310010.0,275688.0,319732.0,281261.0
2026-04-07 18:04:57.085135,399418,2167419862,2167421318,-0.8784,0.290848,0.105408,2.68625,27.195,-2.87875,39.912003,-0.44,55.24,eccentric,6,3.0,22466.0,310724.0,276086.0,319993.0,281463.0
2026-04-07 18:04:57.086848,399419,2167434404,2167436316,-0.882304,0.203008,0.0976,-14.245,28.09625,-1.5575,40.72,-0.312,54.536003,eccentric,6,3.0,22466.0,310724.0,276086.0,319993.0,281463.0
2026-04-07 18:04:57.088368,399420,2167443429,2167445061,-0.882304,0.203008,0.0976,-26.145,29.11125,-1.32125,40.72,-0.312,54.536003,eccentric,6,3.0,22466.0,310724.0,276086.0,319993.0,281463.0
2026-04-07 18:04:57.092482,399421,2167452434,2167453799,-0.944768,0.187392,0.23424,-32.15625,29.4525,-0.42875,40.848003,-0.112,55.224003,eccentric,6,3.0,22466.0,310724.0,276086.0,319993.0,281463.0
2026-04-07 18:04:57.121039,399422,2167466942,2167468731,-0.944768,0.187392,0.23424,-26.32,25.375,2.5025,40.848003,-0.112,55.224003,eccentric,6,3.0,22466.0,310724.0,276086.0,319993.0,281463.0
2026-04-07 18:04:57.126532,399423,2167475890,2167477465,-0.901824,0.10736,0.384544,-10.78875,17.70125,6.1775,40.712,-0.36,55.800003,eccentric,6,3.0,22466.0,310724.0,276086.0,319993.0,281463.0
2026-04-07 18:04:57.127165,399424,2167484844,2167486182,-0.901824,0.10736,0.384544,8.44375,9.28375,9.5725,40.712,-0.36,55.800003,eccentric,6,3.0,22466.0,310724.0,276086.0,319993.0,281463.0
2026-04-07 18:04:57.130466,399425,2167499318,2167501097,-0.989664,0.130784,0.355264,25.66375,2.54625,9.98375,40.968002,-0.976,54.592003,eccentric,6,3.0,22466.0,310724.0,276086.0,319993.0,281463.0
2026-04-07 18:04:57.160800,399426,2167508319,2167509825,-1.052128,0.18544,0.281088,36.39125,-3.14125,9.9575,40.968002,-0.976,53.512,eccentric,6,3.0,22466.0,310724.0,276086.0,319993.0,281463.0
2026-04-07 18:04:57.189412,399437,2167517249,2167518605,-1.056032,0.18544,0.281088,39.03375,-7.6825,6.83375,40.864002,-0.536,53.512,eccentric,6,3.0,23408.0,318884.0,283172.0,328109.0,288640.0
2026-04-07 18:04:57.190945,399438,2167526179,2167527299,-1.056032,0.18544,0.281088,34.5975,-10.29875,1.54875,40.864002,-0.536,53.512,eccentric,6,3.0,23408.0,318884.0,283172.0,328109.0,288640.0
2026-04-07 18:04:57.195189,399439,2167540806,2167542248,-1.095072,0.150304,0.284992,24.815,-11.43625,-3.91125,40.968002,-1.08,54.896004,eccentric,6,3.0,23408.0,318884.0,283172.0,328109.0,288640.0
2026-04-07 18:04:57.196859,399440,2167549822,2167550960,-1.138016,0.07808,0.277184,12.81,-12.15375,-9.38875,40.328003,-1.176,55.136,eccentric,6,3.0,23408.0,318884.0,283172.0,328109.0,288640.0
2026-04-07 18:04:57.198410,399441,2167558864,2167559704,-1.138016,0.07808,0.277184,1.42625,-12.27625,-12.64375,40.328003,-1.176,55.136,eccentric,6,3.0,23408.0,318884.0,283172.0,328109.0,288640.0
2026-04-07 18:04:57.206602,399442,2167574065,2167574650,-1.136064,0.115168,0.18544,-5.48625,-13.3,-14.752501,40.36,-0.976,55.032,eccentric,6,3.0,23408.0,318884.0,283172.0,328109.0,288640.0
2026-04-07 18:04:57.234889,399443,2167583305,2167585475,-1.136064,0.115168,0.18544,-7.21,-14.30625,-15.30375,40.36,-0.976,55.032,eccentric,6,3.0,23408.0,318884.0,283172.0,328109.0,288640.0
2026-04-07 18:04:57.239421,399444,2167592313,2167594164,-1.089216,0.197152,0.027328,-7.70875,-14.0525,-13.79,40.304,-0.36,54.744003,eccentric,6,3.0,23408.0,318884.0,283172.0,328109.0,288640.0
2026-04-07 18:04:57.240980,399445,2167601274,2167602862,-1.089216,0.197152,0.027328,-10.43875,-13.08125,-12.38125,40.304,-0.36,54.744003,eccentric,6,3.0,23408.0,318884.0,283172.0,328109.0,288640.0
2026-04-07 18:04:57.249095,399446,2167615782,2167617756,-1.056032,0.218624,-0.081984,-17.14125,-12.03125,-10.96375,39.888,-0.4,55.2,eccentric,6,3.0,23408.0,318884.0,283172.0,328109.0,288640.0
2026-04-07 18:04:57.310835,399456,2167624801,2167626553,-1.056032,0.218624,-0.081984,-24.91125,-9.87875,-10.00125,39.888,-0.4,55.2,eccentric,6,3.0,23280.0,317944.0,282380.0,327140.0,287786.0
2026-04-07 18:04:57.312171,399457,2167633773,2167635298,-1.040416,0.216672,-0.095648,-30.33625,-8.19,-8.2425,40.160004,-0.12,55.160004,eccentric,6,3.0,23280.0,317944.0,282380.0,327140.0,287786.0
2026-04-07 18:04:57.316459,399458,2167648343,2167650197,-1.040416,0.216672,-0.0488,-32.33125,-6.4225,-7.7875,40.160004,-0.12,55.160004,eccentric,6,3.0,23280.0,317944.0,282380.0,327140.0,287786.0
2026-04-07 18:04:57.318207,399459,2167657264,2167658895,-1.038464,0.220576,-0.052704,-30.24875,-5.9325,-8.5925,39.968002,0.696,53.04,eccentric,6,3.0,23280.0,317944.0,282380.0,327140.0,287786.0
2026-04-07 18:04:57.319680,399460,2167666341,2167667603,-1.038464,0.220576,-0.052704,-25.01625,-5.145,-7.63,39.968002,0.696,53.04,eccentric,6,3.0,23280.0,317944.0,282380.0,327140.0,287786.0
2026-04-07 18:04:57.323887,399461,2167675398,2167676366,-0.99552,0.220576,0.015616,-18.69,-4.4975,-8.198751,38.768,-0.136,57.360004,eccentric,6,3.0,23280.0,317944.0,282380.0,327140.0,287786.0
2026-04-07 18:04:57.325464,399462,2167689954,2167691308,-0.979904,0.228384,0.066368,-13.615,-4.36625,-8.61875,38.912003,0.256,55.296,eccentric,6,3.0,23280.0,317944.0,282380.0,327140.0,287786.0
2026-04-07 18:04:57.329294,399463,2167698895,2167700031,-0.979904,0.228384,0.066368,-9.23125,-3.10625,-8.37375,38.912003,0.256,55.296,eccentric,6,3.0,23280.0,317944.0,282380.0,327140.0,287786.0
2026-04-07 18:04:57.359500,399464,2167707857,2167708751,-0.979904,0.228384,0.066368,-5.64375,-2.5025,-7.9625,38.912003,0.256,55.296,eccentric,6,3.0,23280.0,317944.0,282380.0,327140.0,287786.0
2026-04-07 18:04:57.384704,399474,2167723058,2167723880,-0.98576,0.251808,0.05856,-0.84,-2.26625,-6.72875,39.136,0.544,55.312004,eccentric,6,3.0,23118.0,316879.0,281758.0,326587.0,287335.0
2026-04-07 18:04:57.392709,399475,2167731994,2167732649,-0.989664,0.259616,0.060512,4.47125,-1.67125,-5.4775,39.288002,0.704,55.176003,eccentric,6,3.0,23118.0,316879.0,281758.0,326587.0,287335.0
2026-04-07 18:04:57.394414,399476,2167741340,2167743465,-0.989664,0.259616,0.060512,8.9425,-0.6825,-4.865,39.288002,0.704,55.176003,eccentric,6,3.0,23118.0,316879.0,281758.0,326587.0,287335.0
2026-04-07 18:04:57.395987,399477,2167750368,2167752218,-1.022848,0.230336,0.064416,11.5675,-0.55125,-4.725,39.072002,0.456,55.808002,eccentric,6,3.0,23118.0,316879.0,281758.0,326587.0,287335.0
2026-04-07 18:04:57.400084,399478,2167765079,2167767144,-1.022848,0.230336,0.064416,13.965,0.72625,-5.29375,39.072002,0.456,55.808002,eccentric,6,3.0,23118.0,316879.0,281758.0,326587.0,287335.0
2026-04-07 18:04:57.406329,399479,2167774088,2167775935,-1.016992,0.203008,0.062464,16.23125,1.8375,-7.28,39.760002,0.488,55.856003,eccentric,6,3.0,23118.0,316879.0,281758.0,326587.0,287335.0
2026-04-07 18:04:57.434790,399480,2167783089,2167784683,-1.016992,0.203008,0.062464,19.2325,2.42375,-8.636251,39.760002,0.488,55.856003,eccentric,6,3.0,23118.0,316879.0,281758.0,326587.0,287335.0
2026-04-07 18:04:57.448912,399481,2167797563,2167799564,-1.042368,0.21472,0.066368,22.715,3.64875,-10.52625,39.336002,0.52,55.488003,eccentric,6,3.0,23118.0,316879.0,281758.0,326587.0,287335.0
2026-04-07 18:04:57.450601,399482,2167806490,2167808272,-1.042368,0.21472,0.066368,24.3075,5.78375,-11.34,39.336002,0.52,55.488003,eccentric,6,3.0,23118.0,316879.0,281758.0,326587.0,287335.0
2026-04-07 18:04:57.452198,399483,2167815426,2167817006,-1.048224,0.187392,0.093696,23.135,6.93,-11.90875,39.088,-0.088,55.264004,eccentric,6,3.0,23118.0,316879.0,281758.0,326587.0,287335.0
2026-04-07 18:04:57.481457,399494,2167824459,2167825741,-1.048224,0.187392,0.093696,18.9525,7.44625,-12.83625,39.088,-0.088,55.264004,eccentric,6,3.0,23226.0,317884.0,282698.0,327771.0,288357.0
2026-04-07 18:04:57.484008,399495,2167839085,2167840760,-1.079456,0.132736,0.121024,14.02625,8.26,-13.51,39.144,0.496,55.232002,eccentric,6,3.0,23226.0,317884.0,282698.0,327771.0,288357.0
2026-04-07 18:04:57.487157,399496,2167848096,2167849510,-1.079456,0.132736,0.121024,8.82875,8.12,-13.9475,39.144,0.496,55.232002,eccentric,6,3.0,23226.0,317884.0,282698.0,327771.0,288357.0
2026-04-07 18:04:57.489618,399497,2167857075,2167858240,-1.077504,0.080032,0.13664,5.4775,7.28875,-14.39375,38.928,0.376,55.464005,eccentric,6,3.0,23226.0,317884.0,282698.0,327771.0,288357.0
2026-04-07 18:04:57.520692,399498,2167871625,2167873190,-1.0736,0.091744,0.144448,3.3775,6.16875,-14.1575,38.992,-0.12,53.848003,eccentric,6,3.0,23226.0,317884.0,282698.0,327771.0,288357.0
2026-04-07 18:04:57.526225,399499,2167880602,2167881880,-1.0736,0.091744,0.144448,2.8175,4.83875,-13.58,38.992,-0.12,53.848003,eccentric,6,3.0,23226.0,317884.0,282698.0,327771.0,288357.0
2026-04-07 18:04:57.526810,399500,2167889501,2167890585,-1.0736,0.091744,0.10736,2.8175,3.7275,-12.74875,38.992,-0.12,53.848003,eccentric,6,3.0,23226.0,317884.0,282698.0,327771.0,288357.0
2026-04-07 18:04:57.583195,399501,2167904135,2167905579,-1.081408,0.13664,0.10736,2.1175,2.03875,-11.4975,39.504,0.432,57.424004,eccentric,6,3.0,23226.0,317884.0,282698.0,327771.0,288357.0
2026-04-07 18:04:57.587785,399502,2167913077,2167914274,-1.085312,0.162016,0.081984,0.49,0.98,-9.38,39.08,0.552,55.320004,eccentric,6,3.0,23226.0,317884.0,282698.0,327771.0,288357.0
2026-04-07 18:04:57.611953,399512,2167922504,2167923097,-1.085312,0.162016,0.081984,-1.645,0.13125,-7.1575,39.08,0.552,55.320004,eccentric,6,3.0,23093.0,317109.0,282135.0,327207.0,287869.0
2026-04-07 18:04:57.613489,399513,2167932024,2167933907,-1.067744,0.160064,0.076128,-3.31625,-1.42625,-5.53,39.352,0.256,55.664,eccentric,6,3.0,23093.0,317109.0,282135.0,327207.0,287869.0
2026-04-07 18:04:57.617655,399514,2167946508,2167948796,-1.067744,0.160064,0.076128,-3.185,-1.7675,-4.55,39.352,0.256,55.664,eccentric,6,3.0,23093.0,317109.0,282135.0,327207.0,287869.0
2026-04-07 18:04:57.619306,399515,2167955503,2167957487,-1.052128,0.179584,0.085888,-1.26875,-2.1175,-3.52625,38.816,0.064,55.640003,eccentric,6,3.0,23093.0,317109.0,282135.0,327207.0,287869.0
2026-04-07 18:04:57.620877,399516,2167964462,2167966230,-1.052128,0.179584,0.085888,1.4875,-3.045,-3.12375,38.816,0.064,55.640003,eccentric,6,3.0,23093.0,317109.0,282135.0,327207.0,287869.0
2026-04-07 18:04:57.625096,399517,2167973389,2167974982,-1.036512,0.193248,0.08784,4.24375,-4.27,-3.49125,38.464,0.064,56.496002,eccentric,6,3.0,23093.0,317109.0,282135.0,327207.0,287869.0
2026-04-07 18:04:57.627020,399518,2167987939,2167989949,-1.036512,0.193248,0.08784,5.215,-3.96375,-3.92,38.464,0.064,56.496002,eccentric,6,3.0,23093.0,317109.0,282135.0,327207.0,287869.0
2026-04-07 18:04:57.629226,399519,2167996879,2167998716,-1.04432,0.189344,0.07808,5.635,-3.01875,-4.36625,38.640003,0.344,57.016003,eccentric,6,3.0,23093.0,317109.0,282135.0,327207.0,287869.0
2026-04-07 18:04:57.659565,399520,2168005813,2168007398,-1.04432,0.189344,0.07808,5.60875,-2.19625,-5.10125,38.640003,0.344,57.016003,eccentric,6,3.0,23093.0,317109.0,282135.0,327207.0,287869.0
2026-04-07 18:04:57.690975,399530,2168020303,2168022291,-1.030656,0.163968,0.085888,6.0375,-1.54,-6.02,39.568,-0.136,55.432003,eccentric,6,3.0,22816.0,314948.0,280374.0,325343.0,286277.0
2026-04-07 18:04:57.694303,399531,2168029563,2168031015,-1.030656,0.163968,0.085888,7.60375,-0.67375,-6.86875,39.568,-0.136,55.432003,eccentric,6,3.0,22816.0,314948.0,280374.0,325343.0,286277.0
2026-04-07 18:04:57.695882,399532,2168038490,2168039706,-1.022848,0.167872,0.076128,9.14375,0.65625,-8.0325,38.432003,-0.096,57.544003,eccentric,6,3.0,22816.0,314948.0,280374.0,325343.0,286277.0
2026-04-07 18:04:57.700154,399533,2168053001,2168054660,-1.020896,0.177632,0.072224,10.71,1.96875,-9.31875,38.2,-0.024,56.640003,eccentric,6,3.0,22816.0,314948.0,280374.0,325343.0,286277.0
2026-04-07 18:04:57.701841,399534,2168061953,2168063373,-1.020896,0.177632,0.072224,10.12375,2.96625,-9.9575,38.2,-0.024,56.640003,eccentric,6,3.0,22816.0,314948.0,280374.0,325343.0,286277.0
2026-04-07 18:04:57.703417,399535,2168070880,2168072057,-1.013088,0.158112,0.064416,8.61875,4.29625,-9.3275,38.2,2.024,57.064003,eccentric,6,3.0,22816.0,314948.0,280374.0,325343.0,286277.0
2026-04-07 18:04:57.734512,399536,2168085351,2168087066,-1.013088,0.158112,0.064416,4.62875,5.64375,-9.47625,38.600002,0.384,57.064003,eccentric,6,3.0,22816.0,314948.0,280374.0,325343.0,286277.0
2026-04-07 18:04:57.738932,399537,2168094243,2168095752,-1.038464,0.1464,0.056608,0.945,6.79875,-9.8525,39.120003,-0.328,55.320004,eccentric,6,3.0,22816.0,314948.0,280374.0,325343.0,286277.0
2026-04-07 18:04:57.740636,399538,2168103193,2168104466,-1.038464,0.1464,0.056608,0.72625,8.3825,-10.0975,39.120003,-0.328,55.320004,eccentric,6,3.0,22816.0,314948.0,280374.0,325343.0,286277.0
2026-04-07 18:04:57.742172,399539,2168112133,2168113177,-1.03456,0.1464,0.060512,1.93375,8.75875,-10.40375,38.800003,0.408,57.528004,eccentric,6,3.0,22816.0,314948.0,280374.0,325343.0,286277.0
2026-04-07 18:04:57.798486,399550,2168126698,2168128219,-1.03456,0.1464,0.060512,2.975,9.7475,-10.1325,38.800003,0.408,57.528004,eccentric,6,3.0,22690.0,313941.0,279518.0,324383.0,285468.0
2026-04-07 18:04:57.802637,399551,2168135615,2168136947,-1.042368,0.154208,0.042944,4.1825,11.042501,-10.675,39.312,0.472,55.816,eccentric,6,3.0,22690.0,313941.0,279518.0,324383.0,285468.0
2026-04-07 18:04:57.804318,399552,2168144547,2168145600,-1.042368,0.154208,0.042944,6.055,11.94375,-11.55875,39.312,0.472,55.816,eccentric,6,3.0,22690.0,313941.0,279518.0,324383.0,285468.0
2026-04-07 18:04:57.805917,399553,2168159074,2168160538,-1.01504,0.150304,0.054656,7.035,13.09,-11.83875,39.448,0.544,55.440002,eccentric,6,3.0,22690.0,313941.0,279518.0,324383.0,285468.0
2026-04-07 18:04:57.810090,399554,2168168141,2168169310,-1.01504,0.150304,0.054656,5.88875,13.86,-12.4775,39.448,0.544,55.440002,eccentric,6,3.0,22690.0,313941.0,279518.0,324383.0,285468.0
2026-04-07 18:04:57.811778,399555,2168177098,2168178045,-1.026752,0.138592,0.05856,4.9,15.3825,-13.18625,39.368,0.632,55.216003,eccentric,6,3.0,22690.0,313941.0,279518.0,324383.0,285468.0
2026-04-07 18:04:57.842558,399556,2168191603,2168193001,-1.020896,0.140544,0.091744,5.355,17.01875,-13.7025,39.368,0.504,56.648003,eccentric,6,3.0,22690.0,313941.0,279518.0,324383.0,285468.0
2026-04-07 18:04:57.846439,399557,2168200517,2168201691,-1.020896,0.140544,0.091744,5.95875,17.85,-14.18375,39.824,0.504,56.648003,eccentric,6,3.0,22690.0,313941.0,279518.0,324383.0,285468.0
2026-04-07 18:04:57.848966,399558,2168209419,2168210334,-1.020896,0.140544,0.091744,6.04625,18.69875,-14.65625,39.824,0.504,56.648003,eccentric,6,3.0,22690.0,313941.0,279518.0,324383.0,285468.0
2026-04-07 18:04:57.906924,399568,2168224250,2168225395,-1.020896,0.150304,0.101504,6.86875,19.4075,-14.735,39.84,0.672,55.176003,eccentric,6,3.0,22667.0,313630.0,279265.0,324145.0,285300.0
2026-04-07 18:04:57.908425,399569,2168233251,2168234078,-0.99552,0.173728,0.093696,8.04125,19.59125,-14.35,39.864002,0.008,54.600002,eccentric,6,3.0,22667.0,313630.0,279265.0,324145.0,285300.0
2026-04-07 18:04:57.912633,399570,2168242153,2168242765,-0.99552,0.173728,0.093696,8.77625,19.88,-14.11375,39.864002,0.008,54.600002,eccentric,6,3.0,22667.0,313630.0,279265.0,324145.0,285300.0
2026-04-07 18:04:57.914325,399571,2168251367,2168253528,-0.99552,0.173728,0.093696,8.435,20.8425,-13.7375,39.864002,0.008,54.600002,eccentric,6,3.0,22667.0,313630.0,279265.0,324145.0,285300.0
2026-04-07 18:04:57.915922,399572,2168265877,2168266370,-0.94672,0.177632,0.093696,5.8975,22.63625,-13.60625,39.768,0.096,54.536003,eccentric,6,3.0,22667.0,313630.0,279265.0,324145.0,285300.0
2026-04-07 18:04:57.920162,399573,2168275283,2168277205,-0.991616,0.177632,0.072224,1.7675,24.6575,-13.93,39.960003,0.584,54.712,eccentric,6,3.0,22667.0,313630.0,279265.0,324145.0,285300.0
2026-04-07 18:04:57.922217,399574,2168284247,2168285907,-0.991616,0.177632,0.072224,-1.1375,26.285,-13.58875,39.960003,0.584,54.712,eccentric,6,3.0,22667.0,313630.0,279265.0,324145.0,285300.0
2026-04-07 18:04:57.923774,399575,2168293300,2168294665,-0.979904,0.158112,0.03904,-4.7075,26.460001,-14.315001,40.280003,0.736,53.368004,eccentric,6,3.0,22667.0,313630.0,279265.0,324145.0,285300.0
2026-04-07 18:04:57.954559,399576,2168307790,2168309562,-0.979904,0.158112,0.03904,-7.44625,27.51875,-15.51375,40.280003,0.736,53.368004,eccentric,6,3.0,22667.0,313630.0,279265.0,324145.0,285300.0
2026-04-07 18:04:57.956837,399577,2168316704,2168318254,-0.976,0.132736,0.013664,-9.79125,28.72625,-16.26625,41.136,0.44,54.448,eccentric,6,3.0,22667.0,313630.0,279265.0,324145.0,285300.0
2026-04-07 18:04:57.985632,399587,2168326071,2168327284,-0.976,0.132736,0.013664,-11.1125,28.98875,-16.7125,41.136,0.44,54.448,eccentric,6,3.0,22626.0,313295.0,279007.0,323900.0,285063.0
2026-04-07 18:04:57.987130,399588,2168340615,2168342223,-1.00528,0.113216,0.001952,-12.62625,29.54875,-17.42125,41.008003,1.24,55.088,eccentric,6,3.0,22626.0,313295.0,279007.0,323900.0,285063.0
2026-04-07 18:04:57.991361,399589,2168349592,2168350926,-1.00528,0.113216,0.001952,-14.533751,29.75,-17.5175,41.008003,1.24,55.088,eccentric,6,3.0,22626.0,313295.0,279007.0,323900.0,285063.0
2026-04-07 18:04:57.993785,399590,2168358542,2168359691,-0.974048,0.099552,0.017568,-17.36875,30.0125,-17.63125,40.272003,0.976,55.096004,eccentric,6,3.0,22626.0,313295.0,279007.0,323900.0,285063.0
2026-04-07 18:04:58.022356,399591,2168373100,2168374563,-1.030656,0.128832,0.02928,-20.93875,30.80875,-17.84125,41.224003,1.88,53.968002,eccentric,6,3.0,22626.0,313295.0,279007.0,323900.0,285063.0
2026-04-07 18:04:58.027042,399592,2168382003,2168383256,-1.030656,0.128832,0.02928,-25.34,31.28125,-18.2175,41.224003,1.88,53.968002,eccentric,6,3.0,22626.0,313295.0,279007.0,323900.0,285063.0
2026-04-07 18:04:58.029330,399593,2168390913,2168391982,-1.030656,0.128832,0.02928,-30.6425,31.0625,-18.515,41.224003,1.88,53.968002,eccentric,6,3.0,22626.0,313295.0,279007.0,323900.0,285063.0
2026-04-07 18:04:58.031707,399594,2168399834,2168400678,-1.052128,0.154208,0.052704,-34.92125,30.1525,-18.76,41.536003,2.024,53.160004,eccentric,6,3.0,22626.0,313295.0,279007.0,323900.0,285063.0
2026-04-07 18:04:58.062038,399595,2168414456,2168415557,-1.087264,0.105408,0.033184,-38.5175,29.0325,-18.52375,41.264004,2.512,52.392002,eccentric,6,3.0,22626.0,313295.0,279007.0,323900.0,285063.0
2026-04-07 18:04:58.090649,399606,2168423406,2168424222,-1.087264,0.105408,0.033184,-40.18875,26.11,-17.3425,41.264004,2.512,52.392002,eccentric,6,3.0,22696.0,314150.0,279792.0,324772.0,285886.0
2026-04-07 18:04:58.092339,399607,2168432356,2168432976,-1.071648,0.085888,0.00976,-37.2925,22.56625,-16.02125,41.264004,2.512,52.472004,eccentric,6,3.0,22696.0,314150.0,279792.0,324772.0,285886.0
2026-04-07 18:04:58.096439,399608,2168447485,2168447955,-1.075552,0.085888,0.00976,-28.9275,18.62875,-14.16625,41.792004,2.12,52.472004,eccentric,6,3.0,22696.0,314150.0,279792.0,324772.0,285886.0
2026-04-07 18:04:58.098533,399609,2168456901,2168458791,-1.069696,0.122976,0.001952,-18.71625,15.1725,-12.8625,41.960003,2.896,52.176003,concentric,6,3.0,22696.0,314150.0,279792.0,324772.0,285886.0
2026-04-07 18:04:58.099720,399610,2168465906,2168467506,-1.069696,0.122976,0.001952,-10.08875,12.76625,-11.9,41.960003,2.896,52.176003,concentric,6,3.0,22696.0,314150.0,279792.0,324772.0,285886.0
2026-04-07 18:04:58.107673,399611,2168474848,2168476208,-1.038464,0.15616,0.003904,-5.69625,10.33375,-11.025,42.192,3.544,52.168003,concentric,6,3.0,22696.0,314150.0,279792.0,324772.0,285886.0
2026-04-07 18:04:58.139079,399612,2168489424,2168491183,-1.038464,0.15616,0.003904,-5.88875,9.5025,-9.8525,42.192,3.544,52.168003,concentric,6,3.0,22696.0,314150.0,279792.0,324772.0,285886.0
2026-04-07 18:04:58.141544,399613,2168498364,2168499892,-1.0248,0.17568,-0.013664,-9.47625,10.12375,-8.84625,42.120003,2.848,52.464,concentric,6,3.0,22696.0,314150.0,279792.0,324772.0,285886.0
2026-04-07 18:04:58.178415,399614,2168507326,2168508631,-1.0248,0.17568,-0.013664,-14.62125,10.386251,-8.25125,42.120003,2.848,52.464,concentric,6,3.0,22696.0,314150.0,279792.0,324772.0,285886.0
2026-04-07 18:04:58.210825,399615,2168521823,2168523541,-0.983808,0.142496,0.021472,-20.50125,10.29,-7.105,41.896004,3.128,52.176003,concentric,6,3.0,22696.0,314150.0,279792.0,324772.0,285886.0
2026-04-07 18:04:58.239780,399625,2168530801,2168532252,-0.983808,0.142496,0.021472,-25.90875,8.96,-5.5475,41.896004,3.128,52.176003,concentric,6,3.0,22430.0,311678.0,277602.0,322295.0,283626.0
2026-04-07 18:04:58.244033,399626,2168539725,2168540944,-0.933056,0.072224,0.005856,-29.9075,6.41375,-3.6225,41.768,4.136,51.888004,concentric,6,3.0,22430.0,311678.0,277602.0,322295.0,283626.0
2026-04-07 18:04:58.247119,399627,2168548651,2168549603,-0.933056,0.072224,0.005856,-29.4,4.34875,-1.4,41.768,4.136,51.888004,concentric,6,3.0,22430.0,311678.0,277602.0,322295.0,283626.0
2026-04-07 18:04:58.250562,399628,2168563187,2168564591,-0.901824,0.025376,-0.040992,-24.45625,2.37125,-0.6825,42.440002,3.728,51.600002,concentric,6,3.0,22430.0,311678.0,277602.0,322295.0,283626.0
2026-04-07 18:04:58.252999,399629,2168572131,2168573295,-0.901824,0.025376,-0.040992,-18.03375,0.72625,0.49875,42.440002,3.728,51.600002,concentric,6,3.0,22430.0,311678.0,277602.0,322295.0,283626.0
2026-04-07 18:04:58.255548,399630,2168581057,2168581966,-0.925248,0.070272,-0.060512,-11.375,-0.07875,2.0475,42.04,4.176,53.368004,concentric,6,3.0,22430.0,311678.0,277602.0,322295.0,283626.0
2026-04-07 18:04:58.257157,399631,2168595644,2168596883,-0.942816,0.109312,-0.0488,-8.8375,-0.41125,3.15875,42.176003,3.592,52.984,concentric,6,3.0,22430.0,311678.0,277602.0,322295.0,283626.0
2026-04-07 18:04:58.261414,399632,2168604686,2168605627,-0.942816,0.109312,-0.0488,-11.41,-0.60375,4.1825,42.176003,3.592,52.984,concentric,6,3.0,22430.0,311678.0,277602.0,322295.0,283626.0
2026-04-07 18:04:58.263165,399633,2168613685,2168614356,-1.0248,0.173728,-0.00976,-15.33875,-0.91875,5.27625,42.624,4.6,52.280003,concentric,6,3.0,22430.0,311678.0,277602.0,322295.0,283626.0
2026-04-07 18:04:58.287321,399643,2168628699,2168629313,-1.0248,0.173728,-0.00976,-17.68375,-1.35625,4.97,42.624,4.6,52.280003,concentric,6,3.0,22301.0,310782.0,276901.0,321648.0,283104.0
2026-04-07 18:04:58.291380,399644,2168637915,2168640163,-1.069696,0.197152,0.046848,-15.25125,-2.00375,4.87375,42.072002,4.208,53.456,concentric,6,3.0,22301.0,310782.0,276901.0,321648.0,283104.0
2026-04-07 18:04:58.293078,399645,2168646891,2168648905,-1.069696,0.197152,0.046848,-13.755,-3.22,4.2525,42.072002,4.208,53.456,concentric,6,3.0,22301.0,310782.0,276901.0,321648.0,283104.0
2026-04-07 18:04:58.295056,399646,2168655839,2168657621,-1.100928,0.134688,0.091744,-15.98625,-4.24375,3.5,42.120003,3.992,53.064003,concentric,6,3.0,22301.0,310782.0,276901.0,321648.0,283104.0
2026-04-07 18:04:58.305855,399647,2168670353,2168672597,-1.100928,0.134688,0.091744,-19.80125,-5.32,1.4175,42.120003,3.992,53.064003,concentric,6,3.0,22301.0,310782.0,276901.0,321648.0,283104.0
2026-04-07 18:04:58.332971,399648,2168679322,2168681322,-1.194624,0.081984,0.083936,-18.2175,-6.67625,-0.42,41.68,4.04,52.104004,concentric,6,3.0,22301.0,310782.0,276901.0,321648.0,283104.0
2026-04-07 18:04:58.336038,399649,2168688259,2168690032,-1.194624,0.081984,0.083936,-11.94375,-8.6275,-1.5575,41.68,4.04,52.104004,concentric,6,3.0,22301.0,310782.0,276901.0,321648.0,283104.0
2026-04-07 18:04:58.340363,399650,2168702763,2168704929,-1.175104,0.103456,0.085888,-4.62,-10.2025,-1.63625,41.632004,3.76,52.344,concentric,6,3.0,22301.0,310782.0,276901.0,321648.0,283104.0
2026-04-07 18:04:58.342375,399651,2168711731,2168713649,-1.175104,0.103456,0.085888,1.77625,-11.4625,-1.6975,41.632004,3.76,52.344,concentric,6,3.0,22301.0,310782.0,276901.0,321648.0,283104.0
2026-04-07 18:04:58.373929,399652,2168720741,2168722359,-1.120448,0.179584,0.089792,5.075,-11.92625,-0.25375,42.024002,3.728,53.848003,concentric,6,3.0,22301.0,310782.0,276901.0,321648.0,283104.0
2026-04-07 18:04:58.405927,399663,2168735354,2168737291,-1.075552,0.197152,0.062464,4.64625,-12.74,3.14125,42.128002,3.952,53.848003,concentric,6,3.0,22292.0,310339.0,276392.0,320964.0,282541.0
2026-04-07 18:04:58.407266,399664,2168744309,2168745976,-1.075552,0.197152,0.062464,-1.1375,-12.005,5.4425,42.128002,3.952,53.848003,concentric,6,3.0,22292.0,310339.0,276392.0,320964.0,282541.0
2026-04-07 18:04:58.408610,399665,2168753256,2168754698,-1.075552,0.197152,0.031232,-11.01625,-12.355001,8.39125,42.128002,3.952,53.848003,concentric,6,3.0,22292.0,310339.0,276392.0,320964.0,282541.0
2026-04-07 18:04:58.447072,399666,2168762279,2168763422,-1.0248,0.132736,0.035136,-19.01375,-12.845,10.4825,42.000004,4.528,52.648003,concentric,6,3.0,22292.0,310339.0,276392.0,320964.0,282541.0
2026-04-07 18:04:58.449313,399667,2168776919,2168778442,-1.057984,0.0976,-0.017568,-24.8325,-12.1625,10.8325,41.576,3.744,55.016003,concentric,6,3.0,22292.0,310339.0,276392.0,320964.0,282541.0
2026-04-07 18:04:58.454024,399668,2168785885,2168787138,-1.057984,0.0976,-0.017568,-27.64125,-11.19125,9.63375,41.576,3.744,55.016003,concentric,6,3.0,22292.0,310339.0,276392.0,320964.0,282541.0
2026-04-07 18:04:58.455650,399669,2168794789,2168795895,-1.046272,0.10736,-0.040992,-28.245,-11.12125,7.3675,41.472,4.32,52.984,concentric,6,3.0,22292.0,310339.0,276392.0,320964.0,282541.0
2026-04-07 18:04:58.457225,399670,2168809264,2168810797,-1.046272,0.10736,-0.040992,-27.04625,-12.11,5.7925,41.472,4.32,52.984,concentric,6,3.0,22292.0,310339.0,276392.0,320964.0,282541.0
2026-04-07 18:04:58.460655,399671,2168818176,2168819497,-1.03456,0.148352,-0.033184,-24.99875,-13.60625,4.4275,41.448,4.816001,52.472004,concentric,6,3.0,22292.0,310339.0,276392.0,320964.0,282541.0
2026-04-07 18:04:58.485953,399681,2168827443,2168828240,-1.03456,0.148352,-0.033184,-21.79625,-14.02625,3.7975,41.448,4.816001,52.472004,concentric,6,3.0,21344.0,301988.0,269143.0,313079.0,276020.0
2026-04-07 18:04:58.489069,399682,2168836886,2168839144,-1.042368,0.179584,0.003904,-19.48625,-13.86,4.24375,40.992,4.696,53.992004,concentric,6,3.0,21344.0,301988.0,269143.0,313079.0,276020.0
2026-04-07 18:04:58.490743,399683,2168851520,2168851991,-1.042368,0.179584,0.003904,-19.60875,-14.21,4.08625,40.992,4.696,53.992004,concentric,6,3.0,21344.0,301988.0,269143.0,313079.0,276020.0
2026-04-07 18:04:58.492254,399684,2168860886,2168862750,-1.065792,0.152256,0.060512,-22.7325,-15.04125,3.15,41.176003,4.744,54.088,concentric,6,3.0,21344.0,301988.0,269143.0,313079.0,276020.0
2026-04-07 18:04:58.523580,399685,2168869815,2168871509,-1.065792,0.152256,0.060512,-24.94625,-15.4,2.56375,41.176003,4.744,54.088,concentric,6,3.0,21344.0,301988.0,269143.0,313079.0,276020.0
2026-04-07 18:04:58.526861,399686,2168884336,2168886396,-1.065792,0.122976,0.062464,-24.045,-16.31,2.54625,41.328003,5.464,53.160004,concentric,6,3.0,21344.0,301988.0,269143.0,313079.0,276020.0
2026-04-07 18:04:58.529220,399687,2168893259,2168895069,-1.065792,0.122976,0.062464,-20.055,-17.68375,2.66,41.328003,5.464,53.160004,concentric,6,3.0,21344.0,301988.0,269143.0,313079.0,276020.0
2026-04-07 18:04:58.534302,399688,2168902185,2168903769,-1.071648,0.140544,0.062464,-16.905,-16.93125,1.9425,40.696003,5.624,53.992004,concentric,6,3.0,21344.0,301988.0,269143.0,313079.0,276020.0
2026-04-07 18:04:58.564845,399689,2168911125,2168912523,-1.071648,0.140544,0.062464,-17.22875,-16.45,-0.11375,40.696003,5.624,53.992004,concentric,6,3.0,21344.0,301988.0,269143.0,313079.0,276020.0
2026-04-07 18:04:58.603584,399699,2168925601,2168927427,-1.106784,0.132736,0.060512,-18.0425,-15.645,-1.84625,41.344,5.472,54.264004,concentric,6,3.0,21530.0,303154.0,269966.0,313786.0,276644.0
2026-04-07 18:04:58.607682,399700,2168935023,2168936194,-1.056032,0.167872,0.083936,-16.8525,-16.16125,-1.05,40.544003,5.552,53.280003,concentric,6,3.0,21530.0,303154.0,269966.0,313786.0,276644.0
2026-04-07 18:04:58.609362,399701,2168943937,2168944890,-1.056032,0.167872,0.083936,-14.84,-15.47875,-0.42,40.544003,5.552,53.280003,concentric,6,3.0,21530.0,303154.0,269966.0,313786.0,276644.0
2026-04-07 18:04:58.611122,399702,2168958582,2168959829,-1.048224,0.21472,0.130784,-13.055,-13.92125,1.085,40.888,5.184,53.576004,concentric,6,3.0,21530.0,303154.0,269966.0,313786.0,276644.0
2026-04-07 18:04:58.613435,399703,2168967464,2168968558,-1.048224,0.21472,0.130784,-13.02875,-12.6525,2.0475,40.888,5.184,53.576004,concentric,6,3.0,21530.0,303154.0,269966.0,313786.0,276644.0
2026-04-07 18:04:58.617538,399704,2168976360,2168977267,-1.06384,0.1952,0.121024,-17.38625,-11.31375,1.14625,40.656002,5.480001,54.584003,concentric,6,3.0,21530.0,303154.0,269966.0,313786.0,276644.0
2026-04-07 18:04:58.623813,399705,2168990950,2168992230,-1.06384,0.1952,0.121024,-23.68625,-10.01,1.18125,40.656002,5.480001,54.584003,concentric,6,3.0,21530.0,303154.0,269966.0,313786.0,276644.0
2026-04-07 18:04:58.652377,399706,2168999853,2169001020,-1.057984,0.193248,0.134688,-28.42,-8.6975,1.61,40.736,5.576,53.416004,concentric,6,3.0,21530.0,303154.0,269966.0,313786.0,276644.0
2026-04-07 18:04:58.656865,399707,2169008742,2169009699,-1.057984,0.193248,0.134688,-33.4775,-7.21,-0.035,40.736,5.576,53.416004,concentric,6,3.0,21530.0,303154.0,269966.0,313786.0,276644.0
2026-04-07 18:04:58.658342,399708,2169017661,2169018414,-1.098976,0.13664,0.101504,-39.69875,-5.425,-0.4725,41.008003,6.088,53.248,concentric,6,3.0,21530.0,303154.0,269966.0,313786.0,276644.0
2026-04-07 18:04:58.695191,399719,2169032688,2169033395,-1.098976,0.13664,0.101504,-45.6575,-5.08375,0.70875,41.008003,6.088,53.248,concentric,6,3.0,21379.0,301611.0,268473.0,311993.0,274966.0
2026-04-07 18:04:58.696833,399720,2169042032,2169044213,-1.081408,0.07808,0.0488,-47.31125,-5.8625,1.12875,40.376003,6.376,55.08,concentric,6,3.0,21379.0,301611.0,268473.0,311993.0,274966.0
2026-04-07 18:04:58.698392,399721,2169051042,2169052917,-1.081408,0.07808,0.0488,-44.44125,-5.67,2.485,40.376003,6.376,55.08,concentric,6,3.0,21379.0,301611.0,268473.0,311993.0,274966.0
2026-04-07 18:04:58.702526,399722,2169065570,2169067807,-1.057984,0.0488,0.091744,-39.75125,-6.405,3.0975,40.728,7.304,53.04,concentric,6,3.0,21379.0,301611.0,268473.0,311993.0,274966.0
2026-04-07 18:04:58.706380,399723,2169074512,2169076569,-1.057984,0.0488,0.091744,-37.835,-7.1225,4.305,40.728,7.304,53.04,concentric,6,3.0,21379.0,301611.0,268473.0,311993.0,274966.0
2026-04-07 18:04:58.743575,399724,2169083456,2169085270,-1.067744,0.027328,0.12688,-35.638752,-8.82,5.99375,40.488003,7.104001,52.920002,concentric,6,3.0,21379.0,301611.0,268473.0,311993.0,274966.0
2026-04-07 18:04:58.747849,399725,2169092395,2169093962,-1.067744,0.027328,0.12688,-27.95625,-11.4625,6.5275,40.488003,7.104001,52.920002,concentric,6,3.0,21379.0,301611.0,268473.0,311993.0,274966.0
2026-04-07 18:04:58.749469,399726,2169106863,2169108883,-1.08336,0.10736,0.16592,-14.91,-14.105001,7.49,40.288002,6.896,53.048004,concentric,6,3.0,21379.0,301611.0,268473.0,311993.0,274966.0
2026-04-07 18:04:58.751742,399727,2169115769,2169117632,-1.075552,0.249856,0.183488,-1.61875,-16.4675,6.6325,40.120003,7.304,53.584003,concentric,6,3.0,21379.0,301611.0,268473.0,311993.0,274966.0
2026-04-07 18:04:58.757642,399728,2169124754,2169126336,-1.075552,0.249856,0.183488,6.97375,-17.35125,7.34125,40.120003,7.304,53.584003,concentric,6,3.0,21379.0,301611.0,268473.0,311993.0,274966.0
2026-04-07 18:04:58.780899,399738,2169139279,2169141302,-1.048224,0.286944,0.154208,11.75125,-18.01625,4.59375,40.0,6.392,54.808002,concentric,6,3.0,21124.0,299732.0,267096.0,310800.0,274210.0
2026-04-07 18:04:58.788994,399739,2169148229,2169150061,-1.048224,0.286944,0.154208,13.04625,-18.5325,0.14,40.0,6.392,54.808002,concentric,6,3.0,21124.0,299732.0,267096.0,310800.0,274210.0
2026-04-07 18:04:58.790554,399740,2169157280,2169158829,-0.989664,0.269376,0.130784,9.5375,-17.78,1.46125,39.976,6.112001,53.520004,concentric,6,3.0,21124.0,299732.0,267096.0,310800.0,274210.0
2026-04-07 18:04:58.820793,399741,2169171783,2169173747,-0.989664,0.269376,0.130784,4.12125,-16.24875,-3.08,39.976,6.112001,53.520004,concentric,6,3.0,21124.0,299732.0,267096.0,310800.0,274210.0
2026-04-07 18:04:58.823046,399742,2169180684,2169182457,-0.98576,0.171776,0.128832,1.47,-16.38,-3.89375,40.176003,6.576,54.296,concentric,6,3.0,21124.0,299732.0,267096.0,310800.0,274210.0
2026-04-07 18:04:58.827878,399743,2169189624,2169191139,-0.98576,0.171776,0.128832,-0.315,-15.198751,-4.6375,40.176003,6.576,54.296,concentric,6,3.0,21124.0,299732.0,267096.0,310800.0,274210.0
2026-04-07 18:04:58.830122,399744,2169198543,2169199885,-1.003328,0.080032,0.103456,0.9275,-15.2425,-5.6525,39.936,6.856,54.088,concentric,6,3.0,21124.0,299732.0,267096.0,310800.0,274210.0
2026-04-07 18:04:58.858602,399745,2169213045,2169214824,-1.003328,0.080032,0.103456,3.87625,-14.7175,-5.94125,39.936,6.856,54.088,concentric,6,3.0,21124.0,299732.0,267096.0,310800.0,274210.0
2026-04-07 18:04:58.863191,399746,2169221985,2169223520,-1.003328,0.121024,0.081984,11.15625,-14.315001,-6.09,40.064003,6.704001,54.496002,concentric,6,3.0,21124.0,299732.0,267096.0,310800.0,274210.0
2026-04-07 18:04:58.888260,399756,2169231363,2169232401,-1.003328,0.121024,0.081984,17.73625,-12.74,-6.405,40.064003,6.704001,54.496002,concentric,6,3.0,21729.0,305545.0,272392.0,316831.0,279403.0
2026-04-07 18:04:58.889641,399757,2169246014,2169247350,-0.989664,0.1952,0.122976,22.00625,-12.08375,-6.20375,39.008003,6.192,56.120003,concentric,6,3.0,21729.0,305545.0,272392.0,316831.0,279403.0
2026-04-07 18:04:58.893932,399758,2169255060,2169256080,-0.989664,0.1952,0.122976,20.18625,-9.7125,-5.73125,39.008003,6.192,56.120003,concentric,6,3.0,21729.0,305545.0,272392.0,316831.0,279403.0
2026-04-07 18:04:58.895500,399759,2169263982,2169264846,-0.968192,0.193248,0.12688,13.2125,-7.27125,-5.7925,38.976,6.568,54.616,concentric,6,3.0,21729.0,305545.0,272392.0,316831.0,279403.0
2026-04-07 18:04:58.925823,399760,2169278461,2169279735,-0.948672,0.0976,0.0976,2.135,-5.705,-4.235,39.72,6.920001,55.368004,concentric,6,3.0,21729.0,305545.0,272392.0,316831.0,279403.0
2026-04-07 18:04:58.930286,399761,2169287467,2169288458,-0.948672,0.0976,0.0976,-5.80125,-4.655,-2.21375,39.72,6.920001,55.368004,concentric,6,3.0,21729.0,305545.0,272392.0,316831.0,279403.0
2026-04-07 18:04:58.931777,399762,2169296387,2169297150,-0.948672,0.046848,0.037088,-5.3725,-3.08,-1.84625,39.72,6.920001,53.672,concentric,6,3.0,21729.0,305545.0,272392.0,316831.0,279403.0
2026-04-07 18:04:58.939109,399763,2169305820,2169307918,-0.948672,0.046848,0.037088,-0.805,-1.575,-1.37375,39.440002,7.024,53.672,concentric,6,3.0,21729.0,305545.0,272392.0,316831.0,279403.0
2026-04-07 18:04:58.970793,399764,2169320392,2169320779,-1.022848,0.113216,0.023424,4.585,-0.49875,-2.68625,39.512,6.216,56.656002,concentric,6,3.0,21729.0,305545.0,272392.0,316831.0,279403.0
2026-04-07 18:04:58.998488,399775,2169329725,2169331677,-1.022848,0.113216,0.023424,14.74375,0.9625,-5.03125,39.512,6.216,56.656002,concentric,6,3.0,22293.0,311523.0,277940.0,323250.0,284845.0
2026-04-07 18:04:59.005226,399776,2169338730,2169340411,-0.98576,0.21472,0.08784,23.24,0.91,-5.3025,39.320004,6.184001,55.656002,concentric,6,3.0,22293.0,311523.0,277940.0,323250.0,284845.0
2026-04-07 18:04:59.006907,399777,2169347766,2169349106,-0.98576,0.21472,0.08784,25.05125,1.7325,-6.15125,39.320004,6.184001,55.656002,concentric,6,3.0,22293.0,311523.0,277940.0,323250.0,284845.0
2026-04-07 18:04:59.008410,399778,2169362303,2169364036,-1.022848,0.187392,0.10736,20.58,3.185,-8.3475,39.320004,6.432,55.664,concentric,6,3.0,22293.0,311523.0,277940.0,323250.0,284845.0
2026-04-07 18:04:59.048540,399779,2169371324,2169372741,-1.022848,0.187392,0.10736,15.25125,5.1275,-9.0125,39.320004,6.432,55.664,concentric,6,3.0,22293.0,311523.0,277940.0,323250.0,284845.0
2026-04-07 18:04:59.048632,399780,2169380310,2169381525,-1.038464,0.158112,0.0976,13.667501,5.845,-9.24875,39.184002,6.072001,55.840004,concentric,6,3.0,22293.0,311523.0,277940.0,323250.0,284845.0
2026-04-07 18:04:59.049649,399781,2169394826,2169396427,-1.038464,0.158112,0.0976,14.81375,6.44875,-10.21125,39.184002,6.072001,55.840004,concentric,6,3.0,22293.0,311523.0,277940.0,323250.0,284845.0
2026-04-07 18:04:59.053921,399782,2169403733,2169405127,-1.079456,0.181536,0.103456,17.35125,7.63,-11.19125,39.600002,5.536,55.920002,concentric,6,3.0,22293.0,311523.0,277940.0,323250.0,284845.0
2026-04-07 18:04:59.055677,399783,2169412712,2169413808,-1.079456,0.181536,0.103456,19.38125,8.645,-12.50375,39.600002,5.536,55.920002,concentric,6,3.0,22293.0,311523.0,277940.0,323250.0,284845.0
2026-04-07 18:04:59.083473,399793,2169427243,2169429222,-1.09312,0.220576,0.11712,19.285,10.2725,-13.667501,39.424004,5.808,56.424004,concentric,6,3.0,22706.0,315300.0,281276.0,326999.0,288002.0
2026-04-07 18:04:59.087712,399794,2169436347,2169437961,-1.09312,0.220576,0.11712,15.91625,11.17375,-14.4025,39.424004,5.808,56.424004,concentric,6,3.0,22706.0,315300.0,281276.0,326999.0,288002.0
2026-04-07 18:04:59.089395,399795,2169445363,2169446728,-1.087264,0.158112,0.115168,12.20625,11.66375,-14.5075,39.296,5.664,57.728004,concentric,6,3.0,22706.0,315300.0,281276.0,326999.0,288002.0
2026-04-07 18:04:59.090985,399796,2169454382,2169455426,-1.087264,0.158112,0.115168,11.82125,12.075,-13.755,39.296,5.664,57.728004,concentric,6,3.0,22706.0,315300.0,281276.0,326999.0,288002.0
2026-04-07 18:04:59.122001,399797,2169468924,2169470334,-1.098976,0.142496,0.11712,15.46125,12.46875,-13.04625,39.576,5.44,57.688004,concentric,6,3.0,22706.0,315300.0,281276.0,326999.0,288002.0
2026-04-07 18:04:59.123940,399798,2169477850,2169479053,-1.098976,0.162016,0.103456,17.955,12.5825,-13.0025,39.512,5.056,56.120003,concentric,6,3.0,22706.0,315300.0,281276.0,326999.0,288002.0
2026-04-07 18:04:59.128009,399799,2169486782,2169487729,-1.098976,0.162016,0.103456,20.57125,11.8825,-12.76625,39.512,5.056,56.120003,concentric,6,3.0,22706.0,315300.0,281276.0,326999.0,288002.0
2026-04-07 18:04:59.135037,399800,2169501274,2169502618,-1.124352,0.181536,0.109312,23.23125,11.655,-12.11875,39.904003,5.024,56.328003,concentric,6,3.0,22706.0,315300.0,281276.0,326999.0,288002.0
2026-04-07 18:04:59.163648,399801,2169510199,2169511330,-1.124352,0.181536,0.109312,25.99625,12.52125,-11.795,39.904003,5.024,56.328003,concentric,6,3.0,22706.0,315300.0,281276.0,326999.0,288002.0
2026-04-07 18:04:59.168220,399802,2169519109,2169519994,-1.124352,0.179584,0.12688,28.9625,11.55,-12.53875,39.408,5.016,56.960003,concentric,6,3.0,22706.0,315300.0,281276.0,326999.0,288002.0
2026-04-07 18:04:59.208020,399812,2169533757,2169535003,-1.124352,0.179584,0.12688,33.0225,11.2875,-12.4775,39.408,5.016,56.960003,concentric,6,3.0,22756.0,316065.0,282070.0,328011.0,288791.0
2026-04-07 18:04:59.209353,399813,2169542807,2169543801,-1.11264,0.201056,0.163968,34.88625,11.725,-13.09,39.872,4.512,57.216003,concentric,6,3.0,22756.0,316065.0,282070.0,328011.0,288791.0
2026-04-07 18:04:59.210934,399814,2169552560,2169554605,-1.11264,0.201056,0.163968,33.915,12.3025,-13.1075,39.872,4.512,57.216003,concentric,6,3.0,22756.0,316065.0,282070.0,328011.0,288791.0
2026-04-07 18:04:59.215202,399815,2169561558,2169563320,-1.100928,0.18544,0.15616,29.63625,11.85625,-13.02,40.320004,4.304,57.272003,concentric,6,3.0,22756.0,316065.0,282070.0,328011.0,288791.0
2026-04-07 18:04:59.218063,399816,2169576076,2169578267,-1.100928,0.18544,0.15616,24.053751,11.375,-11.94375,40.320004,4.304,57.272003,concentric,6,3.0,22756.0,316065.0,282070.0,328011.0,288791.0
2026-04-07 18:04:59.223914,399817,2169585030,2169586983,-1.097024,0.132736,0.132736,19.81875,10.2725,-10.49125,40.04,3.76,60.456,concentric,6,3.0,22756.0,316065.0,282070.0,328011.0,288791.0
2026-04-07 18:04:59.225405,399818,2169593992,2169595707,-1.097024,0.132736,0.132736,18.5675,9.40625,-8.75875,40.04,3.76,60.456,concentric,6,3.0,22756.0,316065.0,282070.0,328011.0,288791.0
2026-04-07 18:04:59.255739,399819,2169608499,2169610628,-1.098976,0.128832,0.134688,19.99375,8.417501,-7.1225,39.848003,4.16,57.176003,concentric,6,3.0,22756.0,316065.0,282070.0,328011.0,288791.0
2026-04-07 18:04:59.260037,399820,2169617442,2169619336,-1.098976,0.160064,0.150304,23.86125,7.5075,-6.95625,39.848003,4.16,57.176003,concentric,6,3.0,22756.0,316065.0,282070.0,328011.0,288791.0
2026-04-07 18:04:59.266336,399821,2169626361,2169628021,-1.09312,0.16592,0.150304,27.4225,6.64125,-7.51625,39.872,3.456,56.032,concentric,6,3.0,22756.0,316065.0,282070.0,328011.0,288791.0
2026-04-07 18:04:59.292976,399832,2169635403,2169636738,-1.09312,0.16592,0.150304,29.365,5.6525,-8.35625,39.872,3.456,56.032,concentric,6,3.0,22544.0,314309.0,280592.0,326417.0,287444.0
2026-04-07 18:04:59.300234,399833,2169650072,2169651706,-1.077504,0.162016,0.187392,29.47875,4.13,-8.81125,40.160004,3.52,57.696003,concentric,6,3.0,22544.0,314309.0,280592.0,326417.0,287444.0
2026-04-07 18:04:59.301851,399834,2169659086,2169660460,-1.05408,0.150304,0.187392,29.61,2.75625,-9.1525,40.144,2.824,54.440002,concentric,6,3.0,22544.0,314309.0,280592.0,326417.0,287444.0
2026-04-07 18:04:59.303397,399835,2169668035,2169669181,-1.05408,0.150304,0.187392,30.2925,1.65375,-9.87875,40.144,2.824,54.440002,concentric,6,3.0,22544.0,314309.0,280592.0,326417.0,287444.0
2026-04-07 18:04:59.353318,399836,2169682625,2169684163,-1.04432,0.150304,0.16592,31.98125,0.23625,-10.54375,39.776,2.76,59.192,concentric,6,3.0,22544.0,314309.0,280592.0,326417.0,287444.0
2026-04-07 18:04:59.355549,399837,2169691614,2169692848,-1.04432,0.150304,0.16592,33.81,-0.6125,-11.2525,39.776,2.76,59.192,concentric,6,3.0,22544.0,314309.0,280592.0,326417.0,287444.0
2026-04-07 18:04:59.360120,399838,2169700509,2169701564,-1.011136,0.169824,0.152256,34.3175,-1.0325,-11.9,39.784,1.848,58.752003,concentric,6,3.0,22544.0,314309.0,280592.0,326417.0,287444.0
2026-04-07 18:04:59.361833,399839,2169714992,2169716531,-1.011136,0.169824,0.152256,33.73125,-1.505,-12.985,39.784,1.848,58.752003,concentric,6,3.0,22544.0,314309.0,280592.0,326417.0,287444.0
2026-04-07 18:04:59.363463,399840,2169723966,2169725226,-1.001376,0.197152,0.13664,32.6375,-1.60125,-13.9475,39.984,2.288,58.984,concentric,6,3.0,22544.0,314309.0,280592.0,326417.0,287444.0
2026-04-07 18:04:59.391810,399850,2169733468,2169734023,-1.001376,0.197152,0.13664,31.10625,-1.5225,-14.60375,39.984,2.288,58.984,concentric,6,3.0,22648.0,315565.0,281753.0,327801.0,288666.0
2026-04-07 18:04:59.394381,399851,2169743107,2169744832,-1.003328,0.1952,0.15616,29.26875,-1.505,-15.18125,39.392002,1.656,60.152004,concentric,6,3.0,22648.0,315565.0,281753.0,327801.0,288666.0
2026-04-07 18:04:59.396260,399852,2169757713,2169759868,-1.003328,0.1952,0.171776,28.411251,-1.00625,-15.5575,39.392002,1.656,60.152004,concentric,6,3.0,22648.0,315565.0,281753.0,327801.0,288666.0
2026-04-07 18:04:59.399990,399853,2169766667,2169768590,-1.003328,0.163968,0.171776,29.33,-1.28625,-16.09125,39.672,1.016,60.504,concentric,6,3.0,22648.0,315565.0,281753.0,327801.0,288666.0
2026-04-07 18:04:59.443265,399854,2169775602,2169777287,-1.003328,0.163968,0.171776,29.855,-1.63625,-17.28125,39.672,1.016,60.504,concentric,6,3.0,22648.0,315565.0,281753.0,327801.0,288666.0
2026-04-07 18:04:59.447528,399855,2169784525,2169785969,-1.028704,0.124928,0.140544,29.7325,-1.70625,-19.285,39.480003,1.056,59.176003,concentric,6,3.0,22648.0,315565.0,281753.0,327801.0,288666.0
2026-04-07 18:04:59.448746,399856,2169799019,2169800878,-0.991616,0.132736,0.115168,31.15,-1.6625,-20.97375,39.800003,0.968,59.896004,concentric,6,3.0,22648.0,315565.0,281753.0,327801.0,288666.0
2026-04-07 18:04:59.452679,399857,2169807920,2169809572,-0.991616,0.132736,0.115168,35.11375,-2.10875,-22.61875,39.800003,0.968,59.896004,concentric,6,3.0,22648.0,315565.0,281753.0,327801.0,288666.0
2026-04-07 18:04:59.455106,399858,2169816836,2169818250,-0.991616,0.132736,0.115168,39.06875,-2.73875,-24.0275,39.800003,0.968,59.896004,concentric,6,3.0,22648.0,315565.0,281753.0,327801.0,288666.0
2026-04-07 18:04:59.483910,399868,2169831542,2169833775,-0.962336,0.160064,0.101504,42.5775,-3.395,-23.7825,39.048,0.448,60.704002,concentric,6,3.0,22702.0,316000.0,282211.0,328351.0,289149.0
2026-04-07 18:04:59.485621,399869,2169840552,2169842533,-0.974048,0.15616,0.085888,42.735,-3.45625,-24.03625,38.904003,0.16,61.232002,concentric,6,3.0,22702.0,316000.0,282211.0,328351.0,289149.0
2026-04-07 18:04:59.487203,399870,2169849581,2169851244,-0.974048,0.15616,0.085888,41.265,-4.06,-25.31375,38.904003,0.16,61.232002,concentric,6,3.0,22702.0,316000.0,282211.0,328351.0,289149.0
2026-04-07 18:04:59.518229,399871,2169864136,2169866128,-0.979904,0.1464,0.095648,40.8625,-4.7425,-25.4625,38.656002,-0.12,62.992004,concentric,6,3.0,22702.0,316000.0,282211.0,328351.0,289149.0
2026-04-07 18:04:59.520509,399872,2169873066,2169874867,-0.979904,0.1464,0.095648,43.295002,-4.9,-25.50625,38.656002,-0.12,62.992004,concentric,6,3.0,22702.0,316000.0,282211.0,328351.0,289149.0
2026-04-07 18:04:59.525726,399873,2169881985,2169883555,-1.020896,0.1464,0.080032,43.32125,-4.095,-23.8,38.856003,-0.52,61.008003,concentric,6,3.0,22702.0,316000.0,282211.0,328351.0,289149.0
2026-04-07 18:04:59.529190,399874,2169896486,2169898449,-1.020896,0.1464,0.080032,43.44375,-3.01875,-22.54,38.856003,-0.52,61.008003,concentric,6,3.0,22702.0,316000.0,282211.0,328351.0,289149.0
2026-04-07 18:04:59.559543,399875,2169905400,2169907246,-1.056032,0.169824,0.103456,44.0125,-1.365,-21.98875,38.728,-0.752,61.480003,concentric,6,3.0,22702.0,316000.0,282211.0,328351.0,289149.0
2026-04-07 18:04:59.561888,399876,2169914337,2169915956,-1.056032,0.169824,0.103456,46.41,-0.035,-22.1025,38.728,-0.752,61.480003,concentric,6,3.0,22702.0,316000.0,282211.0,328351.0,289149.0
2026-04-07 18:04:59.566546,399877,2169923283,2169924641,-1.057984,0.20496,0.103456,46.48,0.8925,-22.9775,38.752003,-1.72,61.280003,concentric,6,3.0,22702.0,316000.0,282211.0,328351.0,289149.0
2026-04-07 18:04:59.593898,399887,2169937826,2169939582,-1.057984,0.20496,0.103456,44.3625,2.3975,-23.5375,38.752003,-1.72,61.280003,concentric,6,3.0,23595.0,323306.0,288461.0,335195.0,294805.0
2026-04-07 18:04:59.595634,399888,2169946837,2169948324,-1.100928,0.21472,0.08784,41.195,3.57,-23.73,38.264,-1.584,62.592003,concentric,6,3.0,23595.0,323306.0,288461.0,335195.0,294805.0
2026-04-07 18:04:59.597135,399889,2169955794,2169957043,-1.100928,0.21472,0.08784,37.1525,4.9,-24.185,38.264,-1.584,62.592003,concentric,6,3.0,23595.0,323306.0,288461.0,335195.0,294805.0
2026-04-07 18:04:59.602990,399890,2169970250,2169972001,-1.155584,0.218624,0.085888,33.6175,7.09625,-24.3075,38.480003,-2.032,62.944004,concentric,6,3.0,23595.0,323306.0,288461.0,335195.0,294805.0
2026-04-07 18:04:59.611646,399891,2169979199,2169980701,-1.155584,0.222528,0.070272,30.6425,8.26875,-24.465,38.480003,-2.032,62.944004,concentric,6,3.0,23595.0,323306.0,288461.0,335195.0,294805.0
2026-04-07 18:04:59.644596,399892,2169988190,2169989378,-1.186816,0.222528,0.070272,29.35625,9.56375,-23.695,38.480003,-2.12,63.448,concentric,6,3.0,23595.0,323306.0,288461.0,335195.0,294805.0
2026-04-07 18:04:59.647388,399893,2170002671,2170004324,-1.231712,0.210816,0.081984,26.1275,10.78,-22.19875,38.192,-2.52,61.976,concentric,6,3.0,23595.0,323306.0,288461.0,335195.0,294805.0
2026-04-07 18:04:59.651424,399894,2170011562,2170013012,-1.231712,0.210816,0.081984,20.72,12.573751,-20.125,38.192,-2.52,61.976,concentric,6,3.0,23595.0,323306.0,288461.0,335195.0,294805.0
2026-04-07 18:04:59.652958,399895,2170020471,2170021693,-1.243424,0.171776,0.15616,15.68,13.55375,-18.095,39.216003,-2.328,61.88,concentric,6,3.0,23595.0,323306.0,288461.0,335195.0,294805.0
2026-04-07 18:04:59.708407,399906,2170035521,2170036957,-1.243424,0.171776,0.15616,12.1975,14.72625,-15.14625,39.216003,-2.328,61.88,concentric,6,3.0,23809.0,324911.0,289724.0,336540.0,295874.0
2026-04-07 18:04:59.712664,399907,2170044438,2170045642,-1.274656,0.25376,0.28304,5.425,16.5725,-12.3375,39.04,-2.608,61.512,concentric,6,3.0,23809.0,324911.0,289724.0,336540.0,295874.0
2026-04-07 18:04:59.714505,399908,2170053373,2170054319,-1.274656,0.25376,0.28304,-4.05125,18.01625,-11.17375,39.04,-2.608,61.512,concentric,6,3.0,23809.0,324911.0,289724.0,336540.0,295874.0
2026-04-07 18:04:59.716107,399909,2170062303,2170063028,-1.39568,0.236192,0.189344,-11.96125,17.80625,-11.27875,38.616,-2.232,62.616,concentric,6,3.0,23809.0,324911.0,289724.0,336540.0,295874.0
2026-04-07 18:04:59.720122,399910,2170077269,2170077979,-1.39568,0.236192,0.189344,-12.25875,15.05875,-9.03875,38.616,-2.232,62.616,concentric,6,3.0,23809.0,324911.0,289724.0,336540.0,295874.0
2026-04-07 18:04:59.721665,399911,2170086611,2170088812,-1.413248,0.197152,0.177632,-3.91125,11.095,-5.845,39.528004,-2.488,62.4,concentric,6,3.0,23809.0,324911.0,289724.0,336540.0,295874.0
2026-04-07 18:04:59.728843,399912,2170095570,2170097531,-1.413248,0.197152,0.177632,9.02125,6.265,-2.3975,39.528004,-2.488,62.4,concentric,6,3.0,23809.0,324911.0,289724.0,336540.0,295874.0
2026-04-07 18:04:59.757303,399913,2170104492,2170106221,-1.42496,0.230336,0.23424,21.2975,1.715,-1.16375,39.144,-2.736,62.424004,concentric,6,3.0,23809.0,324911.0,289724.0,336540.0,295874.0
2026-04-07 18:04:59.761678,399914,2170118985,2170121135,-1.42496,0.230336,0.23424,26.635,-0.58625,-0.84875,39.144,-2.736,62.424004,concentric,6,3.0,23809.0,324911.0,289724.0,336540.0,295874.0
2026-04-07 18:04:59.767682,399915,2170127899,2170129821,-1.48352,0.249856,0.245952,21.647501,-2.0125,-1.67125,39.008003,-2.544,63.808002,concentric,6,3.0,23809.0,324911.0,289724.0,336540.0,295874.0
2026-04-07 18:04:59.795664,399925,2170136974,2170138588,-1.48352,0.249856,0.245952,11.76875,-3.08875,-1.12,39.008003,-2.544,63.808002,concentric,6,3.0,23972.0,326397.0,290918.0,337860.0,296935.0
2026-04-07 18:04:59.797231,399926,2170151529,2170153532,-1.501088,0.15616,0.236192,4.12125,-4.31375,0.5775,38.088,-2.88,64.200005,concentric,6,3.0,23972.0,326397.0,290918.0,337860.0,296935.0
2026-04-07 18:04:59.801437,399927,2170160536,2170162297,-1.50304,0.128832,0.251808,2.03875,-5.985,3.0275,38.088,-2.64,62.376003,concentric,6,3.0,23972.0,326397.0,290918.0,337860.0,296935.0
2026-04-07 18:04:59.802936,399928,2170169539,2170171026,-1.50304,0.128832,0.251808,4.03375,-8.12,5.29375,38.688004,-2.64,62.376003,concentric,6,3.0,23972.0,326397.0,290918.0,337860.0,296935.0
2026-04-07 18:04:59.833186,399929,2170184030,2170186009,-1.479616,0.15616,0.247904,7.5775,-10.47375,6.9825,38.88,-3.416,61.992004,concentric,6,3.0,23972.0,326397.0,290918.0,337860.0,296935.0
2026-04-07 18:04:59.835537,399930,2170193001,2170194768,-1.479616,0.15616,0.247904,9.135,-12.43375,9.63375,38.88,-3.416,61.992004,concentric,6,3.0,23972.0,326397.0,290918.0,337860.0,296935.0
2026-04-07 18:04:59.839341,399931,2170201958,2170203474,-1.442528,0.189344,0.216672,7.8575,-14.63875,10.71875,38.064003,-3.112,61.672005,concentric,6,3.0,23972.0,326397.0,290918.0,337860.0,296935.0
2026-04-07 18:04:59.840916,399932,2170210937,2170212222,-1.442528,0.189344,0.216672,5.94125,-17.08,12.2325,38.064003,-3.112,61.672005,concentric,6,3.0,23972.0,326397.0,290918.0,337860.0,296935.0
