pc_time,serial_num,sensor_ts,host_ts,ax,ay,az,gx,gy,gz,mx,my,mz,phase,rpe,weight_kg,ppg_a,ppg_b,ppg_c,ppg_d,ppg_e
2026-04-07 18:05:06.436752,401164,2176774050,2176775213,-1.013088,0.12688,0.052704,-27.1075,8.47,1.715,42.624,6.024,53.320004,eccentric,6,3.0,23603.0,324383.0,289572.0,336908.0,296484.0
2026-04-07 18:05:06.439315,401165,2176788551,2176790264,-1.013088,0.12688,0.052704,-21.09625,8.0325,3.00125,42.624,6.024,53.320004,eccentric,6,3.0,23603.0,324383.0,289572.0,336908.0,296484.0
2026-04-07 18:05:06.440882,401166,2176797512,2176799032,-1.013088,0.179584,0.042944,-8.72375,6.39625,4.83,41.736004,6.408001,52.824,eccentric,6,3.0,23603.0,324383.0,289572.0,336908.0,296484.0
2026-04-07 18:05:06.444952,401167,2176806495,2176807759,-1.013088,0.179584,0.042944,5.62625,5.66125,6.97375,41.736004,6.408001,52.824,eccentric,6,3.0,23603.0,324383.0,289572.0,336908.0,296484.0
2026-04-07 18:05:06.473500,401168,2176821023,2176822632,-0.96624,0.20496,0.00976,11.165,5.55625,7.13125,41.792004,6.264,53.976,eccentric,6,3.0,23603.0,324383.0,289572.0,336908.0,296484.0
2026-04-07 18:05:06.478011,401169,2176830027,2176831335,-0.96624,0.152256,0.011712,6.615,7.56875,4.4275,41.792004,6.264,53.976,eccentric,6,3.0,23603.0,324383.0,289572.0,336908.0,296484.0
2026-04-07 18:05:06.479469,401170,2176838951,2176840075,-1.0248,0.152256,0.011712,0.1925,10.03625,-0.07875,43.264004,6.248,52.864002,eccentric,6,3.0,23603.0,324383.0,289572.0,336908.0,296484.0
2026-04-07 18:05:06.484339,401171,2176847849,2176848765,-1.0248,0.152256,0.011712,1.5225,11.8825,-4.55875,43.264004,6.248,52.864002,eccentric,6,3.0,23603.0,324383.0,289572.0,336908.0,296484.0
2026-04-07 18:05:06.543216,401172,2176862378,2176863735,-1.048224,0.193248,0.033184,7.6125,12.73125,-8.5225,43.112003,6.248,53.432003,eccentric,6,3.0,23603.0,324383.0,289572.0,336908.0,296484.0
2026-04-07 18:05:06.570103,401182,2176871363,2176872604,-1.05408,0.21472,0.003904,13.335,13.02875,-11.54125,43.016003,6.584,53.144,eccentric,6,3.0,23910.0,327180.0,291997.0,339741.0,298848.0
2026-04-07 18:05:06.571761,401183,2176880331,2176881295,-1.05408,0.21472,0.003904,14.79625,13.195,-14.16625,43.016003,6.584,53.144,eccentric,6,3.0,23910.0,327180.0,291997.0,339741.0,298848.0
2026-04-07 18:05:06.573316,401184,2176894788,2176896209,-1.0736,0.18544,-0.00976,12.27625,12.87125,-15.785,43.392002,6.456,53.856003,eccentric,6,3.0,23910.0,327180.0,291997.0,339741.0,298848.0
2026-04-07 18:05:06.577597,401185,2176903697,2176904911,-1.0736,0.18544,-0.00976,9.45875,13.265,-16.56375,43.392002,6.456,53.856003,eccentric,6,3.0,23910.0,327180.0,291997.0,339741.0,298848.0
2026-04-07 18:05:06.579302,401186,2176912556,2176913633,-1.077504,0.121024,-0.00976,7.81375,13.9125,-17.745,43.272003,6.384,53.352,eccentric,6,3.0,23910.0,327180.0,291997.0,339741.0,298848.0
2026-04-07 18:05:06.580890,401187,2176927039,2176928517,-1.077504,0.121024,-0.00976,8.39125,14.11375,-18.3225,43.272003,6.384,53.352,eccentric,6,3.0,23910.0,327180.0,291997.0,339741.0,298848.0
2026-04-07 18:05:06.585065,401188,2176936044,2176937263,-1.104832,0.111264,-0.015616,10.91125,14.0175,-18.7075,42.592003,6.08,54.016003,eccentric,6,3.0,23910.0,327180.0,291997.0,339741.0,298848.0
2026-04-07 18:05:06.586621,401189,2176945009,2176945977,-1.104832,0.111264,-0.015616,13.658751,13.93,-18.9525,42.592003,6.08,54.016003,eccentric,6,3.0,23910.0,327180.0,291997.0,339741.0,298848.0
2026-04-07 18:05:06.590368,401190,2176959503,2176960889,-1.106784,0.128832,0.013664,17.61375,14.00875,-17.8675,42.984,5.864,53.344,eccentric,6,3.0,23910.0,327180.0,291997.0,339741.0,298848.0
2026-04-07 18:05:06.620781,401191,2176968441,2176969600,-1.106784,0.128832,0.013664,19.88,13.3,-16.37125,42.984,5.864,53.344,eccentric,6,3.0,23910.0,327180.0,291997.0,339741.0,298848.0
2026-04-07 18:05:06.647676,401201,2176977405,2176978328,-1.134112,0.13664,0.001952,22.18125,12.32875,-15.0675,43.664,5.936,53.600002,eccentric,6,3.0,24538.0,333335.0,297575.0,346438.0,304471.0
2026-04-07 18:05:06.649300,401202,2176986316,2176987022,-1.134112,0.13664,0.001952,22.91625,12.4775,-13.6325,43.664,5.936,53.600002,eccentric,6,3.0,24538.0,333335.0,297575.0,346438.0,304471.0
2026-04-07 18:05:06.651042,401203,2177001320,2177002009,-1.128256,0.158112,0.01952,22.26,11.7075,-13.7375,43.216003,5.56,53.584003,eccentric,6,3.0,24538.0,333335.0,297575.0,346438.0,304471.0
2026-04-07 18:05:06.655067,401204,2177010821,2177012790,-1.128256,0.15616,0.064416,21.385,11.655,-14.665,43.216003,5.56,53.584003,eccentric,6,3.0,24538.0,333335.0,297575.0,346438.0,304471.0
2026-04-07 18:05:06.656657,401205,2177019784,2177021551,-1.114592,0.15616,0.064416,19.60875,11.75125,-15.12,43.336002,5.8,53.920002,eccentric,6,3.0,24538.0,333335.0,297575.0,346438.0,304471.0
2026-04-07 18:05:06.686921,401206,2177034282,2177036491,-1.1224,0.111264,0.076128,17.84125,11.40125,-14.74375,43.288002,5.520001,54.512,eccentric,6,3.0,24538.0,333335.0,297575.0,346438.0,304471.0
2026-04-07 18:05:06.691338,401207,2177043196,2177045204,-1.1224,0.111264,0.076128,17.7275,10.29,-14.07,43.288002,5.520001,54.512,eccentric,6,3.0,24538.0,333335.0,297575.0,346438.0,304471.0
2026-04-07 18:05:06.693128,401208,2177052132,2177053893,-1.120448,0.103456,0.042944,20.83375,8.6275,-13.825,43.544003,5.136,54.304,eccentric,6,3.0,24538.0,333335.0,297575.0,346438.0,304471.0
2026-04-07 18:05:06.694933,401209,2177061143,2177062573,-1.120448,0.103456,0.042944,26.87125,7.62125,-12.1975,43.544003,5.136,54.304,eccentric,6,3.0,24538.0,333335.0,297575.0,346438.0,304471.0
2026-04-07 18:05:06.727170,401220,2177075820,2177077869,-1.08336,0.150304,0.023424,30.63375,6.37875,-11.375,42.928,4.608,55.712,eccentric,6,3.0,25274.0,340521.0,303981.0,354080.0,310844.0
2026-04-07 18:05:06.728488,401221,2177084744,2177086578,-1.08336,0.150304,0.023424,29.8375,6.20375,-11.2525,42.928,4.608,55.712,eccentric,6,3.0,25274.0,340521.0,303981.0,354080.0,310844.0
2026-04-07 18:05:06.732479,401222,2177093808,2177095280,-1.026752,0.169824,0.0,23.0475,7.0,-12.29375,43.592003,4.744,54.336002,eccentric,6,3.0,25274.0,340521.0,303981.0,354080.0,310844.0
2026-04-07 18:05:06.761081,401223,2177108361,2177110278,-1.026752,0.169824,0.0,12.705,7.56875,-13.50125,43.592003,4.744,54.336002,eccentric,6,3.0,25274.0,340521.0,303981.0,354080.0,310844.0
2026-04-07 18:05:06.765501,401224,2177117264,2177118952,-1.0248,0.089792,0.056608,3.0275,7.14875,-12.99375,43.896004,5.12,54.584003,eccentric,6,3.0,25274.0,340521.0,303981.0,354080.0,310844.0
2026-04-07 18:05:06.767957,401225,2177126167,2177127627,-1.0248,0.089792,0.056608,1.09375,5.17125,-11.305,43.896004,5.12,54.584003,eccentric,6,3.0,25274.0,340521.0,303981.0,354080.0,310844.0
2026-04-07 18:05:06.777436,401226,2177140645,2177142527,-1.007232,0.101504,0.003904,4.61125,3.36,-9.9225,43.056004,5.136,54.408,eccentric,6,3.0,25274.0,340521.0,303981.0,354080.0,310844.0
2026-04-07 18:05:06.783678,401227,2177149569,2177151279,-1.007232,0.101504,0.003904,12.005,2.3625,-7.9625,43.056004,5.136,54.408,eccentric,6,3.0,25274.0,340521.0,303981.0,354080.0,310844.0
2026-04-07 18:05:06.849464,401228,2177159174,2177160040,-1.028704,0.208864,-0.0488,19.20625,3.10625,-6.6325,43.464,4.296,55.792004,eccentric,6,3.0,25274.0,340521.0,303981.0,354080.0,310844.0
2026-04-07 18:05:06.853954,401229,2177168156,2177168769,-1.028704,0.208864,-0.0488,20.30875,4.41875,-6.06375,43.464,4.296,55.792004,eccentric,6,3.0,25274.0,340521.0,303981.0,354080.0,310844.0
2026-04-07 18:05:06.895854,401239,2177183047,2177183723,-1.071648,0.25376,-0.03904,16.52,6.8425,-6.475,42.944,4.44,55.280003,eccentric,6,3.0,26515.0,351646.0,313378.0,365165.0,319877.0
2026-04-07 18:05:06.900102,401240,2177192307,2177194467,-1.108736,0.26352,-0.023424,12.41625,9.073751,-6.9125,43.448,4.608,54.384003,eccentric,6,3.0,26515.0,351646.0,313378.0,365165.0,319877.0
2026-04-07 18:05:06.901742,401241,2177201253,2177203153,-1.108736,0.26352,-0.023424,10.675,10.91125,-8.09375,43.448,4.608,54.384003,eccentric,6,3.0,26515.0,351646.0,313378.0,365165.0,319877.0
2026-04-07 18:05:06.903276,401242,2177210162,2177211852,-1.108736,0.26352,-0.023424,9.66,12.01375,-9.5725,43.448,4.608,54.384003,eccentric,6,3.0,26515.0,351646.0,313378.0,365165.0,319877.0
2026-04-07 18:05:06.906011,401243,2177224652,2177226731,-1.1712,0.244,-0.011712,9.835,13.13375,-11.165,43.528004,4.288,54.08,eccentric,6,3.0,26515.0,351646.0,313378.0,365165.0,319877.0
2026-04-07 18:05:06.909298,401244,2177233651,2177235494,-1.21024,0.206912,-0.025376,11.78625,13.5975,-13.5275,43.712,4.4,53.512,eccentric,6,3.0,26515.0,351646.0,313378.0,365165.0,319877.0
2026-04-07 18:05:06.910799,401245,2177242593,2177244233,-1.21024,0.206912,-0.025376,13.9125,14.14875,-15.6975,43.712,4.4,53.512,eccentric,6,3.0,26515.0,351646.0,313378.0,365165.0,319877.0
2026-04-07 18:05:06.915093,401246,2177257139,2177259157,-1.225856,0.177632,-0.046848,16.1,14.0525,-18.3925,43.488003,4.112,56.160004,eccentric,6,3.0,26515.0,351646.0,313378.0,365165.0,319877.0
2026-04-07 18:05:06.916787,401247,2177266127,2177267878,-1.225856,0.177632,-0.046848,18.6375,13.92125,-20.58,43.488003,4.112,56.160004,eccentric,6,3.0,26515.0,351646.0,313378.0,365165.0,319877.0
2026-04-07 18:05:06.942575,401257,2177275764,2177276981,-1.253184,0.167872,-0.056608,20.71125,13.545,-21.7525,44.04,4.088,56.312004,eccentric,6,3.0,26509.0,351764.0,313601.0,365341.0,319888.0
2026-04-07 18:05:06.944301,401258,2177284818,2177285728,-1.253184,0.167872,-0.056608,23.23125,13.86875,-21.34125,44.04,4.088,56.312004,eccentric,6,3.0,26509.0,351764.0,313601.0,365341.0,319888.0
2026-04-07 18:05:06.945861,401259,2177299384,2177300680,-1.294176,0.134688,-0.021472,24.29875,14.06125,-19.6,43.824,3.904,56.88,eccentric,6,3.0,26509.0,351764.0,313601.0,365341.0,319888.0
2026-04-07 18:05:06.950333,401260,2177308334,2177309457,-1.294176,0.134688,-0.021472,23.65125,13.0025,-16.205,43.824,3.904,56.88,eccentric,6,3.0,26509.0,351764.0,313601.0,365341.0,319888.0
2026-04-07 18:05:06.956180,401261,2177317302,2177318141,-1.35664,0.099552,-0.050752,22.82,11.90875,-13.3525,43.216003,3.224,57.416004,eccentric,6,3.0,26509.0,351764.0,313601.0,365341.0,319888.0
2026-04-07 18:05:06.984817,401262,2177331853,2177333158,-1.35664,0.099552,-0.050752,23.3275,10.85875,-9.82625,43.216003,3.224,57.416004,eccentric,6,3.0,26509.0,351764.0,313601.0,365341.0,319888.0
2026-04-07 18:05:06.988423,401263,2177340816,2177341871,-1.428864,0.074176,-0.066368,26.495,10.92875,-8.61875,43.312,3.24,55.344,eccentric,6,3.0,26509.0,351764.0,313601.0,365341.0,319888.0
2026-04-07 18:05:06.991215,401264,2177349759,2177350589,-1.428864,0.074176,-0.066368,34.3875,11.655,-8.00625,43.312,3.24,55.344,eccentric,6,3.0,26509.0,351764.0,313601.0,365341.0,319888.0
2026-04-07 18:05:06.996709,401265,2177364295,2177365492,-1.432768,0.179584,-0.011712,42.6475,12.565,-7.67375,44.016003,2.328,59.160004,eccentric,6,3.0,26509.0,351764.0,313601.0,365341.0,319888.0
2026-04-07 18:05:07.056807,401276,2177373277,2177374269,-1.432768,0.218624,0.070272,42.56,13.32625,-7.28875,43.952003,2.592,56.376003,eccentric,6,3.0,26675.0,351336.0,312357.0,363277.0,317821.0
2026-04-07 18:05:07.058360,401277,2177382328,2177383058,-1.432768,0.218624,0.070272,36.39125,13.02875,-7.44625,43.952003,2.592,56.376003,eccentric,6,3.0,26675.0,351336.0,312357.0,363277.0,317821.0
2026-04-07 18:05:07.062736,401278,2177391707,2177393838,-1.432768,0.218624,0.070272,25.34875,13.18625,-5.62625,43.952003,2.592,56.376003,eccentric,6,3.0,26675.0,351336.0,312357.0,363277.0,317821.0
2026-04-07 18:05:07.066812,401279,2177406247,2177406712,-1.44448,0.21472,0.042944,14.595,12.66125,-3.47375,43.272003,2.256,59.280003,eccentric,6,3.0,26675.0,351336.0,312357.0,363277.0,317821.0
2026-04-07 18:05:07.068331,401280,2177415654,2177417534,-1.50304,0.144448,-0.042944,8.1025,12.10125,-2.93125,44.424004,2.52,55.048004,eccentric,6,3.0,26675.0,351336.0,312357.0,363277.0,317821.0
2026-04-07 18:05:07.070809,401281,2177424610,2177426285,-1.50304,0.144448,-0.042944,8.925,11.698751,-3.24625,44.424004,2.52,55.048004,eccentric,6,3.0,26675.0,351336.0,312357.0,363277.0,317821.0
2026-04-07 18:05:07.074218,401282,2177439199,2177441269,-1.510848,0.148352,-0.093696,12.1275,11.36625,-3.465,44.552002,2.984,56.904003,eccentric,6,3.0,26675.0,351336.0,312357.0,363277.0,317821.0
2026-04-07 18:05:07.080449,401283,2177448127,2177449985,-1.510848,0.148352,-0.093696,16.1875,10.92875,-4.2,44.552002,2.984,56.904003,eccentric,6,3.0,26675.0,351336.0,312357.0,363277.0,317821.0
2026-04-07 18:05:07.150735,401284,2177457068,2177458741,-1.47376,0.115168,-0.035136,18.27,10.29875,-5.03125,44.68,2.32,56.128002,eccentric,6,3.0,26675.0,351336.0,312357.0,363277.0,317821.0
2026-04-07 18:05:07.153218,401285,2177465993,2177467409,-1.47376,0.115168,-0.035136,20.8075,8.28625,-3.73625,44.68,2.32,56.128002,eccentric,6,3.0,26675.0,351336.0,312357.0,363277.0,317821.0
2026-04-07 18:05:07.182196,401295,2177480552,2177482357,-1.456192,0.070272,0.015616,23.616251,5.62625,-3.01875,43.896004,1.472,56.976,eccentric,6,3.0,26114.0,344980.0,306329.0,355743.0,311348.0
2026-04-07 18:05:07.186381,401296,2177489492,2177491085,-1.456192,0.070272,0.015616,24.92,4.24375,-1.7675,43.896004,1.472,56.976,eccentric,6,3.0,26114.0,344980.0,306329.0,355743.0,311348.0
2026-04-07 18:05:07.187984,401297,2177498423,2177499772,-1.442528,0.08784,0.007808,30.9225,2.93125,-0.88375,43.480003,1.384,58.816,eccentric,6,3.0,26114.0,344980.0,306329.0,355743.0,311348.0
2026-04-07 18:05:07.189597,401298,2177513002,2177514661,-1.442528,0.08784,0.007808,34.895,3.26375,-2.03875,43.480003,1.384,58.816,eccentric,6,3.0,26114.0,344980.0,306329.0,355743.0,311348.0
2026-04-07 18:05:07.193807,401299,2177522007,2177523350,-1.4152,0.148352,0.007808,35.49875,3.73625,-2.065,43.008003,0.992,58.88,eccentric,6,3.0,26114.0,344980.0,306329.0,355743.0,311348.0
2026-04-07 18:05:07.195553,401300,2177531152,2177532095,-1.4152,0.148352,0.007808,33.92375,4.10375,-2.1175,43.008003,0.992,58.88,eccentric,6,3.0,26114.0,344980.0,306329.0,355743.0,311348.0
2026-04-07 18:05:07.197229,401301,2177545741,2177547080,-1.387872,0.187392,-0.001952,29.42625,4.45375,-2.205,43.408,1.36,57.256004,eccentric,6,3.0,26114.0,344980.0,306329.0,355743.0,311348.0
2026-04-07 18:05:07.201312,401302,2177554785,2177555861,-1.382016,0.183488,-0.031232,22.3125,5.3375,-2.59,44.72,1.632,56.528004,eccentric,6,3.0,26114.0,344980.0,306329.0,355743.0,311348.0
2026-04-07 18:05:07.203114,401303,2177563870,2177564582,-1.382016,0.183488,-0.031232,14.323751,6.5625,-3.77125,44.72,1.632,56.528004,eccentric,6,3.0,26114.0,344980.0,306329.0,355743.0,311348.0
2026-04-07 18:05:07.232601,401313,2177573260,2177575310,-1.382016,0.152256,-0.060512,6.39625,7.02625,-3.99,44.72,1.632,56.528004,eccentric,6,3.0,26486.0,346530.0,306872.0,356318.0,312021.0
2026-04-07 18:05:07.234360,401314,2177588308,2177590383,-1.344928,0.148352,-0.060512,0.1225,6.15125,-4.78625,43.872,1.896,58.640003,eccentric,6,3.0,26486.0,346530.0,306872.0,356318.0,312021.0
2026-04-07 18:05:07.236748,401315,2177597249,2177599121,-1.333216,0.085888,-0.085888,-2.68625,5.4425,-5.075,43.800003,1.928,56.624004,eccentric,6,3.0,26486.0,346530.0,306872.0,356318.0,312021.0
2026-04-07 18:05:07.238340,401316,2177606170,2177607803,-1.333216,0.085888,-0.085888,-0.76125,4.57625,-5.64375,43.800003,1.928,56.624004,eccentric,6,3.0,26486.0,346530.0,306872.0,356318.0,312021.0
2026-04-07 18:05:07.269402,401317,2177615128,2177616584,-1.290272,0.083936,-0.103456,4.01625,2.87,-5.915,43.472004,1.208,56.392002,eccentric,6,3.0,26486.0,346530.0,306872.0,356318.0,312021.0
2026-04-07 18:05:07.271781,401318,2177629618,2177631468,-1.290272,0.083936,-0.103456,9.7125,1.39125,-5.95875,43.472004,1.208,56.392002,eccentric,6,3.0,26486.0,346530.0,306872.0,356318.0,312021.0
2026-04-07 18:05:07.276315,401319,2177638564,2177640187,-1.262944,0.105408,-0.08784,15.365,0.70875,-5.39,43.36,1.32,58.176003,eccentric,6,3.0,26486.0,346530.0,306872.0,356318.0,312021.0
2026-04-07 18:05:07.280402,401320,2177647482,2177648893,-1.262944,0.105408,-0.08784,19.76625,-0.98,-4.7075,43.36,1.32,58.176003,eccentric,6,3.0,26486.0,346530.0,306872.0,356318.0,312021.0
2026-04-07 18:05:07.310716,401321,2177661974,2177663858,-1.223904,0.132736,-0.070272,21.98875,-2.0475,-4.375,43.480003,1.672,56.520004,eccentric,6,3.0,26486.0,346530.0,306872.0,356318.0,312021.0
2026-04-07 18:05:07.314477,401322,2177670923,2177672551,-1.223904,0.132736,-0.070272,21.385,-2.72125,-3.22,43.480003,1.672,56.520004,eccentric,6,3.0,26486.0,346530.0,306872.0,356318.0,312021.0
2026-04-07 18:05:07.348864,401333,2177680037,2177681357,-1.202432,0.148352,-0.062464,18.515,-3.29,-2.59,43.584003,1.504,54.704002,eccentric,6,3.0,25987.0,342223.0,303107.0,351350.0,307461.0
2026-04-07 18:05:07.350553,401334,2177694588,2177696292,-1.173152,0.142496,-0.089792,15.46125,-4.7775,-2.485,42.832,1.504,56.960003,eccentric,6,3.0,25987.0,342223.0,303107.0,351350.0,307461.0
2026-04-07 18:05:07.352116,401335,2177703536,2177705043,-1.173152,0.142496,-0.089792,13.7725,-6.37875,-2.54625,42.832,1.504,56.960003,eccentric,6,3.0,25987.0,342223.0,303107.0,351350.0,307461.0
2026-04-07 18:05:07.356333,401336,2177712505,2177713805,-1.173152,0.142496,-0.089792,13.72875,-7.56,-2.4325,42.832,1.504,56.960003,eccentric,6,3.0,25987.0,342223.0,303107.0,351350.0,307461.0
2026-04-07 18:05:07.358779,401337,2177721599,2177722589,-1.143872,0.171776,-0.105408,14.49,-8.2775,-2.28375,43.504,2.024,57.608,eccentric,6,3.0,25987.0,342223.0,303107.0,351350.0,307461.0
2026-04-07 18:05:07.387363,401338,2177736160,2177737635,-1.098976,0.160064,-0.076128,14.63,-8.89875,-3.01875,42.480003,1.688,54.288002,eccentric,6,3.0,25987.0,342223.0,303107.0,351350.0,307461.0
2026-04-07 18:05:07.391780,401339,2177745067,2177746334,-1.098976,0.160064,-0.076128,12.87125,-10.07125,-2.66875,42.480003,1.688,54.288002,eccentric,6,3.0,25987.0,342223.0,303107.0,351350.0,307461.0
2026-04-07 18:05:07.393353,401340,2177753956,2177755040,-1.098976,0.160064,-0.054656,9.6075,-11.48875,-2.05625,42.480003,1.688,54.288002,eccentric,6,3.0,25987.0,342223.0,303107.0,351350.0,307461.0
2026-04-07 18:05:07.401299,401341,2177768742,2177770036,-1.048224,0.115168,-0.054656,6.86,-12.46,-1.5575,42.952003,1.864,55.192,eccentric,6,3.0,25987.0,342223.0,303107.0,351350.0,307461.0
2026-04-07 18:05:07.461767,401351,2177778249,2177778854,-0.993568,0.091744,-0.064416,6.405,-14.46375,-1.04125,42.624,1.776,54.592003,eccentric,6,3.0,25135.0,335352.0,297441.0,344384.0,301326.0
2026-04-07 18:05:07.463335,401352,2177787493,2177789654,-0.993568,0.091744,-0.064416,9.4675,-16.93125,-0.3325,42.624,1.776,54.592003,eccentric,6,3.0,25135.0,335352.0,297441.0,344384.0,301326.0
2026-04-07 18:05:07.467706,401353,2177796427,2177798301,-0.931104,0.13664,-0.076128,14.07,-18.8825,0.8225,41.800003,1.432,56.672,eccentric,6,3.0,25135.0,335352.0,297441.0,344384.0,301326.0
2026-04-07 18:05:07.469282,401354,2177810913,2177813210,-0.931104,0.13664,-0.076128,16.975,-20.0025,2.0825,41.800003,1.432,56.672,eccentric,6,3.0,25135.0,335352.0,297441.0,344384.0,301326.0
2026-04-07 18:05:07.470862,401355,2177819817,2177821938,-0.866688,0.144448,-0.056608,14.95375,-20.62375,3.2375,41.648003,1.384,54.88,eccentric,6,3.0,25135.0,335352.0,297441.0,344384.0,301326.0
2026-04-07 18:05:07.475081,401356,2177828771,2177830638,-0.866688,0.144448,-0.056608,8.295,-21.4375,4.1125,41.648003,1.384,54.88,eccentric,6,3.0,25135.0,335352.0,297441.0,344384.0,301326.0
2026-04-07 18:05:07.476707,401357,2177843466,2177845656,-0.851072,0.10736,-0.093696,0.84875,-21.2975,4.8825,40.928,1.208,56.760002,eccentric,6,3.0,25135.0,335352.0,297441.0,344384.0,301326.0
2026-04-07 18:05:07.508848,401358,2177852421,2177854395,-0.851072,0.10736,-0.093696,-2.05625,-21.48125,5.46,40.928,1.208,56.760002,eccentric,6,3.0,25135.0,335352.0,297441.0,344384.0,301326.0
2026-04-07 18:05:07.510623,401359,2177861348,2177863079,-0.796416,0.091744,-0.06832,-1.435,-22.46125,6.79,40.976,1.776,55.608,eccentric,6,3.0,25135.0,335352.0,297441.0,344384.0,301326.0
2026-04-07 18:05:07.536343,401369,2177875965,2177878209,-0.757376,0.074176,-0.054656,0.3325,-23.98375,8.05875,41.488003,1.696,54.160004,eccentric,6,3.0,24186.0,328071.0,291780.0,337989.0,295870.0
2026-04-07 18:05:07.538060,401370,2177884950,2177886938,-0.757376,0.074176,-0.054656,0.455,-24.6925,9.77375,41.488003,1.696,54.160004,eccentric,6,3.0,24186.0,328071.0,291780.0,337989.0,295870.0
2026-04-07 18:05:07.539619,401371,2177893880,2177895693,-0.757376,0.074176,-0.054656,-1.225,-25.26125,11.34,41.488003,1.696,54.160004,eccentric,6,3.0,24186.0,328071.0,291780.0,337989.0,295870.0
2026-04-07 18:05:07.543704,401372,2177902899,2177904416,-0.724192,0.060512,-0.046848,-1.26,-26.04,12.4775,40.920002,1.456,54.776,eccentric,6,3.0,24186.0,328071.0,291780.0,337989.0,295870.0
2026-04-07 18:05:07.572265,401373,2177917444,2177919358,-0.732,0.091744,-0.0488,0.37625,-26.18,13.55375,40.440002,1.816,55.032,eccentric,6,3.0,24186.0,328071.0,291780.0,337989.0,295870.0
2026-04-07 18:05:07.576804,401374,2177926351,2177928087,-0.732,0.091744,-0.0488,3.52625,-25.725,14.30625,40.440002,1.816,55.032,eccentric,6,3.0,24186.0,328071.0,291780.0,337989.0,295870.0
2026-04-07 18:05:07.579285,401375,2177935265,2177936794,-0.69296,0.11712,-0.021472,6.4575,-25.59375,14.14875,40.440002,1.816,55.832005,eccentric,6,3.0,24186.0,328071.0,291780.0,337989.0,295870.0
2026-04-07 18:05:07.581683,401376,2177949744,2177951684,-0.69296,0.11712,-0.021472,7.91875,-25.445,14.11375,40.056004,0.864,55.832005,eccentric,6,3.0,24186.0,328071.0,291780.0,337989.0,295870.0
2026-04-07 18:05:07.611956,401377,2177958712,2177960421,-0.667584,0.122976,0.005856,7.98875,-24.24625,13.32625,39.912003,0.8,55.832005,eccentric,6,3.0,24186.0,328071.0,291780.0,337989.0,295870.0
2026-04-07 18:05:07.614255,401378,2177967640,2177969092,-0.667584,0.122976,0.005856,9.24,-23.5025,12.8275,39.912003,0.8,55.832005,eccentric,6,3.0,24186.0,328071.0,291780.0,337989.0,295870.0
2026-04-07 18:05:07.644649,401389,2177982276,2177984112,-0.685152,0.150304,0.001952,11.22625,-22.785,11.2875,39.472,0.696,55.160004,eccentric,6,3.0,23393.0,322102.0,287027.0,332952.0,291658.0
2026-04-07 18:05:07.648842,401390,2177991246,2177992962,-0.685152,0.150304,0.001952,13.055,-21.65625,9.21375,39.472,0.696,55.160004,eccentric,6,3.0,23393.0,322102.0,287027.0,332952.0,291658.0
2026-04-07 18:05:07.650539,401391,2178000264,2178001803,-0.700768,0.206912,0.01952,16.0475,-18.55,5.6,39.928,0.2,56.344,eccentric,6,3.0,23393.0,322102.0,287027.0,332952.0,291658.0
2026-04-07 18:05:07.652093,401392,2178009299,2178010558,-0.700768,0.206912,0.01952,16.66875,-15.65375,0.84,39.928,0.2,56.344,eccentric,6,3.0,23393.0,322102.0,287027.0,332952.0,291658.0
2026-04-07 18:05:07.657522,401393,2178023901,2178025536,-0.72224,0.255712,0.040992,14.83125,-12.95,-4.78625,39.384003,0.44,56.192,eccentric,6,3.0,23393.0,322102.0,287027.0,332952.0,291658.0
2026-04-07 18:05:07.686637,401394,2178032826,2178034261,-0.72224,0.255712,0.040992,10.87625,-9.59875,-10.71,39.384003,0.44,56.192,eccentric,6,3.0,23393.0,322102.0,287027.0,332952.0,291658.0
2026-04-07 18:05:07.690494,401395,2178041770,2178042981,-0.827648,0.290848,0.033184,6.16,-4.97,-15.67125,38.992,0.568,55.496002,eccentric,6,3.0,23393.0,322102.0,287027.0,332952.0,291658.0
2026-04-07 18:05:07.691972,401396,2178056266,2178057863,-0.860832,0.275232,0.056608,0.86625,-1.04125,-21.67375,38.960003,1.408,55.408,eccentric,6,3.0,23393.0,322102.0,287027.0,332952.0,291658.0
2026-04-07 18:05:07.698751,401397,2178065172,2178066572,-0.860832,0.275232,0.056608,-4.52375,1.86375,-27.79,38.960003,1.408,55.408,eccentric,6,3.0,23393.0,322102.0,287027.0,332952.0,291658.0
2026-04-07 18:05:07.740814,401398,2178074106,2178075280,-0.860832,0.275232,0.056608,-9.54625,3.42125,-32.0775,38.960003,1.408,55.408,eccentric,6,3.0,23393.0,322102.0,287027.0,332952.0,291658.0
2026-04-07 18:05:07.766231,401408,2178088593,2178090242,-0.894016,0.18544,0.042944,-12.78375,2.73,-34.51875,39.0,1.56,55.432003,eccentric,6,3.0,23288.0,320796.0,285859.0,331703.0,290691.0
2026-04-07 18:05:07.770288,401409,2178097520,2178098931,-0.905728,0.103456,0.021472,-11.7075,2.1175,-34.08125,38.36,1.28,55.664,eccentric,6,3.0,23288.0,320796.0,285859.0,331703.0,290691.0
2026-04-07 18:05:07.776359,401410,2178106430,2178107688,-0.905728,0.103456,0.021472,-8.8375,1.53125,-31.5875,38.36,1.28,55.664,eccentric,6,3.0,23288.0,320796.0,285859.0,331703.0,290691.0
2026-04-07 18:05:07.778043,401411,2178121057,2178122691,-0.892064,0.015616,0.007808,-6.48375,0.5425,-28.0175,38.808002,1.824,55.2,eccentric,6,3.0,23288.0,320796.0,285859.0,331703.0,290691.0
2026-04-07 18:05:07.779640,401412,2178130081,2178131450,-0.892064,0.015616,0.007808,-3.59625,0.23625,-24.21125,38.808002,1.824,55.2,eccentric,6,3.0,23288.0,320796.0,285859.0,331703.0,290691.0
2026-04-07 18:05:07.783929,401413,2178139026,2178140221,-0.913536,-0.007808,-0.011712,0.0,-0.0875,-19.71375,38.704002,1.584,55.264004,eccentric,6,3.0,23288.0,320796.0,285859.0,331703.0,290691.0
2026-04-07 18:05:07.786356,401414,2178148026,2178148916,-0.913536,-0.007808,-0.011712,5.5825,0.28,-14.77875,38.704002,1.584,55.264004,eccentric,6,3.0,23288.0,320796.0,285859.0,331703.0,290691.0
2026-04-07 18:05:07.818286,401415,2178162560,2178163864,-0.880352,0.035136,0.015616,11.82125,0.6475,-10.42125,38.216003,1.344,56.336002,eccentric,6,3.0,23288.0,320796.0,285859.0,331703.0,290691.0
2026-04-07 18:05:07.820465,401416,2178171514,2178172580,-0.880352,0.035136,0.015616,17.57,0.245,-5.87125,38.216003,1.344,56.336002,eccentric,6,3.0,23288.0,320796.0,285859.0,331703.0,290691.0
2026-04-07 18:05:07.846097,401426,2178181099,2178183400,-0.85888,0.074176,0.072224,21.06125,0.3675,-1.33875,39.024002,1.616,55.280003,eccentric,6,3.0,23030.0,318631.0,284045.0,329724.0,289065.0
2026-04-07 18:05:07.850056,401427,2178190127,2178192095,-0.85888,0.074176,0.072224,27.34375,0.46375,2.42375,39.024002,1.616,55.280003,eccentric,6,3.0,23030.0,318631.0,284045.0,329724.0,289065.0
2026-04-07 18:05:07.851782,401428,2178204692,2178206997,-0.882304,0.07808,0.1464,33.71375,0.48125,5.5475,38.624,0.92,55.104004,eccentric,6,3.0,23030.0,318631.0,284045.0,329724.0,289065.0
2026-04-07 18:05:07.853350,401429,2178213699,2178215759,-0.882304,0.07808,0.1464,37.9225,0.48125,7.90125,38.624,0.92,55.104004,eccentric,6,3.0,23030.0,318631.0,284045.0,329724.0,289065.0
2026-04-07 18:05:07.857490,401430,2178222715,2178224491,-0.93696,0.091744,0.220576,42.201252,0.70875,8.42625,38.368,0.424,55.424004,eccentric,6,3.0,23030.0,318631.0,284045.0,329724.0,289065.0
2026-04-07 18:05:07.888205,401431,2178237246,2178239398,-1.001376,0.162016,0.261568,49.105,1.37375,7.07,38.528004,-0.544,55.824,eccentric,6,3.0,23030.0,318631.0,284045.0,329724.0,289065.0
2026-04-07 18:05:07.890492,401432,2178246194,2178248083,-1.001376,0.162016,0.261568,57.33875,1.46125,5.0225,38.528004,-0.544,55.824,eccentric,6,3.0,23030.0,318631.0,284045.0,329724.0,289065.0
2026-04-07 18:05:07.895136,401433,2178255112,2178256757,-1.001376,0.162016,0.261568,64.4,1.49625,1.015,38.528004,-0.544,55.824,eccentric,6,3.0,23030.0,318631.0,284045.0,329724.0,289065.0
2026-04-07 18:05:07.924159,401434,2178269764,2178271716,-1.038464,0.298656,0.277184,62.5975,0.56875,-3.5175,38.72,-0.728,59.120003,eccentric,6,3.0,23030.0,318631.0,284045.0,329724.0,289065.0
2026-04-07 18:05:07.949681,401444,2178279159,2178280517,-1.056032,0.2928,0.22448,54.32,-0.93625,-7.49,39.024002,-1.208,56.544003,eccentric,6,3.0,24269.0,328189.0,291400.0,337451.0,295467.0
2026-04-07 18:05:07.953924,401445,2178288178,2178289265,-1.056032,0.2928,0.22448,45.68375,-1.19,-11.865,39.024002,-1.208,56.544003,eccentric,6,3.0,24269.0,328189.0,291400.0,337451.0,295467.0
2026-04-07 18:05:07.955587,401446,2178297122,2178297926,-1.097024,0.083936,0.216672,38.255,0.175,-16.45875,36.976,-1.0,56.480003,eccentric,6,3.0,24269.0,328189.0,291400.0,337451.0,295467.0
2026-04-07 18:05:07.957197,401447,2178311733,2178312919,-1.097024,0.083936,0.216672,32.68125,1.5225,-22.75,38.4,-1.0,56.480003,eccentric,6,3.0,24269.0,328189.0,291400.0,337451.0,295467.0
2026-04-07 18:05:07.961410,401448,2178320713,2178321785,-1.130208,-0.044896,0.245952,29.12,2.8175,-29.435,38.008003,-1.448,56.032,eccentric,6,3.0,24269.0,328189.0,291400.0,337451.0,295467.0
2026-04-07 18:05:07.962992,401449,2178329699,2178330520,-1.130208,-0.044896,0.245952,26.285,3.47375,-35.2975,38.008003,-1.448,56.032,eccentric,6,3.0,24269.0,328189.0,291400.0,337451.0,295467.0
2026-04-07 18:05:07.993142,401450,2178344262,2178345433,-1.114592,0.02928,0.20496,24.63125,3.7275,-38.92875,38.216003,-1.504,56.416004,eccentric,6,3.0,24269.0,328189.0,291400.0,337451.0,295467.0
2026-04-07 18:05:07.995457,401451,2178353174,2178354127,-1.114592,0.02928,0.20496,24.57875,2.8175,-38.89375,38.216003,-1.504,56.416004,eccentric,6,3.0,24269.0,328189.0,291400.0,337451.0,295467.0
2026-04-07 18:05:08.000909,401452,2178362157,2178362893,-1.05408,0.150304,0.121024,22.4,2.45,-35.11375,38.320004,-1.424,56.640003,eccentric,6,3.0,24269.0,328189.0,291400.0,337451.0,295467.0
2026-04-07 18:05:08.004193,401453,2178371489,2178373654,-1.05408,0.150304,0.121024,13.86875,2.9575,-29.14625,38.320004,-1.424,56.640003,eccentric,6,3.0,24269.0,328189.0,291400.0,337451.0,295467.0
2026-04-07 18:05:08.074363,401464,2178386219,2178386611,-1.032608,0.140544,0.035136,0.02625,3.22875,-22.35625,38.104,-1.104,57.360004,eccentric,6,3.0,23925.0,325260.0,288788.0,334329.0,292664.0
2026-04-07 18:05:08.075818,401465,2178395472,2178397369,-1.032608,0.140544,0.035136,-13.335,3.85,-15.627501,38.104,-1.104,57.360004,eccentric,6,3.0,23925.0,325260.0,288788.0,334329.0,292664.0
2026-04-07 18:05:08.080055,401466,2178404410,2178406059,-1.03456,0.122976,-0.017568,-20.32625,4.7425,-9.86125,38.56,-1.04,57.536003,eccentric,6,3.0,23925.0,325260.0,288788.0,334329.0,292664.0
2026-04-07 18:05:08.081740,401467,2178418886,2178420995,-1.06384,0.15616,0.005856,-20.13375,4.9875,-5.005,38.248,-0.744,56.224003,eccentric,6,3.0,23925.0,325260.0,288788.0,334329.0,292664.0
2026-04-07 18:05:08.084397,401468,2178427834,2178429705,-1.06384,0.15616,0.005856,-13.7725,4.7075,-1.28625,38.248,-0.744,56.224003,eccentric,6,3.0,23925.0,325260.0,288788.0,334329.0,292664.0
2026-04-07 18:05:08.087249,401469,2178436856,2178438405,-1.06384,0.15616,0.005856,-3.73625,4.06,0.30625,38.248,-0.744,56.224003,eccentric,6,3.0,23925.0,325260.0,288788.0,334329.0,292664.0
2026-04-07 18:05:08.090057,401470,2178445790,2178447087,-1.061888,0.173728,0.064416,5.76625,3.07125,0.035,37.944,-1.408,57.544003,eccentric,6,3.0,23925.0,325260.0,288788.0,334329.0,292664.0
2026-04-07 18:05:08.092439,401471,2178460335,2178462084,-1.030656,0.1952,0.085888,14.84,1.82875,0.06125,38.2,-1.304,57.064003,eccentric,6,3.0,23925.0,325260.0,288788.0,334329.0,292664.0
2026-04-07 18:05:08.121051,401472,2178469298,2178470795,-1.030656,0.1952,0.085888,23.03875,1.16375,-0.49875,38.2,-1.304,57.064003,eccentric,6,3.0,23925.0,325260.0,288788.0,334329.0,292664.0
2026-04-07 18:05:08.147226,401482,2178478199,2178479450,-0.983808,0.236192,0.06832,30.161251,0.67375,-0.9625,38.032,-1.336,56.344,eccentric,6,3.0,23649.0,323604.0,287956.0,333823.0,292504.0
2026-04-07 18:05:08.151327,401483,2178493324,2178494361,-0.983808,0.236192,0.06832,33.985,1.05875,-1.51375,38.032,-1.336,56.344,eccentric,6,3.0,23649.0,323604.0,287956.0,333823.0,292504.0
2026-04-07 18:05:08.153047,401484,2178502352,2178503097,-0.983808,0.271328,0.031232,32.576252,2.38,-1.95125,38.336002,-1.64,57.016003,eccentric,6,3.0,23649.0,323604.0,287956.0,333823.0,292504.0
2026-04-07 18:05:08.154744,401485,2178511817,2178513889,-0.983808,0.271328,0.031232,28.9275,5.0925,-2.84375,38.336002,-1.64,57.016003,eccentric,6,3.0,23649.0,323604.0,287956.0,333823.0,292504.0
2026-04-07 18:05:08.158684,401486,2178520782,2178522616,-1.020896,0.232288,0.025376,23.72125,8.39125,-4.55875,38.064003,-1.648,57.896004,eccentric,6,3.0,23649.0,323604.0,287956.0,333823.0,292504.0
2026-04-07 18:05:08.190773,401487,2178535273,2178537568,-1.020896,0.232288,0.025376,19.7575,10.17625,-6.09875,38.064003,-1.648,57.896004,eccentric,6,3.0,23649.0,323604.0,287956.0,333823.0,292504.0
2026-04-07 18:05:08.193217,401488,2178544188,2178546251,-1.0248,0.18544,0.023424,18.17375,12.1275,-7.88375,38.288002,-2.768,57.936005,eccentric,6,3.0,23649.0,323604.0,287956.0,333823.0,292504.0
2026-04-07 18:05:08.200184,401489,2178553151,2178554936,-1.0248,0.18544,0.023424,17.885,12.69625,-9.93125,38.288002,-2.768,57.936005,eccentric,6,3.0,23649.0,323604.0,287956.0,333823.0,292504.0
2026-04-07 18:05:08.202492,401490,2178567618,2178569833,-1.028704,0.144448,0.025376,17.35125,13.50125,-11.6725,38.872,-2.392,57.032,eccentric,6,3.0,23649.0,323604.0,287956.0,333823.0,292504.0
2026-04-07 18:05:08.230988,401491,2178576545,2178578547,-1.028704,0.144448,0.025376,16.485,13.86,-12.425,38.872,-2.392,57.032,eccentric,6,3.0,23649.0,323604.0,287956.0,333823.0,292504.0
2026-04-07 18:05:08.258041,401501,2178585489,2178587261,-1.03456,0.138592,0.031232,14.595,13.53625,-12.425,38.592003,-2.992,55.904003,eccentric,6,3.0,23668.0,324491.0,289097.0,335480.0,294008.0
2026-04-07 18:05:08.259608,401502,2178599968,2178602146,-1.020896,0.121024,0.033184,11.6025,13.2125,-11.55875,39.384003,-2.288,57.176003,eccentric,6,3.0,23668.0,324491.0,289097.0,335480.0,294008.0
2026-04-07 18:05:08.263831,401503,2178608914,2178610898,-1.020896,0.121024,0.033184,4.7775,12.78375,-11.47125,39.384003,-2.288,57.176003,eccentric,6,3.0,23668.0,324491.0,289097.0,335480.0,294008.0
2026-04-07 18:05:08.265525,401504,2178617847,2178619623,-1.020896,0.121024,0.031232,-2.975,12.95,-10.6925,39.384003,-2.288,57.176003,eccentric,6,3.0,23668.0,324491.0,289097.0,335480.0,294008.0
2026-04-07 18:05:08.267157,401505,2178632340,2178634560,-1.048224,0.091744,0.031232,-11.05125,13.545,-10.1325,38.344,-2.768,59.08,eccentric,6,3.0,23668.0,324491.0,289097.0,335480.0,294008.0
2026-04-07 18:05:08.274959,401506,2178641274,2178643293,-1.050176,0.0976,0.031232,-18.29625,14.07875,-9.4675,38.336002,-2.192,57.416004,eccentric,6,3.0,23668.0,324491.0,289097.0,335480.0,294008.0
2026-04-07 18:05:08.303543,401507,2178650212,2178651975,-1.050176,0.0976,0.031232,-23.9575,13.475,-9.0125,38.336002,-2.192,57.416004,eccentric,6,3.0,23668.0,324491.0,289097.0,335480.0,294008.0
2026-04-07 18:05:08.311527,401508,2178659146,2178660706,-1.06384,0.132736,0.011712,-27.27375,13.50125,-8.7325,39.256,-1.752,57.064003,eccentric,6,3.0,23668.0,324491.0,289097.0,335480.0,294008.0
2026-04-07 18:05:08.348229,401509,2178673618,2178675619,-1.06384,0.132736,0.011712,-28.93625,12.8975,-7.77,39.256,-1.752,57.064003,eccentric,6,3.0,23668.0,324491.0,289097.0,335480.0,294008.0
2026-04-07 18:05:08.376794,401520,2178683199,2178684697,-1.095072,0.15616,0.005856,-29.19,12.34625,-7.315,39.104,-0.712,55.776,eccentric,6,3.0,23103.0,319669.0,285069.0,331128.0,290366.0
2026-04-07 18:05:08.378551,401521,2178692160,2178693446,-1.095072,0.15616,0.005856,-28.7875,11.865,-6.62375,39.104,-0.712,55.776,eccentric,6,3.0,23103.0,319669.0,285069.0,331128.0,290366.0
2026-04-07 18:05:08.382710,401522,2178706727,2178708327,-1.118496,0.152256,0.046848,-28.315,11.71625,-4.99625,39.368,-1.344,55.864002,eccentric,6,3.0,23103.0,319669.0,285069.0,331128.0,290366.0
2026-04-07 18:05:08.408856,401523,2178715627,2178717042,-1.118496,0.152256,0.046848,-27.32625,10.5875,-3.8325,39.368,-1.344,55.864002,eccentric,6,3.0,23103.0,319669.0,285069.0,331128.0,290366.0
2026-04-07 18:05:08.410605,401524,2178724523,2178725729,-1.116544,0.124928,0.07808,-24.01,8.93375,-3.5175,39.032,-0.848,55.496002,eccentric,6,3.0,23103.0,319669.0,285069.0,331128.0,290366.0
2026-04-07 18:05:08.412124,401525,2178733493,2178734455,-1.116544,0.124928,0.07808,-21.0175,8.23375,-3.15,39.032,-0.848,55.496002,eccentric,6,3.0,23103.0,319669.0,285069.0,331128.0,290366.0
2026-04-07 18:05:08.416362,401526,2178748038,2178749458,-1.118496,0.12688,0.091744,-16.5025,8.4525,-2.96625,39.952003,-0.464,55.504,eccentric,6,3.0,23103.0,319669.0,285069.0,331128.0,290366.0
2026-04-07 18:05:08.418133,401527,2178756952,2178758164,-1.118496,0.12688,0.091744,-12.48625,7.81375,-2.51125,39.952003,-0.464,55.504,eccentric,6,3.0,23103.0,319669.0,285069.0,331128.0,290366.0
2026-04-07 18:05:08.419616,401528,2178765860,2178766845,-1.089216,0.148352,0.050752,-10.43,9.1525,-1.89875,39.384003,-0.96,55.176003,eccentric,6,3.0,23103.0,319669.0,285069.0,331128.0,290366.0
2026-04-07 18:05:08.450182,401538,2178780803,2178781754,-1.038464,0.152256,0.056608,-10.03625,10.5175,-1.26875,39.824,-0.656,53.416004,eccentric,6,3.0,22884.0,317556.0,283215.0,329020.0,288639.0
2026-04-07 18:05:08.451856,401539,2178789744,2178790495,-1.038464,0.152256,0.056608,-11.7075,11.655,-0.525,39.824,-0.656,53.416004,eccentric,6,3.0,22884.0,317556.0,283215.0,329020.0,288639.0
2026-04-07 18:05:08.453401,401540,2178799266,2178801333,-1.00528,0.124928,0.042944,-14.323751,12.915,0.84,39.824,-0.512,55.776,eccentric,6,3.0,22884.0,317556.0,283215.0,329020.0,288639.0
2026-04-07 18:05:08.457560,401541,2178808191,2178810086,-1.00528,0.124928,0.042944,-15.5925,14.16625,2.275,39.864002,-0.512,55.776,eccentric,6,3.0,22884.0,317556.0,283215.0,329020.0,288639.0
2026-04-07 18:05:08.460059,401542,2178822709,2178825024,-0.899872,0.113216,-0.025376,-15.95125,14.9275,3.61375,40.024002,-0.824,55.840004,eccentric,6,3.0,22884.0,317556.0,283215.0,329020.0,288639.0
2026-04-07 18:05:08.464111,401543,2178831648,2178833719,-0.899872,0.113216,-0.025376,-16.397501,15.4875,4.165,40.024002,-0.824,55.840004,eccentric,6,3.0,22884.0,317556.0,283215.0,329020.0,288639.0
2026-04-07 18:05:08.494461,401544,2178840586,2178842442,-0.968192,0.062464,0.021472,-19.74875,20.6675,0.9625,40.032,-0.472,56.232002,eccentric,6,3.0,22884.0,317556.0,283215.0,329020.0,288639.0
2026-04-07 18:05:08.501381,401545,2178855091,2178857339,-0.968192,0.062464,0.021472,-28.8575,23.63375,-5.29375,40.032,-0.472,56.232002,eccentric,6,3.0,22884.0,317556.0,283215.0,329020.0,288639.0
2026-04-07 18:05:08.503030,401546,2178864007,2178866022,-1.007232,0.163968,0.044896,-22.3475,25.87375,-2.905,40.464,0.232,54.280003,eccentric,6,3.0,22884.0,317556.0,283215.0,329020.0,288639.0
2026-04-07 18:05:08.504904,401547,2178872944,2178874707,-1.007232,0.163968,0.044896,-15.8025,24.26375,-3.0975,40.464,0.232,54.280003,eccentric,6,3.0,22884.0,317556.0,283215.0,329020.0,288639.0
2026-04-07 18:05:08.533828,401557,2178887488,2178887894,-0.944768,0.148352,0.060512,-17.272501,22.855,-1.75,40.688004,0.736,54.232002,eccentric,6,3.0,22727.0,316013.0,281775.0,327403.0,287171.0
2026-04-07 18:05:08.535538,401558,2178896873,2178898714,-0.944768,0.148352,0.060512,-22.72375,23.0125,-1.28625,40.688004,0.736,54.232002,eccentric,6,3.0,22727.0,316013.0,281775.0,327403.0,287171.0
2026-04-07 18:05:08.537483,401559,2178905867,2178907459,-1.007232,0.060512,0.070272,-26.25,22.86375,-1.925,41.864002,0.896,53.384003,eccentric,6,3.0,22727.0,316013.0,281775.0,327403.0,287171.0
2026-04-07 18:05:08.568161,401560,2178914880,2178916231,-1.007232,0.060512,0.070272,-26.50375,22.9075,-2.0475,41.864002,0.896,53.384003,eccentric,6,3.0,22727.0,316013.0,281775.0,327403.0,287171.0
2026-04-07 18:05:08.572599,401561,2178929367,2178931123,-1.016992,0.083936,0.066368,-22.56625,21.49,-4.03375,40.928,0.736,54.360004,eccentric,6,3.0,22727.0,316013.0,281775.0,327403.0,287171.0
2026-04-07 18:05:08.574147,401562,2178938374,2178939899,-1.016992,0.083936,0.066368,-17.22875,20.2125,-6.3,40.928,0.736,54.360004,eccentric,6,3.0,22727.0,316013.0,281775.0,327403.0,287171.0
2026-04-07 18:05:08.581492,401563,2178947311,2178948652,-1.003328,0.101504,0.0976,-15.89875,19.53,-8.74125,41.632004,0.664,53.624004,eccentric,6,3.0,22727.0,316013.0,281775.0,327403.0,287171.0
2026-04-07 18:05:08.642397,401564,2178961810,2178963551,-1.0736,0.134688,0.119072,-17.9725,18.47125,-10.26375,41.144,0.752,54.000004,eccentric,6,3.0,22727.0,316013.0,281775.0,327403.0,287171.0
2026-04-07 18:05:08.646350,401565,2178970746,2178972255,-1.0736,0.134688,0.119072,-14.4025,16.0125,-9.47625,41.144,0.752,54.000004,eccentric,6,3.0,22727.0,316013.0,281775.0,327403.0,287171.0
2026-04-07 18:05:08.647597,401566,2178979668,2178980960,-1.0736,0.134688,0.11712,-12.2325,12.1625,-9.17875,41.144,0.752,54.000004,eccentric,6,3.0,22727.0,316013.0,281775.0,327403.0,287171.0
2026-04-07 18:05:08.674657,401577,2178994161,2178995904,-1.106784,0.130784,0.11712,-10.6575,9.073751,-7.16625,41.624,0.688,53.784004,eccentric,6,3.0,22756.0,316339.0,281982.0,327541.0,287291.0
2026-04-07 18:05:08.678877,401578,2179003092,2179004608,-1.09312,0.103456,0.105408,-8.12875,6.58875,-6.3525,41.568,0.832,53.144,eccentric,6,3.0,22756.0,316339.0,281982.0,327541.0,287291.0
2026-04-07 18:05:08.680502,401579,2179012025,2179013298,-1.09312,0.103456,0.105408,-5.74,3.94625,-5.9325,41.568,0.832,53.144,eccentric,6,3.0,22756.0,316339.0,281982.0,327541.0,287291.0
2026-04-07 18:05:08.682045,401580,2179026522,2179028221,-1.087264,0.099552,0.113216,-5.45125,1.8025,-5.3725,41.672,0.984,53.496002,eccentric,6,3.0,22756.0,316339.0,281982.0,327541.0,287291.0
2026-04-07 18:05:08.686421,401581,2179035479,2179036962,-1.087264,0.099552,0.113216,-3.9725,0.7875,-4.20875,41.672,0.984,53.496002,eccentric,6,3.0,22756.0,316339.0,281982.0,327541.0,287291.0
2026-04-07 18:05:08.688866,401582,2179044401,2179045699,-1.059936,0.130784,0.083936,-1.05875,-0.84875,-3.255,41.544003,1.32,53.160004,eccentric,6,3.0,22756.0,316339.0,281982.0,327541.0,287291.0
2026-04-07 18:05:08.692813,401583,2179053523,2179054545,-1.059936,0.130784,0.083936,1.56625,-2.73,-1.68875,41.544003,1.32,53.160004,eccentric,6,3.0,22756.0,316339.0,281982.0,327541.0,287291.0
2026-04-07 18:05:08.728160,401584,2179068080,2179069520,-1.038464,0.158112,0.062464,2.205,-3.185,-0.07,41.544003,0.872,54.096,eccentric,6,3.0,22756.0,316339.0,281982.0,327541.0,287291.0
2026-04-07 18:05:08.732655,401585,2179076991,2179078248,-1.038464,0.158112,0.062464,0.28875,-2.9225,0.55125,41.544003,0.872,54.096,eccentric,6,3.0,22756.0,316339.0,281982.0,327541.0,287291.0
2026-04-07 18:05:08.756886,401595,2179086021,2179087063,-1.0248,0.171776,0.007808,-4.26125,-2.3275,0.5775,41.488003,1.096,53.736004,eccentric,6,3.0,22641.0,315415.0,281232.0,326754.0,286570.0
2026-04-07 18:05:08.759316,401596,2179100524,2179101938,-0.99552,0.163968,-0.017568,-9.19625,-2.26625,-0.0525,41.488003,1.096,51.472004,eccentric,6,3.0,22641.0,315415.0,281232.0,326754.0,286570.0
2026-04-07 18:05:08.761726,401597,2179109499,2179110648,-0.99552,0.163968,-0.017568,-13.34375,-2.00375,-0.37625,41.352,1.056,51.472004,eccentric,6,3.0,22641.0,315415.0,281232.0,326754.0,286570.0
2026-04-07 18:05:08.764251,401598,2179118495,2179119404,-0.99552,0.163968,-0.017568,-16.1,-1.88125,-1.26,41.352,1.056,51.472004,eccentric,6,3.0,22641.0,315415.0,281232.0,326754.0,286570.0
2026-04-07 18:05:08.765877,401599,2179133057,2179134383,-1.0248,0.171776,-0.011712,-18.08625,-0.79625,-2.9575,40.992,0.944,53.128002,eccentric,6,3.0,22641.0,315415.0,281232.0,326754.0,286570.0
2026-04-07 18:05:08.776185,401600,2179142001,2179143119,-1.071648,0.162016,0.011712,-19.34625,-0.07875,-4.0425,41.160004,1.952,53.464,eccentric,6,3.0,22641.0,315415.0,281232.0,326754.0,286570.0
2026-04-07 18:05:08.782498,401601,2179151129,2179151826,-1.071648,0.162016,0.011712,-19.22375,-0.525,-4.24375,41.160004,1.952,53.464,eccentric,6,3.0,22641.0,315415.0,281232.0,326754.0,286570.0
2026-04-07 18:05:08.811249,401602,2179160540,2179162628,-1.071648,0.16592,0.042944,-17.395,-2.17,-4.515,41.160004,1.952,53.464,concentric,6,3.0,22641.0,315415.0,281232.0,326754.0,286570.0
2026-04-07 18:05:08.816030,401603,2179175039,2179175463,-1.04432,0.16592,0.042944,-14.595,-3.7625,-4.7775,41.776,1.976,52.544003,concentric,6,3.0,22641.0,315415.0,281232.0,326754.0,286570.0
2026-04-07 18:05:08.845156,401613,2179184884,2179186313,-1.01504,0.150304,0.052704,-11.66375,-4.05125,-5.08375,41.352,1.784,53.088,concentric,6,3.0,22549.0,314645.0,280592.0,326123.0,286075.0
2026-04-07 18:05:08.846859,401614,2179193923,2179195064,-1.01504,0.150304,0.052704,-10.19375,-3.955,-4.71625,41.352,1.784,53.088,concentric,6,3.0,22549.0,314645.0,280592.0,326123.0,286075.0
2026-04-07 18:05:08.849234,401615,2179202894,2179203755,-0.970144,0.115168,0.042944,-11.13,-5.285,-4.17375,41.672,2.256,53.736004,concentric,6,3.0,22549.0,314645.0,280592.0,326123.0,286075.0
2026-04-07 18:05:08.850824,401616,2179217479,2179218620,-0.970144,0.115168,0.042944,-13.2825,-5.90625,-3.955,41.672,2.256,53.736004,concentric,6,3.0,22549.0,314645.0,280592.0,326123.0,286075.0
2026-04-07 18:05:08.855827,401617,2179226417,2179227365,-1.05408,0.140544,0.005856,-16.52875,-5.71375,-3.45625,41.528004,2.24,53.688004,concentric,6,3.0,22549.0,314645.0,280592.0,326123.0,286075.0
2026-04-07 18:05:08.886983,401618,2179235420,2179236077,-1.05408,0.140544,0.005856,-16.40625,-5.90625,-2.3625,41.528004,2.24,53.688004,concentric,6,3.0,22549.0,314645.0,280592.0,326123.0,286075.0
2026-04-07 18:05:08.889159,401619,2179250254,2179250970,-1.048224,0.158112,-0.040992,-15.9425,-6.02,-1.79375,40.888,2.136,53.760002,concentric,6,3.0,22549.0,314645.0,280592.0,326123.0,286075.0
2026-04-07 18:05:08.893763,401620,2179259643,2179261709,-1.048224,0.158112,-0.040992,-16.98375,-6.64125,-1.19,40.888,2.136,53.760002,concentric,6,3.0,22549.0,314645.0,280592.0,326123.0,286075.0
2026-04-07 18:05:08.944536,401621,2179268648,2179270460,-1.0248,0.158112,0.017568,-17.64875,-6.3525,-1.39125,41.264004,2.112,55.120003,concentric,6,3.0,22549.0,314645.0,280592.0,326123.0,286075.0
2026-04-07 18:05:08.948922,401622,2179277621,2179279150,-1.0248,0.158112,0.017568,-17.15,-6.7375,-1.155,41.264004,2.112,55.120003,concentric,6,3.0,22549.0,314645.0,280592.0,326123.0,286075.0
2026-04-07 18:05:08.978881,401633,2179292390,2179294127,-1.042368,0.169824,0.060512,-16.82625,-6.95625,0.35875,40.976,2.376,53.592003,concentric,6,3.0,22516.0,314210.0,280186.0,325617.0,285696.0
2026-04-07 18:05:08.980568,401634,2179301333,2179302825,-1.011136,0.152256,0.070272,-15.995,-7.5775,1.95125,40.976,2.376,54.472004,concentric,6,3.0,22516.0,314210.0,280186.0,325617.0,285696.0
2026-04-07 18:05:08.982088,401635,2179310257,2179311524,-1.003328,0.152256,0.070272,-17.54375,-8.225,2.56375,40.816,2.496,54.472004,concentric,6,3.0,22516.0,314210.0,280186.0,325617.0,285696.0
2026-04-07 18:05:08.986343,401636,2179324845,2179326464,-1.020896,0.15616,0.025376,-20.86,-7.90125,2.65125,40.952003,2.232,54.464,concentric,6,3.0,22516.0,314210.0,280186.0,325617.0,285696.0
2026-04-07 18:05:08.988065,401637,2179333833,2179335232,-1.020896,0.15616,0.025376,-21.5775,-7.2975,2.9575,40.952003,2.232,54.464,concentric,6,3.0,22516.0,314210.0,280186.0,325617.0,285696.0
2026-04-07 18:05:08.989573,401638,2179342899,2179343954,-1.050176,0.183488,-0.001952,-20.23,-5.46,2.09125,40.864002,3.36,51.856003,concentric,6,3.0,22516.0,314210.0,280186.0,325617.0,285696.0
2026-04-07 18:05:08.992801,401639,2179351859,2179352688,-1.050176,0.183488,-0.001952,-19.25,-3.42125,1.435,40.864002,3.36,51.856003,concentric,6,3.0,22516.0,314210.0,280186.0,325617.0,285696.0
2026-04-07 18:05:09.000049,401640,2179366413,2179367570,-1.030656,0.154208,0.01952,-22.51375,-2.2925,0.385,40.440002,2.456,54.432003,concentric,6,3.0,22516.0,314210.0,280186.0,325617.0,285696.0
2026-04-07 18:05:09.006182,401641,2179375392,2179376283,-1.030656,0.154208,0.01952,-25.68125,-0.65625,-1.435,40.440002,2.456,54.432003,concentric,6,3.0,22516.0,314210.0,280186.0,325617.0,285696.0
2026-04-07 18:05:09.059267,401651,2179384791,2179385168,-1.042368,0.103456,0.076128,-27.0725,0.28,-2.23125,40.784,2.744,54.160004,concentric,6,3.0,22772.0,316311.0,281955.0,327520.0,287366.0
2026-04-07 18:05:09.060801,401652,2179394150,2179396006,-1.042368,0.103456,0.076128,-25.57625,-1.12,-2.485,40.784,2.744,54.160004,concentric,6,3.0,22772.0,316311.0,281955.0,327520.0,287366.0
2026-04-07 18:05:09.065047,401653,2179408648,2179410886,-1.03456,0.093696,0.134688,-22.61875,-2.89625,-1.14625,40.760002,3.744,53.776,concentric,6,3.0,22772.0,316311.0,281955.0,327520.0,287366.0
2026-04-07 18:05:09.066836,401654,2179417647,2179419643,-1.03456,0.093696,0.134688,-18.82125,-4.515,0.8925,40.760002,3.744,53.776,concentric,6,3.0,22772.0,316311.0,281955.0,327520.0,287366.0
2026-04-07 18:05:09.068391,401655,2179426567,2179428346,-1.075552,0.101504,0.121024,-19.6875,-6.08125,1.58375,40.432003,3.768,54.808002,concentric,6,3.0,22772.0,316311.0,281955.0,327520.0,287366.0
2026-04-07 18:05:09.074934,401656,2179441080,2179443249,-1.075552,0.101504,0.121024,-22.5575,-7.14,1.93375,40.432003,3.768,54.808002,concentric,6,3.0,22772.0,316311.0,281955.0,327520.0,287366.0
2026-04-07 18:05:09.103527,401657,2179450044,2179452029,-1.065792,0.13664,0.044896,-22.1375,-7.86625,0.84875,40.576,3.488,53.664,concentric,6,3.0,22772.0,316311.0,281955.0,327520.0,287366.0
2026-04-07 18:05:09.107984,401658,2179458965,2179460719,-1.065792,0.13664,0.044896,-19.67,-7.245,-0.2625,40.576,3.488,53.664,concentric,6,3.0,22772.0,316311.0,281955.0,327520.0,287366.0
2026-04-07 18:05:09.109629,401659,2179473444,2179475618,-1.048224,0.1952,0.025376,-15.12875,-6.71125,-2.38,41.112003,3.936,53.816,concentric,6,3.0,22772.0,316311.0,281955.0,327520.0,287366.0
2026-04-07 18:05:09.141756,401669,2179482380,2179484774,-0.938912,0.208864,0.056608,-12.41625,-4.57625,-4.9525,39.064003,4.336,53.288002,concentric,6,3.0,22873.0,317009.0,282492.0,327979.0,287717.0
2026-04-07 18:05:09.143366,401670,2179491356,2179493528,-0.938912,0.208864,0.056608,-14.595,-2.7125,-5.92375,40.416,4.336,53.288002,concentric,6,3.0,22873.0,317009.0,282492.0,327979.0,287717.0
2026-04-07 18:05:09.147625,401671,2179505909,2179506421,-1.036512,0.226432,0.091744,-18.7425,-0.95375,-6.22125,40.688004,4.168,53.920002,concentric,6,3.0,22873.0,317009.0,282492.0,327979.0,287717.0
2026-04-07 18:05:09.151252,401672,2179515330,2179517201,-1.036512,0.226432,0.091744,-21.2275,0.18375,-6.0025,40.688004,4.168,53.920002,concentric,6,3.0,22873.0,317009.0,282492.0,327979.0,287717.0
2026-04-07 18:05:09.156310,401673,2179524263,2179525939,-1.09312,0.163968,0.054656,-22.68,0.42875,-3.85875,39.896004,4.352,54.144,concentric,6,3.0,22873.0,317009.0,282492.0,327979.0,287717.0
2026-04-07 18:05:09.184772,401674,2179533179,2179534637,-1.09312,0.163968,0.054656,-27.65875,1.00625,-2.16125,39.896004,4.352,54.144,concentric,6,3.0,22873.0,317009.0,282492.0,327979.0,287717.0
2026-04-07 18:05:09.189304,401675,2179547739,2179549538,-1.048224,0.105408,0.042944,-34.405,2.1875,-2.5725,40.552002,4.616,53.632004,concentric,6,3.0,22873.0,317009.0,282492.0,327979.0,287717.0
2026-04-07 18:05:09.190932,401676,2179556632,2179558211,-1.048224,0.105408,0.042944,-38.38625,4.1125,-4.48,40.552002,4.616,53.632004,concentric,6,3.0,22873.0,317009.0,282492.0,327979.0,287717.0
2026-04-07 18:05:09.197510,401677,2179565576,2179566952,-1.069696,0.128832,0.050752,-37.61625,5.355,-6.65875,39.88,4.592,54.128002,concentric,6,3.0,22873.0,317009.0,282492.0,327979.0,287717.0
2026-04-07 18:05:09.242765,401678,2179580102,2179581871,-1.069696,0.128832,0.050752,-33.0225,5.985,-7.77,39.88,4.592,54.128002,concentric,6,3.0,22873.0,317009.0,282492.0,327979.0,287717.0
2026-04-07 18:05:09.270074,401689,2179589114,2179590640,-1.056032,0.160064,0.064416,-26.22375,3.92875,-7.83125,40.896004,5.264,53.608,concentric,6,3.0,22511.0,313699.0,279537.0,324582.0,284683.0
2026-04-07 18:05:09.273078,401690,2179598046,2179599320,-1.056032,0.160064,0.064416,-21.4025,0.91875,-6.895,40.896004,5.264,53.608,concentric,6,3.0,22511.0,313699.0,279537.0,324582.0,284683.0
2026-04-07 18:05:09.278855,401691,2179612505,2179614231,-1.120448,0.121024,0.046848,-17.59625,-2.7125,-4.0775,40.968002,4.776,53.312004,concentric,6,3.0,22511.0,313699.0,279537.0,324582.0,284683.0
2026-04-07 18:05:09.280528,401692,2179621469,2179622955,-1.120448,0.121024,0.046848,-16.0125,-5.4075,-2.625,40.968002,4.776,53.312004,concentric,6,3.0,22511.0,313699.0,279537.0,324582.0,284683.0
2026-04-07 18:05:09.282081,401693,2179630582,2179631655,-1.16144,0.050752,0.056608,-15.5925,-6.335,-3.24625,40.376003,5.432,54.736004,concentric,6,3.0,22511.0,313699.0,279537.0,324582.0,284683.0
2026-04-07 18:05:09.287101,401694,2179639535,2179640402,-1.16144,0.050752,0.056608,-10.12375,-8.32125,-1.16375,40.376003,5.432,54.736004,concentric,6,3.0,22511.0,313699.0,279537.0,324582.0,284683.0
2026-04-07 18:05:09.288719,401695,2179654028,2179655349,-1.169248,0.121024,0.121024,-0.88375,-9.135,0.91875,40.408,5.512,54.480003,concentric,6,3.0,22511.0,313699.0,279537.0,324582.0,284683.0
2026-04-07 18:05:09.294990,401696,2179663009,2179664097,-1.138016,0.10736,0.163968,2.6075,-10.28125,2.17,40.408,5.512,56.600002,concentric,6,3.0,22511.0,313699.0,279537.0,324582.0,284683.0
2026-04-07 18:05:09.323592,401697,2179671952,2179672791,-1.138016,0.10736,0.163968,-0.5425,-10.57,2.58125,39.784,5.384,56.600002,concentric,6,3.0,22511.0,313699.0,279537.0,324582.0,284683.0
2026-04-07 18:05:09.353895,401707,2179686628,2179687984,-1.110688,0.138592,0.160064,-4.2,-11.0775,3.31625,40.024002,5.392,53.992004,concentric,6,3.0,21925.0,308735.0,275274.0,320337.0,281603.0
2026-04-07 18:05:09.355552,401708,2179695570,2179696688,-1.110688,0.138592,0.160064,-4.935,-11.375,4.15625,40.024002,5.392,53.992004,concentric,6,3.0,21925.0,308735.0,275274.0,320337.0,281603.0
2026-04-07 18:05:09.357094,401709,2179704480,2179705486,-1.067744,0.173728,0.13664,-2.38875,-12.24125,3.78,40.024002,4.96,55.312004,concentric,6,3.0,21925.0,308735.0,275274.0,320337.0,281603.0
2026-04-07 18:05:09.361298,401710,2179718988,2179720413,-1.067744,0.173728,0.13664,2.2575,-12.18875,2.5025,40.024002,4.96,55.312004,concentric,6,3.0,21925.0,308735.0,275274.0,320337.0,281603.0
2026-04-07 18:05:09.362937,401711,2179727954,2179729107,-1.028704,0.249856,0.0976,4.03375,-11.445,0.91875,39.952003,4.952,55.136,concentric,6,3.0,21925.0,308735.0,275274.0,320337.0,281603.0
2026-04-07 18:05:09.368661,401712,2179736863,2179737890,-1.028704,0.249856,0.0976,4.7775,-10.745,-0.49875,39.952003,4.952,55.136,concentric,6,3.0,21925.0,308735.0,275274.0,320337.0,281603.0
2026-04-07 18:05:09.397306,401713,2179745845,2179746628,-0.979904,0.257664,0.070272,4.025,-9.7125,-2.49375,39.480003,5.248,55.472004,concentric,6,3.0,21925.0,308735.0,275274.0,320337.0,281603.0
2026-04-07 18:05:09.401835,401714,2179760339,2179761511,-0.979904,0.257664,0.070272,-0.5425,-7.3675,-4.05125,39.480003,5.248,55.472004,concentric,6,3.0,21925.0,308735.0,275274.0,320337.0,281603.0
2026-04-07 18:05:09.403309,401715,2179769221,2179770243,-0.981856,0.201056,0.05856,-5.60875,-4.795,-5.52125,39.904003,5.552,54.608,concentric,6,3.0,21925.0,308735.0,275274.0,320337.0,281603.0
2026-04-07 18:05:09.413921,401716,2179778196,2179778937,-0.981856,0.201056,0.05856,-10.2025,-1.86375,-7.06125,39.904003,5.552,54.608,concentric,6,3.0,21925.0,308735.0,275274.0,320337.0,281603.0
2026-04-07 18:05:09.454294,401726,2179793159,2179793922,-0.993568,0.140544,0.06832,-11.54125,0.35875,-8.4,39.88,5.392,55.256004,concentric,6,3.0,21674.0,306446.0,273303.0,318171.0,279869.0
2026-04-07 18:05:09.455807,401727,2179802563,2179804755,-0.993568,0.140544,0.06832,-8.7675,1.86375,-10.40375,39.88,5.392,55.256004,concentric,6,3.0,21674.0,306446.0,273303.0,318171.0,279869.0
2026-04-07 18:05:09.460131,401728,2179811521,2179813441,-0.983808,0.109312,0.080032,-4.47125,2.765,-12.24125,39.712,5.256,54.688004,concentric,6,3.0,21674.0,306446.0,273303.0,318171.0,279869.0
2026-04-07 18:05:09.462524,401729,2179820496,2179822128,-0.983808,0.109312,0.080032,-0.8575,3.325,-13.95625,39.712,5.256,54.688004,concentric,6,3.0,21674.0,306446.0,273303.0,318171.0,279869.0
2026-04-07 18:05:09.465732,401730,2179835004,2179837037,-1.04432,0.10736,0.0976,3.535,3.22875,-14.525,39.160004,5.696,54.368004,concentric,6,3.0,21674.0,306446.0,273303.0,318171.0,279869.0
2026-04-07 18:05:09.496980,401731,2179843991,2179845749,-1.067744,0.093696,0.115168,8.2775,2.3275,-15.00625,39.160004,5.72,54.472004,concentric,6,3.0,21674.0,306446.0,273303.0,318171.0,279869.0
2026-04-07 18:05:09.501347,401732,2179852959,2179854456,-1.067744,0.093696,0.115168,13.78125,-0.175,-14.20125,39.344,5.72,54.472004,concentric,6,3.0,21674.0,306446.0,273303.0,318171.0,279869.0
2026-04-07 18:05:09.503773,401733,2179867425,2179869427,-1.163392,0.06832,0.173728,20.9125,-3.91125,-14.56875,39.048,5.28,55.344,concentric,6,3.0,21674.0,306446.0,273303.0,318171.0,279869.0
2026-04-07 18:05:09.507926,401734,2179876406,2179878165,-1.163392,0.06832,0.173728,29.7325,-9.09125,-14.1925,39.048,5.28,55.344,concentric,6,3.0,21674.0,306446.0,273303.0,318171.0,279869.0
2026-04-07 18:05:09.573366,401745,2179885378,2179886906,-1.311744,0.20496,0.16592,40.845,-14.42875,-12.24125,38.848003,4.904,57.504,concentric,6,3.0,21774.0,306944.0,273575.0,318258.0,279865.0
2026-04-07 18:05:09.577593,401746,2179899922,2179901829,-1.311744,0.20496,0.16592,53.7425,-19.678751,-7.65625,38.848003,4.904,57.504,concentric,6,3.0,21774.0,306944.0,273575.0,318258.0,279865.0
2026-04-07 18:05:09.579288,401747,2179908846,2179910527,-1.046272,0.193248,0.228384,62.055,-24.0975,-2.6425,39.144,4.424,56.488003,concentric,6,3.0,21774.0,306944.0,273575.0,318258.0,279865.0
2026-04-07 18:05:09.580845,401748,2179917760,2179919203,-1.046272,0.193248,0.228384,56.93625,-27.2825,0.72625,39.144,4.424,56.488003,concentric,6,3.0,21774.0,306944.0,273575.0,318258.0,279865.0
2026-04-07 18:05:09.585056,401749,2179926704,2179927931,-1.079456,0.222528,0.169824,39.795002,-25.48,2.0825,38.656002,4.528,57.624004,concentric,6,3.0,21774.0,306944.0,273575.0,318258.0,279865.0
2026-04-07 18:05:09.586772,401750,2179941202,2179942915,-1.079456,0.222528,0.169824,22.05875,-23.1175,2.93125,38.656002,4.528,57.624004,concentric,6,3.0,21774.0,306944.0,273575.0,318258.0,279865.0
2026-04-07 18:05:09.588554,401751,2179950301,2179951643,-0.95648,0.179584,0.099552,8.1025,-22.925,4.1125,38.56,3.424,57.608,concentric,6,3.0,21774.0,306944.0,273575.0,318258.0,279865.0
2026-04-07 18:05:09.592410,401752,2179959249,2179960386,-0.95648,0.179584,0.099552,-2.8525,-21.8575,3.08875,38.56,3.424,57.608,concentric,6,3.0,21774.0,306944.0,273575.0,318258.0,279865.0
2026-04-07 18:05:09.621049,401753,2179973814,2179975271,-0.870592,0.12688,0.050752,-3.0275,-19.3375,1.04125,37.84,3.816,57.920002,concentric,6,3.0,21774.0,306944.0,273575.0,318258.0,279865.0
2026-04-07 18:05:09.625804,401754,2179982740,2179984008,-0.870592,0.12688,0.050752,0.385,-17.94625,-1.61875,37.84,3.816,57.920002,concentric,6,3.0,21774.0,306944.0,273575.0,318258.0,279865.0
2026-04-07 18:05:09.649598,401764,2179991824,2179992775,-0.991616,0.1952,0.089792,9.975,-15.04125,-6.64125,37.624,4.304,57.176003,concentric,6,3.0,22239.0,311004.0,276971.0,321950.0,282869.0
2026-04-07 18:05:09.653825,401765,2180006482,2180007693,-1.016992,0.232288,0.072224,19.03125,-13.230001,-9.31,37.952003,3.584,57.960003,concentric,6,3.0,22239.0,311004.0,276971.0,321950.0,282869.0
2026-04-07 18:05:09.655562,401766,2180015453,2180016422,-1.016992,0.232288,0.072224,23.6075,-12.355001,-10.85875,37.952003,3.584,57.960003,concentric,6,3.0,22239.0,311004.0,276971.0,321950.0,282869.0
2026-04-07 18:05:09.659643,401767,2180024553,2180025181,-1.016992,0.142496,0.101504,20.3175,-10.01875,-11.19125,37.952003,3.584,57.960003,concentric,6,3.0,22239.0,311004.0,276971.0,321950.0,282869.0
2026-04-07 18:05:09.684006,401768,2180033786,2180035950,-0.981856,0.142496,0.101504,13.755,-5.76625,-11.83875,37.672,3.888,58.000004,concentric,6,3.0,22239.0,311004.0,276971.0,321950.0,282869.0
2026-04-07 18:05:09.687990,401769,2180048309,2180048784,-0.964288,0.064416,0.109312,7.3675,-2.61625,-11.5325,37.624,3.32,58.056004,concentric,6,3.0,22239.0,311004.0,276971.0,321950.0,282869.0
2026-04-07 18:05:09.692802,401770,2180057653,2180059529,-0.964288,0.064416,0.109312,4.2,0.175,-11.19125,37.624,3.32,58.056004,concentric,6,3.0,22239.0,311004.0,276971.0,321950.0,282869.0
2026-04-07 18:05:09.699145,401771,2180066591,2180068281,-0.968192,0.083936,0.101504,3.3075,2.345,-10.42125,38.0,3.432,58.712,concentric,6,3.0,22239.0,311004.0,276971.0,321950.0,282869.0
2026-04-07 18:05:09.727889,401772,2180081110,2180083177,-0.968192,0.083936,0.101504,4.7075,3.5525,-9.2225,38.0,3.432,58.712,concentric,6,3.0,22239.0,311004.0,276971.0,321950.0,282869.0
2026-04-07 18:05:09.754284,401782,2180090513,2180092208,-0.940864,0.0976,0.072224,7.04375,4.29625,-7.81375,38.104,3.824,57.640003,concentric,6,3.0,22457.0,313366.0,279094.0,324334.0,284856.0
2026-04-07 18:05:09.755858,401783,2180099462,2180100962,-0.940864,0.0976,0.072224,7.91875,4.90875,-6.30875,38.104,3.824,57.640003,concentric,6,3.0,22457.0,313366.0,279094.0,324334.0,284856.0
2026-04-07 18:05:09.760058,401784,2180108475,2180109692,-1.011136,0.119072,0.023424,9.16125,6.125,-5.74,37.072002,3.52,59.216003,concentric,6,3.0,22457.0,313366.0,279094.0,324334.0,284856.0
2026-04-07 18:05:09.762141,401785,2180123013,2180124700,-1.011136,0.119072,0.023424,11.59375,6.99125,-6.48375,37.072002,3.52,59.216003,concentric,6,3.0,22457.0,313366.0,279094.0,324334.0,284856.0
2026-04-07 18:05:09.763510,401786,2180132080,2180133420,-0.972096,0.091744,0.050752,15.42625,8.0675,-7.14,37.392002,3.384,59.496002,concentric,6,3.0,22457.0,313366.0,279094.0,324334.0,284856.0
2026-04-07 18:05:09.794432,401787,2180141164,2180142167,-0.972096,0.091744,0.050752,21.4725,9.24875,-7.8575,37.392002,3.384,59.496002,concentric,6,3.0,22457.0,313366.0,279094.0,324334.0,284856.0
2026-04-07 18:05:09.798877,401788,2180155642,2180157047,-0.950624,0.076128,0.080032,30.5725,10.6575,-8.49625,37.864002,2.688,58.728004,concentric,6,3.0,22457.0,313366.0,279094.0,324334.0,284856.0
2026-04-07 18:05:09.801268,401789,2180164730,2180165730,-0.950624,0.076128,0.080032,38.98125,12.55625,-8.68875,37.864002,2.688,58.728004,concentric,6,3.0,22457.0,313366.0,279094.0,324334.0,284856.0
2026-04-07 18:05:09.804948,401790,2180173724,2180174446,-0.935008,0.115168,0.138592,42.58625,14.63,-8.26,37.728,2.416,58.544003,concentric,6,3.0,22457.0,313366.0,279094.0,324334.0,284856.0
2026-04-07 18:05:09.847558,401791,2180183061,2180185204,-0.935008,0.115168,0.138592,40.9675,16.73,-8.2425,37.728,2.416,58.544003,concentric,6,3.0,22457.0,313366.0,279094.0,324334.0,284856.0
2026-04-07 18:05:09.874313,401802,2180197603,2180198077,-0.940864,0.140544,0.119072,34.86,19.04,-8.14625,38.728,1.592,59.992004,concentric,6,3.0,23544.0,323796.0,288805.0,335821.0,294968.0
2026-04-07 18:05:09.875858,401803,2180207017,2180208819,-0.94672,0.179584,0.144448,28.97125,22.015,-8.30375,39.4,2.312,58.448,concentric,6,3.0,23544.0,323796.0,288805.0,335821.0,294968.0
2026-04-07 18:05:09.878304,401804,2180215939,2180217522,-0.94672,0.179584,0.144448,26.11875,25.3925,-9.91375,39.4,2.312,58.448,concentric,6,3.0,23544.0,323796.0,288805.0,335821.0,294968.0
2026-04-07 18:05:09.881740,401805,2180224890,2180226226,-0.94672,0.179584,0.144448,26.11,27.51875,-12.2325,39.4,2.312,58.448,concentric,6,3.0,23544.0,323796.0,288805.0,335821.0,294968.0
2026-04-07 18:05:09.883220,401806,2180239457,2180241134,-1.06384,0.244,0.154208,26.25875,28.9275,-15.1725,38.456,1.384,58.336002,concentric,6,3.0,23544.0,323796.0,288805.0,335821.0,294968.0
2026-04-07 18:05:09.887690,401807,2180248518,2180249853,-1.098976,0.251808,0.140544,22.88125,29.95125,-16.93125,38.952003,1.616,59.064003,concentric,6,3.0,23544.0,323796.0,288805.0,335821.0,294968.0
2026-04-07 18:05:09.889115,401808,2180257465,2180258654,-1.098976,0.251808,0.140544,17.255,29.18125,-17.92,38.952003,1.616,59.064003,concentric,6,3.0,23544.0,323796.0,288805.0,335821.0,294968.0
2026-04-07 18:05:09.923718,401809,2180271967,2180273571,-1.13216,0.167872,0.111264,11.90875,28.6125,-19.15375,39.424004,1.976,58.744003,concentric,6,3.0,23544.0,323796.0,288805.0,335821.0,294968.0
2026-04-07 18:05:09.928244,401810,2180280934,2180282262,-1.13216,0.167872,0.111264,9.73875,27.08125,-19.5825,39.424004,1.976,58.744003,concentric,6,3.0,23544.0,323796.0,288805.0,335821.0,294968.0
2026-04-07 18:05:09.950806,401820,2180289885,2180291136,-1.059936,0.12688,-0.02928,13.0375,23.89625,-20.51875,39.280003,1.376,58.752003,concentric,6,3.0,24322.0,331369.0,295575.0,343638.0,301413.0
2026-04-07 18:05:09.952341,401821,2180304427,2180306142,-1.059936,0.12688,-0.02928,19.1975,23.24,-20.6675,39.280003,1.376,58.752003,concentric,6,3.0,24322.0,331369.0,295575.0,343638.0,301413.0
2026-04-07 18:05:09.956533,401822,2180313417,2180314889,-1.136064,0.169824,-0.031232,22.3825,21.84,-19.6175,40.032,1.432,61.008003,concentric,6,3.0,24322.0,331369.0,295575.0,343638.0,301413.0
2026-04-07 18:05:09.959510,401823,2180322392,2180323633,-1.136064,0.169824,-0.031232,15.995,21.210001,-21.245,40.032,1.432,61.008003,concentric,6,3.0,24322.0,331369.0,295575.0,343638.0,301413.0
2026-04-07 18:05:09.990810,401824,2180336976,2180338579,-1.165344,0.119072,-0.070272,9.4675,19.90625,-20.2475,39.536003,1.312,60.952003,concentric,6,3.0,24322.0,331369.0,295575.0,343638.0,301413.0
2026-04-07 18:05:09.993357,401825,2180345946,2180347298,-1.165344,0.142496,-0.0488,9.10875,19.18875,-19.69625,39.536003,1.312,60.952003,concentric,6,3.0,24322.0,331369.0,295575.0,343638.0,301413.0
2026-04-07 18:05:09.997776,401826,2180354854,2180356024,-1.194624,0.142496,-0.0488,12.0225,18.55875,-18.62,39.984,1.296,61.424004,concentric,6,3.0,24322.0,331369.0,295575.0,343638.0,301413.0
2026-04-07 18:05:10.000193,401827,2180363768,2180364708,-1.194624,0.142496,-0.0488,15.75875,17.710001,-18.41,39.984,1.296,61.424004,concentric,6,3.0,24322.0,331369.0,295575.0,343638.0,301413.0
2026-04-07 18:05:10.028504,401828,2180378338,2180379640,-1.155584,0.154208,0.027328,19.60875,16.625,-18.025,40.232002,1.096,59.056004,concentric,6,3.0,24322.0,331369.0,295575.0,343638.0,301413.0
2026-04-07 18:05:10.033088,401829,2180387252,2180388376,-1.136064,0.167872,0.081984,21.7,15.67125,-17.12375,40.480003,0.248,58.776,concentric,6,3.0,24322.0,331369.0,295575.0,343638.0,301413.0
2026-04-07 18:05:10.062564,401839,2180396160,2180397095,-1.136064,0.167872,0.081984,21.525,15.25125,-16.44125,40.480003,0.248,58.776,concentric,6,3.0,24174.0,329973.0,294425.0,342260.0,300210.0
2026-04-07 18:05:10.064288,401840,2180410663,2180411985,-1.128256,0.181536,0.093696,19.88875,15.68,-15.42625,40.272003,0.312,59.928,concentric,6,3.0,24174.0,329973.0,294425.0,342260.0,300210.0
2026-04-07 18:05:10.066044,401841,2180419729,2180420748,-1.128256,0.181536,0.093696,17.5525,17.2375,-14.44625,40.272003,0.312,59.928,concentric,6,3.0,24174.0,329973.0,294425.0,342260.0,300210.0
2026-04-07 18:05:10.070060,401842,2180428777,2180429577,-1.114592,0.130784,0.072224,14.77875,18.03375,-13.71125,40.992,0.456,58.856003,concentric,6,3.0,24174.0,329973.0,294425.0,342260.0,300210.0
2026-04-07 18:05:10.071708,401843,2180438189,2180440356,-1.114592,0.130784,0.072224,12.62625,18.41,-12.97625,40.992,0.456,58.856003,concentric,6,3.0,24174.0,329973.0,294425.0,342260.0,300210.0
2026-04-07 18:05:10.104471,401844,2180452689,2180453205,-1.089216,0.10736,0.089792,15.61875,18.69875,-12.48625,41.008003,0.448,59.744003,concentric,6,3.0,24174.0,329973.0,294425.0,342260.0,300210.0
2026-04-07 18:05:10.108840,401845,2180462098,2180463969,-1.089216,0.10736,0.089792,22.93375,18.75125,-12.22375,41.008003,0.448,59.744003,concentric,6,3.0,24174.0,329973.0,294425.0,342260.0,300210.0
2026-04-07 18:05:10.111600,401846,2180471025,2180472680,-1.081408,0.179584,0.109312,30.38875,18.655,-12.6175,41.328003,-0.144,59.304005,concentric,6,3.0,24174.0,329973.0,294425.0,342260.0,300210.0
2026-04-07 18:05:10.144449,401847,2180485534,2180487634,-1.081408,0.179584,0.109312,33.32875,17.77125,-13.7725,41.328003,-0.144,59.304005,concentric,6,3.0,24174.0,329973.0,294425.0,342260.0,300210.0
2026-04-07 18:05:10.175482,401858,2180494578,2180496426,-1.1224,0.22448,0.128832,31.70125,17.6225,-14.1925,40.968002,-0.6,61.808002,concentric,6,3.0,23256.0,321334.0,286514.0,332929.0,292004.0
2026-04-07 18:05:10.177078,401859,2180503508,2180505138,-1.1224,0.22448,0.128832,26.34625,17.91125,-14.761251,40.968002,-0.6,61.808002,concentric,6,3.0,23256.0,321334.0,286514.0,332929.0,292004.0
2026-04-07 18:05:10.181363,401860,2180518004,2180520048,-1.175104,0.23424,0.109312,16.79125,17.4475,-15.4875,41.848003,0.072,58.584003,concentric,6,3.0,23256.0,321334.0,286514.0,332929.0,292004.0
2026-04-07 18:05:10.183001,401861,2180526926,2180528781,-1.179008,0.199104,0.10736,7.665,18.0075,-15.627501,41.848003,0.072,57.936005,concentric,6,3.0,23256.0,321334.0,286514.0,332929.0,292004.0
2026-04-07 18:05:10.185463,401862,2180535892,2180537496,-1.179008,0.199104,0.10736,-3.7625,17.7275,-16.17,41.384003,-0.44,57.936005,concentric,6,3.0,23256.0,321334.0,286514.0,332929.0,292004.0
2026-04-07 18:05:10.187136,401863,2180544934,2180546231,-1.179008,0.199104,0.10736,-11.5675,16.87,-16.03875,41.384003,-0.44,57.936005,concentric,6,3.0,23256.0,321334.0,286514.0,332929.0,292004.0
2026-04-07 18:05:10.191578,401864,2180559540,2180561187,-1.194624,0.122976,0.095648,-13.7725,16.24,-14.9975,41.696003,-0.624,58.424004,concentric,6,3.0,23256.0,321334.0,286514.0,332929.0,292004.0
2026-04-07 18:05:10.220415,401865,2180568500,2180569901,-1.198528,0.0976,0.066368,-12.573751,14.58625,-13.5275,41.832,0.312,57.576004,concentric,6,3.0,23256.0,321334.0,286514.0,332929.0,292004.0
2026-04-07 18:05:10.224775,401866,2180577403,2180578624,-1.198528,0.0976,0.066368,-9.948751,12.495,-11.69,41.832,0.312,57.576004,concentric,6,3.0,23256.0,321334.0,286514.0,332929.0,292004.0
2026-04-07 18:05:10.255516,401876,2180592462,2180593564,-1.149728,0.085888,0.052704,-7.6475,10.2375,-9.948751,42.056004,-0.176,58.480003,concentric,6,3.0,23737.0,324379.0,288529.0,334633.0,293366.0
2026-04-07 18:05:10.257054,401877,2180601448,2180602401,-1.149728,0.085888,0.052704,-5.27625,8.5225,-7.455,42.056004,-0.176,58.480003,concentric,6,3.0,23737.0,324379.0,288529.0,334633.0,293366.0
2026-04-07 18:05:10.261335,401878,2180610458,2180611133,-1.138016,0.119072,0.027328,-3.57875,6.8425,-5.81875,41.504,-0.336,60.472004,concentric,6,3.0,23737.0,324379.0,288529.0,334633.0,293366.0
2026-04-07 18:05:10.264728,401879,2180619776,2180621902,-1.138016,0.119072,0.027328,-2.0125,6.3,-4.94375,41.504,-0.336,60.472004,concentric,6,3.0,23737.0,324379.0,288529.0,334633.0,293366.0
2026-04-07 18:05:10.268736,401880,2180634286,2180634754,-1.124352,0.162016,0.013664,-0.91,5.3025,-3.92,42.288002,0.096,58.144,concentric,6,3.0,23737.0,324379.0,288529.0,334633.0,293366.0
2026-04-07 18:05:10.297286,401881,2180643614,2180645556,-1.124352,0.162016,0.013664,-1.365,4.45375,-3.80625,42.288002,0.096,58.144,concentric,6,3.0,23737.0,324379.0,288529.0,334633.0,293366.0
2026-04-07 18:05:10.301824,401882,2180652660,2180654260,-1.1224,0.167872,0.050752,-2.415,3.9725,-3.535,41.992,-0.4,58.160004,concentric,6,3.0,23737.0,324379.0,288529.0,334633.0,293366.0
2026-04-07 18:05:10.303296,401883,2180667114,2180669135,-1.1224,0.167872,0.080032,-2.33625,2.765,-2.87875,41.992,-0.4,58.160004,concentric,6,3.0,23737.0,324379.0,288529.0,334633.0,293366.0
2026-04-07 18:05:10.309972,401884,2180676008,2180677847,-1.095072,0.142496,0.080032,1.61875,0.7,-2.03875,41.912003,0.048,58.208004,concentric,6,3.0,23737.0,324379.0,288529.0,334633.0,293366.0
2026-04-07 18:05:10.338510,401885,2180684981,2180686595,-1.095072,0.142496,0.080032,4.025,-1.39125,-2.12625,41.912003,0.048,58.208004,concentric,6,3.0,23737.0,324379.0,288529.0,334633.0,293366.0
2026-04-07 18:05:10.365600,401895,2180694483,2180695618,-1.10288,0.132736,0.08784,7.20125,-2.1175,-2.17875,41.832,-0.04,58.480003,concentric,6,3.0,23674.0,323537.0,287725.0,333625.0,292519.0
2026-04-07 18:05:10.367132,401896,2180708960,2180710547,-1.087264,0.119072,0.076128,11.62,-3.01,-1.44375,42.224003,-0.488,59.672005,concentric,6,3.0,23674.0,323537.0,287725.0,333625.0,292519.0
2026-04-07 18:05:10.371368,401897,2180717863,2180719253,-1.087264,0.119072,0.076128,16.33625,-3.815,-2.0125,42.224003,-0.488,59.672005,concentric,6,3.0,23674.0,323537.0,287725.0,333625.0,292519.0
2026-04-07 18:05:10.373104,401898,2180726802,2180727930,-1.087264,0.119072,0.076128,20.95625,-3.38625,-3.1325,42.224003,-0.488,59.672005,concentric,6,3.0,23674.0,323537.0,287725.0,333625.0,292519.0
2026-04-07 18:05:10.374596,401899,2180741343,2180742845,-1.110688,0.144448,0.05856,25.12125,-3.03625,-4.55875,42.312,-1.176,60.08,concentric,6,3.0,23674.0,323537.0,287725.0,333625.0,292519.0
2026-04-07 18:05:10.382631,401900,2180750271,2180751604,-1.136064,0.212768,0.066368,27.1425,-2.8525,-6.37875,41.552002,-0.992,59.992004,concentric,6,3.0,23674.0,323537.0,287725.0,333625.0,292519.0
2026-04-07 18:05:10.441967,401901,2180759199,2180760296,-1.136064,0.212768,0.066368,26.20625,-1.96,-6.93,41.552002,-0.992,59.992004,concentric,6,3.0,23674.0,323537.0,287725.0,333625.0,292519.0
2026-04-07 18:05:10.444261,401902,2180773664,2180775224,-1.1712,0.218624,0.122976,25.1125,-1.09375,-7.81375,41.528004,-1.488,58.712,concentric,6,3.0,23674.0,323537.0,287725.0,333625.0,292519.0
2026-04-07 18:05:10.448890,401903,2180782564,2180783921,-1.1712,0.218624,0.122976,21.3325,-1.295,-8.11125,41.528004,-1.488,58.712,concentric,6,3.0,23674.0,323537.0,287725.0,333625.0,292519.0
2026-04-07 18:05:10.477049,401914,2180791615,2180792650,-1.223904,0.20496,0.142496,18.1825,-1.26875,-7.25375,42.032,-1.504,58.872,concentric,6,3.0,23600.0,322628.0,286794.0,332482.0,291555.0
2026-04-07 18:05:10.481449,401915,2180800630,2180801388,-1.223904,0.20496,0.142496,15.25125,-1.05,-7.0525,42.032,-1.504,58.872,concentric,6,3.0,23600.0,322628.0,286794.0,332482.0,291555.0
2026-04-07 18:05:10.483081,401916,2180815539,2180816289,-1.284416,0.177632,0.113216,10.71,-1.645,-6.95625,41.856003,-1.088,59.024002,concentric,6,3.0,23600.0,322628.0,286794.0,332482.0,291555.0
2026-04-07 18:05:10.486124,401917,2180824930,2180827070,-1.284416,0.177632,0.113216,7.4375,-1.4875,-5.80125,41.856003,-1.088,59.024002,concentric,6,3.0,23600.0,322628.0,286794.0,332482.0,291555.0
2026-04-07 18:05:10.487988,401918,2180834010,2180835837,-1.335168,0.189344,0.06832,0.65625,-1.16375,-6.06375,41.440002,-1.8,60.56,concentric,6,3.0,23600.0,322628.0,286794.0,332482.0,291555.0
2026-04-07 18:05:10.489582,401919,2180843020,2180844545,-1.335168,0.189344,0.06832,-7.595,0.2975,-4.6375,41.440002,-1.8,60.56,concentric,6,3.0,23600.0,322628.0,286794.0,332482.0,291555.0
2026-04-07 18:05:10.492845,401920,2180857556,2180859502,-1.387872,0.124928,0.0488,-13.011251,0.23625,-2.73,41.904003,-1.32,60.952003,concentric,6,3.0,23600.0,322628.0,286794.0,332482.0,291555.0
2026-04-07 18:05:10.498734,401921,2180866514,2180868227,-1.387872,0.124928,0.0488,-12.71375,-0.6125,-0.6125,41.904003,-1.32,60.952003,concentric,6,3.0,23600.0,322628.0,286794.0,332482.0,291555.0
2026-04-07 18:05:10.527253,401922,2180875449,2180876934,-1.42496,0.111264,0.03904,-6.64125,-1.47875,1.1375,41.112003,-1.576,60.816,concentric,6,3.0,23600.0,322628.0,286794.0,332482.0,291555.0
2026-04-07 18:05:10.531887,401923,2180890052,2180891827,-1.438624,0.16592,0.044896,1.2775,-3.68375,1.9425,41.672,-1.4,59.680004,concentric,6,3.0,23600.0,322628.0,286794.0,332482.0,291555.0
2026-04-07 18:05:10.555834,401933,2180899056,2180900567,-1.438624,0.16592,0.044896,8.40875,-5.845,2.98375,41.672,-1.4,59.680004,concentric,6,3.0,23545.0,322155.0,286435.0,332113.0,291330.0
2026-04-07 18:05:10.560062,401934,2180907998,2180909312,-1.438624,0.16592,0.044896,12.0925,-7.95375,3.6575,41.672,-1.4,59.680004,concentric,6,3.0,23545.0,322155.0,286435.0,332113.0,291330.0
2026-04-07 18:05:10.561781,401935,2180922589,2180924264,-1.450336,0.218624,0.044896,11.5675,-7.9975,4.57625,41.304,-1.344,57.04,concentric,6,3.0,23545.0,322155.0,286435.0,332113.0,291330.0
2026-04-07 18:05:10.563392,401936,2180931534,2180932976,-1.47376,0.216672,0.050752,8.435,-7.0875,4.97,41.04,-1.144,59.320004,concentric,6,3.0,23545.0,322155.0,286435.0,332113.0,291330.0
