pc_time,serial_num,sensor_ts,host_ts,ax,ay,az,gx,gy,gz,mx,my,mz,phase,rpe,weight_kg,ppg_a,ppg_b,ppg_c,ppg_d,ppg_e
2026-04-07 18:05:03.543200,400620,2173865275,2173866956,-1.208288,0.154208,0.070272,-4.83875,-4.1125,3.465,39.08,-2.728,61.576004,eccentric,6,3.0,21983.0,309755.0,276978.0,323043.0,284994.0
2026-04-07 18:05:03.547693,400621,2173879827,2173881906,-1.204384,0.162016,0.054656,-10.395,-2.45875,2.89625,38.696003,-2.512,61.728004,eccentric,6,3.0,21983.0,309755.0,276978.0,323043.0,284994.0
2026-04-07 18:05:03.549327,400622,2173888770,2173890607,-1.204384,0.162016,0.054656,-15.49625,-0.9275,1.2775,38.696003,-2.512,61.728004,eccentric,6,3.0,21983.0,309755.0,276978.0,323043.0,284994.0
2026-04-07 18:05:03.550943,400623,2173897718,2173899292,-1.202432,0.144448,0.035136,-20.69375,-0.2275,0.1225,38.832,-2.336,59.72,eccentric,6,3.0,21983.0,309755.0,276978.0,323043.0,284994.0
2026-04-07 18:05:03.555243,400624,2173912220,2173914213,-1.202432,0.144448,0.035136,-23.89625,-0.30625,0.07875,38.832,-2.336,59.72,eccentric,6,3.0,21983.0,309755.0,276978.0,323043.0,284994.0
2026-04-07 18:05:03.556650,400625,2173921306,2173922917,-1.188768,0.111264,0.027328,-24.64875,0.14,0.04375,39.04,-1.552,60.224003,eccentric,6,3.0,21983.0,309755.0,276978.0,323043.0,284994.0
2026-04-07 18:05:03.562484,400626,2173930291,2173931631,-1.188768,0.111264,0.027328,-23.1525,0.04375,0.32375,39.04,-1.552,60.224003,eccentric,6,3.0,21983.0,309755.0,276978.0,323043.0,284994.0
2026-04-07 18:05:03.591035,400627,2173944816,2173946524,-1.19072,0.119072,0.011712,-19.897501,0.4375,1.33875,38.232002,-1.344,61.224003,eccentric,6,3.0,21983.0,309755.0,276978.0,323043.0,284994.0
2026-04-07 18:05:03.619638,400638,2173954240,2173955310,-1.19072,0.119072,0.011712,-17.9025,0.93625,1.68875,38.232002,-1.344,61.224003,eccentric,6,3.0,22300.0,312494.0,279140.0,325148.0,286475.0
2026-04-07 18:05:03.623838,400639,2173963239,2173964085,-1.192672,0.103456,-0.005856,-17.928751,1.05875,2.05625,38.440002,-1.544,60.000004,eccentric,6,3.0,22300.0,312494.0,279140.0,325148.0,286475.0
2026-04-07 18:05:03.625533,400640,2173972221,2173972815,-1.192672,0.103456,-0.005856,-14.62125,1.54875,2.485,38.440002,-1.544,60.000004,eccentric,6,3.0,22300.0,312494.0,279140.0,325148.0,286475.0
2026-04-07 18:05:03.627180,400641,2173987035,2173987730,-1.177056,0.111264,0.007808,-11.29625,2.24875,2.205,39.024002,-1.064,59.904003,eccentric,6,3.0,22300.0,312494.0,279140.0,325148.0,286475.0
2026-04-07 18:05:03.629618,400642,2173996440,2173998500,-1.177056,0.111264,0.007808,-6.97375,3.29,2.345,39.024002,-1.064,59.904003,eccentric,6,3.0,22300.0,312494.0,279140.0,325148.0,286475.0
2026-04-07 18:05:03.638735,400643,2174005480,2174007261,-1.159488,0.132736,0.033184,-3.78875,4.4625,2.54625,38.824,-1.048,60.096004,eccentric,6,3.0,22300.0,312494.0,279140.0,325148.0,286475.0
2026-04-07 18:05:03.669442,400644,2174014424,2174015966,-1.159488,0.132736,0.033184,-2.24,6.02,2.9925,38.824,-1.048,60.096004,eccentric,6,3.0,22300.0,312494.0,279140.0,325148.0,286475.0
2026-04-07 18:05:03.671761,400645,2174028937,2174030859,-1.169248,0.144448,0.033184,0.09625,7.35875,3.00125,38.592003,-1.192,60.784004,eccentric,6,3.0,22300.0,312494.0,279140.0,325148.0,286475.0
2026-04-07 18:05:03.676336,400646,2174037870,2174039557,-1.149728,0.142496,0.013664,1.05,7.91875,2.94,40.640003,-0.848,59.000004,eccentric,6,3.0,22300.0,312494.0,279140.0,325148.0,286475.0
2026-04-07 18:05:03.677947,400647,2174046785,2174048285,-1.149728,0.142496,0.013664,-0.18375,9.17,2.4675,39.072002,-0.848,59.000004,eccentric,6,3.0,22300.0,312494.0,279140.0,325148.0,286475.0
2026-04-07 18:05:03.707653,400657,2174061479,2174063372,-1.134112,0.140544,0.01952,-2.03875,11.4975,0.8925,39.072002,-0.568,58.968002,eccentric,6,3.0,21878.0,308437.0,275561.0,321050.0,282924.0
2026-04-07 18:05:03.709300,400658,2174070474,2174072158,-1.134112,0.140544,0.01952,-2.1525,12.705,0.0525,39.072002,-0.568,58.968002,eccentric,6,3.0,21878.0,308437.0,275561.0,321050.0,282924.0
2026-04-07 18:05:03.710828,400659,2174079447,2174080911,-1.097024,0.15616,0.042944,-1.56625,15.05875,-0.6125,38.976,-0.944,60.4,eccentric,6,3.0,21878.0,308437.0,275561.0,321050.0,282924.0
2026-04-07 18:05:03.745743,400660,2174093935,2174095813,-1.097024,0.15616,0.042944,-2.8525,15.627501,-1.70625,38.976,-0.944,60.4,eccentric,6,3.0,21878.0,308437.0,275561.0,321050.0,282924.0
2026-04-07 18:05:03.748050,400661,2174102903,2174104570,-1.077504,0.148352,0.046848,-6.0725,15.16375,-1.60125,39.52,-0.6,58.464005,eccentric,6,3.0,21878.0,308437.0,275561.0,321050.0,282924.0
2026-04-07 18:05:03.752598,400662,2174111837,2174113253,-1.077504,0.148352,0.046848,-9.80875,16.56375,-1.75875,39.52,-0.6,58.464005,eccentric,6,3.0,21878.0,308437.0,275561.0,321050.0,282924.0
2026-04-07 18:05:03.755025,400663,2174120755,2174121919,-1.067744,0.122976,0.025376,-12.99375,18.0425,-1.995,39.576,-0.176,57.792004,eccentric,6,3.0,21878.0,308437.0,275561.0,321050.0,282924.0
2026-04-07 18:05:03.783709,400664,2174135242,2174136858,-1.067744,0.122976,0.025376,-14.7175,18.92625,-2.72125,39.576,-0.176,57.792004,eccentric,6,3.0,21878.0,308437.0,275561.0,321050.0,282924.0
2026-04-07 18:05:03.788036,400665,2174144152,2174145546,-1.065792,0.109312,0.0,-15.88125,19.62625,-3.26375,39.432003,0.152,57.752003,eccentric,6,3.0,21878.0,308437.0,275561.0,321050.0,282924.0
2026-04-07 18:05:03.789522,400666,2174153062,2174154239,-1.065792,0.109312,0.0,-15.14625,19.53,-3.92,39.432003,0.152,57.752003,eccentric,6,3.0,21878.0,308437.0,275561.0,321050.0,282924.0
2026-04-07 18:05:03.846793,400676,2174167634,2174169193,-1.036512,0.083936,-0.00976,-13.51,19.74875,-3.87625,39.640003,0.296,57.320004,eccentric,6,3.0,21650.0,306188.0,273542.0,318678.0,280826.0
2026-04-07 18:05:03.849741,400677,2174176690,2174177894,-1.036512,0.083936,-0.00976,-12.04,19.81875,-4.0075,39.640003,0.296,57.320004,eccentric,6,3.0,21650.0,306188.0,273542.0,318678.0,280826.0
2026-04-07 18:05:03.852118,400678,2174185569,2174186671,-0.989664,0.085888,0.021472,-10.3075,20.04625,-4.03375,39.384003,0.176,58.264004,eccentric,6,3.0,21650.0,306188.0,273542.0,318678.0,280826.0
2026-04-07 18:05:03.854570,400679,2174200069,2174201587,-0.909632,0.089792,0.042944,-8.9775,19.0925,-3.78875,40.096,0.64,55.624004,eccentric,6,3.0,21650.0,306188.0,273542.0,318678.0,280826.0
2026-04-07 18:05:03.859640,400680,2174209001,2174210292,-0.909632,0.089792,0.042944,-9.4325,18.725,-2.2225,40.096,0.64,55.624004,eccentric,6,3.0,21650.0,306188.0,273542.0,318678.0,280826.0
2026-04-07 18:05:03.862132,400681,2174217910,2174218989,-0.909632,0.089792,0.031232,-13.25625,17.9375,-0.63875,40.096,0.64,55.624004,eccentric,6,3.0,21650.0,306188.0,273542.0,318678.0,280826.0
2026-04-07 18:05:03.864599,400682,2174232471,2174234023,-0.884256,0.070272,0.031232,-17.1325,17.3425,1.015,40.256,0.936,56.088,eccentric,6,3.0,21650.0,306188.0,273542.0,318678.0,280826.0
2026-04-07 18:05:03.895961,400683,2174241419,2174242756,-0.85888,0.052704,0.00976,-18.87375,17.2375,2.86125,39.888,0.44,56.856003,eccentric,6,3.0,21650.0,306188.0,273542.0,318678.0,280826.0
2026-04-07 18:05:03.898363,400684,2174250324,2174251426,-0.85888,0.052704,0.00976,-19.31125,16.3275,4.0075,39.888,0.44,56.856003,eccentric,6,3.0,21650.0,306188.0,273542.0,318678.0,280826.0
2026-04-07 18:05:03.927450,400694,2174259534,2174260331,-0.866688,0.072224,0.0,-17.82375,15.575,5.67,40.456,1.248,55.992004,eccentric,6,3.0,21446.0,304864.0,272644.0,318127.0,280792.0
2026-04-07 18:05:03.929551,400695,2174274526,2174275307,-0.866688,0.072224,0.0,-14.49,15.47,5.92375,40.456,1.248,55.992004,eccentric,6,3.0,21446.0,304864.0,272644.0,318127.0,280792.0
2026-04-07 18:05:03.932069,400696,2174283951,2174286126,-0.821792,0.093696,0.01952,-9.86125,14.42,4.96125,40.592003,1.072,55.000004,eccentric,6,3.0,21446.0,304864.0,272644.0,318127.0,280792.0
2026-04-07 18:05:03.934530,400697,2174292986,2174294807,-0.821792,0.093696,0.01952,-5.11,12.99375,5.10125,40.592003,1.072,55.000004,eccentric,6,3.0,21446.0,304864.0,272644.0,318127.0,280792.0
2026-04-07 18:05:03.937038,400698,2174301951,2174303538,-0.81984,0.091744,0.03904,0.62125,11.78625,3.57,39.968002,0.672,57.424004,eccentric,6,3.0,21446.0,304864.0,272644.0,318127.0,280792.0
2026-04-07 18:05:03.967343,400699,2174316450,2174318447,-0.81984,0.091744,0.03904,6.8775,10.10625,2.0475,39.968002,0.672,57.424004,eccentric,6,3.0,21446.0,304864.0,272644.0,318127.0,280792.0
2026-04-07 18:05:03.970808,400700,2174325360,2174327127,-0.786656,0.134688,0.056608,11.47125,8.54,-0.42,40.56,1.056,54.960003,eccentric,6,3.0,21446.0,304864.0,272644.0,318127.0,280792.0
2026-04-07 18:05:03.973293,400701,2174334274,2174335846,-0.786656,0.134688,0.056608,13.1775,7.2275,-1.6975,40.56,1.056,54.960003,eccentric,6,3.0,21446.0,304864.0,272644.0,318127.0,280792.0
2026-04-07 18:05:03.979619,400702,2174348787,2174350817,-0.784704,0.226432,0.099552,9.59,8.6625,-2.5725,40.504,1.336,54.728004,eccentric,6,3.0,21446.0,304864.0,272644.0,318127.0,280792.0
2026-04-07 18:05:04.009479,400713,2174358195,2174359569,-0.784704,0.226432,0.099552,1.63625,9.98375,-5.48625,40.504,1.336,54.728004,eccentric,6,3.0,21458.0,304248.0,271708.0,316605.0,279254.0
2026-04-07 18:05:04.012046,400714,2174367163,2174368314,-0.80032,0.218624,0.042944,-14.4025,10.57,-5.99375,41.256,1.584,54.936,eccentric,6,3.0,21458.0,304248.0,271708.0,316605.0,279254.0
2026-04-07 18:05:04.014526,400715,2174376123,2174377015,-0.80032,0.218624,0.042944,-31.63125,10.24625,-4.78625,41.256,1.584,54.936,eccentric,6,3.0,21458.0,304248.0,271708.0,316605.0,279254.0
2026-04-07 18:05:04.023346,400716,2174390689,2174391930,-0.806176,0.0976,0.015616,-42.74375,10.22875,-2.5725,40.68,1.208,55.112003,eccentric,6,3.0,21458.0,304248.0,271708.0,316605.0,279254.0
2026-04-07 18:05:04.056133,400717,2174399576,2174400669,-0.815936,0.01952,0.044896,-44.37125,10.12375,-2.2225,41.248,2.24,52.576004,eccentric,6,3.0,21458.0,304248.0,271708.0,316605.0,279254.0
2026-04-07 18:05:04.059585,400718,2174408507,2174409421,-0.815936,0.01952,0.044896,-39.92625,9.49375,-1.49625,41.248,2.24,52.576004,eccentric,6,3.0,21458.0,304248.0,271708.0,316605.0,279254.0
2026-04-07 18:05:04.062154,400719,2174422992,2174424321,-0.83936,0.031232,0.066368,-33.74,8.28625,-1.33875,40.616,2.648,53.960003,eccentric,6,3.0,21458.0,304248.0,271708.0,316605.0,279254.0
2026-04-07 18:05:04.064689,400720,2174431929,2174433010,-0.83936,0.031232,0.066368,-26.845,6.86875,-0.83125,40.616,2.648,53.960003,eccentric,6,3.0,21458.0,304248.0,271708.0,316605.0,279254.0
2026-04-07 18:05:04.095735,400721,2174440882,2174441698,-0.860832,0.130784,-0.023424,-19.59125,4.85625,-0.04375,41.120003,2.2,54.160004,eccentric,6,3.0,21458.0,304248.0,271708.0,316605.0,279254.0
2026-04-07 18:05:04.097970,400722,2174455345,2174456578,-0.860832,0.130784,-0.023424,-14.74375,4.01625,1.1375,41.120003,2.2,54.160004,eccentric,6,3.0,21458.0,304248.0,271708.0,316605.0,279254.0
2026-04-07 18:05:04.155910,400732,2174464276,2174465299,-0.874496,0.226432,0.187392,-12.3375,4.03375,3.675,41.368004,2.008,53.584003,eccentric,6,3.0,21637.0,305831.0,273080.0,318122.0,280550.0
2026-04-07 18:05:04.160119,400733,2174473199,2174473995,-0.874496,0.226432,0.187392,-8.11125,0.105,6.2125,41.368004,2.008,53.584003,eccentric,6,3.0,21637.0,305831.0,273080.0,318122.0,280550.0
2026-04-07 18:05:04.161807,400734,2174487690,2174488897,-0.854976,0.06832,0.607072,2.5025,-9.21375,8.72375,41.4,2.168,54.504,eccentric,6,3.0,21637.0,305831.0,273080.0,318122.0,280550.0
2026-04-07 18:05:04.163558,400735,2174496577,2174497582,-0.854976,0.06832,0.607072,23.905,-22.7675,12.39,41.4,2.168,54.504,eccentric,6,3.0,21637.0,305831.0,273080.0,318122.0,280550.0
2026-04-07 18:05:04.167629,400736,2174505498,2174506271,-0.931104,0.08784,0.552416,51.607502,-32.92625,14.1575,40.84,1.432,54.368004,eccentric,6,3.0,21637.0,305831.0,273080.0,318122.0,280550.0
2026-04-07 18:05:04.169300,400737,2174519953,2174521246,-0.987712,0.18544,0.44896,76.1425,-38.255,12.88,40.84,0.12,55.632004,eccentric,6,3.0,21637.0,305831.0,273080.0,318122.0,280550.0
2026-04-07 18:05:04.171003,400738,2174528892,2174529978,-0.987712,0.18544,0.44896,90.57125,-40.9675,7.51625,40.224003,0.12,55.632004,eccentric,6,3.0,21637.0,305831.0,273080.0,318122.0,280550.0
2026-04-07 18:05:04.174907,400739,2174537936,2174538771,-0.987712,0.18544,0.44896,93.7825,-42.55125,0.2625,40.224003,0.12,55.632004,eccentric,6,3.0,21637.0,305831.0,273080.0,318122.0,280550.0
2026-04-07 18:05:04.178768,400740,2174546885,2174547505,-1.003328,0.249856,0.279136,84.86625,-41.69375,-5.88875,39.632004,-0.568,57.656002,eccentric,6,3.0,21637.0,305831.0,273080.0,318122.0,280550.0
2026-04-07 18:05:04.235118,400750,2174561801,2174562540,-1.016992,0.150304,0.16592,66.57,-39.06875,-11.235,39.296,-0.488,56.904003,eccentric,6,3.0,22658.0,314699.0,280571.0,326261.0,287331.0
2026-04-07 18:05:04.236811,400751,2174571186,2174573389,-1.016992,0.150304,0.16592,41.08125,-35.93625,-16.73,39.296,-0.488,56.904003,eccentric,6,3.0,22658.0,314699.0,280571.0,326261.0,287331.0
2026-04-07 18:05:04.238377,400752,2174580094,2174582094,-1.003328,0.101504,0.08784,15.54,-32.73375,-21.88375,39.296,-0.488,57.328003,eccentric,6,3.0,22658.0,314699.0,280571.0,326261.0,287331.0
2026-04-07 18:05:04.242011,400753,2174594584,2174594973,-1.003328,0.101504,0.08784,-0.16625,-29.84625,-23.33625,38.368,-0.256,57.328003,eccentric,6,3.0,22658.0,314699.0,280571.0,326261.0,287331.0
2026-04-07 18:05:04.243441,400754,2174603868,2174605773,-1.003328,0.11712,0.037088,-9.66875,-27.7375,-22.61875,37.808002,-0.768,58.408,eccentric,6,3.0,22658.0,314699.0,280571.0,326261.0,287331.0
2026-04-07 18:05:04.246788,400755,2174612936,2174614573,-1.003328,0.11712,0.037088,-19.36375,-26.18875,-19.9675,37.808002,-0.768,58.408,eccentric,6,3.0,22658.0,314699.0,280571.0,326261.0,287331.0
2026-04-07 18:05:04.253725,400756,2174621930,2174623326,-1.016992,0.056608,-0.056608,-28.07,-23.0825,-16.5375,37.848003,0.384,56.808002,eccentric,6,3.0,22658.0,314699.0,280571.0,326261.0,287331.0
2026-04-07 18:05:04.282304,400757,2174636432,2174638230,-1.016992,0.056608,-0.056608,-32.8825,-21.0175,-12.6875,37.848003,0.384,56.808002,eccentric,6,3.0,22658.0,314699.0,280571.0,326261.0,287331.0
2026-04-07 18:05:04.286747,400758,2174645403,2174646920,-1.020896,0.044896,-0.072224,-33.92375,-17.99875,-9.073751,38.888,1.208,56.144,eccentric,6,3.0,22658.0,314699.0,280571.0,326261.0,287331.0
2026-04-07 18:05:04.288326,400759,2174654347,2174655609,-1.020896,0.044896,-0.072224,-27.772501,-15.435,-7.0875,38.888,1.208,56.144,eccentric,6,3.0,22658.0,314699.0,280571.0,326261.0,287331.0
2026-04-07 18:05:04.335128,400770,2174668907,2174671016,-1.013088,0.167872,-0.03904,-16.54625,-13.11625,-5.4075,37.464,0.72,57.688004,eccentric,6,3.0,23271.0,320196.0,285327.0,331608.0,291989.0
2026-04-07 18:05:04.336854,400771,2174677910,2174679746,-1.013088,0.167872,-0.03904,-7.20125,-11.31375,-4.50625,37.464,0.72,57.688004,eccentric,6,3.0,23271.0,320196.0,285327.0,331608.0,291989.0
2026-04-07 18:05:04.338379,400772,2174686933,2174688439,-0.991616,0.240096,0.033184,-3.3425,-8.715,-4.10375,37.424004,0.992,57.04,eccentric,6,3.0,23271.0,320196.0,285327.0,331608.0,291989.0
2026-04-07 18:05:04.342606,400773,2174695897,2174697145,-0.991616,0.240096,0.033184,-2.7125,-6.23,-3.9375,37.424004,0.992,57.04,eccentric,6,3.0,23271.0,320196.0,285327.0,331608.0,291989.0
2026-04-07 18:05:04.344229,400774,2174710464,2174712132,-0.977952,0.218624,0.10736,-2.72125,-4.40125,-4.24375,36.68,0.424,57.904003,eccentric,6,3.0,23271.0,320196.0,285327.0,331608.0,291989.0
2026-04-07 18:05:04.351223,400775,2174719436,2174720910,-0.977952,0.218624,0.10736,1.75,-3.29,0.0875,36.68,0.424,57.904003,eccentric,6,3.0,23271.0,320196.0,285327.0,331608.0,291989.0
2026-04-07 18:05:04.379768,400776,2174728385,2174729625,-1.007232,0.183488,0.111264,5.90625,-2.4675,-0.34125,37.176003,0.944,56.888004,eccentric,6,3.0,23271.0,320196.0,285327.0,331608.0,291989.0
2026-04-07 18:05:04.384336,400777,2174742882,2174744557,-0.968192,0.222528,0.099552,16.07375,-2.065,-3.57,37.160004,0.512,56.944004,eccentric,6,3.0,23271.0,320196.0,285327.0,331608.0,291989.0
2026-04-07 18:05:04.385857,400778,2174751806,2174753245,-0.968192,0.222528,0.099552,26.775,-1.72375,-3.08875,37.160004,0.512,56.944004,eccentric,6,3.0,23271.0,320196.0,285327.0,331608.0,291989.0
2026-04-07 18:05:04.444523,400788,2174760919,2174762205,-0.968192,0.255712,0.091744,35.98875,-0.76125,-6.265,37.160004,0.512,57.184002,eccentric,6,3.0,23440.0,321563.0,286462.0,332830.0,293032.0
2026-04-07 18:05:04.446722,400789,2174775518,2174777171,-0.99552,0.255712,0.091744,40.36375,0.9625,-8.417501,37.568,0.32,57.184002,eccentric,6,3.0,23440.0,321563.0,286462.0,332830.0,293032.0
2026-04-07 18:05:04.449798,400790,2174784447,2174785888,-0.999424,0.208864,0.109312,39.85625,1.88125,-9.77375,37.504,0.448,57.128002,eccentric,6,3.0,23440.0,321563.0,286462.0,332830.0,293032.0
2026-04-07 18:05:04.453897,400791,2174793383,2174794601,-0.999424,0.208864,0.109312,37.10875,2.42375,-11.01625,37.504,0.448,57.128002,eccentric,6,3.0,23440.0,321563.0,286462.0,332830.0,293032.0
2026-04-07 18:05:04.455575,400792,2174802263,2174803326,-1.057984,0.12688,0.206912,32.64625,2.8525,-11.83,37.0,-0.216,55.304,eccentric,6,3.0,23440.0,321563.0,286462.0,332830.0,293032.0
2026-04-07 18:05:04.457252,400793,2174816762,2174818222,-1.057984,0.12688,0.206912,26.36375,3.0975,-14.0175,37.0,-0.216,55.304,eccentric,6,3.0,23440.0,321563.0,286462.0,332830.0,293032.0
2026-04-07 18:05:04.465120,400794,2174825737,2174826937,-1.079456,0.011712,0.271328,18.5675,2.66,-16.66875,36.744003,-0.936,59.424004,eccentric,6,3.0,23440.0,321563.0,286462.0,332830.0,293032.0
2026-04-07 18:05:04.466653,400795,2174834675,2174835673,-1.079456,0.011712,0.271328,13.685,1.0325,-18.08625,36.744003,-0.936,59.424004,eccentric,6,3.0,23440.0,321563.0,286462.0,332830.0,293032.0
2026-04-07 18:05:04.496995,400796,2174849105,2174850606,-1.098976,0.044896,0.261568,14.46375,0.70875,-19.57375,37.08,-0.08,57.328003,eccentric,6,3.0,23440.0,321563.0,286462.0,332830.0,293032.0
2026-04-07 18:05:04.523861,400806,2174858037,2174859611,-1.098976,0.044896,0.261568,17.4825,-0.32375,-18.1825,37.08,-0.08,57.328003,eccentric,6,3.0,23629.0,323499.0,288186.0,334846.0,294742.0
2026-04-07 18:05:04.525550,400807,2174867053,2174868337,-1.095072,0.144448,0.187392,18.99625,-1.46125,-15.4525,36.776,-0.152,57.408,eccentric,6,3.0,23629.0,323499.0,288186.0,334846.0,294742.0
2026-04-07 18:05:04.527239,400808,2174881553,2174883355,-1.081408,0.177632,0.099552,16.1525,-1.42625,-11.80375,36.776,-0.28,60.392002,eccentric,6,3.0,23629.0,323499.0,288186.0,334846.0,294742.0
2026-04-07 18:05:04.531335,400809,2174890533,2174892098,-1.081408,0.177632,0.099552,10.6575,-1.65375,-8.015,36.064003,-0.28,60.392002,eccentric,6,3.0,23629.0,323499.0,288186.0,334846.0,294742.0
2026-04-07 18:05:04.533758,400810,2174899494,2174900840,-1.081408,0.177632,0.099552,5.635,-1.54875,-4.2175,36.064003,-0.28,60.392002,eccentric,6,3.0,23629.0,323499.0,288186.0,334846.0,294742.0
2026-04-07 18:05:04.562916,400811,2174914055,2174915721,-1.079456,0.173728,0.052704,3.0975,-2.16125,-2.05625,36.68,-0.872,58.808002,eccentric,6,3.0,23629.0,323499.0,288186.0,334846.0,294742.0
2026-04-07 18:05:04.571412,400812,2174922987,2174924451,-1.030656,0.20496,0.037088,4.92625,-1.9775,-1.16375,37.112003,0.296,59.368004,eccentric,6,3.0,23629.0,323499.0,288186.0,334846.0,294742.0
2026-04-07 18:05:04.573078,400813,2174931937,2174933140,-1.030656,0.20496,0.037088,9.68625,-1.51375,-1.77625,37.112003,0.296,59.368004,eccentric,6,3.0,23629.0,323499.0,288186.0,334846.0,294742.0
2026-04-07 18:05:04.574963,400814,2174940860,2174941814,-1.030656,0.20496,0.037088,12.7575,-1.1375,-3.115,37.112003,0.296,59.368004,eccentric,6,3.0,23629.0,323499.0,288186.0,334846.0,294742.0
2026-04-07 18:05:04.608204,400815,2174955362,2174956770,-1.028704,0.216672,0.0488,13.6325,0.16625,-3.87625,37.688004,-0.264,59.376003,eccentric,6,3.0,23629.0,323499.0,288186.0,334846.0,294742.0
2026-04-07 18:05:04.637468,400826,2174964416,2174965557,-0.997472,0.191296,0.07808,12.92375,0.91875,-4.92625,37.096,-0.272,57.576004,eccentric,6,3.0,23038.0,318600.0,284124.0,330256.0,290693.0
2026-04-07 18:05:04.641341,400827,2174973355,2174974235,-0.997472,0.191296,0.07808,12.9325,1.75,-5.69625,37.096,-0.272,57.576004,eccentric,6,3.0,23038.0,318600.0,284124.0,330256.0,290693.0
2026-04-07 18:05:04.643198,400828,2174987943,2174989162,-0.991616,0.181536,0.099552,13.1425,2.2575,-6.23,36.664,-0.896,57.600002,eccentric,6,3.0,23038.0,318600.0,284124.0,330256.0,290693.0
2026-04-07 18:05:04.646047,400829,2174996965,2174997852,-0.991616,0.181536,0.099552,13.09875,3.4475,-6.48375,36.664,-0.896,57.600002,eccentric,6,3.0,23038.0,318600.0,284124.0,330256.0,290693.0
2026-04-07 18:05:04.647216,400830,2175005911,2175006638,-1.013088,0.160064,0.113216,12.145,4.2525,-7.28875,37.248,-1.12,58.496002,eccentric,6,3.0,23038.0,318600.0,284124.0,330256.0,290693.0
2026-04-07 18:05:04.649662,400831,2175020852,2175021562,-1.013088,0.160064,0.113216,10.7975,4.9,-6.69375,37.248,-1.12,58.496002,eccentric,6,3.0,23038.0,318600.0,284124.0,330256.0,290693.0
2026-04-07 18:05:04.683091,400832,2175030203,2175032318,-1.020896,0.115168,0.158112,7.28875,5.705,-8.72375,36.984,-0.392,55.432003,eccentric,6,3.0,23038.0,318600.0,284124.0,330256.0,290693.0
2026-04-07 18:05:04.687654,400833,2175039122,2175041064,-1.020896,0.115168,0.158112,7.13125,6.37875,-10.115,36.984,-0.392,55.432003,eccentric,6,3.0,23038.0,318600.0,284124.0,330256.0,290693.0
2026-04-07 18:05:04.689300,400834,2175048032,2175049744,-1.030656,0.119072,0.201056,7.44625,6.72,-10.77125,37.248,-1.448,56.872,eccentric,6,3.0,23038.0,318600.0,284124.0,330256.0,290693.0
2026-04-07 18:05:04.748015,400844,2175062628,2175062985,-1.05408,0.124928,0.197152,7.6475,6.55375,-10.96375,37.248,-0.992,56.912003,eccentric,6,3.0,22983.0,318352.0,284023.0,330325.0,290777.0
2026-04-07 18:05:04.752626,400845,2175071987,2175073867,-1.05408,0.124928,0.197152,7.6475,6.55375,-9.77375,37.128002,-0.992,56.912003,eccentric,6,3.0,22983.0,318352.0,284023.0,330325.0,290777.0
2026-04-07 18:05:04.754305,400846,2175081000,2175082582,-1.05408,0.124928,0.197152,8.26,6.46625,-8.3475,37.128002,-0.992,56.912003,eccentric,6,3.0,22983.0,318352.0,284023.0,330325.0,290777.0
2026-04-07 18:05:04.755841,400847,2175089929,2175091324,-1.057984,0.15616,0.160064,8.40875,6.92125,-7.63,37.600002,-0.984,59.032,eccentric,6,3.0,22983.0,318352.0,284023.0,330325.0,290777.0
2026-04-07 18:05:04.758331,400848,2175104444,2175106193,-1.059936,0.171776,0.148352,7.58625,7.595,-6.9825,37.24,-1.424,57.280003,eccentric,6,3.0,22983.0,318352.0,284023.0,330325.0,290777.0
2026-04-07 18:05:04.760706,400849,2175113375,2175114898,-1.059936,0.171776,0.148352,5.53,8.00625,-6.83375,37.24,-1.424,57.280003,eccentric,6,3.0,22983.0,318352.0,284023.0,330325.0,290777.0
2026-04-07 18:05:04.765017,400850,2175122312,2175123599,-1.059936,0.16592,0.132736,3.535,8.3475,-7.55125,37.24,-1.424,57.280003,eccentric,6,3.0,22983.0,318352.0,284023.0,330325.0,290777.0
2026-04-07 18:05:04.769988,400851,2175136793,2175138515,-1.050176,0.16592,0.132736,1.7675,9.03875,-8.12,37.136,-1.688,58.888004,eccentric,6,3.0,22983.0,318352.0,284023.0,330325.0,290777.0
2026-04-07 18:05:04.798446,400852,2175145710,2175147378,-1.04432,0.148352,0.101504,1.77625,9.625,-8.1725,37.264,-1.72,56.760002,eccentric,6,3.0,22983.0,318352.0,284023.0,330325.0,290777.0
2026-04-07 18:05:04.803045,400853,2175154656,2175156060,-1.04432,0.148352,0.101504,2.28375,9.625,-8.575,37.264,-1.72,56.760002,eccentric,6,3.0,22983.0,318352.0,284023.0,330325.0,290777.0
2026-04-07 18:05:04.827244,400863,2175169531,2175171014,-1.040416,0.148352,0.091744,2.7475,9.948751,-8.5925,37.392002,-2.256,56.464005,eccentric,6,3.0,22724.0,316140.0,282217.0,328351.0,289075.0
2026-04-07 18:05:04.831397,400864,2175178465,2175179704,-1.040416,0.148352,0.091744,3.36,9.8875,-9.1,37.392002,-2.256,56.464005,eccentric,6,3.0,22724.0,316140.0,282217.0,328351.0,289075.0
2026-04-07 18:05:04.833028,400865,2175187370,2175188409,-1.01504,0.1464,0.091744,3.64,9.96625,-9.54625,37.232002,-1.584,57.552002,eccentric,6,3.0,22724.0,316140.0,282217.0,328351.0,289075.0
2026-04-07 18:05:04.834656,400866,2175201908,2175203410,-1.01504,0.1464,0.091744,4.7075,10.98125,-9.58125,37.232002,-1.584,57.552002,eccentric,6,3.0,22724.0,316140.0,282217.0,328351.0,289075.0
2026-04-07 18:05:04.842828,400867,2175210849,2175212177,-1.048224,0.1464,0.091744,5.11875,11.2175,-9.695,37.024002,-1.496,57.984,eccentric,6,3.0,22724.0,316140.0,282217.0,328351.0,289075.0
2026-04-07 18:05:04.874409,400868,2175219782,2175220885,-1.048224,0.1464,0.091744,6.72875,11.73375,-9.38,37.024002,-1.496,57.984,eccentric,6,3.0,22724.0,316140.0,282217.0,328351.0,289075.0
2026-04-07 18:05:04.878871,400869,2175228701,2175229565,-1.03456,0.150304,0.099552,8.3825,12.04,-9.33625,37.512,-1.392,57.304,eccentric,6,3.0,22724.0,316140.0,282217.0,328351.0,289075.0
2026-04-07 18:05:04.880561,400870,2175243173,2175244561,-1.036512,0.163968,0.13664,10.19375,11.76,-9.7475,37.512,-1.392,57.104004,eccentric,6,3.0,22724.0,316140.0,282217.0,328351.0,289075.0
2026-04-07 18:05:04.882895,400871,2175252070,2175253301,-1.036512,0.163968,0.13664,11.41875,12.425,-9.6425,37.160004,-1.176,57.104004,eccentric,6,3.0,22724.0,316140.0,282217.0,328351.0,289075.0
2026-04-07 18:05:04.938327,400882,2175261014,2175262009,-1.036512,0.163968,0.13664,11.69,12.95875,-9.6075,37.160004,-1.176,57.104004,eccentric,6,3.0,22627.0,315641.0,281887.0,328211.0,288981.0
2026-04-07 18:05:04.940932,400883,2175276104,2175276928,-1.048224,0.158112,0.148352,10.99,12.78375,-9.905,37.136,-1.992,57.056004,eccentric,6,3.0,22627.0,315641.0,281887.0,328211.0,288981.0
2026-04-07 18:05:04.943243,400884,2175285016,2175285653,-1.05408,0.140544,0.150304,9.485,12.88875,-10.15,37.728,-1.664,57.160004,eccentric,6,3.0,22627.0,315641.0,281887.0,328211.0,288981.0
2026-04-07 18:05:04.945892,400885,2175294242,2175296401,-1.05408,0.140544,0.150304,8.96,13.09875,-9.63375,37.728,-1.664,57.160004,eccentric,6,3.0,22627.0,315641.0,281887.0,328211.0,288981.0
2026-04-07 18:05:04.948405,400886,2175303264,2175305194,-1.05408,0.140544,0.140544,9.28375,12.9325,-9.8525,37.728,-1.664,59.208004,eccentric,6,3.0,22627.0,315641.0,281887.0,328211.0,288981.0
2026-04-07 18:05:04.950853,400887,2175317869,2175320191,-1.057984,0.140544,0.140544,11.06875,12.565,-10.115,37.72,-1.608,58.768,eccentric,6,3.0,22627.0,315641.0,281887.0,328211.0,288981.0
2026-04-07 18:05:04.962346,400888,2175326784,2175328890,-1.046272,0.150304,0.13664,12.355001,12.50375,-9.96625,38.016003,-1.672,57.024002,eccentric,6,3.0,22627.0,315641.0,281887.0,328211.0,288981.0
2026-04-07 18:05:04.967586,400889,2175335724,2175337570,-1.046272,0.150304,0.13664,12.88875,12.15375,-9.80875,38.016003,-1.672,57.024002,eccentric,6,3.0,22627.0,315641.0,281887.0,328211.0,288981.0
2026-04-07 18:05:04.997307,400890,2175350232,2175352567,-1.042368,0.148352,0.10736,12.73125,12.215,-9.135,37.816,-1.368,59.104004,eccentric,6,3.0,22627.0,315641.0,281887.0,328211.0,288981.0
2026-04-07 18:05:05.000810,400891,2175359121,2175361257,-1.042368,0.148352,0.10736,11.71625,12.48625,-8.715,37.816,-1.368,59.104004,eccentric,6,3.0,22627.0,315641.0,281887.0,328211.0,288981.0
2026-04-07 18:05:05.060929,400901,2175368058,2175369985,-1.040416,0.150304,0.091744,10.3075,12.4425,-8.855001,38.008003,-1.56,57.024002,eccentric,6,3.0,22500.0,314979.0,281436.0,327856.0,288644.0
2026-04-07 18:05:05.063355,400902,2175382647,2175384972,-1.040416,0.150304,0.091744,10.00125,12.29375,-8.855001,38.008003,-1.56,57.024002,eccentric,6,3.0,22500.0,314979.0,281436.0,327856.0,288644.0
2026-04-07 18:05:05.065802,400903,2175391566,2175393690,-1.026752,0.15616,0.076128,9.72125,12.775,-8.295,38.368,-1.752,57.144,eccentric,6,3.0,22500.0,314979.0,281436.0,327856.0,288644.0
2026-04-07 18:05:05.068417,400904,2175400498,2175402383,-1.026752,0.15616,0.076128,8.96,12.99375,-8.4525,38.368,-1.752,57.144,eccentric,6,3.0,22500.0,314979.0,281436.0,327856.0,288644.0
2026-04-07 18:05:05.070965,400905,2175414962,2175415283,-1.020896,0.152256,0.081984,7.525,13.02,-8.7675,38.416,-1.64,56.88,eccentric,6,3.0,22500.0,314979.0,281436.0,327856.0,288644.0
2026-04-07 18:05:05.073316,400906,2175424151,2175426053,-1.0248,0.152256,0.076128,5.565,13.230001,-8.30375,38.416,-1.888,52.584003,eccentric,6,3.0,22500.0,314979.0,281436.0,327856.0,288644.0
2026-04-07 18:05:05.075810,400907,2175433153,2175434789,-1.0248,0.152256,0.076128,4.3925,13.16875,-7.595,38.480003,-1.888,52.584003,eccentric,6,3.0,22500.0,314979.0,281436.0,327856.0,288644.0
2026-04-07 18:05:05.078344,400908,2175442108,2175443490,-1.0248,0.152256,0.076128,4.80375,13.37875,-7.25375,38.480003,-1.888,52.584003,eccentric,6,3.0,22500.0,314979.0,281436.0,327856.0,288644.0
2026-04-07 18:05:05.108465,400909,2175456640,2175458439,-1.042368,0.1464,0.076128,3.955,13.18625,-7.67375,38.640003,-2.072,57.08,eccentric,6,3.0,22500.0,314979.0,281436.0,327856.0,288644.0
2026-04-07 18:05:05.138326,400919,2175466153,2175467184,-1.032608,0.150304,0.076128,4.54125,13.37,-7.77,38.304,-1.72,56.432003,eccentric,6,3.0,22485.0,315018.0,281565.0,328119.0,288902.0
2026-04-07 18:05:05.141758,400920,2175475086,2175475869,-1.032608,0.150304,0.076128,4.7775,13.7375,-7.84,38.304,-1.72,56.432003,eccentric,6,3.0,22485.0,315018.0,281565.0,328119.0,288902.0
2026-04-07 18:05:05.143299,400921,2175489577,2175490796,-1.003328,0.140544,0.089792,3.43875,14.0175,-8.47,38.480003,-1.72,57.328003,eccentric,6,3.0,22485.0,315018.0,281565.0,328119.0,288902.0
2026-04-07 18:05:05.147676,400922,2175498613,2175499485,-1.003328,0.140544,0.089792,1.77625,14.77,-8.60125,38.480003,-1.72,57.328003,eccentric,6,3.0,22485.0,315018.0,281565.0,328119.0,288902.0
2026-04-07 18:05:05.149285,400923,2175507657,2175508264,-0.991616,0.122976,0.103456,1.6975,15.4525,-8.39125,38.696003,-1.952,57.736004,eccentric,6,3.0,22485.0,315018.0,281565.0,328119.0,288902.0
2026-04-07 18:05:05.150823,400924,2175516900,2175519035,-0.991616,0.122976,0.103456,1.47875,15.627501,-7.93625,38.696003,-1.952,57.736004,eccentric,6,3.0,22485.0,315018.0,281565.0,328119.0,288902.0
2026-04-07 18:05:05.182024,400925,2175531440,2175531902,-0.981856,0.111264,0.103456,1.25125,16.17,-7.84875,38.672,-1.544,56.864002,eccentric,6,3.0,22485.0,315018.0,281565.0,328119.0,288902.0
2026-04-07 18:05:05.186421,400926,2175540784,2175542659,-0.981856,0.111264,0.103456,0.60375,16.24,-7.72625,38.672,-1.544,56.864002,eccentric,6,3.0,22485.0,315018.0,281565.0,328119.0,288902.0
2026-04-07 18:05:05.188019,400927,2175549723,2175551349,-0.983808,0.113216,0.083936,-0.3675,16.56375,-7.86625,38.904003,-1.44,56.272003,eccentric,6,3.0,22485.0,315018.0,281565.0,328119.0,288902.0
2026-04-07 18:05:05.189646,400928,2175558713,2175560102,-0.983808,0.113216,0.083936,-1.04125,17.045,-8.1375,38.904003,-1.44,56.272003,eccentric,6,3.0,22485.0,315018.0,281565.0,328119.0,288902.0
2026-04-07 18:05:05.218935,400939,2175573262,2175575075,-0.964288,0.128832,0.076128,-1.51375,17.255,-8.79375,39.432003,-1.728,56.304,eccentric,6,3.0,22643.0,316261.0,282513.0,329020.0,289573.0
2026-04-07 18:05:05.220575,400940,2175582280,2175583796,-0.964288,0.128832,0.076128,-2.05625,17.3775,-8.60125,39.432003,-1.728,56.304,eccentric,6,3.0,22643.0,316261.0,282513.0,329020.0,289573.0
2026-04-07 18:05:05.222487,400941,2175591302,2175592533,-0.972096,0.148352,0.076128,-4.29625,17.3425,-8.575,39.272003,-1.784,56.536003,eccentric,6,3.0,22643.0,316261.0,282513.0,329020.0,289573.0
2026-04-07 18:05:05.253270,400942,2175605820,2175607493,-1.011136,0.152256,0.06832,-8.82875,17.98125,-9.4675,39.568,-1.264,55.744003,eccentric,6,3.0,22643.0,316261.0,282513.0,329020.0,289573.0
2026-04-07 18:05:05.257664,400943,2175614739,2175616208,-1.011136,0.152256,0.06832,-13.65,18.62875,-10.0975,39.568,-1.264,55.744003,concentric,6,3.0,22643.0,316261.0,282513.0,329020.0,289573.0
2026-04-07 18:05:05.259173,400944,2175623670,2175624919,-1.011136,0.152256,0.06832,-17.2375,18.8475,-10.71,39.568,-1.264,55.744003,concentric,6,3.0,22643.0,316261.0,282513.0,329020.0,289573.0
2026-04-07 18:05:05.289444,400945,2175638165,2175639857,-1.046272,0.150304,0.081984,-17.94625,18.2875,-12.15375,39.296,-1.072,56.096004,concentric,6,3.0,22643.0,316261.0,282513.0,329020.0,289573.0
2026-04-07 18:05:05.291773,400946,2175647077,2175648568,-1.040416,0.132736,0.076128,-16.065,17.40375,-13.2125,39.56,-0.456,55.768,concentric,6,3.0,22643.0,316261.0,282513.0,329020.0,289573.0
2026-04-07 18:05:05.296419,400947,2175656016,2175657284,-1.040416,0.132736,0.076128,-14.20125,15.925,-12.97625,39.56,-0.456,55.768,concentric,6,3.0,22643.0,316261.0,282513.0,329020.0,289573.0
2026-04-07 18:05:05.351915,400957,2175670553,2175672375,-1.016992,0.099552,0.070272,-12.18875,14.69125,-13.30875,39.848003,-0.856,55.640003,concentric,6,3.0,22603.0,315898.0,282198.0,328684.0,289320.0
2026-04-07 18:05:05.356373,400958,2175679523,2175681134,-1.016992,0.099552,0.070272,-10.77125,14.51625,-13.4225,39.848003,-0.856,55.640003,concentric,6,3.0,22603.0,315898.0,282198.0,328684.0,289320.0
2026-04-07 18:05:05.358059,400959,2175688541,2175689946,-1.013088,0.095648,0.0488,-9.80875,14.7,-12.845,40.120003,-0.672,55.664,concentric,6,3.0,22603.0,315898.0,282198.0,328684.0,289320.0
2026-04-07 18:05:05.359617,400960,2175697480,2175698686,-1.013088,0.095648,0.0488,-7.805,13.93875,-11.90875,40.120003,-0.672,55.664,concentric,6,3.0,22603.0,315898.0,282198.0,328684.0,289320.0
2026-04-07 18:05:05.364406,400961,2175712021,2175713613,-0.991616,0.113216,0.03904,-6.30875,13.3525,-10.3775,39.984,-0.616,55.568,concentric,6,3.0,22603.0,315898.0,282198.0,328684.0,289320.0
2026-04-07 18:05:05.366709,400962,2175720987,2175722313,-0.991616,0.113216,0.03904,-5.67,11.62,-9.31875,39.984,-0.616,55.568,concentric,6,3.0,22603.0,315898.0,282198.0,328684.0,289320.0
2026-04-07 18:05:05.369560,400963,2175729948,2175731014,-0.983808,0.124928,0.02928,-6.58,10.36875,-7.39375,40.296,-0.432,55.176003,concentric,6,3.0,22603.0,315898.0,282198.0,328684.0,289320.0
2026-04-07 18:05:05.377483,400964,2175744454,2175745937,-0.983808,0.124928,0.02928,-7.20125,10.08,-5.8625,40.296,-0.432,55.176003,concentric,6,3.0,22603.0,315898.0,282198.0,328684.0,289320.0
2026-04-07 18:05:05.406059,400965,2175753405,2175754661,-0.976,0.10736,0.007808,-9.24,9.625,-5.075,40.2,-0.28,56.048004,concentric,6,3.0,22603.0,315898.0,282198.0,328684.0,289320.0
2026-04-07 18:05:05.410581,400966,2175762321,2175763389,-0.976,0.10736,0.007808,-10.99875,9.905,-4.26125,40.2,-0.28,56.048004,concentric,6,3.0,22603.0,315898.0,282198.0,328684.0,289320.0
2026-04-07 18:05:05.434620,400976,2175776912,2175778310,-0.983808,0.11712,0.001952,-10.96375,9.72125,-4.2875,40.320004,-0.064,55.944004,concentric,6,3.0,22407.0,314173.0,280740.0,327093.0,287956.0
2026-04-07 18:05:05.438811,400977,2175785948,2175787005,-0.997472,0.128832,0.015616,-10.08875,9.87,-4.48,40.264004,0.008,54.968002,concentric,6,3.0,22407.0,314173.0,280740.0,327093.0,287956.0
2026-04-07 18:05:05.440545,400978,2175794872,2175795746,-0.997472,0.128832,0.015616,-9.54625,10.15,-5.0925,40.264004,0.008,54.968002,concentric,6,3.0,22407.0,314173.0,280740.0,327093.0,287956.0
2026-04-07 18:05:05.442340,400979,2175803770,2175804490,-0.997472,0.128832,0.015616,-9.6425,10.21125,-4.90875,40.264004,0.008,54.968002,concentric,6,3.0,22407.0,314173.0,280740.0,327093.0,287956.0
2026-04-07 18:05:05.449966,400980,2175818755,2175819469,-1.020896,0.130784,0.035136,-8.96,9.56375,-4.41,40.272003,-0.32,56.528004,concentric,6,3.0,22407.0,314173.0,280740.0,327093.0,287956.0
2026-04-07 18:05:05.478599,400981,2175828172,2175830270,-1.016992,0.119072,0.044896,-8.14625,9.0475,-3.35125,40.632004,0.24,55.136,concentric,6,3.0,22407.0,314173.0,280740.0,327093.0,287956.0
2026-04-07 18:05:05.483007,400982,2175837079,2175838940,-1.016992,0.119072,0.044896,-6.755,8.07625,-1.16375,40.632004,0.24,55.136,concentric,6,3.0,22407.0,314173.0,280740.0,327093.0,287956.0
2026-04-07 18:05:05.484552,400983,2175851634,2175853882,-0.99552,0.109312,0.074176,-3.94625,7.7175,0.5425,40.2,-0.208,55.056004,concentric,6,3.0,22407.0,314173.0,280740.0,327093.0,287956.0
2026-04-07 18:05:05.515579,400984,2175860645,2175862605,-0.99552,0.109312,0.074176,-0.805,8.11125,1.295,40.2,-0.208,55.056004,concentric,6,3.0,22407.0,314173.0,280740.0,327093.0,287956.0
2026-04-07 18:05:05.544314,400995,2175869747,2175871330,-1.013088,0.091744,0.080032,-0.06125,8.26,2.73875,40.472,0.088,55.04,concentric,6,3.0,22311.0,313420.0,280170.0,326562.0,287610.0
2026-04-07 18:05:05.545980,400996,2175878759,2175880077,-1.013088,0.091744,0.080032,-3.2025,9.4325,3.0625,40.472,0.088,55.04,concentric,6,3.0,22311.0,313420.0,280170.0,326562.0,287610.0
2026-04-07 18:05:05.550103,400997,2175893210,2175894961,-1.059936,0.085888,0.050752,-8.91625,10.99,2.70375,40.632004,0.008,55.472004,concentric,6,3.0,22311.0,313420.0,280170.0,326562.0,287610.0
2026-04-07 18:05:05.552804,400998,2175902151,2175903784,-1.059936,0.085888,0.050752,-16.3275,13.1775,1.79375,40.632004,0.008,55.472004,concentric,6,3.0,22311.0,313420.0,280170.0,326562.0,287610.0
2026-04-07 18:05:05.556853,400999,2175911091,2175912521,-1.065792,0.081984,0.044896,-23.94,15.04125,0.44625,41.24,0.032,55.120003,concentric,6,3.0,22311.0,313420.0,280170.0,326562.0,287610.0
2026-04-07 18:05:05.558246,401000,2175925637,2175927541,-1.065792,0.081984,0.050752,-29.56625,17.28125,-1.26875,41.24,0.032,55.120003,concentric,6,3.0,22311.0,313420.0,280170.0,326562.0,287610.0
2026-04-07 18:05:05.566604,401001,2175934570,2175936262,-1.079456,0.115168,0.050752,-31.94625,19.31125,-3.05375,40.808002,0.48,55.352,concentric,6,3.0,22311.0,313420.0,280170.0,326562.0,287610.0
2026-04-07 18:05:05.598164,401002,2175943520,2175944994,-1.079456,0.115168,0.050752,-34.1425,20.9825,-3.9025,40.808002,0.48,55.352,concentric,6,3.0,22311.0,313420.0,280170.0,326562.0,287610.0
2026-04-07 18:05:05.600450,401003,2175957997,2175959889,-1.075552,0.150304,0.05856,-37.1,21.16625,-3.5525,41.864002,1.456,54.328003,concentric,6,3.0,22311.0,313420.0,280170.0,326562.0,287610.0
2026-04-07 18:05:05.660577,401013,2175967296,2175968679,-1.065792,0.154208,0.021472,-39.34875,20.58,-2.765,42.36,1.192,54.328003,concentric,6,3.0,22106.0,311215.0,278183.0,324324.0,285693.0
2026-04-07 18:05:05.662193,401014,2175976289,2175977434,-1.065792,0.154208,0.021472,-41.09875,19.53875,-1.95125,42.36,1.192,54.328003,concentric,6,3.0,22106.0,311215.0,278183.0,324324.0,285693.0
2026-04-07 18:05:05.666394,401015,2175985218,2175986186,-1.065792,0.154208,0.021472,-41.71125,18.26125,-0.79625,42.36,1.192,54.328003,concentric,6,3.0,22106.0,311215.0,278183.0,324324.0,285693.0
2026-04-07 18:05:05.668132,401016,2175999674,2176001061,-1.05408,0.119072,-0.017568,-42.49,16.625,-0.1925,41.968002,1.656,54.488003,concentric,6,3.0,22106.0,311215.0,278183.0,324324.0,285693.0
2026-04-07 18:05:05.669626,401017,2176008588,2176009752,-1.056032,0.162016,-0.040992,-39.22625,15.89,0.98,41.632004,1.904,53.592003,concentric,6,3.0,22106.0,311215.0,278183.0,324324.0,285693.0
2026-04-07 18:05:05.674185,401018,2176017448,2176018455,-1.056032,0.162016,-0.040992,-37.05625,15.68875,0.84,41.632004,1.904,53.592003,concentric,6,3.0,22106.0,311215.0,278183.0,324324.0,285693.0
2026-04-07 18:05:05.678664,401019,2176032042,2176033404,-1.06384,0.193248,-0.052704,-36.5225,15.3825,0.2975,41.784,2.024,54.832,concentric,6,3.0,22106.0,311215.0,278183.0,324324.0,285693.0
2026-04-07 18:05:05.682597,401020,2176041035,2176042153,-1.06384,0.193248,-0.052704,-37.826252,14.4725,0.83125,41.784,2.024,54.832,concentric,6,3.0,22106.0,311215.0,278183.0,324324.0,285693.0
2026-04-07 18:05:05.684161,401021,2176049964,2176050878,-1.040416,0.140544,-0.01952,-38.85,13.02,2.0475,41.856003,2.264,54.496002,concentric,6,3.0,22106.0,311215.0,278183.0,324324.0,285693.0
2026-04-07 18:05:05.738073,401031,2176064447,2176066047,-1.040416,0.140544,-0.01952,-40.71375,10.61375,1.12875,41.856003,2.264,54.496002,concentric,6,3.0,22041.0,310680.0,277747.0,323840.0,285388.0
2026-04-07 18:05:05.739770,401032,2176073459,2176074743,-1.038464,0.081984,-0.066368,-39.865,8.8025,0.48125,42.672,2.56,53.320004,concentric,6,3.0,22041.0,310680.0,277747.0,323840.0,285388.0
2026-04-07 18:05:05.744000,401033,2176082371,2176083446,-1.038464,0.081984,-0.066368,-36.0675,9.5025,-2.4675,42.672,2.56,53.320004,concentric,6,3.0,22041.0,310680.0,277747.0,323840.0,285388.0
2026-04-07 18:05:05.748006,401034,2176096902,2176098397,-1.036512,0.197152,-0.031232,-31.99,8.2775,-5.3375,42.584003,2.824,53.088,concentric,6,3.0,22041.0,310680.0,277747.0,323840.0,285388.0
2026-04-07 18:05:05.749689,401035,2176105832,2176107125,-1.036512,0.197152,-0.031232,-22.21625,8.3125,-4.20875,42.584003,2.824,53.088,concentric,6,3.0,22041.0,310680.0,277747.0,323840.0,285388.0
2026-04-07 18:05:05.753841,401036,2176114784,2176115830,-1.110688,0.183488,-0.003904,-19.635,7.63,-6.1075,42.072002,3.48,55.088,concentric,6,3.0,22041.0,310680.0,277747.0,323840.0,285388.0
2026-04-07 18:05:05.755407,401037,2176123725,2176124600,-1.110688,0.183488,-0.003904,-20.04625,6.09875,-4.90875,42.072002,3.48,55.088,concentric,6,3.0,22041.0,310680.0,277747.0,323840.0,285388.0
2026-04-07 18:05:05.785696,401038,2176138179,2176139545,-1.098976,0.183488,-0.0488,-17.80625,4.05125,-5.11,42.464,3.088,52.936,concentric,6,3.0,22041.0,310680.0,277747.0,323840.0,285388.0
2026-04-07 18:05:05.788054,401039,2176147074,2176148254,-1.114592,0.226432,-0.025376,-13.0025,3.17625,-5.85375,42.464,3.088,54.600002,concentric,6,3.0,22041.0,310680.0,277747.0,323840.0,285388.0
2026-04-07 18:05:05.792586,401040,2176156008,2176156956,-1.1224,0.226432,-0.025376,-8.12,2.89625,-6.3875,42.992,3.256,54.600002,concentric,6,3.0,22041.0,310680.0,277747.0,323840.0,285388.0
2026-04-07 18:05:05.820800,401051,2176170630,2176171954,-1.104832,0.18544,0.050752,-8.0325,2.9575,-6.71125,42.04,3.224,53.992004,concentric,6,3.0,22300.0,312855.0,279506.0,325654.0,286874.0
2026-04-07 18:05:05.855940,401052,2176179577,2176180730,-1.104832,0.18544,0.050752,-9.89625,3.21125,-4.97875,42.04,3.224,53.992004,concentric,6,3.0,22300.0,312855.0,279506.0,325654.0,286874.0
2026-04-07 18:05:05.859635,401053,2176188620,2176189459,-1.120448,0.130784,0.083936,-11.3925,3.1325,-2.79125,42.04,2.952,54.128002,concentric,6,3.0,22300.0,312855.0,279506.0,325654.0,286874.0
2026-04-07 18:05:05.862757,401054,2176203139,2176204335,-1.120448,0.130784,0.083936,-10.77125,1.89,-1.68875,42.04,2.952,54.128002,concentric,6,3.0,22300.0,312855.0,279506.0,325654.0,286874.0
2026-04-07 18:05:05.864550,401055,2176212067,2176213081,-1.145824,0.122976,0.072224,-9.1525,1.18125,-0.9975,42.592003,3.4,53.128002,concentric,6,3.0,22300.0,312855.0,279506.0,325654.0,286874.0
2026-04-07 18:05:05.867110,401056,2176220996,2176221789,-1.145824,0.122976,0.072224,-6.65,0.455,-0.6125,42.592003,3.4,53.128002,concentric,6,3.0,22300.0,312855.0,279506.0,325654.0,286874.0
2026-04-07 18:05:05.869699,401057,2176229905,2176230498,-1.124352,0.183488,0.031232,-3.255,-0.51625,0.0,42.88,3.752,53.464,concentric,6,3.0,22300.0,312855.0,279506.0,325654.0,286874.0
2026-04-07 18:05:05.874665,401058,2176244703,2176245425,-1.124352,0.183488,0.031232,-0.665,-0.525,-0.28,42.88,3.752,53.464,concentric,6,3.0,22300.0,312855.0,279506.0,325654.0,286874.0
2026-04-07 18:05:05.904789,401059,2176254112,2176256180,-1.10288,0.226432,-0.00976,-1.085,-0.25375,-0.74375,42.848003,3.44,53.104004,concentric,6,3.0,22300.0,312855.0,279506.0,325654.0,286874.0
2026-04-07 18:05:05.908312,401060,2176263113,2176264870,-1.10288,0.226432,-0.00976,-5.78375,-0.42,-0.27125,42.848003,3.44,53.104004,concentric,6,3.0,22300.0,312855.0,279506.0,325654.0,286874.0
2026-04-07 18:05:05.970777,401070,2176277623,2176279798,-1.06384,0.183488,-0.046848,-12.41625,-0.245,-0.42,43.36,3.624,53.032,concentric,6,3.0,22566.0,315455.0,281819.0,328353.0,289157.0
2026-04-07 18:05:05.973312,401071,2176286565,2176288510,-1.06384,0.183488,-0.046848,-17.22875,0.2275,-0.9625,43.36,3.624,53.032,concentric,6,3.0,22566.0,315455.0,281819.0,328353.0,289157.0
2026-04-07 18:05:05.975758,401072,2176295576,2176297200,-1.067744,0.140544,-0.054656,-19.9675,0.8225,-1.88125,42.536003,3.992,54.072002,concentric,6,3.0,22566.0,315455.0,281819.0,328353.0,289157.0
2026-04-07 18:05:05.978391,401073,2176304514,2176305922,-1.067744,0.140544,-0.054656,-18.147501,1.54,-2.8875,42.536003,3.992,54.072002,concentric,6,3.0,22566.0,315455.0,281819.0,328353.0,289157.0
2026-04-07 18:05:05.980766,401074,2176319017,2176320823,-1.077504,0.128832,-0.025376,-13.0025,1.30375,-3.26375,42.36,3.44,53.512,concentric,6,3.0,22566.0,315455.0,281819.0,328353.0,289157.0
2026-04-07 18:05:05.983265,401075,2176327950,2176329556,-1.09312,0.150304,-0.00976,-7.7175,0.2625,-3.535,42.36,3.44,54.160004,concentric,6,3.0,22566.0,315455.0,281819.0,328353.0,289157.0
2026-04-07 18:05:05.985766,401076,2176336940,2176338258,-1.079456,0.150304,-0.00976,-3.85,-0.6125,-3.5,42.688004,4.168,54.160004,concentric,6,3.0,22566.0,315455.0,281819.0,328353.0,289157.0
2026-04-07 18:05:05.988363,401077,2176351476,2176353171,-1.095072,0.181536,-0.003904,-2.98375,-1.79375,-3.5,42.224003,4.176,54.608,concentric,6,3.0,22566.0,315455.0,281819.0,328353.0,289157.0
2026-04-07 18:05:05.990819,401078,2176360468,2176362009,-1.095072,0.181536,-0.003904,-3.42125,-2.73875,-4.54125,42.224003,4.176,54.608,concentric,6,3.0,22566.0,315455.0,281819.0,328353.0,289157.0
2026-04-07 18:05:06.020829,401088,2176369566,2176370778,-1.136064,0.148352,-0.007808,-4.095,-3.395,-5.2675,41.968002,3.52,54.296,concentric,6,3.0,22710.0,317126.0,283509.0,330460.0,291054.0
2026-04-07 18:05:06.023341,401089,2176384357,2176385752,-1.136064,0.148352,-0.007808,-6.7025,-4.54125,-5.1275,41.968002,3.52,54.296,concentric,6,3.0,22710.0,317126.0,283509.0,330460.0,291054.0
2026-04-07 18:05:06.027487,401090,2176393309,2176394572,-1.182912,0.099552,0.0,-8.89,-4.7775,-5.20625,41.848003,4.616,53.304,concentric,6,3.0,22710.0,317126.0,283509.0,330460.0,291054.0
2026-04-07 18:05:06.033746,401091,2176402354,2176403339,-1.182912,0.099552,0.0,-9.05625,-5.62625,-5.53,41.848003,4.616,53.304,concentric,6,3.0,22710.0,317126.0,283509.0,330460.0,291054.0
2026-04-07 18:05:06.065770,401092,2176411416,2176412049,-1.163392,0.074176,0.033184,-7.9975,-6.69375,-5.01375,41.688004,4.64,54.552002,concentric,6,3.0,22710.0,317126.0,283509.0,330460.0,291054.0
2026-04-07 18:05:06.068036,401093,2176426318,2176426943,-1.163392,0.074176,0.033184,-4.7775,-8.4875,-4.03375,41.688004,4.64,54.552002,concentric,6,3.0,22710.0,317126.0,283509.0,330460.0,291054.0
2026-04-07 18:05:06.072656,401094,2176435538,2176437685,-1.057984,0.08784,0.021472,-1.2425,-9.8175,-2.02125,43.096,4.08,54.008003,concentric,6,3.0,22710.0,317126.0,283509.0,330460.0,291054.0
2026-04-07 18:05:06.076200,401095,2176444537,2176446397,-1.057984,0.08784,0.021472,2.5025,-12.11875,-0.83125,43.096,4.08,54.008003,concentric,6,3.0,22710.0,317126.0,283509.0,330460.0,291054.0
2026-04-07 18:05:06.104799,401096,2176458998,2176461305,-1.050176,0.187392,-0.02928,8.0675,-13.440001,-1.1725,42.824,3.592,53.816,concentric,6,3.0,22710.0,317126.0,283509.0,330460.0,291054.0
2026-04-07 18:05:06.139382,401107,2176468120,2176470400,-1.050176,0.187392,-0.02928,11.22625,-12.94125,-2.065,42.824,3.592,53.816,concentric,6,3.0,22961.0,319016.0,284990.0,331923.0,292304.0
2026-04-07 18:05:06.140932,401108,2176477108,2176479225,-0.977952,0.255712,-0.031232,7.4025,-12.0225,-1.4525,42.072002,4.256,55.000004,concentric,6,3.0,22961.0,319016.0,284990.0,331923.0,292304.0
2026-04-07 18:05:06.145175,401109,2176486130,2176487947,-0.977952,0.255712,-0.031232,-4.48,-9.6775,-0.5425,42.072002,4.256,55.000004,concentric,6,3.0,22961.0,319016.0,284990.0,331923.0,292304.0
2026-04-07 18:05:06.146875,401110,2176500648,2176502895,-1.038464,0.21472,-0.044896,-17.21125,-7.245,-0.63875,42.104004,4.08,54.472004,concentric,6,3.0,22961.0,319016.0,284990.0,331923.0,292304.0
2026-04-07 18:05:06.149260,401111,2176509576,2176511607,-1.050176,0.12688,-0.040992,-26.145,-4.33125,-0.245,41.984,5.04,53.408,concentric,6,3.0,22961.0,319016.0,284990.0,331923.0,292304.0
2026-04-07 18:05:06.150813,401112,2176518580,2176520303,-1.050176,0.12688,-0.040992,-30.66,-3.4475,-0.0175,41.984,5.04,53.408,concentric,6,3.0,22961.0,319016.0,284990.0,331923.0,292304.0
2026-04-07 18:05:06.184008,401113,2176533072,2176535168,-1.013088,0.074176,-0.003904,-29.79375,-3.08875,-0.60375,42.368004,4.808,54.04,concentric,6,3.0,22961.0,319016.0,284990.0,331923.0,292304.0
2026-04-07 18:05:06.185663,401114,2176542002,2176543910,-1.013088,0.074176,-0.003904,-27.27375,-1.505,-1.4875,42.368004,4.808,54.04,concentric,6,3.0,22961.0,319016.0,284990.0,331923.0,292304.0
2026-04-07 18:05:06.187174,401115,2176550942,2176552607,-1.046272,0.06832,0.046848,-24.33375,-0.79625,-2.89625,42.000004,5.392,55.688004,concentric,6,3.0,22961.0,319016.0,284990.0,331923.0,292304.0
2026-04-07 18:05:06.243315,401116,2176565445,2176567543,-1.046272,0.06832,0.046848,-20.553751,-0.88375,-3.0975,42.000004,5.392,55.688004,concentric,6,3.0,22961.0,319016.0,284990.0,331923.0,292304.0
2026-04-07 18:05:06.270131,401126,2176574442,2176576274,-1.069696,0.081984,0.074176,-15.77625,-1.51375,-2.065,42.224003,5.024,54.192,concentric,6,3.0,22957.0,319279.0,285349.0,332421.0,292709.0
2026-04-07 18:05:06.271775,401127,2176583442,2176584980,-1.069696,0.081984,0.074176,-11.0775,-2.63375,-0.9975,42.224003,5.024,54.192,concentric,6,3.0,22957.0,319279.0,285349.0,332421.0,292709.0
2026-04-07 18:05:06.273473,401128,2176592393,2176593655,-1.026752,0.122976,0.07808,-7.84875,-4.22625,0.27125,42.128002,5.472,54.152004,concentric,6,3.0,22957.0,319279.0,285349.0,332421.0,292709.0
2026-04-07 18:05:06.277585,401129,2176606957,2176608620,-1.026752,0.122976,0.07808,-6.85125,-4.1475,0.8575,42.128002,5.472,54.152004,concentric,6,3.0,22957.0,319279.0,285349.0,332421.0,292709.0
2026-04-07 18:05:06.279375,401130,2176615880,2176617344,-1.001376,0.152256,0.105408,-10.01,-3.2025,0.8575,41.800003,5.24,54.104004,concentric,6,3.0,22957.0,319279.0,285349.0,332421.0,292709.0
2026-04-07 18:05:06.280971,401131,2176624838,2176626040,-1.001376,0.152256,0.105408,-16.9925,-2.56375,0.6825,41.800003,5.24,54.104004,concentric,6,3.0,22957.0,319279.0,285349.0,332421.0,292709.0
2026-04-07 18:05:06.285067,401132,2176639418,2176640966,-1.038464,0.154208,0.070272,-23.26625,-2.07375,0.25375,42.024002,5.064,55.032,concentric,6,3.0,22957.0,319279.0,285349.0,332421.0,292709.0
2026-04-07 18:05:06.286814,401133,2176648435,2176649728,-1.038464,0.154208,0.070272,-26.1275,-1.1725,0.035,42.024002,5.064,55.032,concentric,6,3.0,22957.0,319279.0,285349.0,332421.0,292709.0
2026-04-07 18:05:06.288766,401134,2176657462,2176658435,-1.00528,0.138592,0.025376,-25.7075,-0.525,-0.9975,41.328003,5.744,54.152004,concentric,6,3.0,22957.0,319279.0,285349.0,332421.0,292709.0
2026-04-07 18:05:06.342935,401144,2176672657,2176673560,-0.999424,0.124928,0.017568,-24.42125,0.3325,-1.715,41.616,5.328,53.800003,concentric,6,3.0,23085.0,320124.0,285937.0,332912.0,293131.0
2026-04-07 18:05:06.360238,401145,2176681797,2176682251,-0.999424,0.124928,0.017568,-22.75,1.79375,-3.115,41.616,5.328,53.800003,concentric,6,3.0,23085.0,320124.0,285937.0,332912.0,293131.0
2026-04-07 18:05:06.361885,401146,2176691141,2176693038,-1.009184,0.130784,-0.001952,-20.991251,1.96875,-3.3775,42.272003,6.4,52.528004,concentric,6,3.0,23085.0,320124.0,285937.0,332912.0,293131.0
2026-04-07 18:05:06.364241,401147,2176700110,2176701765,-1.009184,0.130784,-0.001952,-19.36375,3.8325,-3.56125,42.272003,6.4,52.528004,concentric,6,3.0,23085.0,320124.0,285937.0,332912.0,293131.0
2026-04-07 18:05:06.365891,401148,2176714648,2176716692,-1.009184,0.13664,0.06832,-19.6175,4.97,-3.15,42.280003,6.544,53.736004,concentric,6,3.0,23085.0,320124.0,285937.0,332912.0,293131.0
2026-04-07 18:05:06.370059,401149,2176723632,2176725395,-1.009184,0.13664,0.06832,-24.01875,6.51,-1.7325,42.280003,6.544,53.736004,concentric,6,3.0,23085.0,320124.0,285937.0,332912.0,293131.0
2026-04-07 18:05:06.371877,401150,2176732568,2176734063,-0.970144,0.091744,0.05856,-28.665,7.37625,-2.31875,41.896004,6.584,53.368004,concentric,6,3.0,23085.0,320124.0,285937.0,332912.0,293131.0
2026-04-07 18:05:06.373674,401151,2176741537,2176742830,-0.970144,0.091744,0.05856,-31.395,6.74625,-1.54875,41.896004,6.584,53.368004,concentric,6,3.0,23085.0,320124.0,285937.0,332912.0,293131.0
2026-04-07 18:05:06.406921,401152,2176756081,2176757828,-0.958432,0.121024,0.044896,-31.2375,6.965,0.53375,41.584003,6.36,55.224003,concentric,6,3.0,23085.0,320124.0,285937.0,332912.0,293131.0
2026-04-07 18:05:06.407942,401153,2176765009,2176766520,-0.958432,0.121024,0.044896,-29.085001,7.60375,1.42625,41.584003,6.36,55.224003,concentric,6,3.0,23085.0,320124.0,285937.0,332912.0,293131.0
