pc_time,serial_num,sensor_ts,host_ts,ax,ay,az,gx,gy,gz,mx,my,mz,phase,rpe,weight_kg,ppg_a,ppg_b,ppg_c,ppg_d,ppg_e
2026-04-07 17:38:09.017937,100571,559396471,559398487,0.872544,-0.142496,-0.042944,0.04375,1.91625,-5.48625,-11.72,-15.768001,20.568,none,3,3.0,32449.0,402832.0,361576.0,403431.0,365249.0
2026-04-07 17:38:09.020130,100572,559405437,559407188,0.872544,-0.142496,-0.042944,0.34125,2.4675,-6.16875,-11.72,-15.768001,20.568,none,3,3.0,32449.0,402832.0,361576.0,403431.0,365249.0
2026-04-07 17:38:09.025667,100573,559414372,559415866,0.864736,-0.144448,-0.0488,0.37625,2.73875,-6.16,-11.272,-15.608001,19.072,none,3,3.0,32449.0,402832.0,361576.0,403431.0,365249.0
2026-04-07 17:38:09.031522,100574,559428900,559430773,0.864736,-0.144448,-0.0488,0.09625,2.4675,-6.16,-11.272,-15.608001,19.072,none,3,3.0,32449.0,402832.0,361576.0,403431.0,365249.0
2026-04-07 17:38:09.033270,100575,559437818,559439476,0.870592,-0.140544,-0.040992,0.28875,1.96875,-6.15125,-11.664001,-15.880001,19.720001,none,3,3.0,32449.0,402832.0,361576.0,403431.0,365249.0
2026-04-07 17:38:09.034430,100576,559446755,559448170,0.870592,-0.140544,-0.040992,1.05,2.49375,-6.67625,-11.664001,-15.880001,19.720001,none,3,3.0,32449.0,402832.0,361576.0,403431.0,365249.0
2026-04-07 17:38:09.093852,100587,559461267,559463427,0.870592,-0.138592,-0.040992,1.82875,2.0125,-6.9825,-11.752001,-16.232,19.92,none,3,3.0,32402.0,402666.0,361358.0,403431.0,364886.0
2026-04-07 17:38:09.095436,100588,559470243,559472167,0.870592,-0.138592,-0.040992,2.17,1.79375,-6.8075,-11.752001,-16.232,19.92,none,3,3.0,32402.0,402666.0,361358.0,403431.0,364886.0
2026-04-07 17:38:09.099655,100589,559479160,559480855,0.870592,-0.138592,-0.03904,2.3275,1.67125,-6.44875,-11.072001,-16.088001,18.936,none,3,3.0,32402.0,402666.0,361358.0,403431.0,364886.0
2026-04-07 17:38:09.101414,100590,559493703,559495771,0.86864,-0.140544,-0.03904,1.89,2.24875,-7.3675,-11.52,-16.472,21.104,none,3,3.0,32402.0,402666.0,361358.0,403431.0,364886.0
2026-04-07 17:38:09.103094,100591,559502882,559504560,0.86864,-0.140544,-0.03904,2.345,2.80875,-7.4025,-11.52,-16.472,21.104,none,3,3.0,32402.0,402666.0,361358.0,403431.0,364886.0
2026-04-07 17:38:09.106995,100592,559511836,559513284,0.86864,-0.140544,-0.03904,2.31,2.1525,-6.88625,-11.52,-16.472,21.104,none,3,3.0,32402.0,402666.0,361358.0,403431.0,364886.0
2026-04-07 17:38:09.113262,100593,559526336,559528184,0.866688,-0.13664,-0.040992,2.59875,2.12625,-6.88625,-11.504001,-16.248001,20.384,none,3,3.0,32402.0,402666.0,361358.0,403431.0,364886.0
2026-04-07 17:38:09.141803,100594,559535284,559536875,0.862784,-0.134688,-0.037088,2.31,2.09125,-6.90375,-10.744,-15.312,19.168001,none,3,3.0,32402.0,402666.0,361358.0,403431.0,364886.0
2026-04-07 17:38:09.146277,100595,559544244,559545584,0.862784,-0.134688,-0.037088,2.91375,2.44125,-6.8775,-10.744,-15.312,19.168001,none,3,3.0,32402.0,402666.0,361358.0,403431.0,364886.0
2026-04-07 17:38:09.153623,100596,559553155,559554293,0.860832,-0.130784,-0.037088,2.94,2.26625,-6.685,-10.744,-16.096,19.712002,none,3,3.0,32402.0,402666.0,361358.0,403431.0,364886.0
2026-04-07 17:38:09.177627,100606,559567874,559569356,0.860832,-0.130784,-0.037088,3.17625,2.02125,-6.67625,-11.096001,-16.096,19.712002,none,3,3.0,32444.0,402893.0,361767.0,403431.0,365372.0
2026-04-07 17:38:09.179223,100607,559576972,559578103,0.864736,-0.138592,-0.03904,3.08875,2.23125,-6.53625,-11.224001,-16.472,19.504002,none,3,3.0,32444.0,402893.0,361767.0,403431.0,365372.0
2026-04-07 17:38:09.183941,100608,559585891,559586840,0.864736,-0.138592,-0.03904,2.80875,2.1875,-6.51875,-11.224001,-16.472,19.504002,none,3,3.0,32444.0,402893.0,361767.0,403431.0,365372.0
2026-04-07 17:38:09.186284,100609,559600467,559601752,0.86864,-0.13664,-0.03904,2.905,2.1,-6.25625,-11.112,-16.032001,19.064001,none,3,3.0,32444.0,402893.0,361767.0,403431.0,365372.0
2026-04-07 17:38:09.213485,100610,559609541,559610495,0.86864,-0.13664,-0.03904,3.68375,1.8375,-5.8975,-11.112,-16.032001,19.064001,none,3,3.0,32444.0,402893.0,361767.0,403431.0,365372.0
2026-04-07 17:38:09.215135,100611,559618486,559619211,0.872544,-0.132736,-0.035136,4.095,1.81125,-5.80125,-10.992001,-15.848001,19.696001,none,3,3.0,32444.0,402893.0,361767.0,403431.0,365372.0
2026-04-07 17:38:09.216698,100612,559627825,559630039,0.872544,-0.132736,-0.035136,4.445,1.8725,-5.39875,-10.992001,-15.848001,19.696001,none,3,3.0,32444.0,402893.0,361767.0,403431.0,365372.0
2026-04-07 17:38:09.247816,100613,559642321,559642909,0.864736,-0.13664,-0.040992,3.99875,1.9425,-5.60875,-11.048,-15.792001,19.224,none,3,3.0,32444.0,402893.0,361767.0,403431.0,365372.0
2026-04-07 17:38:09.250071,100614,559651533,559653672,0.864736,-0.13664,-0.040992,3.6925,1.505,-4.9525,-11.048,-15.792001,19.224,none,3,3.0,32444.0,402893.0,361767.0,403431.0,365372.0
2026-04-07 17:38:09.254743,100615,559660473,559662396,0.864736,-0.138592,-0.037088,4.06875,1.26,-4.97,-12.200001,-16.584002,21.384,none,3,3.0,32444.0,402893.0,361767.0,403431.0,365372.0
2026-04-07 17:38:09.332661,100625,559675147,559677418,0.853024,-0.142496,-0.046848,4.6025,1.68875,-4.89125,-11.096001,-15.6,23.2,none,3,3.0,32640.0,403431.0,363014.0,403431.0,366665.0
2026-04-07 17:38:09.334139,100626,559684099,559686177,0.853024,-0.142496,-0.046848,4.54125,1.77625,-4.57625,-11.096001,-15.6,23.2,none,3,3.0,32640.0,403431.0,363014.0,403431.0,366665.0
2026-04-07 17:38:09.342156,100627,559693060,559694882,0.853024,-0.12688,-0.046848,5.3025,0.84,-4.3575,-11.096001,-15.6,23.2,none,3,3.0,32640.0,403431.0,363014.0,403431.0,366665.0
2026-04-07 17:38:09.345041,100628,559702068,559703652,0.862784,-0.140544,-0.046848,5.32875,0.97125,-4.06,-11.76,-16.264,19.488,none,3,3.0,32640.0,403431.0,363014.0,403431.0,366665.0
2026-04-07 17:38:09.350991,100629,559716560,559718636,0.847168,-0.1464,-0.046848,5.08375,1.72375,-3.71875,-10.696,-15.784,19.312,none,3,3.0,32640.0,403431.0,363014.0,403431.0,366665.0
2026-04-07 17:38:09.352662,100630,559725462,559727335,0.847168,-0.1464,-0.046848,4.34875,1.56625,-3.605,-10.696,-15.784,19.312,none,3,3.0,32640.0,403431.0,363014.0,403431.0,366665.0
2026-04-07 17:38:09.354281,100631,559734347,559736037,0.835456,-0.15616,-0.05856,3.7625,1.44375,-2.7125,-10.568001,-16.0,19.352001,none,3,3.0,32640.0,403431.0,363014.0,403431.0,366665.0
2026-04-07 17:38:09.358444,100632,559748833,559750933,0.835456,-0.15616,-0.05856,4.33125,0.65625,-1.925,-10.568001,-16.0,19.352001,none,3,3.0,32640.0,403431.0,363014.0,403431.0,366665.0
2026-04-07 17:38:09.360213,100633,559757798,559759680,0.827648,-0.152256,-0.060512,5.69625,0.0875,-0.83125,-11.000001,-15.416,20.6,none,3,3.0,32640.0,403431.0,363014.0,403431.0,366665.0
2026-04-07 17:38:09.397714,100644,559766896,559768430,0.827648,-0.152256,-0.060512,6.62375,-0.2275,0.105,-11.000001,-15.416,20.6,none,3,3.0,32881.0,403431.0,364421.0,403431.0,367983.0
2026-04-07 17:38:09.399169,100645,559781445,559783345,0.835456,-0.15616,-0.081984,6.20375,-1.14625,0.665,-10.76,-15.752001,20.744001,none,3,3.0,32881.0,403431.0,364421.0,403431.0,367983.0
2026-04-07 17:38:09.403398,100646,559790412,559792087,0.835456,-0.15616,-0.081984,6.405,-1.82875,1.0325,-10.76,-15.752001,20.744001,none,3,3.0,32881.0,403431.0,364421.0,403431.0,367983.0
2026-04-07 17:38:09.405227,100647,559799326,559800844,0.8296,-0.160064,-0.074176,7.84,-1.6975,1.68875,-11.040001,-15.576001,19.552,none,3,3.0,32881.0,403431.0,364421.0,403431.0,367983.0
2026-04-07 17:38:09.406692,100648,559813929,559815801,0.841312,-0.17568,-0.066368,7.98875,-1.6975,1.70625,-11.040001,-15.576001,20.304,none,3,3.0,32881.0,403431.0,364421.0,403431.0,367983.0
2026-04-07 17:38:09.410793,100649,559822870,559824544,0.841312,-0.17568,-0.066368,7.55125,-1.5925,2.3275,-11.552001,-15.160001,20.304,none,3,3.0,32881.0,403431.0,364421.0,403431.0,367983.0
2026-04-07 17:38:09.439337,100650,559831788,559833239,0.841312,-0.17568,-0.066368,6.5975,-1.60125,2.9225,-11.552001,-15.160001,20.304,none,3,3.0,32881.0,403431.0,364421.0,403431.0,367983.0
2026-04-07 17:38:09.443890,100651,559840698,559841919,0.821792,-0.1952,-0.072224,4.99625,-1.70625,3.78875,-11.392,-15.144001,20.296001,none,3,3.0,32881.0,403431.0,364421.0,403431.0,367983.0
2026-04-07 17:38:09.446131,100652,559855189,559856916,0.804224,-0.210816,-0.0976,4.0425,-2.7825,5.285,-11.400001,-15.888001,19.264002,none,3,3.0,32881.0,403431.0,364421.0,403431.0,367983.0
2026-04-07 17:38:09.477734,100662,559864093,559865724,0.804224,-0.210816,-0.0976,4.69,-4.55,7.81375,-11.400001,-15.888001,19.264002,none,3,3.0,32952.0,403431.0,364796.0,403431.0,368133.0
2026-04-07 17:38:09.479340,100663,559873048,559874497,0.804224,-0.210816,-0.0976,7.105,-6.18625,9.5375,-11.400001,-15.888001,19.264002,none,3,3.0,32952.0,403431.0,364796.0,403431.0,368133.0
2026-04-07 17:38:09.483410,100664,559887544,559889457,0.804224,-0.197152,-0.109312,9.87,-7.53375,10.80625,-10.88,-15.072001,18.968,none,3,3.0,32952.0,403431.0,364796.0,403431.0,368133.0
2026-04-07 17:38:09.484983,100665,559896457,559898153,0.804224,-0.150304,-0.103456,13.53625,-8.4525,12.43375,-12.176001,-15.144001,21.400002,none,3,3.0,32952.0,403431.0,364796.0,403431.0,368133.0
2026-04-07 17:38:09.490750,100666,559905474,559906904,0.804224,-0.150304,-0.103456,14.67375,-8.225,11.935,-12.176001,-15.144001,21.400002,none,3,3.0,32952.0,403431.0,364796.0,403431.0,368133.0
2026-04-07 17:38:09.519395,100667,559919940,559921833,0.782752,-0.171776,-0.081984,13.13375,-8.39125,11.83875,-11.392,-15.056001,20.304,none,3,3.0,32952.0,403431.0,364796.0,403431.0,368133.0
2026-04-07 17:38:09.523854,100668,559928854,559930522,0.782752,-0.171776,-0.081984,11.8125,-8.8725,11.1475,-11.392,-15.056001,20.304,none,3,3.0,32952.0,403431.0,364796.0,403431.0,368133.0
2026-04-07 17:38:09.525344,100669,559937781,559939208,0.747616,-0.226432,-0.076128,11.2,-10.605001,11.61125,-11.272,-14.464001,18.616001,none,3,3.0,32952.0,403431.0,364796.0,403431.0,368133.0
2026-04-07 17:38:09.556639,100670,559952285,559954180,0.747616,-0.226432,-0.076128,12.38125,-13.09,13.886251,-11.272,-14.464001,18.616001,none,3,3.0,32952.0,403431.0,364796.0,403431.0,368133.0
2026-04-07 17:38:09.558815,100671,559961211,559962875,0.821792,-0.269376,-0.152256,15.93375,-16.45875,17.78,-11.616,-13.952001,17.944,none,3,3.0,32952.0,403431.0,364796.0,403431.0,368133.0
2026-04-07 17:38:09.621271,100681,559970287,559971589,0.821792,-0.269376,-0.152256,16.94875,-17.56125,19.04875,-11.616,-13.952001,17.944,none,3,3.0,33126.0,403431.0,365469.0,403431.0,368702.0
2026-04-07 17:38:09.625905,100682,559979260,559980341,0.81008,-0.103456,-0.05856,17.12375,-15.12,16.75625,-10.88,-13.792001,18.352001,none,3,3.0,33126.0,403431.0,365469.0,403431.0,368702.0
2026-04-07 17:38:09.627611,100683,559993814,559995277,0.81008,-0.103456,-0.05856,18.15625,-12.85375,16.8875,-10.88,-13.792001,18.352001,none,3,3.0,33126.0,403431.0,365469.0,403431.0,368702.0
2026-04-07 17:38:09.629429,100684,560002806,560003980,0.769088,-0.255712,-0.089792,12.4075,-13.67625,17.605,-12.096001,-14.000001,19.52,none,3,3.0,33126.0,403431.0,365469.0,403431.0,368702.0
2026-04-07 17:38:09.633522,100685,560011785,560012732,0.769088,-0.255712,-0.089792,8.54875,-15.3825,20.58875,-12.096001,-14.000001,19.52,none,3,3.0,33126.0,403431.0,365469.0,403431.0,368702.0
2026-04-07 17:38:09.635153,100686,560026278,560027620,0.700768,-0.242048,-0.111264,12.775,-18.33125,24.5,-11.016001,-13.072001,17.936,none,3,3.0,33126.0,403431.0,365469.0,403431.0,368702.0
2026-04-07 17:38:09.636713,100687,560035203,560036388,0.72224,-0.25376,-0.210816,18.66375,-22.8375,28.8925,-11.584001,-12.440001,17.104,none,3,3.0,33126.0,403431.0,365469.0,403431.0,368702.0
2026-04-07 17:38:09.641073,100688,560044148,560045100,0.72224,-0.25376,-0.210816,20.62375,-27.545,33.90625,-11.584001,-12.440001,17.104,none,3,3.0,33126.0,403431.0,365469.0,403431.0,368702.0
2026-04-07 17:38:09.644972,100689,560058692,560060033,0.774944,-0.142496,-0.072224,20.055,-30.31875,34.9125,-11.976001,-12.536,18.728,none,3,3.0,33126.0,403431.0,365469.0,403431.0,368702.0
2026-04-07 17:38:09.675115,100700,560067728,560068936,0.774944,-0.142496,-0.072224,22.28625,-29.56625,31.94625,-11.976001,-12.536,18.728,none,3,3.0,33439.0,403431.0,366138.0,403431.0,369457.0
2026-04-07 17:38:09.676723,100701,560076802,560077694,0.733952,-0.1952,-0.072224,26.04,-27.4925,28.44625,-11.072001,-12.016001,19.92,none,3,3.0,33439.0,403431.0,366138.0,403431.0,369457.0
2026-04-07 17:38:09.680880,100702,560085761,560086479,0.733952,-0.1952,-0.072224,24.115,-27.553751,26.7925,-11.072001,-12.016001,19.92,none,3,3.0,33439.0,403431.0,366138.0,403431.0,369457.0
2026-04-07 17:38:09.685832,100703,560100843,560101528,0.716384,-0.32208,-0.11712,18.66375,-29.33,27.0375,-11.096001,-11.408001,20.0,none,3,3.0,33439.0,403431.0,366138.0,403431.0,369457.0
2026-04-07 17:38:09.725248,100704,560110215,560112305,0.716384,-0.32208,-0.11712,17.4825,-31.465,30.03,-11.096001,-11.408001,20.0,none,3,3.0,33439.0,403431.0,366138.0,403431.0,369457.0
2026-04-07 17:38:09.729690,100705,560119091,560120992,0.732,-0.286944,-0.173728,20.22125,-34.825,34.65875,-10.712001,-11.736001,19.816002,none,3,3.0,33439.0,403431.0,366138.0,403431.0,369457.0
2026-04-07 17:38:09.731427,100706,560135257,560137592,0.732,-0.286944,-0.173728,20.02,-37.09125,38.43,-10.712001,-11.736001,19.816002,none,3,3.0,33439.0,403431.0,366138.0,403431.0,369457.0
2026-04-07 17:38:09.732979,100707,560144211,560146285,0.812032,-0.25376,-0.140544,20.685,-36.8725,39.095,-10.968,-10.744,16.096,none,3,3.0,33439.0,403431.0,366138.0,403431.0,369457.0
2026-04-07 17:38:09.740780,100708,560153217,560155024,0.812032,-0.25376,-0.140544,21.28875,-33.95875,35.07,-10.968,-10.744,16.096,none,3,3.0,33439.0,403431.0,366138.0,403431.0,369457.0
2026-04-07 17:38:09.769373,100709,560162140,560163720,0.757376,-0.230336,-0.128832,24.01875,-30.7125,31.5875,-11.120001,-10.464001,18.232,none,3,3.0,33439.0,403431.0,366138.0,403431.0,369457.0
2026-04-07 17:38:09.797197,100719,560171291,560172524,0.757376,-0.230336,-0.128832,22.8725,-30.2575,28.2975,-11.120001,-10.464001,18.232,none,3,3.0,33392.0,403431.0,365565.0,403431.0,368721.0
2026-04-07 17:38:09.798866,100720,560185791,560187501,0.743712,-0.339648,-0.163968,19.6875,-31.35125,26.67,-10.768001,-9.992001,15.176001,none,3,3.0,33392.0,403431.0,365565.0,403431.0,368721.0
2026-04-07 17:38:09.800555,100721,560194706,560196222,0.743712,-0.339648,-0.163968,20.1075,-32.87375,26.83625,-10.768001,-9.992001,15.176001,none,3,3.0,33392.0,403431.0,365565.0,403431.0,368721.0
2026-04-07 17:38:09.804634,100722,560203707,560204932,0.755424,-0.339648,-0.167872,20.04625,-34.36125,26.92375,-10.8,-9.728001,17.016,none,3,3.0,33392.0,403431.0,365565.0,403431.0,368721.0
2026-04-07 17:38:09.806241,100723,560218262,560219956,0.753472,-0.320128,-0.16592,19.29375,-34.055,26.69625,-11.024,-9.72,17.36,none,3,3.0,33392.0,403431.0,365565.0,403431.0,368721.0
2026-04-07 17:38:09.813306,100724,560227205,560228745,0.753472,-0.320128,-0.16592,18.725,-32.45375,26.985,-11.024,-9.72,17.36,none,3,3.0,33392.0,403431.0,365565.0,403431.0,368721.0
2026-04-07 17:38:09.841817,100725,560236204,560237529,0.706624,-0.316224,-0.181536,16.72125,-31.22875,27.8075,-10.240001,-8.240001,16.304,none,3,3.0,33392.0,403431.0,365565.0,403431.0,368721.0
2026-04-07 17:38:09.850953,100726,560250696,560252433,0.706624,-0.316224,-0.181536,15.77625,-29.8725,27.125,-10.240001,-8.240001,16.304,none,3,3.0,33392.0,403431.0,365565.0,403431.0,368721.0
2026-04-07 17:38:09.852692,100727,560259612,560261143,0.70272,-0.339648,-0.20496,18.99625,-29.49625,26.08375,-9.688001,-7.864,14.120001,none,3,3.0,33392.0,403431.0,365565.0,403431.0,368721.0
2026-04-07 17:38:09.877828,100737,560268773,560270155,0.70272,-0.339648,-0.20496,20.58,-30.7825,24.272501,-9.688001,-7.864,14.120001,none,3,3.0,33470.0,403431.0,366036.0,403431.0,369255.0
2026-04-07 17:38:09.879191,100738,560277812,560278980,0.696864,-0.298656,-0.187392,21.69125,-31.0975,21.58625,-9.976001,-7.936,13.776001,none,3,3.0,33470.0,403431.0,366036.0,403431.0,369255.0
2026-04-07 17:38:09.883539,100739,560292359,560293981,0.696864,-0.298656,-0.187392,22.56625,-31.491251,19.95875,-9.976001,-7.936,13.776001,none,3,3.0,33470.0,403431.0,366036.0,403431.0,369255.0
2026-04-07 17:38:09.917756,100740,560301361,560302726,0.687104,-0.325984,-0.177632,19.08375,-31.57875,17.66625,-10.032001,-7.968,13.456,none,3,3.0,33470.0,403431.0,366036.0,403431.0,369255.0
2026-04-07 17:38:09.920028,100741,560310283,560311415,0.687104,-0.325984,-0.177632,17.3425,-31.01,16.59875,-10.032001,-7.968,13.456,none,3,3.0,33470.0,403431.0,366036.0,403431.0,369255.0
2026-04-07 17:38:09.924718,100742,560324855,560326317,0.706624,-0.415776,-0.171776,18.66375,-30.66875,17.43875,-10.632001,-7.152,13.320001,none,3,3.0,33470.0,403431.0,366036.0,403431.0,369255.0
2026-04-07 17:38:09.926456,100743,560333853,560335038,0.706624,-0.415776,-0.171776,16.2225,-30.05625,16.59,-10.632001,-7.152,13.320001,none,3,3.0,33470.0,403431.0,366036.0,403431.0,369255.0
2026-04-07 17:38:09.927940,100744,560342780,560343733,0.700768,-0.357216,-0.20496,15.785,-28.53375,16.2925,-10.728001,-7.024,13.608001,none,3,3.0,33470.0,403431.0,366036.0,403431.0,369255.0
2026-04-07 17:38:09.959038,100745,560357312,560358638,0.708576,-0.355264,-0.212768,16.82625,-26.53875,16.28375,-10.192,-6.704001,12.816001,none,3,3.0,33470.0,403431.0,366036.0,403431.0,369255.0
2026-04-07 17:38:09.961383,100746,560366230,560367329,0.708576,-0.355264,-0.212768,14.2625,-24.15,14.07,-10.192,-6.704001,12.816001,none,3,3.0,33470.0,403431.0,366036.0,403431.0,369255.0
2026-04-07 17:38:09.993862,100757,560375174,560376042,0.708576,-0.355264,-0.212768,13.50125,-21.9625,13.4575,-10.192,-6.704001,12.816001,none,3,3.0,33659.0,403431.0,367030.0,403431.0,370387.0
2026-04-07 17:38:09.995346,100758,560384104,560384778,0.724192,-0.3416,-0.230336,15.23375,-20.0375,12.38125,-10.120001,-6.368001,13.368001,none,3,3.0,33659.0,403431.0,367030.0,403431.0,370387.0
2026-04-07 17:38:09.999670,100759,560398949,560399722,0.728096,-0.35136,-0.199104,12.5825,-19.11,8.198751,-9.776,-6.152,13.6,none,3,3.0,33659.0,403431.0,367030.0,403431.0,370387.0
2026-04-07 17:38:10.001393,100760,560408335,560410530,0.728096,-0.35136,-0.199104,11.0075,-18.22625,6.125,-9.776,-6.152,13.6,none,3,3.0,33659.0,403431.0,367030.0,403431.0,370387.0
2026-04-07 17:38:10.002952,100761,560417275,560419233,0.726144,-0.396256,-0.228384,11.92625,-16.205,5.03125,-10.736,-6.208,14.376,none,3,3.0,33659.0,403431.0,367030.0,403431.0,370387.0
2026-04-07 17:38:10.034098,100762,560431867,560434140,0.726144,-0.396256,-0.228384,9.730001,-14.3675,3.815,-10.736,-6.208,14.376,none,3,3.0,33659.0,403431.0,367030.0,403431.0,370387.0
2026-04-07 17:38:10.038450,100763,560440865,560442863,0.718336,-0.366976,-0.222528,8.4875,-12.34625,4.40125,-10.576,-5.616,12.016001,none,3,3.0,33659.0,403431.0,367030.0,403431.0,370387.0
2026-04-07 17:38:10.039997,100764,560449778,560451573,0.718336,-0.366976,-0.222528,9.00375,-10.5875,5.87125,-10.576,-5.616,12.016001,concentric,3,3.0,33659.0,403431.0,367030.0,403431.0,370387.0
2026-04-07 17:38:10.044595,100765,560458753,560460304,0.745664,-0.368928,-0.244,5.25875,-8.42625,5.1625,-11.128,-5.928001,13.424001,concentric,3,3.0,33659.0,403431.0,367030.0,403431.0,370387.0
2026-04-07 17:38:10.098380,100775,560473428,560475312,0.745664,-0.368928,-0.244,4.62,-5.705,3.66625,-11.128,-5.928001,13.424001,concentric,3,3.0,33741.0,403431.0,367327.0,403431.0,370871.0
2026-04-07 17:38:10.100081,100776,560482428,560484002,0.763232,-0.3416,-0.249856,4.87375,-2.91375,2.1525,-10.552,-6.000001,12.120001,concentric,3,3.0,33741.0,403431.0,367327.0,403431.0,370871.0
2026-04-07 17:38:10.101706,100777,560491339,560492688,0.763232,-0.3416,-0.249856,1.09375,0.84,-0.37625,-10.552,-6.000001,12.120001,concentric,3,3.0,33741.0,403431.0,367327.0,403431.0,370871.0
2026-04-07 17:38:10.105920,100778,560505845,560507638,0.767136,-0.427488,-0.257664,-1.56625,4.38375,-1.7325,-11.688001,-5.976,13.264001,concentric,3,3.0,33741.0,403431.0,367327.0,403431.0,370871.0
2026-04-07 17:38:10.107591,100779,560514768,560516369,0.767136,-0.427488,-0.257664,-0.0175,7.14,-3.22875,-11.688001,-5.976,13.264001,concentric,3,3.0,33741.0,403431.0,367327.0,403431.0,370871.0
2026-04-07 17:38:10.109178,100780,560523743,560525090,0.774944,-0.363072,-0.251808,5.15375,8.79375,-3.14125,-11.392,-5.68,14.104001,concentric,3,3.0,33741.0,403431.0,367327.0,403431.0,370871.0
2026-04-07 17:38:10.142352,100781,560538226,560539997,0.794464,-0.35136,-0.251808,5.46,11.2175,-3.24625,-11.120001,-5.288,11.848001,concentric,3,3.0,33741.0,403431.0,367327.0,403431.0,370871.0
2026-04-07 17:38:10.145332,100782,560547139,560548727,0.794464,-0.35136,-0.251808,0.48125,14.35,-4.4275,-11.120001,-5.288,11.848001,concentric,3,3.0,33741.0,403431.0,367327.0,403431.0,370871.0
2026-04-07 17:38:10.145593,100783,560556050,560557386,0.794464,-0.35136,-0.251808,0.13125,17.5525,-4.4275,-11.120001,-5.288,11.848001,concentric,3,3.0,33741.0,403431.0,367327.0,403431.0,370871.0
2026-04-07 17:38:10.149561,100784,560564952,560566107,0.854976,-0.363072,-0.271328,-0.67375,20.64125,-6.1775,-12.040001,-5.488,12.056001,concentric,3,3.0,33741.0,403431.0,367327.0,403431.0,370871.0
2026-04-07 17:38:10.175884,100794,560579680,560581098,0.860832,-0.398208,-0.284992,-1.89,24.73625,-8.47,-13.040001,-5.88,15.456,concentric,3,3.0,33866.0,403431.0,368132.0,403431.0,371855.0
2026-04-07 17:38:10.178317,100795,560588611,560589824,0.860832,-0.398208,-0.284992,-0.14875,27.60625,-10.52625,-13.040001,-5.88,15.456,concentric,3,3.0,33866.0,403431.0,368132.0,403431.0,371855.0
2026-04-07 17:38:10.182443,100796,560597520,560598568,0.831552,-0.386496,-0.257664,3.21125,28.46375,-11.8475,-13.504001,-6.016,14.240001,concentric,3,3.0,33866.0,403431.0,368132.0,403431.0,371855.0
2026-04-07 17:38:10.220252,100797,560611978,560613498,0.831552,-0.386496,-0.257664,6.8775,29.56625,-12.6,-13.504001,-6.016,14.240001,concentric,3,3.0,33866.0,403431.0,368132.0,403431.0,371855.0
2026-04-07 17:38:10.222602,100798,560620900,560622188,0.890112,-0.398208,-0.230336,8.95125,30.0825,-12.95875,-13.608001,-5.248,12.504001,concentric,3,3.0,33866.0,403431.0,368132.0,403431.0,371855.0
2026-04-07 17:38:10.224859,100799,560629810,560630890,0.890112,-0.398208,-0.230336,4.06875,31.6225,-14.58625,-13.608001,-5.248,12.504001,concentric,3,3.0,33866.0,403431.0,368132.0,403431.0,371855.0
2026-04-07 17:38:10.229573,100800,560644298,560645850,0.923296,-0.42944,-0.230336,0.76125,34.3525,-15.408751,-13.320001,-5.216,13.032001,concentric,3,3.0,33866.0,403431.0,368132.0,403431.0,371855.0
2026-04-07 17:38:10.264291,100801,560653273,560654570,0.923296,-0.42944,-0.230336,5.66125,37.1525,-15.8375,-13.320001,-5.216,13.032001,concentric,3,3.0,33866.0,403431.0,368132.0,403431.0,371855.0
2026-04-07 17:38:10.268881,100802,560662185,560663267,0.886208,-0.359168,-0.230336,11.45375,39.06,-16.8875,-13.840001,-5.224001,12.696001,concentric,3,3.0,33866.0,403431.0,368132.0,403431.0,371855.0
2026-04-07 17:38:10.296434,100813,560676681,560678415,0.886208,-0.359168,-0.201056,15.70625,40.4425,-16.70375,-13.840001,-5.224001,12.696001,concentric,3,3.0,33891.0,403431.0,368185.0,403431.0,371559.0
2026-04-07 17:38:10.298848,100814,560685598,560687119,0.90768,-0.3904,-0.201056,17.35125,40.60875,-18.1125,-14.016001,-5.432,12.784,concentric,3,3.0,33891.0,403431.0,368185.0,403431.0,371559.0
2026-04-07 17:38:10.300288,100815,560694533,560695881,0.90768,-0.3904,-0.201056,14.98875,40.7925,-19.31125,-14.016001,-5.432,12.784,concentric,3,3.0,33891.0,403431.0,368185.0,403431.0,371559.0
2026-04-07 17:38:10.305929,100816,560703618,560704658,0.903776,-0.394304,-0.193248,14.28,41.27375,-19.97625,-14.344001,-5.704001,14.040001,concentric,3,3.0,33891.0,403431.0,368185.0,403431.0,371559.0
2026-04-07 17:38:10.306300,100817,560718108,560719638,0.9272,-0.37088,-0.181536,15.627501,40.97625,-20.90375,-15.256001,-5.616,15.648001,concentric,3,3.0,33891.0,403431.0,368185.0,403431.0,371559.0
2026-04-07 17:38:10.313306,100818,560727026,560728359,0.9272,-0.37088,-0.181536,16.765,39.69,-21.83125,-15.256001,-5.616,15.648001,concentric,3,3.0,33891.0,403431.0,368185.0,403431.0,371559.0
2026-04-07 17:38:10.341858,100819,560736002,560737115,0.9272,-0.37088,-0.181536,17.43,38.96375,-23.87,-15.256001,-5.616,15.648001,concentric,3,3.0,33891.0,403431.0,368185.0,403431.0,371559.0
2026-04-07 17:38:10.346392,100820,560750488,560752065,0.950624,-0.411872,-0.130784,18.99625,37.19625,-25.83875,-15.624001,-6.248,15.904,concentric,3,3.0,33891.0,403431.0,368185.0,403431.0,371559.0
2026-04-07 17:38:10.347923,100821,560759380,560760771,0.944768,-0.406016,-0.121024,20.51,34.895,-25.61125,-15.216001,-6.000001,12.984,concentric,3,3.0,33891.0,403431.0,368185.0,403431.0,371559.0
2026-04-07 17:38:10.354909,100822,560768341,560769481,0.944768,-0.406016,-0.121024,22.19875,33.24125,-25.4275,-15.216001,-6.000001,12.984,concentric,3,3.0,33891.0,403431.0,368185.0,403431.0,371559.0
2026-04-07 17:38:10.378953,100832,560782974,560784512,0.944768,-0.415776,-0.083936,26.678751,32.15625,-24.5875,-16.616001,-6.12,16.728,concentric,3,3.0,33660.0,403431.0,366682.0,403431.0,369518.0
2026-04-07 17:38:10.380454,100833,560791965,560793238,0.944768,-0.415776,-0.083936,27.76375,31.185,-23.37125,-16.616001,-6.12,16.728,concentric,3,3.0,33660.0,403431.0,366682.0,403431.0,369518.0
2026-04-07 17:38:10.386980,100834,560801018,560802008,0.944768,-0.386496,-0.052704,26.59125,31.29875,-21.5075,-16.536001,-6.224001,17.144001,concentric,3,3.0,33660.0,403431.0,366682.0,403431.0,369518.0
2026-04-07 17:38:10.415537,100835,560809950,560810743,0.944768,-0.386496,-0.052704,25.0775,30.84375,-19.55625,-16.536001,-6.224001,17.144001,concentric,3,3.0,33660.0,403431.0,366682.0,403431.0,369518.0
2026-04-07 17:38:10.420031,100836,560824897,560825636,0.929152,-0.423584,-0.099552,21.81375,30.82625,-19.1625,-16.384,-5.208,15.160001,concentric,3,3.0,33660.0,403431.0,366682.0,403431.0,369518.0
2026-04-07 17:38:10.421686,100837,560834282,560836391,0.929152,-0.423584,-0.099552,20.37875,30.31875,-19.915,-16.384,-5.208,15.160001,concentric,3,3.0,33660.0,403431.0,366682.0,403431.0,369518.0
2026-04-07 17:38:10.431001,100838,560843235,560845120,0.942816,-0.298656,-0.037088,20.2825,29.39125,-18.8475,-16.392,-6.104,16.28,concentric,3,3.0,33660.0,403431.0,366682.0,403431.0,369518.0
2026-04-07 17:38:10.459376,100839,560857767,560860058,0.942816,-0.40016,-0.062464,18.3575,27.23,-18.83875,-16.392,-6.104,16.28,concentric,3,3.0,33660.0,403431.0,366682.0,403431.0,369518.0
2026-04-07 17:38:10.464797,100840,560866706,560868797,0.913536,-0.40016,-0.062464,15.46125,24.57875,-18.40125,-16.712,-6.512,16.992,concentric,3,3.0,33660.0,403431.0,366682.0,403431.0,369518.0
2026-04-07 17:38:10.557602,100850,560875834,560877566,0.913536,-0.40016,-0.062464,17.955,21.35875,-18.83875,-16.712,-6.512,16.992,concentric,3,3.0,33482.0,403431.0,364798.0,403431.0,367416.0
2026-04-07 17:38:10.559135,100851,560884796,560886299,0.874496,-0.365024,-0.03904,23.1875,17.68375,-18.90875,-16.52,-6.536,14.648001,concentric,3,3.0,33482.0,403431.0,364798.0,403431.0,367416.0
2026-04-07 17:38:10.563402,100852,560899446,560901197,0.86864,-0.329888,-0.011712,26.90625,14.6825,-18.165,-17.168001,-6.448,16.176,concentric,3,3.0,33482.0,403431.0,364798.0,403431.0,367416.0
2026-04-07 17:38:10.565210,100853,560908412,560909911,0.86864,-0.329888,-0.011712,24.28125,11.6725,-17.08,-17.168001,-6.448,16.176,concentric,3,3.0,33482.0,403431.0,364798.0,403431.0,367416.0
2026-04-07 17:38:10.566818,100854,560917369,560918665,0.86864,-0.329888,-0.011712,18.8125,9.56375,-16.05625,-17.168001,-6.448,16.176,concentric,3,3.0,33482.0,403431.0,364798.0,403431.0,367416.0
2026-04-07 17:38:10.570957,100855,560931879,560933594,0.890112,-0.376736,0.00976,14.8225,8.07625,-14.735,-16.984001,-6.264,14.072001,concentric,3,3.0,33482.0,403431.0,364798.0,403431.0,367416.0
2026-04-07 17:38:10.573295,100856,560940819,560942285,0.890112,-0.345504,0.00976,12.53875,6.3525,-13.74625,-17.536001,-6.432,16.552,concentric,3,3.0,33482.0,403431.0,364798.0,403431.0,367416.0
2026-04-07 17:38:10.574152,100857,560949919,560950976,0.890112,-0.345504,0.00976,11.62875,4.9875,-12.20625,-17.536001,-6.432,16.552,concentric,3,3.0,33482.0,403431.0,364798.0,403431.0,367416.0
2026-04-07 17:38:10.578187,100858,560964430,560965845,0.942816,-0.37088,-0.013664,11.2,4.06875,-11.585,-17.384,-6.440001,16.488,concentric,3,3.0,33482.0,403431.0,364798.0,403431.0,367416.0
2026-04-07 17:38:10.604177,100868,560973803,560974718,0.942816,-0.37088,-0.013664,9.2575,2.8525,-11.025,-17.384,-6.440001,16.488,concentric,3,3.0,33044.0,403431.0,361863.0,403431.0,364028.0
2026-04-07 17:38:10.608355,100869,560982878,560983452,0.952576,-0.37088,-0.013664,7.60375,1.89875,-9.87,-17.264,-6.704001,16.344,concentric,3,3.0,33044.0,403431.0,361863.0,403431.0,364028.0
2026-04-07 17:38:10.610161,100870,560992088,560994271,0.952576,-0.37088,-0.013664,5.7225,0.63,-8.19,-17.264,-6.704001,16.344,concentric,3,3.0,33044.0,403431.0,361863.0,403431.0,364028.0
2026-04-07 17:38:10.611646,100871,561006660,561007190,0.933056,-0.406016,-0.00976,4.76875,-0.5425,-7.07875,-17.128,-6.28,16.168001,concentric,3,3.0,33044.0,403431.0,361863.0,403431.0,364028.0
2026-04-07 17:38:10.615897,100872,561016060,561017983,0.933056,-0.406016,-0.00976,5.005,-1.51375,-4.27,-17.128,-6.28,16.168001,concentric,3,3.0,33044.0,403431.0,361863.0,403431.0,364028.0
2026-04-07 17:38:10.617603,100873,561025034,561026741,0.938912,-0.398208,-0.005856,2.8875,-2.19625,-2.24875,-17.392,-6.8,17.272001,concentric,3,3.0,33044.0,403431.0,361863.0,403431.0,364028.0
2026-04-07 17:38:10.620059,100874,561034018,561035443,0.938912,-0.398208,-0.005856,-0.35,-3.08875,-0.7175,-17.392,-6.8,17.272001,concentric,3,3.0,33044.0,403431.0,361863.0,403431.0,364028.0
2026-04-07 17:38:10.650281,100875,561048542,561050376,0.96624,-0.40992,-0.023424,-3.17625,-3.3075,1.96,-17.016,-6.672,17.52,concentric,3,3.0,33044.0,403431.0,361863.0,403431.0,364028.0
2026-04-07 17:38:10.652535,100876,561057499,561059087,0.96624,-0.40992,-0.023424,-5.46,-3.815,3.78875,-17.016,-6.672,17.52,concentric,3,3.0,33044.0,403431.0,361863.0,403431.0,364028.0
2026-04-07 17:38:10.657208,100877,561066469,561067789,0.976,-0.435296,-0.03904,-6.0025,-4.15625,6.0725,-16.776001,-6.416,17.304,concentric,3,3.0,33044.0,403431.0,361863.0,403431.0,364028.0
2026-04-07 17:38:10.686699,100888,561081134,561082849,0.968192,-0.425536,-0.06832,-6.93,-4.87375,7.58625,-17.168001,-6.688,15.992001,concentric,3,3.0,32915.0,403386.0,361417.0,403431.0,363558.0
2026-04-07 17:38:10.690896,100889,561090238,561091599,0.968192,-0.425536,-0.06832,-5.64375,-4.9175,9.03875,-17.168001,-6.688,15.992001,concentric,3,3.0,32915.0,403386.0,361417.0,403431.0,363558.0
2026-04-07 17:38:10.692596,100890,561099237,561100314,0.95648,-0.42944,-0.054656,-6.1425,-4.55,10.7975,-17.432001,-6.144,19.448002,concentric,3,3.0,32915.0,403386.0,361417.0,403431.0,363558.0
2026-04-07 17:38:10.694213,100891,561108162,561109059,0.95648,-0.42944,-0.054656,-9.065,-5.17125,12.1625,-17.432001,-6.144,19.448002,concentric,3,3.0,32915.0,403386.0,361417.0,403431.0,363558.0
2026-04-07 17:38:10.725231,100892,561122681,561124028,0.944768,-0.464576,-0.07808,-11.90875,-6.16,12.48625,-16.728,-5.904,15.824,concentric,3,3.0,32915.0,403386.0,361417.0,403431.0,363558.0
2026-04-07 17:38:10.727531,100893,561131627,561132743,0.944768,-0.464576,-0.07808,-11.38375,-7.1925,12.6875,-16.728,-5.904,15.824,concentric,3,3.0,32915.0,403386.0,361417.0,403431.0,363558.0
2026-04-07 17:38:10.730408,100894,561140546,561141442,0.948672,-0.441152,-0.103456,-9.59,-8.02375,13.7025,-16.456001,-6.488,15.632001,concentric,3,3.0,32915.0,403386.0,361417.0,403431.0,363558.0
2026-04-07 17:38:10.761505,100895,561155127,561156322,0.948672,-0.441152,-0.103456,-10.15875,-8.14625,13.02,-16.456001,-6.488,15.632001,concentric,3,3.0,32915.0,403386.0,361417.0,403431.0,363558.0
2026-04-07 17:38:10.765971,100896,561164019,561165090,0.929152,-0.423584,-0.113216,-11.52375,-8.96,13.15125,-16.696001,-5.480001,15.6,concentric,3,3.0,32915.0,403386.0,361417.0,403431.0,363558.0
2026-04-07 17:38:10.827897,100906,561173351,561173820,0.929152,-0.423584,-0.113216,-14.18375,-9.49375,13.79,-16.696001,-5.480001,15.6,concentric,3,3.0,32815.0,403049.0,360908.0,403431.0,362980.0
2026-04-07 17:38:10.831538,100907,561182750,561184655,0.911584,-0.437248,-0.115168,-17.3425,-9.75625,13.405,-16.16,-6.04,15.472001,concentric,3,3.0,32815.0,403049.0,360908.0,403431.0,362980.0
2026-04-07 17:38:10.833051,100908,561197308,561199626,0.911584,-0.437248,-0.115168,-17.2025,-10.47375,13.9475,-16.16,-6.04,15.472001,concentric,3,3.0,32815.0,403049.0,360908.0,403431.0,362980.0
2026-04-07 17:38:10.837158,100909,561206236,561208357,0.903776,-0.452864,-0.12688,-16.86125,-10.6925,13.93,-16.52,-5.520001,18.184,concentric,3,3.0,32815.0,403049.0,360908.0,403431.0,362980.0
2026-04-07 17:38:10.838827,100910,561215138,561217030,0.903776,-0.452864,-0.12688,-15.70625,-10.68375,13.85125,-16.52,-5.520001,18.184,concentric,3,3.0,32815.0,403049.0,360908.0,403431.0,362980.0
2026-04-07 17:38:10.841289,100911,561229617,561231908,0.895968,-0.433344,-0.119072,-15.408751,-10.54375,13.79875,-15.400001,-5.968,15.400001,concentric,3,3.0,32815.0,403049.0,360908.0,403431.0,362980.0
2026-04-07 17:38:10.842810,100912,561238583,561240648,0.895968,-0.433344,-0.119072,-15.435,-10.68375,13.22125,-15.400001,-5.968,15.400001,concentric,3,3.0,32815.0,403049.0,360908.0,403431.0,362980.0
2026-04-07 17:38:10.847174,100913,561247532,561249373,0.90768,-0.421632,-0.13664,-15.67125,-9.70375,12.25875,-16.152,-5.744,18.024,concentric,3,3.0,32815.0,403049.0,360908.0,403431.0,362980.0
2026-04-07 17:38:10.848739,100914,561262040,561264265,0.882304,-0.452864,-0.122976,-17.12375,-8.4,12.0925,-15.408001,-4.944,14.736001,concentric,3,3.0,32815.0,403049.0,360908.0,403431.0,362980.0
2026-04-07 17:38:10.901646,100924,561271028,561273388,0.882304,-0.452864,-0.122976,-18.20875,-7.56875,12.52125,-15.408001,-4.944,14.736001,concentric,3,3.0,32704.0,402726.0,360371.0,403431.0,362452.0
2026-04-07 17:38:10.905882,100925,561280055,561282112,0.870592,-0.431392,-0.132736,-17.38625,-7.4025,12.285,-15.168001,-5.4,11.824,concentric,3,3.0,32704.0,402726.0,360371.0,403431.0,362452.0
2026-04-07 17:38:10.907573,100926,561294525,561294995,0.870592,-0.431392,-0.132736,-15.56625,-7.42875,12.5475,-15.168001,-5.4,11.824,concentric,3,3.0,32704.0,402726.0,360371.0,403431.0,362452.0
2026-04-07 17:38:10.909317,100927,561303996,561305760,0.874496,-0.402112,-0.148352,-14.175,-7.0525,12.1275,-14.816001,-4.872,14.864,concentric,3,3.0,32704.0,402726.0,360371.0,403431.0,362452.0
2026-04-07 17:38:10.913562,100928,561312991,561314540,0.874496,-0.402112,-0.148352,-13.48375,-7.5425,11.61125,-14.816001,-4.872,14.864,concentric,3,3.0,32704.0,402726.0,360371.0,403431.0,362452.0
2026-04-07 17:38:10.915859,100929,561321970,561323262,0.880352,-0.415776,-0.158112,-14.8925,-8.26,10.325,-15.424001,-5.048,16.064001,concentric,3,3.0,32704.0,402726.0,360371.0,403431.0,362452.0
2026-04-07 17:38:10.947836,100930,561336507,561338181,0.880352,-0.415776,-0.158112,-15.47,-8.05,8.84625,-15.424001,-5.048,16.064001,concentric,3,3.0,32704.0,402726.0,360371.0,403431.0,362452.0
2026-04-07 17:38:10.950056,100931,561345412,561346902,0.874496,-0.4392,-0.142496,-15.32125,-8.42625,7.37625,-14.544001,-5.264,14.592001,concentric,3,3.0,32704.0,402726.0,360371.0,403431.0,362452.0
2026-04-07 17:38:10.954657,100932,561354352,561355708,0.874496,-0.4392,-0.142496,-14.25375,-8.8025,6.74625,-14.544001,-5.264,14.592001,concentric,3,3.0,32704.0,402726.0,360371.0,403431.0,362452.0
2026-04-07 17:38:10.956396,100933,561368821,561370676,0.874496,-0.441152,-0.13664,-13.34375,-9.35375,6.67625,-14.576001,-4.8,14.616001,concentric,3,3.0,32704.0,402726.0,360371.0,403431.0,362452.0
2026-04-07 17:38:10.985463,100944,561377938,561379465,0.874496,-0.441152,-0.13664,-13.23875,-9.5025,5.915,-14.576001,-4.8,14.616001,concentric,3,3.0,32629.0,402561.0,360171.0,403431.0,362192.0
2026-04-07 17:38:10.989817,100945,561386927,561388237,0.870592,-0.425536,-0.150304,-11.3575,-9.24,6.6675,-14.52,-5.368,15.624001,concentric,3,3.0,32629.0,402561.0,360171.0,403431.0,362192.0
2026-04-07 17:38:10.992145,100946,561395885,561396971,0.870592,-0.425536,-0.150304,-10.0275,-8.96875,6.335,-14.52,-5.368,15.624001,concentric,3,3.0,32629.0,402561.0,360171.0,403431.0,362192.0
2026-04-07 17:38:10.996318,100947,561410390,561411927,0.874496,-0.407968,-0.154208,-8.89875,-8.47,5.635,-13.984,-5.072,15.840001,concentric,3,3.0,32629.0,402561.0,360171.0,403431.0,362192.0
2026-04-07 17:38:11.027047,100948,561419313,561420624,0.874496,-0.407968,-0.154208,-8.085,-7.5425,4.99625,-13.984,-5.072,15.840001,concentric,3,3.0,32629.0,402561.0,360171.0,403431.0,362192.0
2026-04-07 17:38:11.030072,100949,561428225,561429313,0.862784,-0.445056,-0.154208,-8.12,-6.685,4.27875,-14.144001,-5.592001,14.768001,concentric,3,3.0,32629.0,402561.0,360171.0,403431.0,362192.0
2026-04-07 17:38:11.032113,100950,561442685,561444240,0.853024,-0.421632,-0.142496,-8.2775,-5.3725,4.9175,-13.848001,-4.912,14.016001,concentric,3,3.0,32629.0,402561.0,360171.0,403431.0,362192.0
2026-04-07 17:38:11.036251,100951,561451599,561452938,0.853024,-0.421632,-0.142496,-8.79375,-3.66625,5.1625,-13.848001,-4.912,14.016001,concentric,3,3.0,32629.0,402561.0,360171.0,403431.0,362192.0
2026-04-07 17:38:11.067997,100952,561460593,561461664,0.851072,-0.431392,-0.1464,-8.79375,-3.07125,5.48625,-13.776001,-4.904,14.368001,concentric,3,3.0,32629.0,402561.0,360171.0,403431.0,362192.0
2026-04-07 17:38:11.093852,100962,561475336,561476672,0.851072,-0.431392,-0.1464,-9.33625,-2.49375,4.33125,-13.776001,-4.904,14.368001,concentric,3,3.0,32547.0,402308.0,359822.0,403431.0,361734.0
2026-04-07 17:38:11.097557,100963,561484345,561485385,0.8296,-0.447008,-0.171776,-9.14375,-1.93375,2.9925,-13.72,-5.144,14.360001,concentric,3,3.0,32547.0,402308.0,359822.0,403431.0,361734.0
2026-04-07 17:38:11.100494,100964,561493275,561494128,0.8296,-0.447008,-0.171776,-6.79875,-0.4375,2.37125,-13.72,-5.144,14.360001,concentric,3,3.0,32547.0,402308.0,359822.0,403431.0,361734.0
2026-04-07 17:38:11.102890,100965,561507787,561509027,0.812032,-0.42944,-0.179584,-6.13375,1.67125,1.925,-12.704,-5.216,13.904,concentric,3,3.0,32547.0,402308.0,359822.0,403431.0,361734.0
2026-04-07 17:38:11.105427,100966,561516708,561517765,0.812032,-0.42944,-0.179584,-8.2425,4.05125,1.4175,-12.704,-5.216,13.904,concentric,3,3.0,32547.0,402308.0,359822.0,403431.0,361734.0
2026-04-07 17:38:11.108507,100967,561525660,561526466,0.802272,-0.404064,-0.134688,-11.03375,5.9325,0.60375,-12.192,-5.32,14.112,concentric,3,3.0,32547.0,402308.0,359822.0,403431.0,361734.0
2026-04-07 17:38:11.142148,100968,561534659,561535175,0.802272,-0.404064,-0.134688,-11.61125,6.36125,-1.435,-12.192,-5.32,14.112,concentric,3,3.0,32547.0,402308.0,359822.0,403431.0,361734.0
2026-04-07 17:38:11.145927,100969,561549572,561550094,0.825696,-0.456768,-0.17568,-11.19125,6.85125,-4.38375,-12.448001,-5.016,15.584001,concentric,3,3.0,32547.0,402308.0,359822.0,403431.0,361734.0
2026-04-07 17:38:11.147514,100970,561558980,561560892,0.825696,-0.456768,-0.17568,-10.89375,8.19,-7.875,-12.448001,-5.016,15.584001,concentric,3,3.0,32547.0,402308.0,359822.0,403431.0,361734.0
2026-04-07 17:38:11.153394,100971,561567967,561569584,0.815936,-0.464576,-0.15616,-10.745,9.58125,-9.275,-12.576,-5.32,14.216001,concentric,3,3.0,32547.0,402308.0,359822.0,403431.0,361734.0
2026-04-07 17:38:11.182170,100981,561577098,561578356,0.815936,-0.464576,-0.15616,-12.32,10.7975,-10.92,-12.576,-5.32,14.216001,concentric,3,3.0,32295.0,401349.0,358085.0,403431.0,359891.0
2026-04-07 17:38:11.185777,100982,561591694,561593388,0.792512,-0.464576,-0.167872,-13.69375,13.2825,-11.480001,-13.536,-5.776001,17.216002,concentric,3,3.0,32295.0,401349.0,358085.0,403431.0,359891.0
2026-04-07 17:38:11.185845,100983,561600616,561602095,0.792512,-0.435296,-0.124928,-14.58625,15.96,-12.845,-13.536,-5.776001,15.168001,concentric,3,3.0,32295.0,401349.0,358085.0,403431.0,359891.0
2026-04-07 17:38:11.216433,100984,561609605,561610800,0.792512,-0.435296,-0.124928,-15.25125,17.07125,-15.12,-13.360001,-5.968,15.256001,concentric,3,3.0,32295.0,401349.0,358085.0,403431.0,359891.0
