pc_time,serial_num,sensor_ts,host_ts,ax,ay,az,gx,gy,gz,mx,my,mz,phase,rpe,weight_kg,ppg_a,ppg_b,ppg_c,ppg_d,ppg_e
2026-04-07 17:38:11.220920,100985,561624116,561625695,0.794464,-0.41968,-0.154208,-15.49625,18.8125,-18.366251,-12.528001,-5.68,14.704,eccentric,3,3.0,32295.0,401349.0,358085.0,403431.0,359891.0
2026-04-07 17:38:11.222455,100986,561633036,561634361,0.794464,-0.41968,-0.154208,-15.33,20.71125,-21.805,-12.528001,-5.68,14.704,eccentric,3,3.0,32295.0,401349.0,358085.0,403431.0,359891.0
2026-04-07 17:38:11.228304,100987,561641985,561643071,0.788608,-0.427488,-0.181536,-16.09125,21.58625,-24.3425,-12.424001,-6.408001,14.568001,eccentric,3,3.0,32295.0,401349.0,358085.0,403431.0,359891.0
2026-04-07 17:38:11.256897,100988,561656468,561657975,0.788608,-0.427488,-0.181536,-17.07125,22.47875,-26.6875,-12.424001,-6.408001,14.568001,eccentric,3,3.0,32295.0,401349.0,358085.0,403431.0,359891.0
2026-04-07 17:38:11.261409,100989,561665391,561666677,0.757376,-0.435296,-0.16592,-18.27,24.40375,-28.90125,-11.832001,-6.688,14.824,eccentric,3,3.0,32295.0,401349.0,358085.0,403431.0,359891.0
2026-04-07 17:38:11.295089,101000,561674292,561675595,0.757376,-0.435296,-0.16592,-17.89375,25.9175,-30.00375,-11.832001,-6.688,14.824,eccentric,3,3.0,31582.0,396645.0,353442.0,403431.0,354895.0
2026-04-07 17:38:11.297082,101001,561688826,561690539,0.745664,-0.339648,-0.072224,-17.4825,28.665,-31.21125,-12.672001,-7.304,16.736,eccentric,3,3.0,31582.0,396645.0,353442.0,403431.0,354895.0
2026-04-07 17:38:11.300060,101002,561697772,561699307,0.745664,-0.339648,-0.072224,-18.025,30.5725,-32.10375,-12.672001,-7.304,16.736,eccentric,3,3.0,31582.0,396645.0,353442.0,403431.0,354895.0
2026-04-07 17:38:11.302603,101003,561706731,561708028,0.732,-0.365024,-0.169824,-20.53625,30.17,-34.405,-12.280001,-7.336,16.672,eccentric,3,3.0,31582.0,396645.0,353442.0,403431.0,354895.0
2026-04-07 17:38:11.304078,101004,561715667,561716749,0.732,-0.365024,-0.169824,-19.76625,28.56875,-37.54625,-12.280001,-7.336,16.672,eccentric,3,3.0,31582.0,396645.0,353442.0,403431.0,354895.0
2026-04-07 17:38:11.337374,101005,561730322,561731622,0.732,-0.365024,-0.15616,-18.71625,26.74875,-38.9375,-11.776001,-8.032001,17.560001,eccentric,3,3.0,31582.0,396645.0,353442.0,403431.0,354895.0
2026-04-07 17:38:11.340097,101006,561739220,561740295,0.732,-0.365024,-0.15616,-17.255,25.3925,-40.425,-11.776001,-8.032001,17.560001,eccentric,3,3.0,31582.0,396645.0,353442.0,403431.0,354895.0
2026-04-07 17:38:11.345635,101007,561748212,561748989,0.732,-0.349408,-0.11712,-17.33375,25.0775,-42.175,-11.808001,-8.664001,16.944,eccentric,3,3.0,31582.0,396645.0,353442.0,403431.0,354895.0
2026-04-07 17:38:11.349540,101008,561763194,561763901,0.737856,-0.300608,-0.101504,-16.6775,25.83,-42.857502,-12.400001,-8.904,15.848001,eccentric,3,3.0,31582.0,396645.0,353442.0,403431.0,354895.0
2026-04-07 17:38:11.378035,101009,561772513,561774660,0.737856,-0.300608,-0.101504,-17.5525,26.7575,-44.8525,-12.400001,-8.904,15.848001,eccentric,3,3.0,31582.0,396645.0,353442.0,403431.0,354895.0
2026-04-07 17:38:11.405094,101019,561781485,561783462,0.706624,-0.300608,-0.099552,-19.355,27.0725,-48.0025,-12.400001,-8.904,16.504002,eccentric,3,3.0,30822.0,391304.0,348997.0,403431.0,350465.0
2026-04-07 17:38:11.406696,101020,561790471,561792175,0.706624,-0.300608,-0.099552,-18.9525,25.97,-48.58875,-11.888001,-9.128,16.504002,eccentric,3,3.0,30822.0,391304.0,348997.0,403431.0,350465.0
2026-04-07 17:38:11.410914,101021,561805003,561807137,0.69296,-0.33184,-0.144448,-18.83,24.15875,-49.34125,-12.128,-10.632001,18.328001,eccentric,3,3.0,30822.0,391304.0,348997.0,403431.0,350465.0
2026-04-07 17:38:11.412602,101022,561814035,561815918,0.69296,-0.33184,-0.144448,-18.725,22.75,-49.14875,-12.128,-10.632001,18.328001,eccentric,3,3.0,30822.0,391304.0,348997.0,403431.0,350465.0
2026-04-07 17:38:11.414197,101023,561823026,561824640,0.72224,-0.251808,-0.111264,-17.710001,21.58625,-49.525,-12.192,-10.576,18.672,eccentric,3,3.0,30822.0,391304.0,348997.0,403431.0,350465.0
2026-04-07 17:38:11.425299,101024,561837491,561839530,0.72224,-0.251808,-0.111264,-16.397501,23.1175,-51.47625,-12.192,-10.576,18.672,eccentric,3,3.0,30822.0,391304.0,348997.0,403431.0,350465.0
2026-04-07 17:38:11.453140,101025,561846408,561848251,0.759328,-0.249856,-0.105408,-14.44625,24.7975,-53.06,-11.344001,-11.048,17.056002,eccentric,3,3.0,30822.0,391304.0,348997.0,403431.0,350465.0
2026-04-07 17:38:11.457564,101026,561855354,561856964,0.759328,-0.249856,-0.105408,-17.24625,26.06625,-55.09,-11.344001,-11.048,17.056002,eccentric,3,3.0,30822.0,391304.0,348997.0,403431.0,350465.0
2026-04-07 17:38:11.459118,101027,561869842,561871838,0.730048,-0.236192,-0.074176,-17.84125,27.3,-56.70875,-11.864,-11.712001,17.296001,eccentric,3,3.0,30822.0,391304.0,348997.0,403431.0,350465.0
2026-04-07 17:38:11.488377,101037,561879169,561880919,0.730048,-0.236192,-0.074176,-14.455,26.9325,-55.95625,-11.864,-11.712001,17.296001,eccentric,3,3.0,30684.0,389997.0,347866.0,403431.0,349280.0
2026-04-07 17:38:11.490165,101038,561888202,561889680,0.726144,-0.279136,-0.144448,-14.595,25.24375,-55.2475,-11.864,-12.440001,20.288,eccentric,3,3.0,30684.0,389997.0,347866.0,403431.0,349280.0
2026-04-07 17:38:11.491668,101039,561897232,561898401,0.726144,-0.279136,-0.144448,-14.7175,23.975,-53.94375,-11.864,-12.440001,20.288,eccentric,3,3.0,30684.0,389997.0,347866.0,403431.0,349280.0
2026-04-07 17:38:11.498329,101040,561911771,561913318,0.74176,-0.1952,-0.111264,-13.0725,23.59,-53.1825,-12.68,-13.328001,20.752,eccentric,3,3.0,30684.0,389997.0,347866.0,403431.0,349280.0
2026-04-07 17:38:11.526853,101041,561920710,561922032,0.74176,-0.1952,-0.111264,-12.11,24.2025,-53.445,-12.68,-13.328001,20.752,eccentric,3,3.0,30684.0,389997.0,347866.0,403431.0,349280.0
2026-04-07 17:38:11.531411,101042,561929649,561930756,0.753472,-0.17568,-0.064416,-14.1925,24.94625,-54.73125,-12.528001,-13.656001,18.552,eccentric,3,3.0,30684.0,389997.0,347866.0,403431.0,349280.0
2026-04-07 17:38:11.532900,101043,561944146,561945640,0.732,-0.218624,-0.046848,-14.44625,25.90875,-55.2475,-12.088,-13.592001,18.016,eccentric,3,3.0,30684.0,389997.0,347866.0,403431.0,349280.0
2026-04-07 17:38:11.539498,101044,561953075,561954336,0.732,-0.218624,-0.046848,-15.81125,25.41875,-55.2475,-12.088,-13.592001,18.016,eccentric,3,3.0,30684.0,389997.0,347866.0,403431.0,349280.0
2026-04-07 17:38:11.571068,101045,561962030,561963065,0.747616,-0.23424,-0.132736,-13.755,24.535,-53.15625,-12.088,-13.592001,17.824001,eccentric,3,3.0,30684.0,389997.0,347866.0,403431.0,349280.0
2026-04-07 17:38:11.572703,101046,561970975,561971771,0.735904,-0.23424,-0.132736,-10.91125,23.0825,-50.6275,-11.648001,-13.568001,17.824001,eccentric,3,3.0,30684.0,389997.0,347866.0,403431.0,349280.0
2026-04-07 17:38:11.600964,101057,561986020,561986795,0.724192,-0.124928,-0.083936,-12.06625,22.741251,-49.6825,-11.424001,-15.168001,18.296001,eccentric,3,3.0,30391.0,387551.0,345780.0,403326.0,347229.0
2026-04-07 17:38:11.602630,101058,561995470,561997580,0.724192,-0.124928,-0.083936,-10.3775,23.5725,-48.3,-11.424001,-15.168001,18.296001,eccentric,3,3.0,30391.0,387551.0,345780.0,403326.0,347229.0
2026-04-07 17:38:11.604232,101059,562004399,562006310,0.733952,-0.115168,-0.056608,-10.43875,23.45,-47.99375,-11.76,-15.672001,20.312,eccentric,3,3.0,30391.0,387551.0,345780.0,403326.0,347229.0
2026-04-07 17:38:11.608214,101060,562013737,562015103,0.733952,-0.115168,-0.056608,-12.985,23.51125,-48.3525,-11.76,-15.672001,20.312,eccentric,3,3.0,30391.0,387551.0,345780.0,403326.0,347229.0
2026-04-07 17:38:11.614898,101061,562028247,562030031,0.733952,-0.226432,-0.093696,-13.51,21.56875,-47.4775,-11.712001,-15.696001,20.312,eccentric,3,3.0,30391.0,387551.0,345780.0,403326.0,347229.0
2026-04-07 17:38:11.646585,101062,562037265,562038849,0.733952,-0.226432,-0.093696,-13.4575,19.04,-45.19375,-11.712001,-15.696001,20.312,eccentric,3,3.0,30391.0,387551.0,345780.0,403326.0,347229.0
2026-04-07 17:38:11.648790,101063,562046178,562047550,0.776896,-0.150304,-0.105408,-11.20875,17.4825,-41.97375,-11.336,-15.880001,20.080002,eccentric,3,3.0,30391.0,387551.0,345780.0,403326.0,347229.0
2026-04-07 17:38:11.651776,101064,562061024,562062486,0.776896,-0.150304,-0.105408,-9.52,16.37125,-39.55875,-11.336,-15.880001,20.080002,eccentric,3,3.0,30391.0,387551.0,345780.0,403326.0,347229.0
2026-04-07 17:38:11.654247,101065,562069979,562071247,0.856928,-0.07808,-0.023424,-11.698751,17.66625,-38.99,-11.400001,-16.36,19.272001,eccentric,3,3.0,30391.0,387551.0,345780.0,403326.0,347229.0
2026-04-07 17:38:11.687214,101075,562079298,562080091,0.856928,-0.07808,-0.023424,-13.22125,20.2475,-40.62625,-11.400001,-16.36,19.272001,eccentric,3,3.0,30468.0,388067.0,346242.0,403431.0,347929.0
2026-04-07 17:38:11.688974,101076,562088932,562090965,0.83936,-0.121024,-0.037088,-13.3,22.575,-42.56875,-10.864,-16.968,19.376001,eccentric,3,3.0,30468.0,388067.0,346242.0,403431.0,347929.0
2026-04-07 17:38:11.690419,101077,562103444,562103824,0.821792,-0.183488,-0.074176,-15.925,24.19375,-44.00375,-11.536,-16.528,22.328001,eccentric,3,3.0,30468.0,388067.0,346242.0,403431.0,347929.0
2026-04-07 17:38:11.700742,101078,562112780,562114602,0.821792,-0.183488,-0.074176,-14.455,23.5725,-42.6475,-11.536,-16.528,22.328001,eccentric,3,3.0,30468.0,388067.0,346242.0,403431.0,347929.0
2026-04-07 17:38:11.729450,101079,562121720,562123292,0.821792,-0.183488,-0.074176,-15.365,21.72625,-39.43625,-11.536,-16.528,22.328001,eccentric,3,3.0,30468.0,388067.0,346242.0,403431.0,347929.0
2026-04-07 17:38:11.733854,101080,562136222,562138238,0.841312,-0.093696,-0.074176,-15.995,20.7375,-36.72375,-10.968,-16.664001,17.84,eccentric,3,3.0,30468.0,388067.0,346242.0,403431.0,347929.0
2026-04-07 17:38:11.735481,101081,562145161,562146956,0.806176,-0.060512,-0.0976,-14.971251,20.16,-35.2275,-11.040001,-17.416,19.176,eccentric,3,3.0,30468.0,388067.0,346242.0,403431.0,347929.0
2026-04-07 17:38:11.740788,101082,562154088,562155672,0.806176,-0.060512,-0.0976,-15.855001,19.25875,-34.58875,-11.040001,-17.416,19.176,eccentric,3,3.0,30468.0,388067.0,346242.0,403431.0,347929.0
2026-04-07 17:38:11.771587,101083,562162986,562164406,0.77104,-0.091744,-0.06832,-15.54875,17.5175,-34.3525,-11.040001,-17.512001,18.672,eccentric,3,3.0,30468.0,388067.0,346242.0,403431.0,347929.0
2026-04-07 17:38:11.800931,101093,562177526,562179293,0.77104,-0.091744,-0.06832,-13.2125,15.2775,-34.265,-10.968,-17.512001,18.672,eccentric,3,3.0,30456.0,388041.0,346346.0,403431.0,348111.0
2026-04-07 17:38:11.802631,101094,562186801,562188058,0.753472,-0.11712,-0.046848,-11.34,13.67625,-33.36375,-10.424001,-17.92,20.032001,eccentric,3,3.0,30456.0,388041.0,346346.0,403431.0,348111.0
2026-04-07 17:38:11.804169,101095,562195723,562196817,0.753472,-0.11712,-0.046848,-10.7975,11.165,-31.185,-10.424001,-17.92,20.032001,eccentric,3,3.0,30456.0,388041.0,346346.0,403431.0,348111.0
2026-04-07 17:38:11.808383,101096,562210388,562211790,0.76128,-0.08784,-0.027328,-11.82125,8.70625,-27.965,-10.736,-18.144001,20.160002,eccentric,3,3.0,30456.0,388041.0,346346.0,403431.0,348111.0
2026-04-07 17:38:11.810102,101097,562219314,562220539,0.76128,-0.08784,-0.027328,-14.980001,6.65,-24.9725,-10.736,-18.144001,20.160002,eccentric,3,3.0,30456.0,388041.0,346346.0,403431.0,348111.0
2026-04-07 17:38:11.814495,101098,562228192,562229231,0.757376,-0.10736,-0.040992,-17.80625,4.87375,-22.575,-10.568001,-18.584002,20.568,eccentric,3,3.0,30456.0,388041.0,346346.0,403431.0,348111.0
2026-04-07 17:38:11.843043,101099,562242743,562244159,0.757376,-0.105408,-0.081984,-18.55875,4.6375,-20.41375,-10.568001,-18.584002,20.568,eccentric,3,3.0,30456.0,388041.0,346346.0,403431.0,348111.0
2026-04-07 17:38:11.847483,101100,562251661,562252895,0.757376,-0.105408,-0.081984,-16.9225,3.56125,-18.6725,-10.384001,-19.04,20.616001,eccentric,3,3.0,30456.0,388041.0,346346.0,403431.0,348111.0
2026-04-07 17:38:11.853409,101101,562260534,562261622,0.757376,-0.105408,-0.081984,-15.89875,2.205,-15.225,-10.384001,-19.04,20.616001,eccentric,3,3.0,30456.0,388041.0,346346.0,403431.0,348111.0
2026-04-07 17:38:11.855060,101102,562269492,562270299,0.763232,-0.101504,-0.089792,-15.190001,0.14,-10.54375,-10.352,-18.448,20.2,eccentric,3,3.0,30456.0,388041.0,346346.0,403431.0,348111.0
2026-04-07 17:38:11.915866,101113,562284060,562285299,0.806176,-0.089792,-0.072224,-17.78,-2.72125,-6.41375,-10.528001,-18.672,19.768002,eccentric,3,3.0,31152.0,392945.0,350432.0,403431.0,352438.0
2026-04-07 17:38:11.917535,101114,562292954,562294044,0.806176,-0.089792,-0.072224,-20.69375,-5.075,-3.12375,-10.528001,-18.672,19.768002,eccentric,3,3.0,31152.0,392945.0,350432.0,403431.0,352438.0
2026-04-07 17:38:11.919148,101115,562301871,562302744,0.806176,-0.089792,-0.072224,-21.48125,-5.67875,-1.91625,-10.528001,-18.672,19.768002,eccentric,3,3.0,31152.0,392945.0,350432.0,403431.0,352438.0
2026-04-07 17:38:11.923387,101116,562316339,562317694,0.843264,-0.076128,-0.054656,-22.33875,-5.31125,-1.33875,-10.632001,-18.824001,21.264002,eccentric,3,3.0,31152.0,392945.0,350432.0,403431.0,352438.0
2026-04-07 17:38:11.925103,101117,562325261,562326418,0.856928,-0.109312,-0.083936,-23.49375,-5.565,-1.7325,-10.608001,-18.848001,19.488,eccentric,3,3.0,31152.0,392945.0,350432.0,403431.0,352438.0
2026-04-07 17:38:11.927069,101118,562334205,562335200,0.856928,-0.109312,-0.083936,-22.7675,-6.16,-1.42625,-10.608001,-18.848001,19.488,eccentric,3,3.0,31152.0,392945.0,350432.0,403431.0,352438.0
2026-04-07 17:38:11.934494,101119,562348720,562350214,0.89792,-0.308416,-0.115168,-21.210001,-7.14875,-0.595,-10.984,-19.048,20.496,eccentric,3,3.0,31152.0,392945.0,350432.0,403431.0,352438.0
2026-04-07 17:38:11.963090,101120,562357641,562358922,0.89792,-0.308416,-0.115168,-15.68,-6.405,-2.07375,-10.984,-19.048,20.496,eccentric,3,3.0,31152.0,392945.0,350432.0,403431.0,352438.0
2026-04-07 17:38:11.968393,101121,562366611,562367636,0.905728,-0.02928,-0.109312,-10.325,-8.26,-7.53375,-9.992001,-19.112001,20.304,eccentric,3,3.0,31152.0,392945.0,350432.0,403431.0,352438.0
2026-04-07 17:38:11.995425,101131,562381226,562382824,0.905728,-0.02928,-0.109312,8.56625,-7.69125,-5.1625,-9.992001,-19.112001,20.304,eccentric,3,3.0,31839.0,397542.0,354108.0,403431.0,356277.0
2026-04-07 17:38:11.999652,101132,562390237,562391612,0.88816,-0.021472,-0.085888,5.59125,-6.37875,-7.4725,-9.360001,-18.936,20.272001,eccentric,3,3.0,31839.0,397542.0,354108.0,403431.0,356277.0
2026-04-07 17:38:12.001333,101133,562399281,562400323,0.88816,-0.021472,-0.085888,-1.8375,-5.25,-7.455,-9.360001,-18.936,20.272001,eccentric,3,3.0,31839.0,397542.0,354108.0,403431.0,356277.0
2026-04-07 17:38:12.002875,101134,562408209,562409011,0.843264,-0.119072,-0.081984,-2.24,-4.62875,-9.345,-9.736,-18.728,20.208,eccentric,3,3.0,31839.0,397542.0,354108.0,403431.0,356277.0
2026-04-07 17:38:12.009476,101135,562422762,562423908,0.843264,-0.119072,-0.081984,3.43,-5.18875,-9.485,-9.736,-18.728,20.208,eccentric,3,3.0,31839.0,397542.0,354108.0,403431.0,356277.0
2026-04-07 17:38:12.041510,101136,562431722,562432636,0.833504,-0.081984,-0.150304,7.97125,-7.49,-9.205,-11.088,-19.456001,19.352001,eccentric,3,3.0,31839.0,397542.0,354108.0,403431.0,356277.0
2026-04-07 17:38:12.046058,101137,562440638,562441359,0.833504,-0.081984,-0.150304,8.35625,-9.1875,-7.53375,-11.088,-19.456001,19.352001,eccentric,3,3.0,31839.0,397542.0,354108.0,403431.0,356277.0
2026-04-07 17:38:12.048257,101138,562455535,562456238,0.837408,-0.040992,-0.056608,5.25,-8.56625,-6.4575,-10.576,-19.136002,19.968,eccentric,3,3.0,31839.0,397542.0,354108.0,403431.0,356277.0
2026-04-07 17:38:12.053299,101139,562464814,562466982,0.841312,-0.085888,-0.07808,4.12125,-7.60375,-6.335,-10.792001,-19.496,21.456001,eccentric,3,3.0,31839.0,397542.0,354108.0,403431.0,356277.0
2026-04-07 17:38:12.058794,101140,562473744,562475739,0.841312,-0.085888,-0.07808,2.1525,-6.195,-6.1425,-10.792001,-19.496,21.456001,eccentric,3,3.0,31839.0,397542.0,354108.0,403431.0,356277.0
2026-04-07 17:38:12.086348,101150,562483396,562484502,0.841312,-0.085888,-0.07808,0.175,-4.90875,-4.97,-10.792001,-19.496,21.456001,eccentric,3,3.0,32064.0,399192.0,355490.0,403431.0,357751.0
2026-04-07 17:38:12.087970,101151,562497918,562499397,0.825696,-0.052704,-0.089792,0.56,-3.325,-3.56125,-10.328,-18.92,20.288,eccentric,3,3.0,32064.0,399192.0,355490.0,403431.0,357751.0
2026-04-07 17:38:12.094502,101152,562506973,562508091,0.786656,-0.095648,-0.148352,0.7,-3.66625,-1.67125,-10.144,-18.768002,19.632002,eccentric,3,3.0,32064.0,399192.0,355490.0,403431.0,357751.0
2026-04-07 17:38:12.100749,101153,562515909,562516816,0.786656,-0.095648,-0.148352,1.28625,-5.7925,1.12875,-10.144,-18.768002,19.632002,eccentric,3,3.0,32064.0,399192.0,355490.0,403431.0,357751.0
2026-04-07 17:38:12.132257,101154,562530391,562531733,0.833504,-0.054656,-0.121024,3.94625,-9.30125,3.49125,-9.92,-18.776001,20.528002,eccentric,3,3.0,32064.0,399192.0,355490.0,403431.0,357751.0
2026-04-07 17:38:12.133948,101155,562539292,562540420,0.833504,-0.054656,-0.121024,7.35875,-10.675,3.78,-9.92,-18.776001,20.528002,eccentric,3,3.0,32064.0,399192.0,355490.0,403431.0,357751.0
2026-04-07 17:38:12.135494,101156,562548204,562549117,0.821792,-0.060512,-0.099552,9.4675,-10.03625,4.4625,-9.84,-17.848001,19.336,eccentric,3,3.0,32064.0,399192.0,355490.0,403431.0,357751.0
2026-04-07 17:38:12.141984,101157,562557144,562557893,0.821792,-0.060512,-0.099552,6.20375,-9.03875,4.5325,-9.84,-17.848001,19.336,eccentric,3,3.0,32064.0,399192.0,355490.0,403431.0,357751.0
2026-04-07 17:38:12.170566,101158,562572153,562572798,0.79056,-0.101504,-0.113216,5.1975,-9.47625,5.0925,-10.240001,-18.256,19.592001,eccentric,3,3.0,32064.0,399192.0,355490.0,403431.0,357751.0
2026-04-07 17:38:12.210216,101169,562582139,562583569,0.79056,-0.101504,-0.113216,9.0825,-10.386251,6.0025,-10.240001,-18.256,19.592001,eccentric,3,3.0,32210.0,400318.0,356485.0,403431.0,358688.0
2026-04-07 17:38:12.211676,101170,562591165,562592228,0.7808,-0.103456,-0.179584,11.52375,-12.67875,7.49875,-10.264001,-18.048,19.504002,eccentric,3,3.0,32210.0,400318.0,356485.0,403431.0,358688.0
2026-04-07 17:38:12.215908,101171,562600140,562600945,0.7808,-0.103456,-0.179584,10.6925,-15.505,10.8675,-10.264001,-18.048,19.504002,eccentric,3,3.0,32210.0,400318.0,356485.0,403431.0,358688.0
2026-04-07 17:38:12.217610,101172,562614768,562615869,0.837408,-0.070272,-0.113216,8.72375,-16.94875,12.95875,-11.208,-18.008001,21.448002,eccentric,3,3.0,32210.0,400318.0,356485.0,403431.0,358688.0
2026-04-07 17:38:12.219272,101173,562623734,562624573,0.837408,-0.070272,-0.113216,8.91625,-15.47875,12.88,-11.208,-18.008001,21.448002,eccentric,3,3.0,32210.0,400318.0,356485.0,403431.0,358688.0
2026-04-07 17:38:12.225960,101174,562632713,562633276,0.81008,-0.080032,-0.13664,8.65375,-14.533751,12.88,-11.432,-18.424002,20.432001,eccentric,3,3.0,32210.0,400318.0,356485.0,403431.0,358688.0
2026-04-07 17:38:12.232061,101175,562647664,562648265,0.784704,-0.099552,-0.152256,9.275,-14.46375,13.37875,-10.76,-17.664001,20.52,eccentric,3,3.0,32210.0,400318.0,356485.0,403431.0,358688.0
2026-04-07 17:38:12.264032,101176,562657026,562659032,0.784704,-0.099552,-0.152256,11.13,-14.90125,13.755,-10.76,-17.664001,20.52,eccentric,3,3.0,32210.0,400318.0,356485.0,403431.0,358688.0
2026-04-07 17:38:12.266744,101177,562665947,562667715,0.774944,-0.093696,-0.160064,13.51875,-16.38875,15.67125,-10.944,-17.144001,17.776001,eccentric,3,3.0,32210.0,400318.0,356485.0,403431.0,358688.0
2026-04-07 17:38:12.270897,101178,562674917,562676398,0.774944,-0.093696,-0.160064,13.93,-19.85375,17.71875,-10.944,-17.144001,17.776001,eccentric,3,3.0,32210.0,400318.0,356485.0,403431.0,358688.0
2026-04-07 17:38:12.312196,101188,562690020,562691641,0.808128,-0.093696,-0.16592,12.1275,-22.12875,18.68125,-10.408001,-16.384,18.44,eccentric,3,3.0,32487.0,401529.0,358273.0,403431.0,360682.0
2026-04-07 17:38:12.313859,101189,562699017,562700359,0.808128,-0.093696,-0.16592,12.36375,-23.28375,18.865,-10.408001,-16.384,18.44,eccentric,3,3.0,32487.0,401529.0,358273.0,403431.0,360682.0
2026-04-07 17:38:12.315616,101190,562707953,562709057,0.841312,-0.105408,-0.128832,11.89125,-22.2775,17.01875,-10.888001,-16.232,18.288,eccentric,3,3.0,32487.0,401529.0,358273.0,403431.0,360682.0
2026-04-07 17:38:12.319712,101191,562716901,562717796,0.841312,-0.105408,-0.128832,14.60375,-20.1425,14.58625,-10.888001,-16.232,18.288,eccentric,3,3.0,32487.0,401529.0,358273.0,403431.0,360682.0
2026-04-07 17:38:12.321164,101192,562731972,562732771,0.772992,-0.124928,-0.158112,17.78,-19.2675,13.09,-10.736,-16.240002,19.2,eccentric,3,3.0,32487.0,401529.0,358273.0,403431.0,360682.0
2026-04-07 17:38:12.327077,101193,562740923,562741494,0.772992,-0.124928,-0.158112,20.58875,-21.48125,12.80125,-10.736,-16.240002,19.2,eccentric,3,3.0,32487.0,401529.0,358273.0,403431.0,360682.0
2026-04-07 17:38:12.357754,101194,562750235,562752366,0.75152,-0.119072,-0.160064,22.645,-24.185,13.825,-11.016001,-16.224,19.648,eccentric,3,3.0,32487.0,401529.0,358273.0,403431.0,360682.0
2026-04-07 17:38:12.360018,101195,562764734,562765204,0.75152,-0.119072,-0.193248,22.75875,-26.41625,16.7125,-11.016001,-16.224,19.648,eccentric,3,3.0,32487.0,401529.0,358273.0,403431.0,360682.0
2026-04-07 17:38:12.364709,101196,562774052,562775956,0.765184,-0.124928,-0.193248,21.20125,-29.67125,18.40125,-10.848001,-15.544001,18.160002,eccentric,3,3.0,32487.0,401529.0,358273.0,403431.0,360682.0
2026-04-07 17:38:12.387991,101206,562783533,562784702,0.765184,-0.124928,-0.193248,21.0175,-30.4675,18.515,-10.848001,-15.544001,18.160002,eccentric,3,3.0,32799.0,402638.0,360195.0,403431.0,362715.0
2026-04-07 17:38:12.392108,101207,562792615,562793452,0.749568,-0.099552,-0.181536,24.12375,-30.58125,17.745,-11.512,-15.840001,18.400002,eccentric,3,3.0,32799.0,402638.0,360195.0,403431.0,362715.0
2026-04-07 17:38:12.393803,101208,562807162,562808398,0.75152,-0.085888,-0.18544,28.98,-31.3775,16.94,-11.040001,-16.136002,18.208,eccentric,3,3.0,32799.0,402638.0,360195.0,403431.0,362715.0
2026-04-07 17:38:12.417212,101209,562816175,562817104,0.75152,-0.085888,-0.18544,30.8525,-33.27625,15.82,-11.040001,-16.136002,18.208,eccentric,3,3.0,32799.0,402638.0,360195.0,403431.0,362715.0
2026-04-07 17:38:12.418855,101210,562825097,562825792,0.75152,-0.140544,-0.183488,29.8375,-35.55125,17.36,-11.040001,-16.136002,16.16,eccentric,3,3.0,32799.0,402638.0,360195.0,403431.0,362715.0
2026-04-07 17:38:12.420404,101211,562834377,562836557,0.755424,-0.140544,-0.183488,26.62625,-37.14375,19.10125,-10.624001,-14.480001,16.2,eccentric,3,3.0,32799.0,402638.0,360195.0,403431.0,362715.0
2026-04-07 17:38:12.451602,101212,562848887,562849414,0.769088,-0.142496,-0.17568,24.8675,-38.5875,20.5275,-10.352,-14.208001,16.152,eccentric,3,3.0,32799.0,402638.0,360195.0,403431.0,362715.0
2026-04-07 17:38:12.453873,101213,562858387,562860198,0.769088,-0.142496,-0.17568,26.6875,-38.57,22.40875,-10.352,-14.208001,16.152,eccentric,3,3.0,32799.0,402638.0,360195.0,403431.0,362715.0
2026-04-07 17:38:12.458414,101214,562867296,562868875,0.763232,-0.124928,-0.218624,28.98,-37.61625,22.785,-10.592001,-13.808001,14.912001,eccentric,3,3.0,32799.0,402638.0,360195.0,403431.0,362715.0
2026-04-07 17:38:12.515152,101224,562882168,562884434,0.763232,-0.124928,-0.218624,30.4325,-37.75625,22.12875,-10.592001,-13.808001,14.912001,eccentric,3,3.0,32883.0,403017.0,360971.0,403431.0,363606.0
2026-04-07 17:38:12.516657,101225,562891232,562893204,0.79056,-0.083936,-0.167872,32.22625,-37.8175,21.7875,-10.336,-14.064001,17.032001,eccentric,3,3.0,32883.0,403017.0,360971.0,403431.0,363606.0
2026-04-07 17:38:12.520909,101226,562900169,562901897,0.79056,-0.083936,-0.167872,30.10875,-37.555,21.8925,-10.336,-14.064001,17.032001,eccentric,3,3.0,32883.0,403017.0,360971.0,403431.0,363606.0
2026-04-07 17:38:12.523736,101227,562909096,562910576,0.786656,-0.163968,-0.189344,25.66375,-37.31,21.34125,-10.768001,-13.240001,14.56,eccentric,3,3.0,32883.0,403017.0,360971.0,403431.0,363606.0
2026-04-07 17:38:12.529712,101228,562923695,562925603,0.786656,-0.163968,-0.189344,24.29875,-37.607502,22.37375,-10.768001,-13.240001,14.56,eccentric,3,3.0,32883.0,403017.0,360971.0,403431.0,363606.0
2026-04-07 17:38:12.531432,101229,562932652,562934328,0.837408,-0.206912,-0.228384,21.14875,-37.28375,23.26625,-10.992001,-12.496,14.328001,eccentric,3,3.0,32883.0,403017.0,360971.0,403431.0,363606.0
2026-04-07 17:38:12.532973,101230,562941595,562943068,0.837408,-0.206912,-0.228384,18.7075,-36.21625,23.59875,-10.992001,-12.496,14.328001,eccentric,3,3.0,32883.0,403017.0,360971.0,403431.0,363606.0
2026-04-07 17:38:12.564048,101231,562956100,562957973,0.8784,-0.201056,-0.206912,18.52375,-34.08125,23.5025,-10.360001,-12.648001,13.52,eccentric,3,3.0,32883.0,403017.0,360971.0,403431.0,363606.0
2026-04-07 17:38:12.566254,101232,562965035,562966665,0.8784,-0.201056,-0.206912,19.27625,-31.19375,22.785,-10.360001,-12.648001,13.52,eccentric,3,3.0,32883.0,403017.0,360971.0,403431.0,363606.0
2026-04-07 17:38:12.571012,101233,562973959,562975374,0.86864,-0.177632,-0.23424,22.1375,-28.5425,21.51625,-10.336,-12.024,13.576,eccentric,3,3.0,32883.0,403017.0,360971.0,403431.0,363606.0
2026-04-07 17:38:12.600120,101244,562988561,562990359,0.843264,-0.179584,-0.212768,22.2775,-26.71375,21.28875,-10.320001,-11.64,12.904,concentric,3,3.0,33424.0,403431.0,364747.0,403431.0,368107.0
2026-04-07 17:38:12.602550,101245,562997544,562999132,0.843264,-0.179584,-0.212768,20.64125,-25.366251,21.48125,-10.320001,-11.64,12.904,concentric,3,3.0,33424.0,403431.0,364747.0,403431.0,368107.0
2026-04-07 17:38:12.605027,101246,563006489,563007847,0.833504,-0.226432,-0.265472,18.5675,-24.4825,22.2425,-10.688001,-11.872001,11.584001,concentric,3,3.0,33424.0,403431.0,364747.0,403431.0,368107.0
2026-04-07 17:38:12.607456,101247,563015416,563016583,0.833504,-0.226432,-0.265472,15.05,-23.2225,21.77875,-10.688001,-11.872001,11.584001,concentric,3,3.0,33424.0,403431.0,364747.0,403431.0,368107.0
2026-04-07 17:38:12.639705,101248,563029934,563031519,0.823744,-0.210816,-0.269376,15.8725,-21.315,22.995,-10.464001,-11.288,13.432001,concentric,3,3.0,33424.0,403431.0,364747.0,403431.0,368107.0
2026-04-07 17:38:12.641419,101249,563038846,563040248,0.823744,-0.210816,-0.269376,16.19625,-19.425,24.01,-10.464001,-11.288,13.432001,concentric,3,3.0,33424.0,403431.0,364747.0,403431.0,368107.0
2026-04-07 17:38:12.642939,101250,563047732,563048928,0.79056,-0.197152,-0.247904,16.58125,-17.5525,24.5175,-10.648001,-10.792001,13.296001,concentric,3,3.0,33424.0,403431.0,364747.0,403431.0,368107.0
2026-04-07 17:38:12.645514,101251,563062218,563063861,0.79056,-0.197152,-0.247904,17.6575,-17.28125,26.20625,-10.648001,-10.792001,13.296001,concentric,3,3.0,33424.0,403431.0,364747.0,403431.0,368107.0
2026-04-07 17:38:12.679025,101252,563071146,563072598,0.7808,-0.218624,-0.249856,16.65125,-17.59625,27.23875,-11.248,-10.984,14.128,concentric,3,3.0,33424.0,403431.0,364747.0,403431.0,368107.0
2026-04-07 17:38:12.681285,101253,563080094,563081286,0.7808,-0.218624,-0.249856,15.39125,-17.99875,27.7375,-11.248,-10.984,14.128,concentric,3,3.0,33424.0,403431.0,364747.0,403431.0,368107.0
2026-04-07 17:38:12.707620,101263,563094624,563096220,0.806176,-0.27328,-0.296704,13.11625,-17.85,29.00625,-10.736,-10.256001,12.296001,concentric,3,3.0,33406.0,403431.0,365251.0,403431.0,368454.0
2026-04-07 17:38:12.710039,101264,563103531,563104997,0.806176,-0.27328,-0.296704,11.68125,-15.86375,29.53125,-10.736,-10.256001,12.296001,concentric,3,3.0,33406.0,403431.0,365251.0,403431.0,368454.0
2026-04-07 17:38:12.711592,101265,563112473,563113757,0.835456,-0.281088,-0.284992,9.5025,-12.32,29.49625,-10.88,-10.016001,13.856001,concentric,3,3.0,33406.0,403431.0,365251.0,403431.0,368454.0
2026-04-07 17:38:12.715781,101266,563126978,563128715,0.817888,-0.306464,-0.316224,8.4525,-8.21625,30.5025,-10.816001,-9.376,12.584001,concentric,3,3.0,33406.0,403431.0,365251.0,403431.0,368454.0
2026-04-07 17:38:12.723305,101267,563135915,563137455,0.817888,-0.306464,-0.316224,10.66625,-4.7775,31.42125,-10.816001,-9.376,12.584001,concentric,3,3.0,33406.0,403431.0,365251.0,403431.0,368454.0
2026-04-07 17:38:12.752049,101268,563144877,563146244,0.817888,-0.306464,-0.316224,11.27,-3.605,33.32,-10.816001,-9.376,12.584001,concentric,3,3.0,33406.0,403431.0,365251.0,403431.0,368454.0
2026-04-07 17:38:12.756328,101269,563153819,563154931,0.786656,-0.30256,-0.349408,11.27,-3.35125,32.9525,-10.976001,-9.056001,10.952001,concentric,3,3.0,33406.0,403431.0,365251.0,403431.0,368454.0
2026-04-07 17:38:12.758660,101270,563168275,563169846,0.837408,-0.3416,-0.347456,7.39375,-3.1675,29.75,-10.768001,-8.688001,12.272,concentric,3,3.0,33406.0,403431.0,365251.0,403431.0,368454.0
2026-04-07 17:38:12.764499,101271,563177185,563178572,0.837408,-0.3416,-0.347456,7.28875,-2.1175,27.32625,-10.768001,-8.688001,12.272,concentric,3,3.0,33406.0,403431.0,365251.0,403431.0,368454.0
2026-04-07 17:38:12.794640,101281,563186563,563187620,0.821792,-0.365024,-0.333792,8.54,0.69125,25.76875,-10.768001,-8.688001,12.184001,concentric,3,3.0,33417.0,403431.0,364969.0,403431.0,368527.0
2026-04-07 17:38:12.796402,101282,563201170,563202563,0.817888,-0.365024,-0.333792,6.53625,3.4825,22.522501,-11.216001,-8.240001,12.184001,concentric,3,3.0,33417.0,403431.0,364969.0,403431.0,368527.0
2026-04-07 17:38:12.798003,101283,563210100,563211280,0.808128,-0.388448,-0.310368,7.58625,6.5275,20.9475,-11.344001,-8.032001,12.392,concentric,3,3.0,33417.0,403431.0,364969.0,403431.0,368527.0
2026-04-07 17:38:12.805821,101284,563219092,563219985,0.808128,-0.388448,-0.310368,12.15375,9.0825,19.36375,-11.344001,-8.032001,12.392,concentric,3,3.0,33417.0,403431.0,364969.0,403431.0,368527.0
2026-04-07 17:38:12.837272,101285,563228086,563228737,0.774944,-0.353312,-0.314272,16.2925,10.63125,19.13625,-12.200001,-7.984,14.856001,concentric,3,3.0,33417.0,403431.0,364969.0,403431.0,368527.0
2026-04-07 17:38:12.838901,101286,563242915,563243705,0.774944,-0.353312,-0.314272,17.59625,11.480001,20.18625,-12.200001,-7.984,14.856001,concentric,3,3.0,33417.0,403431.0,364969.0,403431.0,368527.0
2026-04-07 17:38:12.840418,101287,563251830,563252386,0.769088,-0.314272,-0.284992,18.0425,12.145,21.1225,-11.424001,-7.216001,11.872001,concentric,3,3.0,33417.0,403431.0,364969.0,403431.0,368527.0
2026-04-07 17:38:12.848263,101288,563261008,563263159,0.769088,-0.314272,-0.284992,13.71125,12.845,19.88,-11.424001,-7.216001,11.872001,concentric,3,3.0,33417.0,403431.0,364969.0,403431.0,368527.0
2026-04-07 17:38:12.876826,101289,563275491,563275978,0.7808,-0.337696,-0.261568,9.9925,14.72625,19.08375,-11.784,-7.272,11.72,concentric,3,3.0,33417.0,403431.0,364969.0,403431.0,368527.0
2026-04-07 17:38:12.906375,101300,563285259,563286971,0.7808,-0.337696,-0.261568,11.7775,16.35375,19.075,-11.784,-7.272,11.72,concentric,3,3.0,33500.0,403431.0,365067.0,403431.0,368745.0
2026-04-07 17:38:12.907878,101301,563294250,563295688,0.733952,-0.31232,-0.281088,12.0925,16.07375,19.04875,-11.960001,-7.104001,12.344001,concentric,3,3.0,33500.0,403431.0,365067.0,403431.0,368745.0
2026-04-07 17:38:12.912532,101302,563303225,563304411,0.733952,-0.31232,-0.281088,13.1075,14.39375,18.41875,-11.960001,-7.104001,12.344001,concentric,3,3.0,33500.0,403431.0,365067.0,403431.0,368745.0
2026-04-07 17:38:12.913928,101303,563317808,563319337,0.753472,-0.339648,-0.27328,16.52875,12.355001,18.0775,-11.936001,-6.8,11.936001,concentric,3,3.0,33500.0,403431.0,365067.0,403431.0,368745.0
2026-04-07 17:38:12.915523,101304,563326840,563328065,0.753472,-0.355264,-0.255712,16.77375,9.5375,17.22875,-11.936001,-6.8,11.936001,concentric,3,3.0,33500.0,403431.0,365067.0,403431.0,368745.0
2026-04-07 17:38:12.922044,101305,563335756,563336851,0.747616,-0.347456,-0.255712,17.85875,8.04125,17.710001,-12.264001,-6.256001,11.752001,concentric,3,3.0,33500.0,403431.0,365067.0,403431.0,368745.0
2026-04-07 17:38:12.950579,101306,563350265,563351739,0.749568,-0.355264,-0.251808,19.13625,7.0525,16.98375,-12.328001,-5.776001,12.448001,concentric,3,3.0,33500.0,403431.0,365067.0,403431.0,368745.0
2026-04-07 17:38:12.955151,101307,563359291,563360452,0.749568,-0.355264,-0.251808,18.7775,7.0875,17.26375,-12.328001,-5.776001,12.448001,concentric,3,3.0,33500.0,403431.0,365067.0,403431.0,368745.0
2026-04-07 17:38:12.956562,101308,563368196,563369166,0.788608,-0.441152,-0.284992,18.025,7.8225,15.89,-12.328001,-5.64,13.384001,concentric,3,3.0,33500.0,403431.0,365067.0,403431.0,368745.0
2026-04-07 17:38:12.963266,101309,563377161,563377858,0.788608,-0.441152,-0.284992,19.59125,7.665,13.9125,-12.328001,-5.64,13.384001,concentric,3,3.0,33500.0,403431.0,365067.0,403431.0,368745.0
2026-04-07 17:38:12.994808,101319,563392189,563393318,0.769088,-0.394304,-0.294752,20.27375,7.3675,12.88875,-12.360001,-5.312,13.304001,concentric,3,3.0,33355.0,403431.0,364498.0,403431.0,367846.0
2026-04-07 17:38:12.997533,101320,563401125,563402111,0.769088,-0.394304,-0.294752,21.23625,7.5075,13.34375,-12.360001,-5.312,13.304001,concentric,3,3.0,33355.0,403431.0,364498.0,403431.0,367846.0
2026-04-07 17:38:13.003276,101321,563410082,563410844,0.796416,-0.45872,-0.249856,20.4225,7.945,11.52375,-12.184001,-5.024,13.928,concentric,3,3.0,33355.0,403431.0,364498.0,403431.0,367846.0
2026-04-07 17:38:13.051563,101322,563425034,563425775,0.796416,-0.45872,-0.249856,19.50375,8.9775,11.50625,-12.184001,-5.024,13.928,concentric,3,3.0,33355.0,403431.0,364498.0,403431.0,367846.0
2026-04-07 17:38:13.053834,101323,563434379,563436564,0.81008,-0.47824,-0.230336,21.90125,10.57875,11.54125,-13.400001,-4.84,13.304001,concentric,3,3.0,33355.0,403431.0,364498.0,403431.0,367846.0
2026-04-07 17:38:13.058370,101324,563443305,563445286,0.81008,-0.47824,-0.230336,24.3075,11.6025,10.77125,-13.400001,-4.84,13.304001,concentric,3,3.0,33355.0,403431.0,364498.0,403431.0,367846.0
2026-04-07 17:38:13.060086,101325,563452240,563453993,0.81984,-0.437248,-0.218624,26.678751,12.24125,11.8825,-13.088,-4.392,12.872001,concentric,3,3.0,33355.0,403431.0,364498.0,403431.0,367846.0
2026-04-07 17:38:13.061698,101326,563466764,563468923,0.81984,-0.437248,-0.218624,25.9,12.22375,12.52125,-13.088,-4.392,12.872001,concentric,3,3.0,33355.0,403431.0,364498.0,403431.0,367846.0
2026-04-07 17:38:13.065733,101327,563475681,563477657,0.835456,-0.470432,-0.210816,24.45625,11.698751,11.76875,-13.256001,-4.4,12.56,concentric,3,3.0,33355.0,403431.0,364498.0,403431.0,367846.0
2026-04-07 17:38:13.097140,101337,563484644,563486402,0.835456,-0.470432,-0.210816,23.26625,11.2,12.39875,-13.256001,-4.4,12.56,concentric,3,3.0,33671.0,403431.0,365995.0,403431.0,369907.0
2026-04-07 17:38:13.098906,101338,563499634,563501391,0.833504,-0.476288,-0.210816,21.90125,11.76,10.80625,-12.872001,-3.896,12.688001,concentric,3,3.0,33671.0,403431.0,365995.0,403431.0,369907.0
2026-04-07 17:38:13.101274,101339,563508671,563510219,0.823744,-0.464576,-0.212768,19.425,11.917501,8.6975,-14.000001,-3.944,14.280001,concentric,3,3.0,33671.0,403431.0,365995.0,403431.0,369907.0
2026-04-07 17:38:13.103012,101340,563517678,563518933,0.823744,-0.464576,-0.212768,18.38375,12.3025,8.54875,-14.000001,-3.944,14.280001,concentric,3,3.0,33671.0,403431.0,365995.0,403431.0,369907.0
2026-04-07 17:38:13.134182,101341,563526592,563527658,0.823744,-0.464576,-0.212768,18.0775,10.85,8.70625,-14.000001,-3.944,14.280001,concentric,3,3.0,33671.0,403431.0,365995.0,403431.0,369907.0
2026-04-07 17:38:13.136271,101342,563541114,563542561,0.851072,-0.523136,-0.212768,17.64,9.2575,7.8925,-13.440001,-3.424,12.704,concentric,3,3.0,33671.0,403431.0,365995.0,403431.0,369907.0
2026-04-07 17:38:13.140728,101343,563550063,563551274,0.83936,-0.558272,-0.247904,19.17125,8.12875,7.63875,-13.224001,-3.176,12.776001,concentric,3,3.0,33671.0,403431.0,365995.0,403431.0,369907.0
2026-04-07 17:38:13.144507,101344,563558994,563559957,0.83936,-0.558272,-0.247904,20.755,8.295,7.48125,-13.224001,-3.176,12.776001,concentric,3,3.0,33671.0,403431.0,365995.0,403431.0,369907.0
2026-04-07 17:38:13.173076,101345,563573509,563574893,0.833504,-0.573888,-0.26352,22.70625,9.555,5.5125,-13.416,-3.408,14.240001,concentric,3,3.0,33671.0,403431.0,365995.0,403431.0,369907.0
2026-04-07 17:38:13.177605,101346,563582438,563583614,0.833504,-0.573888,-0.26352,23.1875,11.41875,2.1,-13.416,-3.408,14.240001,concentric,3,3.0,33671.0,403431.0,365995.0,403431.0,369907.0
2026-04-07 17:38:13.205982,101357,563591435,563592385,0.864736,-0.560224,-0.212768,25.8125,13.71125,0.735,-13.904,-2.808,12.712001,concentric,3,3.0,33873.0,403431.0,367294.0,403431.0,371480.0
2026-04-07 17:38:13.207581,101358,563605954,563607306,0.864736,-0.560224,-0.212768,26.74,15.33875,-0.49,-13.904,-2.808,12.712001,concentric,3,3.0,33873.0,403431.0,367294.0,403431.0,371480.0
2026-04-07 17:38:13.209300,101359,563614911,563616012,0.882304,-0.519232,-0.216672,27.78125,14.14875,0.74375,-14.064001,-2.792,12.848001,concentric,3,3.0,33873.0,403431.0,367294.0,403431.0,371480.0
2026-04-07 17:38:13.213233,101360,563623844,563624759,0.882304,-0.519232,-0.216672,25.366251,14.48125,3.45625,-14.064001,-2.792,12.848001,concentric,3,3.0,33873.0,403431.0,367294.0,403431.0,371480.0
2026-04-07 17:38:13.218241,101361,563632840,563633473,0.890112,-0.6344,-0.216672,21.4725,13.4575,1.65375,-14.304001,-2.712,12.872001,concentric,3,3.0,33873.0,403431.0,367294.0,403431.0,371480.0
2026-04-07 17:38:13.248997,101362,563647795,563648415,0.890112,-0.6344,-0.220576,22.84625,11.935,1.58375,-14.304001,-2.712,12.872001,concentric,3,3.0,33873.0,403431.0,367294.0,403431.0,371480.0
2026-04-07 17:38:13.253401,101363,563657043,563659169,0.854976,-0.513376,-0.220576,25.27,12.145,1.65375,-14.416,-3.112,14.224001,concentric,3,3.0,33873.0,403431.0,367294.0,403431.0,371480.0
2026-04-07 17:38:13.255041,101364,563665943,563667848,0.854976,-0.513376,-0.220576,22.67125,12.06625,1.9775,-14.416,-3.112,14.224001,concentric,3,3.0,33873.0,403431.0,367294.0,403431.0,371480.0
2026-04-07 17:38:13.285286,101365,563680472,563682747,0.835456,-0.603168,-0.210816,20.405,11.1825,0.42,-14.280001,-2.512,13.208,concentric,3,3.0,33873.0,403431.0,367294.0,403431.0,371480.0
2026-04-07 17:38:13.312380,101375,563689793,563691476,0.823744,-0.57584,-0.18544,20.67625,10.99875,-0.6475,-14.672001,-1.784,11.304001,concentric,3,3.0,33821.0,403431.0,367288.0,403431.0,370977.0
2026-04-07 17:38:13.313935,101376,563698748,563700220,0.823744,-0.57584,-0.18544,22.8725,10.05375,-0.44625,-14.672001,-1.784,11.304001,concentric,3,3.0,33821.0,403431.0,367288.0,403431.0,370977.0
2026-04-07 17:38:13.315646,101377,563707657,563708892,0.823744,-0.57584,-0.18544,25.62,8.77625,-1.2775,-14.672001,-1.784,11.304001,concentric,3,3.0,33821.0,403431.0,367288.0,403431.0,370977.0
2026-04-07 17:38:13.319693,101378,563722130,563723889,0.845216,-0.597312,-0.18544,26.285,7.175,-1.74125,-14.736001,-1.848,16.112001,concentric,3,3.0,33821.0,403431.0,367288.0,403431.0,370977.0
2026-04-07 17:38:13.321249,101379,563731101,563732605,0.827648,-0.591456,-0.162016,23.38875,6.25625,-1.72375,-14.848001,-2.192,15.032001,concentric,3,3.0,33821.0,403431.0,367288.0,403431.0,370977.0
2026-04-07 17:38:13.327026,101380,563740047,563741293,0.827648,-0.591456,-0.162016,20.755,4.82125,-1.33,-14.848001,-2.192,15.032001,concentric,3,3.0,33821.0,403431.0,367288.0,403431.0,370977.0
2026-04-07 17:38:13.357739,101381,563754524,563756241,0.827648,-0.612928,-0.154208,19.775,3.64,-2.24,-15.096001,-2.168,14.960001,concentric,3,3.0,33821.0,403431.0,367288.0,403431.0,370977.0
2026-04-07 17:38:13.360015,101382,563763445,563764918,0.827648,-0.612928,-0.154208,19.04,3.43875,-2.02125,-15.096001,-2.168,14.960001,concentric,3,3.0,33821.0,403431.0,367288.0,403431.0,370977.0
2026-04-07 17:38:13.364763,101383,563772400,563773604,0.808128,-0.618784,-0.1464,19.69625,2.89625,-3.07125,-14.52,-1.912,13.288001,concentric,3,3.0,33821.0,403431.0,367288.0,403431.0,370977.0
2026-04-07 17:38:13.418383,101393,563786919,563788629,0.808128,-0.618784,-0.1464,20.50125,2.70375,-3.57875,-14.52,-1.912,13.288001,concentric,3,3.0,33832.0,403431.0,367253.0,403431.0,370843.0
2026-04-07 17:38:13.420113,101394,563795971,563797420,0.80032,-0.597312,-0.148352,19.41625,2.45,-3.49125,-15.096001,-2.168,13.496,concentric,3,3.0,33832.0,403431.0,367253.0,403431.0,370843.0
2026-04-07 17:38:13.422230,101395,563804912,563806135,0.80032,-0.597312,-0.148352,17.15875,1.84625,-3.49125,-15.096001,-2.168,13.496,concentric,3,3.0,33832.0,403431.0,367253.0,403431.0,370843.0
2026-04-07 17:38:13.426501,101396,563819476,563821082,0.81008,-0.601216,-0.160064,13.58875,1.54875,-3.2025,-14.512001,-1.656,13.136001,concentric,3,3.0,33832.0,403431.0,367253.0,403431.0,370843.0
2026-04-07 17:38:13.427544,101397,563828461,563829817,0.81008,-0.601216,-0.160064,10.42125,1.95125,-4.0075,-14.512001,-1.656,13.136001,concentric,3,3.0,33832.0,403431.0,367253.0,403431.0,370843.0
2026-04-07 17:38:13.429217,101398,563837368,563838495,0.798368,-0.599264,-0.160064,8.6625,2.87875,-4.3225,-14.784,-1.76,15.480001,concentric,3,3.0,33832.0,403431.0,367253.0,403431.0,370843.0
2026-04-07 17:38:13.433310,101399,563846270,563847295,0.798368,-0.599264,-0.160064,9.33625,3.535,-4.71625,-14.784,-1.76,15.480001,concentric,3,3.0,33832.0,403431.0,367253.0,403431.0,370843.0
2026-04-07 17:38:13.461758,101400,563860778,563862216,0.79056,-0.622688,-0.130784,12.52125,4.585,-4.41,-14.664001,-1.64,15.056001,concentric,3,3.0,33832.0,403431.0,367253.0,403431.0,370843.0
2026-04-07 17:38:13.466287,101401,563869694,563870896,0.804224,-0.550464,-0.144448,16.89625,5.43375,-3.8675,-14.144001,-1.264,12.784,concentric,3,3.0,33832.0,403431.0,367253.0,403431.0,370843.0
2026-04-07 17:38:13.468585,101402,563878593,563879567,0.804224,-0.550464,-0.144448,17.35125,4.8825,-3.36,-14.144001,-1.264,12.784,concentric,3,3.0,33832.0,403431.0,367253.0,403431.0,370843.0
2026-04-07 17:38:13.495408,101413,563893149,563894518,0.813984,-0.571936,-0.13664,13.25625,4.31375,-2.8875,-14.160001,-1.296,13.504001,concentric,3,3.0,33719.0,403431.0,366809.0,403431.0,370049.0
2026-04-07 17:38:13.499603,101414,563902125,563903233,0.813984,-0.571936,-0.13664,8.715,4.94375,-3.12375,-14.160001,-1.296,13.504001,concentric,3,3.0,33719.0,403431.0,366809.0,403431.0,370049.0
2026-04-07 17:38:13.501447,101415,563911075,563911925,0.81984,-0.589504,-0.130784,6.3525,5.5125,-2.695,-14.048,-1.696,13.384001,concentric,3,3.0,33719.0,403431.0,366809.0,403431.0,370049.0
2026-04-07 17:38:13.530519,101416,563925557,563926840,0.81984,-0.589504,-0.130784,4.54125,6.15125,-2.345,-14.048,-1.696,13.384001,concentric,3,3.0,33719.0,403431.0,366809.0,403431.0,370049.0
2026-04-07 17:38:13.538548,101417,563934452,563935535,0.827648,-0.56608,-0.134688,3.6925,7.30625,-1.33,-14.72,-2.024,15.280001,concentric,3,3.0,33719.0,403431.0,366809.0,403431.0,370049.0
2026-04-07 17:38:13.542546,101418,563943368,563944303,0.827648,-0.56608,-0.134688,2.52875,7.245,-0.84875,-14.72,-2.024,15.280001,concentric,3,3.0,33719.0,403431.0,366809.0,403431.0,370049.0
2026-04-07 17:38:13.544080,101419,563957857,563959210,0.823744,-0.554368,-0.1464,-0.5425,7.8925,-0.105,-13.944,-1.552,13.856001,concentric,3,3.0,33719.0,403431.0,366809.0,403431.0,370049.0
2026-04-07 17:38:13.575275,101420,563966753,563967898,0.823744,-0.554368,-0.1464,-3.85875,7.7875,-0.4375,-13.944,-1.552,13.856001,concentric,3,3.0,33719.0,403431.0,366809.0,403431.0,370049.0
2026-04-07 17:38:13.577512,101421,563975653,563976574,0.85888,-0.54656,-0.142496,-6.405,7.86625,-0.7525,-14.432001,-1.152,13.56,concentric,3,3.0,33719.0,403431.0,366809.0,403431.0,370049.0
2026-04-07 17:38:13.582210,101422,563984576,563985300,0.85888,-0.54656,-0.142496,-6.64125,9.31875,-1.4875,-14.432001,-1.152,13.56,concentric,3,3.0,33719.0,403431.0,366809.0,403431.0,370049.0
2026-04-07 17:38:13.606291,101432,563999473,564000722,0.856928,-0.532896,-0.167872,-7.8925,9.8,-2.02125,-13.784,-1.56,13.840001,concentric,3,3.0,33429.0,403431.0,364802.0,403431.0,367670.0
2026-04-07 17:38:13.607823,101433,564008409,564009492,0.856928,-0.532896,-0.167872,-9.16125,9.1175,-2.555,-13.784,-1.56,13.840001,concentric,3,3.0,33429.0,403431.0,364802.0,403431.0,367670.0
2026-04-07 17:38:13.610491,101434,564017362,564018198,0.827648,-0.57584,-0.177632,-9.66,7.2275,-2.6425,-14.048,-1.504,13.528001,concentric,3,3.0,33429.0,403431.0,364802.0,403431.0,367670.0
2026-04-07 17:38:13.617412,101435,564031847,564033116,0.835456,-0.542656,-0.183488,-9.8,4.99625,-1.9425,-13.712001,-1.64,14.160001,concentric,3,3.0,33429.0,403431.0,364802.0,403431.0,367670.0
2026-04-07 17:38:13.647766,101436,564040816,564041841,0.835456,-0.542656,-0.183488,-10.0975,3.45625,-0.60375,-13.712001,-1.64,14.160001,concentric,3,3.0,33429.0,403431.0,364802.0,403431.0,367670.0
2026-04-07 17:38:13.650033,101437,564049763,564050551,0.833504,-0.558272,-0.203008,-11.62875,2.625,-0.4025,-13.712001,-1.64,13.360001,concentric,3,3.0,33429.0,403431.0,364802.0,403431.0,367670.0
2026-04-07 17:38:13.654600,101438,564064235,564065450,0.833504,-0.558272,-0.203008,-12.495,1.9775,-0.3675,-13.584001,-1.72,13.360001,concentric,3,3.0,33429.0,403431.0,364802.0,403431.0,367670.0
2026-04-07 17:38:13.658662,101439,564073138,564074181,0.83936,-0.571936,-0.203008,-14.28,1.53125,0.2625,-13.296001,-1.936,15.128,concentric,3,3.0,33429.0,403431.0,364802.0,403431.0,367670.0
2026-04-07 17:38:13.688993,101440,564082061,564082902,0.83936,-0.571936,-0.203008,-15.21625,1.1025,-0.4725,-13.296001,-1.936,15.128,concentric,3,3.0,33429.0,403431.0,364802.0,403431.0,367670.0
2026-04-07 17:38:13.715892,101450,564091942,564093800,0.835456,-0.593408,-0.181536,-14.28,1.0325,-2.59,-13.464001,-2.344,13.624001,concentric,3,3.0,32992.0,403431.0,362291.0,403431.0,364771.0
2026-04-07 17:38:13.717588,101451,564106480,564108740,0.835456,-0.593408,-0.181536,-9.73875,1.82,-4.095,-13.464001,-2.344,13.624001,concentric,3,3.0,32992.0,403431.0,362291.0,403431.0,364771.0
2026-04-07 17:38:13.719172,101452,564115404,564117438,0.83936,-0.519232,-0.171776,-5.3375,2.49375,-5.60875,-12.992001,-1.936,13.576,concentric,3,3.0,32992.0,403431.0,362291.0,403431.0,364771.0
2026-04-07 17:38:13.723532,101453,564124382,564126184,0.83936,-0.519232,-0.171776,-5.0575,2.59,-6.8425,-12.992001,-1.936,13.576,concentric,3,3.0,32992.0,403431.0,362291.0,403431.0,364771.0
2026-04-07 17:38:13.727447,101454,564138902,564141203,0.831552,-0.54656,-0.1464,-7.77875,2.7125,-7.8575,-13.696001,-2.008,13.664001,concentric,3,3.0,32992.0,403431.0,362291.0,403431.0,364771.0
2026-04-07 17:38:13.734644,101455,564147854,564149896,0.831552,-0.54656,-0.1464,-10.3075,3.01875,-9.065,-13.696001,-2.008,13.664001,concentric,3,3.0,32992.0,403431.0,362291.0,403431.0,364771.0
2026-04-07 17:38:13.763012,101456,564156792,564158675,0.817888,-0.534848,-0.128832,-10.5525,3.15,-9.91375,-13.144001,-1.872,14.664001,concentric,3,3.0,32992.0,403431.0,362291.0,403431.0,364771.0
2026-04-07 17:38:13.767619,101457,564165729,564167365,0.817888,-0.534848,-0.128832,-10.19375,3.3775,-10.57,-13.144001,-1.872,14.664001,concentric,3,3.0,32992.0,403431.0,362291.0,403431.0,364771.0
2026-04-07 17:38:13.769031,101458,564180240,564182280,0.796416,-0.55632,-0.12688,-7.90125,4.0775,-12.74,-12.784,-2.216,13.984,concentric,3,3.0,32992.0,403431.0,362291.0,403431.0,364771.0
