pc_time,serial_num,sensor_ts,host_ts,ax,ay,az,gx,gy,gz,mx,my,mz,phase,rpe,weight_kg,ppg_a,ppg_b,ppg_c,ppg_d,ppg_e
2026-04-08 21:47:37.717115,216455,1609504029951596,1629918192,0.77104,-0.03904,0.0,-10.52625,1.085,-4.43625,-17.344002,17.968,8.240001,inter_set_rest,4,3.0,20144.0,142124.0,228025.0,278773.0,262128.0
2026-04-08 21:47:37.722144,216456,1609504029960558,1629926859,0.77104,-0.03904,0.0,-11.1475,1.295,-8.42625,-17.344002,17.968,8.240001,inter_set_rest,4,3.0,20144.0,142124.0,228025.0,278773.0,262128.0
2026-04-08 21:47:37.752348,216457,1609504029975034,1629941800,0.81984,-0.064416,-0.105408,-14.84,1.4175,-11.1825,-17.568,17.688002,6.544,inter_set_rest,4,3.0,20144.0,142124.0,228025.0,278773.0,262128.0
2026-04-08 21:47:37.755890,216458,1609504029983963,1629950452,0.81984,-0.064416,-0.105408,-17.325,2.63375,-11.2175,-17.568,17.688002,6.544,inter_set_rest,4,3.0,20144.0,142124.0,228025.0,278773.0,262128.0
2026-04-08 21:47:37.760929,216459,1609504029998435,1629965287,0.817888,-0.0488,-0.105408,-15.9425,5.04,-9.3275,-17.336,17.808,7.024,inter_set_rest,4,3.0,20144.0,142124.0,228025.0,278773.0,262128.0
2026-04-08 21:47:37.814873,216460,1609504030007369,1629973948,0.817888,-0.0488,-0.046848,-11.41875,8.3825,-7.35875,-17.336,17.808,7.024,inter_set_rest,4,3.0,20144.0,142124.0,228025.0,278773.0,262128.0
2026-04-08 21:47:37.818429,216461,1609504030016271,1629982600,0.796416,-0.060512,-0.046848,-6.79875,11.40125,-6.15125,-16.904001,17.848001,6.104,inter_set_rest,4,3.0,20144.0,142124.0,228025.0,278773.0,262128.0
2026-04-08 21:47:37.848445,216473,1609504030030977,1629997472,0.81984,-0.072224,-0.031232,-3.33375,14.56,-4.515,-16.936,17.936,6.744,inter_set_rest,4,3.0,20240.0,141899.0,227036.0,277857.0,261452.0
2026-04-08 21:47:37.850943,216474,1609504030039903,1630006138,0.81984,-0.072224,-0.031232,-1.40875,15.1725,-2.79125,-16.936,17.936,6.744,inter_set_rest,4,3.0,20240.0,141899.0,227036.0,277857.0,261452.0
2026-04-08 21:47:37.887326,216475,1609504030054376,1630021009,0.841312,-0.013664,0.027328,1.645,13.7725,-1.46125,-16.984001,17.488,7.24,inter_set_rest,4,3.0,20240.0,141899.0,227036.0,277857.0,261452.0
2026-04-08 21:47:37.890975,216476,1609504030063307,1630029700,0.841312,-0.013664,0.027328,4.8125,12.18875,0.4025,-16.984001,17.488,7.24,inter_set_rest,4,3.0,20240.0,141899.0,227036.0,277857.0,261452.0
2026-04-08 21:47:37.895881,216477,1609504030077824,1630044635,0.806176,-0.011712,-0.111264,7.0,11.64625,0.735,-16.808,18.0,8.448,inter_set_rest,4,3.0,20240.0,141899.0,227036.0,277857.0,261452.0
2026-04-08 21:47:37.898328,216478,1609504030086839,1630053376,0.806176,-0.011712,-0.111264,7.6825,12.1975,0.8225,-16.808,18.0,8.448,inter_set_rest,4,3.0,20240.0,141899.0,227036.0,277857.0,261452.0
2026-04-08 21:47:37.900824,216479,1609504030095779,1630062047,0.88816,-0.072224,0.066368,2.94875,11.90875,2.3625,-16.368,17.800001,7.896,inter_set_rest,4,3.0,20240.0,141899.0,227036.0,277857.0,261452.0
2026-04-08 21:47:37.903338,216480,1609504030110283,1630076900,0.813984,-0.091744,-0.091744,-4.94375,11.7075,1.89,-16.432001,18.008001,7.392,inter_set_rest,4,3.0,20240.0,141899.0,227036.0,277857.0,261452.0
2026-04-08 21:47:37.905926,216481,1609504030119208,1630085519,0.813984,-0.091744,-0.091744,-12.55625,11.92625,1.3475,-16.432001,18.008001,7.392,inter_set_rest,4,3.0,20240.0,141899.0,227036.0,277857.0,261452.0
2026-04-08 21:47:37.939611,216492,1609504030133746,1630100403,0.833504,-0.0976,-0.02928,-12.53,10.92875,1.77625,-16.328001,17.824001,7.304,inter_set_rest,4,3.0,20337.0,141973.0,226755.0,277553.0,261208.0
2026-04-08 21:47:37.942109,216493,1609504030142647,1630109081,0.833504,-0.0976,-0.02928,-4.9875,10.29875,2.59,-16.328001,17.824001,7.304,inter_set_rest,4,3.0,20337.0,141973.0,226755.0,277553.0,261208.0
2026-04-08 21:47:37.944578,216494,1609504030157162,1630124051,0.899872,-0.085888,0.074176,2.1,11.042501,1.47875,-16.856,17.824001,9.56,inter_set_rest,4,3.0,20337.0,141973.0,226755.0,277553.0,261208.0
2026-04-08 21:47:37.948057,216495,1609504030166131,1630132768,0.899872,-0.085888,0.074176,4.8475,11.515,0.3325,-16.856,17.824001,9.56,inter_set_rest,4,3.0,20337.0,141973.0,226755.0,277553.0,261208.0
2026-04-08 21:47:37.950071,216496,1609504030175074,1630141476,0.886208,-0.054656,-0.00976,3.6225,11.1475,-0.25375,-16.848001,18.016,7.8,inter_set_rest,4,3.0,20337.0,141973.0,226755.0,277553.0,261208.0
2026-04-08 21:47:37.952073,216497,1609504030189605,1630156390,0.944768,-0.052704,0.052704,0.70875,9.7475,-0.93625,-16.128,17.904001,7.904,inter_set_rest,4,3.0,20337.0,141973.0,226755.0,277553.0,261208.0
2026-04-08 21:47:37.982282,216498,1609504030198603,1630165069,0.944768,-0.052704,0.052704,-4.34,8.7325,-1.785,-16.128,17.904001,7.904,inter_set_rest,4,3.0,20337.0,141973.0,226755.0,277553.0,261208.0
2026-04-08 21:47:37.985910,216499,1609504030213115,1630179918,0.823744,-0.040992,0.003904,-8.2075,9.30125,-2.03875,-16.28,17.888,7.688,inter_set_rest,4,3.0,20337.0,141973.0,226755.0,277553.0,261208.0
2026-04-08 21:47:38.013410,216510,1609504030222015,1630188570,0.823744,-0.040992,0.003904,-8.39125,11.17375,-1.23375,-16.28,17.888,7.688,inter_set_rest,4,3.0,20624.0,142658.0,227250.0,277826.0,261362.0
2026-04-08 21:47:38.015869,216511,1609504030230988,1630197253,0.915488,-0.060512,0.103456,-8.54875,12.10125,0.2275,-16.136002,18.08,9.088,inter_set_rest,4,3.0,20624.0,142658.0,227250.0,277826.0,261362.0
2026-04-08 21:47:38.018415,216512,1609504030245525,1630212171,0.915488,-0.060512,0.103456,-9.87,11.7775,0.86625,-16.136002,18.08,9.088,inter_set_rest,4,3.0,20624.0,142658.0,227250.0,277826.0,261362.0
2026-04-08 21:47:38.020869,216513,1609504030254551,1630220865,0.876448,-0.01952,0.0,-11.34,10.78,1.085,-16.056002,17.880001,8.984,inter_set_rest,4,3.0,20624.0,142658.0,227250.0,277826.0,261362.0
2026-04-08 21:47:38.051077,216514,1609504030269035,1630235719,0.876448,-0.01952,0.0,-9.89625,9.1,0.91,-16.056002,17.880001,8.984,inter_set_rest,4,3.0,20624.0,142658.0,227250.0,277826.0,261362.0
2026-04-08 21:47:38.054610,216515,1609504030277997,1630244434,0.90768,-0.021472,0.0,-5.215,7.42875,0.20125,-15.936001,18.064001,8.456,inter_set_rest,4,3.0,20624.0,142658.0,227250.0,277826.0,261362.0
2026-04-08 21:47:38.057122,216516,1609504030292458,1630259289,0.880352,-0.021472,0.099552,-0.56875,6.90375,0.455,-15.864,18.12,7.944,inter_set_rest,4,3.0,20624.0,142658.0,227250.0,277826.0,261362.0
2026-04-08 21:47:38.063403,216517,1609504030301383,1630267968,0.880352,-0.021472,0.099552,-0.27125,6.755,1.37375,-15.864,18.12,7.944,inter_set_rest,4,3.0,20624.0,142658.0,227250.0,277826.0,261362.0
2026-04-08 21:47:38.118255,216518,1609504030310368,1630276651,0.882304,-0.042944,-0.021472,-4.36625,5.985,1.60125,-16.08,18.088001,7.216001,inter_set_rest,4,3.0,20624.0,142658.0,227250.0,277826.0,261362.0
2026-04-08 21:47:38.146924,216529,1609504030325285,1630291542,0.882304,-0.042944,-0.021472,-9.66,4.73375,-0.0175,-16.08,18.088001,7.216001,inter_set_rest,4,3.0,20870.0,143260.0,227617.0,277971.0,261397.0
2026-04-08 21:47:38.148436,216530,1609504030334275,1630300307,0.929152,-0.093696,-0.07808,-12.01375,3.465,-2.1,-15.744,17.664001,8.024,inter_set_rest,4,3.0,20870.0,143260.0,227617.0,277971.0,261397.0
2026-04-08 21:47:38.152665,216531,1609504030348735,1630315184,0.929152,-0.093696,-0.07808,-10.6575,2.66875,-2.52875,-15.744,17.664001,8.024,inter_set_rest,4,3.0,20870.0,143260.0,227617.0,277971.0,261397.0
2026-04-08 21:47:38.154380,216532,1609504030357658,1630323844,0.933056,-0.07808,0.085888,-5.76625,2.03,-2.56375,-15.808001,18.216002,9.296001,inter_set_rest,4,3.0,20870.0,143260.0,227617.0,277971.0,261397.0
2026-04-08 21:47:38.155964,216533,1609504030372166,1630338724,0.911584,-0.083936,-0.060512,-0.70875,1.47,-3.61375,-16.184,18.032001,7.976,inter_set_rest,4,3.0,20870.0,143260.0,227617.0,277971.0,261397.0
2026-04-08 21:47:38.160201,216534,1609504030381249,1630347454,0.911584,-0.083936,-0.060512,3.38625,0.11375,-4.90875,-16.184,18.032001,7.976,inter_set_rest,4,3.0,20870.0,143260.0,227617.0,277971.0,261397.0
2026-04-08 21:47:38.161777,216535,1609504030390276,1630356190,0.911584,-0.03904,-0.056608,3.15875,-1.46125,-6.65,-16.184,18.032001,6.12,inter_set_rest,4,3.0,20870.0,143260.0,227617.0,277971.0,261397.0
2026-04-08 21:47:38.167543,216536,1609504030404862,1630371146,0.903776,-0.03904,-0.056608,0.42,-2.66875,-7.6825,-16.024,17.824001,6.12,inter_set_rest,4,3.0,20870.0,143260.0,227617.0,277971.0,261397.0
2026-04-08 21:47:38.196148,216537,1609504030413768,1630379810,0.901824,-0.046848,0.044896,-1.77625,-2.52875,-7.84,-15.968,17.776001,7.960001,inter_set_rest,4,3.0,20870.0,143260.0,227617.0,277971.0,261397.0
2026-04-08 21:47:38.225628,216548,1609504030428442,1630394785,0.901824,-0.046848,0.044896,-2.45,-2.1525,-7.4025,-15.968,17.776001,7.960001,inter_set_rest,4,3.0,20741.0,142907.0,227445.0,277927.0,261474.0
2026-04-08 21:47:38.227179,216549,1609504030437386,1630403423,0.958432,-0.06832,0.122976,-2.37125,-1.9425,-6.6325,-15.952001,17.712,7.808001,inter_set_rest,4,3.0,20741.0,142907.0,227445.0,277927.0,261474.0
2026-04-08 21:47:38.231455,216550,1609504030446307,1630412180,0.958432,-0.06832,0.122976,-1.6625,-1.68875,-6.29125,-15.952001,17.712,7.808001,inter_set_rest,4,3.0,20741.0,142907.0,227445.0,277927.0,261474.0
2026-04-08 21:47:38.233208,216551,1609504030460811,1630427186,0.954528,-0.046848,0.017568,-2.19625,-2.17,-6.65,-16.152,18.016,8.696,inter_set_rest,4,3.0,20741.0,142907.0,227445.0,277927.0,261474.0
2026-04-08 21:47:38.235505,216552,1609504030469762,1630435908,0.954528,-0.046848,0.017568,-2.80875,-1.81125,-7.1575,-16.152,18.016,8.696,inter_set_rest,4,3.0,20741.0,142907.0,227445.0,277927.0,261474.0
2026-04-08 21:47:38.265763,216553,1609504030484273,1630450863,0.958432,-0.037088,0.11712,-5.36375,-1.02375,-7.11375,-16.192001,18.312,8.192,inter_set_rest,4,3.0,20741.0,142907.0,227445.0,277927.0,261474.0
2026-04-08 21:47:38.270568,216554,1609504030493187,1630459527,0.915488,-0.06832,-0.124928,-10.675,-0.41125,-6.405,-16.272001,17.736,7.648,inter_set_rest,4,3.0,20741.0,142907.0,227445.0,277927.0,261474.0
2026-04-08 21:47:38.272856,216555,1609504030507649,1630474402,0.915488,-0.06832,-0.124928,-15.32125,0.84875,-5.67,-16.272001,17.736,7.648,inter_set_rest,4,3.0,20741.0,142907.0,227445.0,277927.0,261474.0
2026-04-08 21:47:38.280154,216556,1609504030516566,1630483072,0.993568,-0.05856,0.122976,-17.43,1.63625,-5.4425,-16.504002,17.976002,8.64,inter_set_rest,4,3.0,20741.0,142907.0,227445.0,277927.0,261474.0
2026-04-08 21:47:38.313373,216567,1609504030525662,1630491799,0.993568,-0.05856,0.122976,-18.2175,2.58125,-5.2675,-16.504002,17.976002,8.64,inter_set_rest,4,3.0,20597.0,142529.0,227248.0,277940.0,261558.0
2026-04-08 21:47:38.315853,216568,1609504030540166,1630506819,0.880352,-0.023424,0.00976,-17.84125,3.24625,-4.935,-16.08,17.92,7.64,inter_set_rest,4,3.0,20597.0,142529.0,227248.0,277940.0,261558.0
2026-04-08 21:47:38.318406,216569,1609504030549094,1630515525,0.880352,-0.023424,0.00976,-17.99875,4.54125,-5.06625,-16.08,17.92,7.64,inter_set_rest,4,3.0,20597.0,142529.0,227248.0,277940.0,261558.0
2026-04-08 21:47:38.349209,216570,1609504030563681,1630530441,0.933056,-0.05856,-0.066368,-19.55625,6.0375,-4.83875,-16.112001,18.264,9.296001,inter_set_rest,4,3.0,20597.0,142529.0,227248.0,277940.0,261558.0
2026-04-08 21:47:38.352147,216571,1609504030572615,1630539130,0.894016,-0.005856,0.089792,-20.32625,7.04375,-4.01625,-15.888001,18.048,7.416,inter_set_rest,4,3.0,20597.0,142529.0,227248.0,277940.0,261558.0
2026-04-08 21:47:38.354637,216572,1609504030587087,1630553964,0.894016,-0.005856,0.089792,-21.7525,7.70875,-3.5175,-15.888001,18.048,7.416,inter_set_rest,4,3.0,20597.0,142529.0,227248.0,277940.0,261558.0
2026-04-08 21:47:38.358387,216573,1609504030596002,1630562657,0.8784,-0.02928,-0.033184,-22.995,8.0325,-4.025,-16.04,18.08,6.984,inter_set_rest,4,3.0,20597.0,142529.0,227248.0,277940.0,261558.0
2026-04-08 21:47:38.423602,216574,1609504030604933,1630571347,0.8784,-0.02928,-0.033184,-24.63125,8.085,-5.17125,-16.04,18.08,6.984,inter_set_rest,4,3.0,20597.0,142529.0,227248.0,277940.0,261558.0
2026-04-08 21:47:38.427188,216575,1609504030619395,1630586265,0.909632,-0.050752,0.060512,-25.2525,9.5025,-5.7225,-16.16,17.800001,7.36,inter_set_rest,4,3.0,20597.0,142529.0,227248.0,277940.0,261558.0
2026-04-08 21:47:38.454667,216586,1609504030628645,1630594974,0.909632,-0.050752,0.060512,-25.31375,10.3425,-5.41625,-16.16,17.800001,7.36,inter_set_rest,4,3.0,20628.0,142655.0,227434.0,278085.0,261626.0
2026-04-08 21:47:38.465973,216587,1609504030643172,1630609862,0.940864,-0.042944,0.122976,-26.46875,10.54375,-5.495,-16.2,18.392,7.176,inter_set_rest,4,3.0,20628.0,142655.0,227434.0,278085.0,261626.0
2026-04-08 21:47:38.468445,216588,1609504030652125,1630618564,0.915488,-0.042944,-0.044896,-26.22375,11.20875,-5.5825,-16.2,18.392,8.872001,inter_set_rest,4,3.0,20628.0,142655.0,227434.0,278085.0,261626.0
2026-04-08 21:47:38.470905,216589,1609504030666615,1630633406,0.915488,-0.042944,-0.044896,-26.145,11.01625,-6.65,-16.296001,18.168001,8.872001,inter_set_rest,4,3.0,20628.0,142655.0,227434.0,278085.0,261626.0
2026-04-08 21:47:38.473396,216590,1609504030675579,1630642120,0.952576,-0.083936,-0.021472,-28.2275,11.89125,-7.6475,-16.008001,18.552,7.880001,inter_set_rest,4,3.0,20628.0,142655.0,227434.0,278085.0,261626.0
2026-04-08 21:47:38.475922,216591,1609504030684629,1630650826,0.952576,-0.083936,-0.021472,-30.065,12.92375,-7.60375,-16.008001,18.552,7.880001,inter_set_rest,4,3.0,20628.0,142655.0,227434.0,278085.0,261626.0
2026-04-08 21:47:38.478392,216592,1609504030699215,1630665747,0.962336,-0.099552,0.013664,-30.4675,13.02,-6.3175,-16.328001,18.944,7.584001,inter_set_rest,4,3.0,20628.0,142655.0,227434.0,278085.0,261626.0
2026-04-08 21:47:38.480873,216593,1609504030708138,1630674391,0.962336,-0.099552,0.013664,-29.4175,13.1425,-5.57375,-16.328001,18.944,7.584001,inter_set_rest,4,3.0,20628.0,142655.0,227434.0,278085.0,261626.0
2026-04-08 21:47:38.484627,216594,1609504030722708,1630689356,0.944768,-0.081984,-0.015616,-26.775,12.7575,-5.80125,-16.088001,18.888,6.704001,inter_set_rest,4,3.0,20628.0,142655.0,227434.0,278085.0,261626.0
2026-04-08 21:47:38.512398,216605,1609504030731662,1630698116,0.944768,-0.081984,-0.015616,-24.78,12.4425,-6.0375,-16.088001,18.888,6.704001,inter_set_rest,4,3.0,20649.0,142746.0,227740.0,278357.0,261812.0
2026-04-08 21:47:38.514752,216606,1609504030740600,1630706784,0.9272,-0.064416,-0.007808,-23.87875,12.64375,-5.94125,-16.016,18.824001,8.832001,inter_set_rest,4,3.0,20649.0,142746.0,227740.0,278357.0,261812.0
2026-04-08 21:47:38.517183,216607,1609504030755168,1630721748,0.952576,-0.083936,0.052704,-24.80625,12.845,-5.85375,-16.096,18.832,8.632,inter_set_rest,4,3.0,20649.0,142746.0,227740.0,278357.0,261812.0
2026-04-08 21:47:38.547379,216608,1609504030764151,1630730458,0.952576,-0.083936,0.052704,-28.35875,13.4575,-4.7425,-16.096,18.832,8.632,inter_set_rest,4,3.0,20649.0,142746.0,227740.0,278357.0,261812.0
2026-04-08 21:47:38.550950,216609,1609504030778640,1630745359,0.895968,-0.052704,0.064416,-31.50875,14.7,-4.0075,-15.840001,18.6,6.2,inter_set_rest,4,3.0,20649.0,142746.0,227740.0,278357.0,261812.0
2026-04-08 21:47:38.553412,216610,1609504030787535,1630754006,0.895968,-0.052704,0.064416,-30.66875,15.7675,-2.59875,-15.840001,18.6,6.2,inter_set_rest,4,3.0,20649.0,142746.0,227740.0,278357.0,261812.0
2026-04-08 21:47:38.583852,216611,1609504030802049,1630768949,0.89792,-0.03904,-0.015616,-27.93875,17.185,-1.33875,-15.648001,19.2,6.520001,inter_set_rest,4,3.0,20649.0,142746.0,227740.0,278357.0,261812.0
2026-04-08 21:47:38.588380,216612,1609504030811081,1630777615,0.89792,-0.03904,-0.015616,-27.16,17.9725,-1.05875,-15.648001,19.2,6.520001,inter_set_rest,4,3.0,20649.0,142746.0,227740.0,278357.0,261812.0
2026-04-08 21:47:38.589762,216613,1609504030819979,1630786269,0.899872,-0.040992,-0.017568,-27.4575,18.6375,-1.12,-15.624001,19.368,6.56,inter_set_rest,4,3.0,20649.0,142746.0,227740.0,278357.0,261812.0
2026-04-08 21:47:38.617110,216624,1609504030834978,1630801684,0.882304,-0.03904,0.11712,-29.0325,19.62625,-1.11125,-15.840001,19.28,7.32,inter_set_rest,4,3.0,20211.0,141925.0,227816.0,278708.0,262189.0
2026-04-08 21:47:38.619683,216625,1609504030844013,1630810337,0.882304,-0.03904,0.11712,-29.65375,20.7375,-0.9275,-15.840001,19.28,7.32,inter_set_rest,4,3.0,20211.0,141925.0,227816.0,278708.0,262189.0
2026-04-08 21:47:38.622210,216626,1609504030858612,1630825269,0.890112,-0.046848,0.18544,-31.9375,21.37625,-0.07,-15.440001,19.392,6.784,inter_set_rest,4,3.0,20211.0,141925.0,227816.0,278708.0,262189.0
2026-04-08 21:47:38.628423,216627,1609504030867561,1630833986,0.890112,-0.046848,0.18544,-33.53875,22.085001,0.21,-15.440001,19.392,6.784,inter_set_rest,4,3.0,20211.0,141925.0,227816.0,278708.0,262189.0
2026-04-08 21:47:38.658581,216628,1609504030876516,1630842666,0.962336,-0.08784,0.18544,-31.8325,22.925,1.18125,-15.064001,19.864,7.208,inter_set_rest,4,3.0,20211.0,141925.0,227816.0,278708.0,262189.0
2026-04-08 21:47:38.662189,216629,1609504030890965,1630857541,0.962336,-0.08784,0.18544,-32.47125,23.0825,1.96875,-15.064001,19.864,7.208,inter_set_rest,4,3.0,20211.0,141925.0,227816.0,278708.0,262189.0
2026-04-08 21:47:38.664637,216630,1609504030899871,1630866208,0.981856,-0.093696,0.154208,-32.87375,23.275,1.4875,-15.280001,19.968,6.264,inter_set_rest,4,3.0,20211.0,141925.0,227816.0,278708.0,262189.0
2026-04-08 21:47:38.715402,216631,1609504030914342,1630881057,0.935008,-0.060512,0.1952,-28.8925,23.38,1.33875,-15.104001,19.984001,6.344,inter_set_rest,4,3.0,20211.0,141925.0,227816.0,278708.0,262189.0
2026-04-08 21:47:38.718431,216632,1609504030923310,1630889762,0.935008,-0.060512,0.1952,-25.54125,24.185,1.2075,-15.104001,19.984001,6.344,inter_set_rest,4,3.0,20211.0,141925.0,227816.0,278708.0,262189.0
2026-04-08 21:47:38.752200,216643,1609504030937847,1630904669,0.882304,-0.052704,0.142496,-23.345,24.57,1.925,-14.736001,19.720001,6.152,inter_set_rest,4,3.0,19778.0,141118.0,227497.0,278755.0,262323.0
2026-04-08 21:47:38.754590,216644,1609504030946734,1630913320,0.882304,-0.052704,0.142496,-20.615,24.50875,1.54,-14.736001,19.720001,6.152,inter_set_rest,4,3.0,19778.0,141118.0,227497.0,278755.0,262323.0
2026-04-08 21:47:38.757125,216645,1609504030955634,1630921969,0.89792,-0.023424,0.173728,-20.74625,24.053751,2.065,-14.776001,20.104,6.088,inter_set_rest,4,3.0,19778.0,141118.0,227497.0,278755.0,262323.0
2026-04-08 21:47:38.759581,216646,1609504030970102,1630936855,0.89792,-0.023424,0.173728,-22.1025,23.9925,1.88125,-14.776001,20.104,6.088,inter_set_rest,4,3.0,19778.0,141118.0,227497.0,278755.0,262323.0
2026-04-08 21:47:38.762247,216647,1609504030979061,1630945542,0.915488,-0.031232,0.050752,-23.485,23.765,1.6975,-14.952001,20.400002,7.352,inter_set_rest,4,3.0,19778.0,141118.0,227497.0,278755.0,262323.0
2026-04-08 21:47:38.764591,216648,1609504030993568,1630960497,0.915488,-0.031232,0.050752,-24.82375,23.56375,2.05625,-14.952001,20.400002,7.352,inter_set_rest,4,3.0,19778.0,141118.0,227497.0,278755.0,262323.0
2026-04-08 21:47:38.767065,216649,1609504031002581,1630969224,0.856928,-0.013664,0.121024,-26.22375,23.178751,2.94875,-14.312,20.176,6.152,inter_set_rest,4,3.0,19778.0,141118.0,227497.0,278755.0,262323.0
2026-04-08 21:47:38.797345,216650,1609504031017093,1630984124,0.915488,-0.080032,0.103456,-25.445,22.58375,4.06,-14.328001,20.28,6.808,inter_set_rest,4,3.0,19778.0,141118.0,227497.0,278755.0,262323.0
2026-04-08 21:47:38.827268,216661,1609504031026026,1630992783,0.915488,-0.080032,0.103456,-25.3925,21.8225,4.66375,-14.328001,20.28,6.808,inter_set_rest,4,3.0,19595.0,140794.0,227413.0,278793.0,262392.0
2026-04-08 21:47:38.829159,216662,1609504031034977,1631001471,0.882304,-0.035136,0.134688,-25.26125,20.58,4.3925,-14.016001,20.416,4.872,inter_set_rest,4,3.0,19595.0,140794.0,227413.0,278793.0,262392.0
2026-04-08 21:47:38.830912,216663,1609504031049508,1631016395,0.882304,-0.035136,0.134688,-22.53125,19.32,3.6575,-14.016001,20.416,4.872,inter_set_rest,4,3.0,19595.0,140794.0,227413.0,278793.0,262392.0
2026-04-08 21:47:38.833383,216664,1609504031058475,1631025091,0.845216,-0.05856,0.007808,-19.39875,18.64625,2.3625,-14.112,20.944,6.136,inter_set_rest,4,3.0,19595.0,140794.0,227413.0,278793.0,262392.0
2026-04-08 21:47:38.835893,216665,1609504031073034,1631040063,0.845216,-0.05856,0.007808,-17.66625,17.7275,2.40625,-14.112,20.944,6.136,inter_set_rest,4,3.0,19595.0,140794.0,227413.0,278793.0,262392.0
2026-04-08 21:47:38.844627,216666,1609504031081987,1631048729,0.81984,-0.0488,0.06832,-18.095,16.555,2.38,-14.352,20.808,5.856,inter_set_rest,4,3.0,19595.0,140794.0,227413.0,278793.0,262392.0
2026-04-08 21:47:38.874817,216667,1609504031096490,1631063642,0.886208,-0.050752,0.259616,-18.8825,15.32125,1.12,-13.672001,20.800001,8.408,inter_set_rest,4,3.0,19595.0,140794.0,227413.0,278793.0,262392.0
2026-04-08 21:47:38.878423,216668,1609504031105407,1631072320,0.886208,-0.050752,0.259616,-19.04,14.07,-0.035,-13.672001,20.800001,8.408,inter_set_rest,4,3.0,19595.0,140794.0,227413.0,278793.0,262392.0
2026-04-08 21:47:38.880965,216669,1609504031114403,1631080995,0.886208,-0.050752,0.259616,-19.06625,12.90625,-1.19,-13.672001,20.800001,8.408,inter_set_rest,4,3.0,19595.0,140794.0,227413.0,278793.0,262392.0
2026-04-08 21:47:38.912135,216680,1609504031128986,1631095887,0.901824,-0.07808,0.074176,-18.85625,12.075,-1.8725,-13.704,20.960001,5.736,inter_set_rest,4,3.0,19401.0,140384.0,227240.0,278831.0,262533.0
2026-04-08 21:47:38.914687,216681,1609504031138023,1631104549,0.862784,-0.033184,0.216672,-19.32,10.07125,-2.555,-14.192,21.352001,7.848001,inter_set_rest,4,3.0,19401.0,140384.0,227240.0,278831.0,262533.0
2026-04-08 21:47:38.917110,216682,1609504031152517,1631119464,0.862784,-0.033184,0.216672,-20.23,8.46125,-2.79125,-14.192,21.352001,7.848001,inter_set_rest,4,3.0,19401.0,140384.0,227240.0,278831.0,262533.0
2026-04-08 21:47:38.923354,216683,1609504031161462,1631128153,0.845216,-0.05856,0.203008,-22.19875,7.21875,-3.19375,-13.888001,21.144001,6.648,inter_set_rest,4,3.0,19401.0,140384.0,227240.0,278831.0,262533.0
2026-04-08 21:47:38.953557,216684,1609504031175963,1631143075,0.837408,-0.070272,0.220576,-24.5,6.06375,-4.0425,-13.488001,21.192001,5.216,inter_set_rest,4,3.0,19401.0,140384.0,227240.0,278831.0,262533.0
2026-04-08 21:47:38.957150,216685,1609504031184866,1631151740,0.837408,-0.070272,0.220576,-25.147501,5.8975,-4.795,-13.488001,21.192001,5.216,inter_set_rest,4,3.0,19401.0,140384.0,227240.0,278831.0,262533.0
2026-04-08 21:47:38.959638,216686,1609504031193796,1631160395,0.837408,-0.070272,0.220576,-24.2375,5.25875,-5.53,-13.488001,21.192001,5.216,inter_set_rest,4,3.0,19401.0,140384.0,227240.0,278831.0,262533.0
2026-04-08 21:47:39.020889,216687,1609504031208295,1631175256,0.825696,-0.095648,-0.003904,-23.03,4.45375,-5.5125,-13.816001,21.36,3.088,inter_set_rest,4,3.0,19401.0,140384.0,227240.0,278831.0,262533.0
2026-04-08 21:47:39.022287,216688,1609504031217237,1631183902,0.8784,-0.062464,0.218624,-23.73,3.24625,-5.775,-13.816001,21.160002,5.28,inter_set_rest,4,3.0,19401.0,140384.0,227240.0,278831.0,262533.0
2026-04-08 21:47:39.054877,216699,1609504031231845,1631198840,0.8784,-0.062464,0.218624,-25.445,2.07375,-6.88625,-13.816001,21.160002,5.28,inter_set_rest,4,3.0,19275.0,140323.0,227474.0,279060.0,262679.0
2026-04-08 21:47:39.056380,216700,1609504031240802,1631207521,0.931104,-0.122976,0.066368,-27.79875,0.88375,-7.385,-13.808001,21.408,5.28,inter_set_rest,4,3.0,19275.0,140323.0,227474.0,279060.0,262679.0
2026-04-08 21:47:39.060338,216701,1609504031255283,1631222364,0.931104,-0.122976,0.066368,-30.14375,0.77875,-7.105,-13.808001,21.408,5.28,inter_set_rest,4,3.0,19275.0,140323.0,227474.0,279060.0,262679.0
2026-04-08 21:47:39.061913,216702,1609504031264231,1631231030,0.960384,-0.121024,0.238144,-32.935,1.12,-7.16625,-13.776001,21.44,6.288,inter_set_rest,4,3.0,19275.0,140323.0,227474.0,279060.0,262679.0
2026-04-08 21:47:39.064356,216703,1609504031273216,1631239697,0.960384,-0.121024,0.238144,-35.1925,1.5225,-7.1925,-13.776001,21.44,6.288,inter_set_rest,4,3.0,19275.0,140323.0,227474.0,279060.0,262679.0
2026-04-08 21:47:39.065897,216704,1609504031287768,1631254621,0.950624,-0.115168,0.257664,-36.11125,2.16125,-7.42,-14.104001,21.384,5.44,inter_set_rest,4,3.0,19275.0,140323.0,227474.0,279060.0,262679.0
2026-04-08 21:47:39.071011,216705,1609504031296838,1631263335,0.931104,-0.103456,0.267424,-37.16125,2.03,-7.4025,-13.992001,21.456001,5.616,inter_set_rest,4,3.0,19275.0,140323.0,227474.0,279060.0,262679.0
2026-04-08 21:47:39.075036,216706,1609504031311326,1631278240,0.931104,-0.103456,0.267424,-37.31,2.73875,-7.56,-13.992001,21.456001,5.616,inter_set_rest,4,3.0,19275.0,140323.0,227474.0,279060.0,262679.0
2026-04-08 21:47:39.103697,216707,1609504031320263,1631286974,0.870592,-0.085888,0.201056,-36.435,3.36875,-8.18125,-13.744,21.552002,5.232,inter_set_rest,4,3.0,19275.0,140323.0,227474.0,279060.0,262679.0
2026-04-08 21:47:39.133989,216718,1609504031329551,1631296027,0.870592,-0.085888,0.201056,-35.07,4.10375,-8.23375,-13.744,21.552002,5.232,inter_set_rest,4,3.0,19194.0,140183.0,227339.0,278939.0,262615.0
2026-04-08 21:47:39.136919,216719,1609504031344060,1631310932,0.921344,-0.085888,0.281088,-33.565,4.9,-8.9425,-13.920001,21.488,4.112,inter_set_rest,4,3.0,19194.0,140183.0,227339.0,278939.0,262615.0
2026-04-08 21:47:39.170783,216720,1609504031353091,1631319676,0.921344,-0.085888,0.281088,-32.62875,6.04625,-9.9925,-13.920001,21.488,4.112,inter_set_rest,4,3.0,19194.0,140183.0,227339.0,278939.0,262615.0
2026-04-08 21:47:39.175198,216721,1609504031367690,1631334648,0.890112,-0.101504,0.142496,-31.80625,6.41375,-10.56125,-13.992001,21.640001,3.576,inter_set_rest,4,3.0,19194.0,140183.0,227339.0,278939.0,262615.0
2026-04-08 21:47:39.176902,216722,1609504031376624,1631343432,0.890112,-0.111264,0.037088,-32.445,7.0875,-10.70125,-13.992001,21.640001,5.624,inter_set_rest,4,3.0,19194.0,140183.0,227339.0,278939.0,262615.0
2026-04-08 21:47:39.178504,216723,1609504031391082,1631356227,0.880352,-0.111264,0.037088,-32.54125,7.74375,-10.92875,-13.544001,21.488,4.352,inter_set_rest,4,3.0,19194.0,140183.0,227339.0,278939.0,262615.0
2026-04-08 21:47:39.182585,216724,1609504031400192,1631366989,0.864736,-0.089792,0.216672,-31.9375,8.37375,-11.06,-14.040001,21.616001,3.28,inter_set_rest,4,3.0,19194.0,140183.0,227339.0,278939.0,262615.0
2026-04-08 21:47:39.184304,216725,1609504031409116,1631375653,0.864736,-0.089792,0.216672,-30.93125,9.19625,-10.54375,-14.040001,21.616001,3.28,inter_set_rest,4,3.0,19194.0,140183.0,227339.0,278939.0,262615.0
2026-04-08 21:47:39.185919,216726,1609504031423654,1631390540,0.89792,-0.138592,0.07808,-29.5925,9.485,-9.7825,-14.224001,21.464,4.072,inter_set_rest,4,3.0,19194.0,140183.0,227339.0,278939.0,262615.0
2026-04-08 21:47:39.217619,216737,1609504031432933,1631399333,0.89792,-0.138592,0.07808,-28.13125,9.03875,-9.40625,-14.224001,21.464,4.072,inter_set_rest,4,3.0,19217.0,140315.0,227549.0,279106.0,262683.0
2026-04-08 21:47:39.219337,216738,1609504031447513,1631414258,0.931104,-0.099552,0.228384,-26.285,8.75,-9.765,-14.344001,21.84,3.08,inter_set_rest,4,3.0,19217.0,140315.0,227549.0,279106.0,262683.0
2026-04-08 21:47:39.220895,216739,1609504031456460,1631422934,0.931104,-0.099552,0.228384,-25.4275,8.995,-9.7475,-14.344001,21.84,3.08,inter_set_rest,4,3.0,19217.0,140315.0,227549.0,279106.0,262683.0
2026-04-08 21:47:39.227168,216740,1609504031465448,1631431652,0.894016,-0.091744,0.15616,-24.6575,9.3275,-8.84625,-14.000001,21.816002,2.536,inter_set_rest,4,3.0,19217.0,140315.0,227549.0,279106.0,262683.0
2026-04-08 21:47:39.258304,216741,1609504031479956,1631446538,0.894016,-0.083936,0.191296,-23.68625,9.24,-8.12,-14.048,21.800001,3.28,inter_set_rest,4,3.0,19217.0,140315.0,227549.0,279106.0,262683.0
2026-04-08 21:47:39.262538,216742,1609504031488850,1631455182,0.894016,-0.083936,0.191296,-25.12125,8.53125,-8.1025,-14.048,21.800001,3.28,inter_set_rest,4,3.0,19217.0,140315.0,227549.0,279106.0,262683.0
2026-04-08 21:47:39.267521,216743,1609504031503364,1631470097,0.933056,-0.11712,0.187392,-25.54125,7.77875,-9.3275,-14.320001,21.552002,3.016,inter_set_rest,4,3.0,19217.0,140315.0,227549.0,279106.0,262683.0
2026-04-08 21:47:39.319587,216744,1609504031512269,1631478765,0.933056,-0.11712,0.187392,-27.62375,6.2825,-10.08875,-14.320001,21.552002,3.016,inter_set_rest,4,3.0,19217.0,140315.0,227549.0,279106.0,262683.0
2026-04-08 21:47:39.324023,216745,1609504031526771,1631493600,0.933056,-0.119072,0.304512,-30.17,5.31125,-11.12125,-14.496,21.920002,2.96,inter_set_rest,4,3.0,19217.0,140315.0,227549.0,279106.0,262683.0
2026-04-08 21:47:39.349881,216756,1609504031535734,1631502322,0.933056,-0.119072,0.304512,-31.14125,4.87375,-12.10125,-14.496,21.920002,2.96,inter_set_rest,4,3.0,19273.0,140601.0,227956.0,279395.0,262853.0
2026-04-08 21:47:39.353898,216757,1609504031544677,1631510977,0.929152,-0.163968,0.154208,-31.26375,3.77125,-13.405,-14.544001,22.088001,2.152,inter_set_rest,4,3.0,19273.0,140601.0,227956.0,279395.0,262853.0
2026-04-08 21:47:39.355645,216758,1609504031559159,1631525913,0.95648,-0.15616,0.142496,-29.645,2.82625,-13.81625,-14.776001,22.312,-1.288,inter_set_rest,4,3.0,19273.0,140601.0,227956.0,279395.0,262853.0
2026-04-08 21:47:39.357249,216759,1609504031568094,1631534644,0.95648,-0.15616,0.142496,-27.4925,1.56625,-13.99125,-14.776001,22.312,-1.288,inter_set_rest,4,3.0,19273.0,140601.0,227956.0,279395.0,262853.0
2026-04-08 21:47:39.361425,216760,1609504031582681,1631549643,0.962336,-0.13664,0.148352,-26.95875,-0.14875,-15.5925,-14.632001,21.848001,2.56,inter_set_rest,4,3.0,19273.0,140601.0,227956.0,279395.0,262853.0
2026-04-08 21:47:39.363790,216761,1609504031591627,1631558378,0.962336,-0.13664,0.148352,-25.865,-0.91875,-17.59625,-14.632001,21.848001,2.56,inter_set_rest,4,3.0,19273.0,140601.0,227956.0,279395.0,262853.0
2026-04-08 21:47:39.392789,216762,1609504031606151,1631573263,0.929152,-0.10736,0.261568,-22.855,-1.61875,-18.75125,-14.872001,21.656,2.92,inter_set_rest,4,3.0,19273.0,140601.0,227956.0,279395.0,262853.0
2026-04-08 21:47:39.396091,216763,1609504031615072,1631581983,0.929152,-0.10736,0.261568,-20.405,-2.14375,-18.865,-14.872001,21.656,2.92,inter_set_rest,4,3.0,19273.0,140601.0,227956.0,279395.0,262853.0
2026-04-08 21:47:39.400864,216764,1609504031624020,1631590662,0.919392,-0.105408,0.261568,-18.935,-2.59875,-19.17125,-15.040001,21.728,1.832,inter_set_rest,4,3.0,19273.0,140601.0,227956.0,279395.0,262853.0
2026-04-08 21:47:39.428559,216775,1609504031639001,1631605796,0.964288,-0.115168,0.208864,-19.11875,-3.38625,-19.97625,-15.192,21.848001,1.752,inter_set_rest,4,3.0,19255.0,140573.0,227984.0,279434.0,262867.0
2026-04-08 21:47:39.430866,216776,1609504031647911,1631614469,0.964288,-0.115168,0.208864,-19.6,-4.62,-19.95,-15.192,21.848001,1.752,inter_set_rest,4,3.0,19255.0,140573.0,227984.0,279434.0,262867.0
2026-04-08 21:47:39.433419,216777,1609504031662469,1631629369,0.876448,-0.076128,0.056608,-19.36375,-5.24125,-19.27625,-15.544001,21.904001,2.368,inter_set_rest,4,3.0,19255.0,140573.0,227984.0,279434.0,262867.0
2026-04-08 21:47:39.435935,216778,1609504031671490,1631638069,0.876448,-0.076128,0.056608,-18.9175,-5.6525,-17.7275,-15.544001,21.904001,2.368,inter_set_rest,4,3.0,19255.0,140573.0,227984.0,279434.0,262867.0
2026-04-08 21:47:39.442225,216779,1609504031680417,1631646777,0.886208,-0.101504,0.003904,-19.81875,-5.57375,-16.8175,-15.120001,21.6,2.608,inter_set_rest,4,3.0,19255.0,140573.0,227984.0,279434.0,262867.0
2026-04-08 21:47:39.472365,216780,1609504031694918,1631661634,0.886208,-0.101504,0.003904,-21.37625,-5.45125,-16.28375,-15.120001,21.6,2.608,inter_set_rest,4,3.0,19255.0,140573.0,227984.0,279434.0,262867.0
2026-04-08 21:47:39.475893,216781,1609504031703879,1631670316,0.913536,-0.072224,0.23424,-24.0275,-4.99625,-15.28625,-15.232,21.320002,1.184,inter_set_rest,4,3.0,19255.0,140573.0,227984.0,279434.0,262867.0
2026-04-08 21:47:39.479669,216782,1609504031718354,1631685191,0.913536,-0.072224,0.218624,-25.62875,-5.34625,-14.20125,-15.232,21.320002,1.184,inter_set_rest,4,3.0,19255.0,140573.0,227984.0,279434.0,262867.0
2026-04-08 21:47:39.509912,216783,1609504031727284,1631693871,0.99552,-0.093696,0.222528,-26.15375,-5.88,-14.23625,-15.496,21.528002,2.84,inter_set_rest,4,3.0,19255.0,140573.0,227984.0,279434.0,262867.0
2026-04-08 21:47:39.538400,216794,1609504031741779,1631708751,0.931104,-0.070272,0.30256,-26.145,-5.11875,-14.72625,-15.224001,21.544,0.504,inter_set_rest,4,3.0,19277.0,140681.0,228123.0,279576.0,262961.0
2026-04-08 21:47:39.541245,216795,1609504031750664,1631717379,0.931104,-0.070272,0.30256,-25.7075,-4.375,-14.88375,-15.224001,21.544,0.504,inter_set_rest,4,3.0,19277.0,140681.0,228123.0,279576.0,262961.0
2026-04-08 21:47:39.544156,216796,1609504031759597,1631726148,0.940864,-0.130784,0.162016,-26.285,-3.22875,-14.39375,-15.752001,21.768002,0.712,inter_set_rest,4,3.0,19277.0,140681.0,228123.0,279576.0,262961.0
2026-04-08 21:47:39.551123,216797,1609504031774155,1631741154,0.940864,-0.130784,0.162016,-26.3725,-2.94875,-13.55375,-15.752001,21.768002,0.712,inter_set_rest,4,3.0,19277.0,140681.0,228123.0,279576.0,262961.0
2026-04-08 21:47:39.551217,216798,1609504031783069,1631749896,0.890112,-0.109312,0.072224,-25.445,-3.07125,-14.2975,-15.608001,21.328001,1.368,inter_set_rest,4,3.0,19277.0,140681.0,228123.0,279576.0,262961.0
2026-04-08 21:47:39.583120,216799,1609504031797595,1631762765,0.890112,-0.109312,0.072224,-22.32125,-2.98375,-15.8725,-15.608001,21.328001,1.368,inter_set_rest,4,3.0,19277.0,140681.0,228123.0,279576.0,262961.0
2026-04-08 21:47:39.591931,216800,1609504031806784,1631773486,0.872544,-0.093696,0.017568,-18.99625,-2.35375,-16.6775,-15.936001,21.456001,0.464,inter_set_rest,4,3.0,19277.0,140681.0,228123.0,279576.0,262961.0
2026-04-08 21:47:39.619871,216801,1609504031821243,1631788365,0.894016,-0.040992,0.054656,-18.095,-0.8925,-16.30125,-16.048,21.584002,-1.84,inter_set_rest,4,3.0,19277.0,140681.0,228123.0,279576.0,262961.0
2026-04-08 21:47:39.650925,216812,1609504031830132,1631797022,0.894016,-0.040992,0.054656,-18.445,-0.27125,-15.26,-16.048,21.584002,-1.84,inter_set_rest,4,3.0,19337.0,141004.0,228513.0,279895.0,263167.0
2026-04-08 21:47:39.653367,216813,1609504031839108,1631805686,0.894016,-0.040992,0.054656,-19.18,0.00875,-14.65625,-16.048,21.584002,-1.84,inter_set_rest,4,3.0,19337.0,141004.0,228513.0,279895.0,263167.0
2026-04-08 21:47:39.655972,216814,1609504031853578,1631820555,0.964288,-0.046848,0.0976,-22.02375,0.7175,-15.3825,-16.296001,21.736002,2.752,inter_set_rest,4,3.0,19337.0,141004.0,228513.0,279895.0,263167.0
2026-04-08 21:47:39.659287,216815,1609504031862496,1631829206,0.933056,-0.056608,0.210816,-26.9675,1.51375,-14.980001,-15.856001,21.072,-0.208,inter_set_rest,4,3.0,19337.0,141004.0,228513.0,279895.0,263167.0
2026-04-08 21:47:39.660902,216816,1609504031877044,1631844119,0.933056,-0.056608,0.210816,-32.83875,2.3275,-13.13375,-15.856001,21.072,-0.208,inter_set_rest,4,3.0,19337.0,141004.0,228513.0,279895.0,263167.0
2026-04-08 21:47:39.665136,216817,1609504031886011,1631852819,0.876448,-0.0488,0.115168,-35.72625,1.93375,-10.675,-16.224,21.392,-0.288,inter_set_rest,4,3.0,19337.0,141004.0,228513.0,279895.0,263167.0
2026-04-08 21:47:39.667613,216818,1609504031900504,1631865884,0.845216,-0.007808,0.28304,-38.33375,2.49375,-8.75875,-15.920001,21.336,0.008,inter_set_rest,4,3.0,19337.0,141004.0,228513.0,279895.0,263167.0
2026-04-08 21:47:39.673731,216819,1609504031909937,1631876659,0.845216,-0.007808,0.28304,-39.75125,3.00125,-7.665,-15.920001,21.336,0.008,inter_set_rest,4,3.0,19337.0,141004.0,228513.0,279895.0,263167.0
2026-04-08 21:47:39.702277,216820,1609504031918865,1631885328,0.845216,-0.007808,0.28304,-38.701252,2.94875,-7.735,-15.920001,21.336,0.008,inter_set_rest,4,3.0,19337.0,141004.0,228513.0,279895.0,263167.0
2026-04-08 21:47:39.731048,216831,1609504031933716,1631900250,0.835456,-0.027328,0.060512,-38.6575,3.0275,-8.54875,-16.256,21.184002,-0.288,inter_set_rest,4,3.0,19309.0,140881.0,228303.0,279808.0,263143.0
2026-04-08 21:47:39.733354,216832,1609504031942703,1631908898,0.804224,0.03904,0.119072,-39.47125,4.1825,-8.295,-15.928,21.584002,-1.056,inter_set_rest,4,3.0,19309.0,140881.0,228303.0,279808.0,263143.0
2026-04-08 21:47:39.735792,216833,1609504031957255,1631923811,0.804224,0.03904,0.119072,-39.31375,4.5675,-7.27125,-15.928,21.584002,-1.056,inter_set_rest,4,3.0,19309.0,140881.0,228303.0,279808.0,263143.0
2026-04-08 21:47:39.738401,216834,1609504031966216,1631932520,0.895968,0.005856,0.187392,-40.7575,4.7075,-7.3675,-16.096,21.960001,-1.328,inter_set_rest,4,3.0,19309.0,140881.0,228303.0,279808.0,263143.0
2026-04-08 21:47:39.740871,216835,1609504031975194,1631941195,0.895968,0.005856,0.187392,-44.2575,4.1825,-9.415,-16.096,21.960001,-1.328,inter_set_rest,4,3.0,19309.0,140881.0,228303.0,279808.0,263143.0
2026-04-08 21:47:39.771073,216836,1609504031989786,1631956125,0.895968,-0.076128,0.179584,-45.263752,4.76875,-11.31375,-16.008001,21.488,-0.584,inter_set_rest,4,3.0,19309.0,140881.0,228303.0,279808.0,263143.0
2026-04-08 21:47:39.774648,216837,1609504031998694,1631964808,0.895968,-0.076128,0.179584,-43.60125,5.145,-9.87875,-16.008001,21.488,-0.584,inter_set_rest,4,3.0,19309.0,140881.0,228303.0,279808.0,263143.0
2026-04-08 21:47:39.777185,216838,1609504032013119,1631979699,0.894016,-0.015616,0.144448,-39.55875,5.94125,-8.75875,-16.224,21.720001,-1.616,inter_set_rest,4,3.0,19309.0,140881.0,228303.0,279808.0,263143.0
2026-04-08 21:47:39.784807,216839,1609504032022039,1631988373,0.964288,0.093696,0.318176,-32.2175,7.1925,-8.40875,-16.480001,21.256,-2.08,inter_set_rest,4,3.0,19309.0,140881.0,228303.0,279808.0,263143.0
2026-04-08 21:47:39.815920,216840,1609504032030950,1631997031,0.964288,0.093696,0.318176,-28.55125,8.47875,-9.86125,-16.480001,21.256,-2.08,inter_set_rest,4,3.0,19309.0,140881.0,228303.0,279808.0,263143.0
2026-04-08 21:47:39.849610,216851,1609504032045472,1632011949,0.874496,0.046848,0.142496,-32.40125,8.5925,-12.11,-16.024,21.592001,-2.296,inter_set_rest,4,3.0,19423.0,141241.0,228712.0,280088.0,263302.0
2026-04-08 21:47:39.852146,216852,1609504032054390,1632020637,0.874496,0.046848,0.142496,-42.00875,7.805,-12.67,-16.024,21.592001,-2.296,inter_set_rest,4,3.0,19423.0,141241.0,228712.0,280088.0,263302.0
2026-04-08 21:47:39.854663,216853,1609504032068916,1632035526,0.948672,-0.085888,0.15616,-50.732502,6.475,-12.2325,-16.272001,21.632002,-0.76,inter_set_rest,4,3.0,19423.0,141241.0,228712.0,280088.0,263302.0
2026-04-08 21:47:39.859793,216854,1609504032077871,1632044232,0.948672,-0.085888,0.15616,-49.7525,5.88875,-11.64625,-16.272001,21.632002,-0.76,inter_set_rest,4,3.0,19423.0,141241.0,228712.0,280088.0,263302.0
2026-04-08 21:47:39.862143,216855,1609504032092406,1632059107,0.976,-0.064416,0.15616,-41.37875,5.11,-11.85625,-16.424002,21.104,-2.456,inter_set_rest,4,3.0,19423.0,141241.0,228712.0,280088.0,263302.0
2026-04-08 21:47:39.864665,216856,1609504032101345,1632067783,0.976,0.023424,0.193248,-31.26375,5.3025,-13.4575,-16.424002,21.104,-0.408,inter_set_rest,4,3.0,19423.0,141241.0,228712.0,280088.0,263302.0
2026-04-08 21:47:39.870955,216857,1609504032110282,1632076497,0.96624,0.023424,0.193248,-21.60375,6.04625,-16.1,-16.352001,21.352001,-1.712,inter_set_rest,4,3.0,19423.0,141241.0,228712.0,280088.0,263302.0
2026-04-08 21:47:39.918403,216858,1609504032124745,1632091395,0.884256,0.076128,0.201056,-18.1125,7.39375,-17.491251,-16.824001,21.216002,-2.704,inter_set_rest,4,3.0,19423.0,141241.0,228712.0,280088.0,263302.0
2026-04-08 21:47:39.944647,216869,1609504032134001,1632100463,0.884256,0.076128,0.201056,-24.14125,8.1725,-18.22625,-16.824001,21.216002,-2.704,inter_set_rest,4,3.0,19426.0,141234.0,228641.0,280027.0,263265.0
2026-04-08 21:47:39.947207,216870,1609504032148558,1632115319,0.915488,0.056608,0.286944,-32.138752,7.6825,-17.99,-16.784,21.352001,-2.44,inter_set_rest,4,3.0,19426.0,141234.0,228641.0,280027.0,263265.0
2026-04-08 21:47:39.949823,216871,1609504032157472,1632123992,0.915488,0.056608,0.286944,-38.63125,6.78125,-17.94625,-16.784,21.352001,-2.44,inter_set_rest,4,3.0,19426.0,141234.0,228641.0,280027.0,263265.0
2026-04-08 21:47:39.952295,216872,1609504032171987,1632138884,0.915488,0.01952,0.343552,-41.55375,5.075,-18.2175,-16.936,21.072,-2.44,inter_set_rest,4,3.0,19426.0,141234.0,228641.0,280027.0,263265.0
2026-04-08 21:47:39.954831,216873,1609504032180920,1632147606,0.915488,0.01952,0.343552,-42.49875,4.15625,-18.585001,-16.936,21.072,-2.44,inter_set_rest,4,3.0,19426.0,141234.0,228641.0,280027.0,263265.0
2026-04-08 21:47:39.957281,216874,1609504032189934,1632156351,0.91744,-0.033184,0.230336,-41.7025,3.42125,-19.48625,-16.952002,21.000002,-0.616,inter_set_rest,4,3.0,19426.0,141234.0,228641.0,280027.0,263265.0
2026-04-08 21:47:39.987369,216875,1609504032204476,1632171241,0.892064,-0.025376,0.288896,-38.4125,3.47375,-21.0875,-17.432001,20.912,-2.632,inter_set_rest,4,3.0,19426.0,141234.0,228641.0,280027.0,263265.0
2026-04-08 21:47:39.993759,216876,1609504032213412,1632179915,0.892064,-0.025376,0.288896,-34.74625,3.71,-22.32125,-17.432001,20.912,-2.632,inter_set_rest,4,3.0,19426.0,141234.0,228641.0,280027.0,263265.0
2026-04-08 21:47:39.995153,216877,1609504032227914,1632194799,0.913536,-0.03904,0.31232,-30.6775,3.99,-24.17625,-17.104,20.584002,-3.888,inter_set_rest,4,3.0,19426.0,141234.0,228641.0,280027.0,263265.0
2026-04-08 21:47:40.023933,216888,1609504032237291,1632203562,0.913536,-0.03904,0.31232,-25.83,3.89375,-25.54125,-17.104,20.584002,-3.888,inter_set_rest,4,3.0,19328.0,140879.0,228256.0,279748.0,263118.0
2026-04-08 21:47:40.024225,216889,1609504032246324,1632212267,0.86864,-0.003904,0.265472,-23.54625,3.1325,-26.985,-17.624,20.568,-3.752,inter_set_rest,4,3.0,19328.0,140879.0,228256.0,279748.0,263118.0
2026-04-08 21:47:40.025886,216890,1609504032260859,1632227141,0.86864,-0.003904,0.265472,-23.065,2.07375,-28.32375,-17.624,20.568,-3.752,inter_set_rest,4,3.0,19328.0,140879.0,228256.0,279748.0,263118.0
2026-04-08 21:47:40.032238,216891,1609504032269769,1632235851,0.86864,-0.00976,0.212768,-23.625,1.4175,-28.8925,-17.488,20.320002,-3.648,inter_set_rest,4,3.0,19328.0,140879.0,228256.0,279748.0,263118.0
2026-04-08 21:47:40.062351,216892,1609504032284232,1632250747,0.806176,0.021472,0.271328,-24.3075,1.33,-28.77,-18.168001,20.28,-4.208,inter_set_rest,4,3.0,19328.0,140879.0,228256.0,279748.0,263118.0
2026-04-08 21:47:40.065889,216893,1609504032293125,1632259389,0.806176,0.021472,0.271328,-25.78625,1.61875,-28.49,-18.168001,20.28,-4.208,inter_set_rest,4,3.0,19328.0,140879.0,228256.0,279748.0,263118.0
2026-04-08 21:47:40.069612,216894,1609504032307615,1632274262,0.83936,-0.00976,0.148352,-26.04,1.19,-29.067501,-18.072,19.832,-4.24,inter_set_rest,4,3.0,19328.0,140879.0,228256.0,279748.0,263118.0
2026-04-08 21:47:40.107366,216895,1609504032316620,1632282952,0.83936,-0.00976,0.148352,-25.13,1.12,-29.435,-18.072,19.832,-4.24,inter_set_rest,4,3.0,19328.0,140879.0,228256.0,279748.0,263118.0
2026-04-08 21:47:40.110936,216896,1609504032325550,1632291620,0.817888,0.021472,0.124928,-26.22375,1.4,-30.37125,-18.640001,19.816002,-4.568,inter_set_rest,4,3.0,19328.0,140879.0,228256.0,279748.0,263118.0
2026-04-08 21:47:40.142101,216907,1609504032340168,1632306597,0.817888,0.021472,0.124928,-29.11125,0.98,-30.10875,-18.640001,19.816002,-4.568,inter_set_rest,4,3.0,19320.0,140899.0,228276.0,279772.0,263119.0
2026-04-08 21:47:40.144621,216908,1609504032349079,1632315253,0.880352,0.011712,0.333792,-30.66875,1.505,-29.303751,-18.328001,19.6,-4.632,inter_set_rest,4,3.0,19320.0,140899.0,228276.0,279772.0,263119.0
2026-04-08 21:47:40.147109,216909,1609504032363587,1632330202,0.851072,0.013664,0.3416,-32.54125,1.61875,-29.05,-18.808,19.456001,-3.536,inter_set_rest,4,3.0,19320.0,140899.0,228276.0,279772.0,263119.0
2026-04-08 21:47:40.149579,216910,1609504032372518,1632338924,0.851072,0.013664,0.3416,-35.09625,1.88125,-28.21875,-18.808,19.456001,-3.536,inter_set_rest,4,3.0,19320.0,140899.0,228276.0,279772.0,263119.0
2026-04-08 21:47:40.152099,216911,1609504032387044,1632353798,0.923296,-0.023424,0.294752,-35.55125,1.93375,-27.405,-18.672,19.456001,-4.752,inter_set_rest,4,3.0,19320.0,140899.0,228276.0,279772.0,263119.0
2026-04-08 21:47:40.157064,216912,1609504032396043,1632362503,0.923296,-0.023424,0.294752,-35.37625,1.925,-25.935,-18.672,19.456001,-4.752,inter_set_rest,4,3.0,19320.0,140899.0,228276.0,279772.0,263119.0
2026-04-08 21:47:40.218959,216913,1609504032404969,1632371196,0.98576,-0.013664,0.339648,-36.015,1.88125,-24.57875,-18.704,19.368,-4.44,inter_set_rest,4,3.0,19320.0,140899.0,228276.0,279772.0,263119.0
2026-04-08 21:47:40.224899,216914,1609504032419464,1632386034,0.98576,-0.013664,0.339648,-37.0475,2.38875,-23.1,-18.704,19.368,-4.44,inter_set_rest,4,3.0,19320.0,140899.0,228276.0,279772.0,263119.0
2026-04-08 21:47:40.225001,216915,1609504032428357,1632394688,0.91744,0.0,0.290848,-37.77375,3.43,-21.56,-18.904001,18.864,-5.376,inter_set_rest,4,3.0,19320.0,140899.0,228276.0,279772.0,263119.0
2026-04-08 21:47:40.280280,216926,1609504032443167,1632409575,0.91744,0.0,0.368928,-39.6375,3.5525,-19.915,-18.904001,18.864,-5.376,inter_set_rest,4,3.0,19295.0,140777.0,228148.0,279667.0,263047.0
2026-04-08 21:47:40.280390,216927,1609504032452058,1632418238,0.921344,0.003904,0.363072,-42.14,4.1475,-18.0425,-19.144001,18.936,-5.656,inter_set_rest,4,3.0,19295.0,140777.0,228148.0,279667.0,263047.0
2026-04-08 21:47:40.280435,216928,1609504032466536,1632433123,0.872544,0.003904,0.247904,-45.4125,4.27,-16.51125,-19.2,18.848001,-5.704001,inter_set_rest,4,3.0,19295.0,140777.0,228148.0,279667.0,263047.0
2026-04-08 21:47:40.280748,216929,1609504032475512,1632441824,0.872544,0.003904,0.247904,-49.7,3.08875,-14.79625,-19.2,18.848001,-5.704001,inter_set_rest,4,3.0,19295.0,140777.0,228148.0,279667.0,263047.0
2026-04-08 21:47:40.280818,216930,1609504032484556,1632450509,0.827648,-0.021472,0.148352,-53.38375,2.135,-13.85125,-19.376001,18.328001,-4.24,inter_set_rest,4,3.0,19295.0,140777.0,228148.0,279667.0,263047.0
2026-04-08 21:47:40.280859,216931,1609504032499076,1632465443,0.827648,-0.021472,0.148352,-53.29625,1.42625,-13.265,-19.376001,18.328001,-4.24,inter_set_rest,4,3.0,19295.0,140777.0,228148.0,279667.0,263047.0
2026-04-08 21:47:40.292415,216932,1609504032508048,1632474181,0.825696,-0.076128,0.124928,-52.14125,1.365,-13.335,-19.432001,18.544,-6.224001,inter_set_rest,4,3.0,19295.0,140777.0,228148.0,279667.0,263047.0
2026-04-08 21:47:40.295948,216933,1609504032522516,1632489082,0.825696,-0.076128,0.124928,-49.93625,0.525,-13.11625,-19.432001,18.544,-6.224001,inter_set_rest,4,3.0,19295.0,140777.0,228148.0,279667.0,263047.0
2026-04-08 21:47:40.298940,216934,1609504032531407,1632497732,0.8296,-0.066368,0.38064,-45.19375,-0.2275,-13.7375,-19.392,18.344002,-8.256001,inter_set_rest,4,3.0,19295.0,140777.0,228148.0,279667.0,263047.0
2026-04-08 21:47:40.326379,216945,1609504032546019,1632513182,0.776896,-0.08784,0.154208,-39.576252,-0.86625,-14.67375,-19.808,18.568,-6.28,inter_set_rest,4,3.0,19310.0,140900.0,228352.0,279806.0,263106.0
2026-04-08 21:47:40.329366,216946,1609504032554957,1632521859,0.776896,-0.08784,0.154208,-34.965,-1.74125,-15.855001,-19.808,18.568,-6.28,inter_set_rest,4,3.0,19310.0,140900.0,228352.0,279806.0,263106.0
2026-04-08 21:47:40.331389,216947,1609504032563957,1632530542,0.776896,-0.08784,0.138592,-30.31875,-2.86125,-16.59,-19.808,18.568,-6.28,inter_set_rest,4,3.0,19310.0,140900.0,228352.0,279806.0,263106.0
2026-04-08 21:47:40.361066,216948,1609504032578459,1632545422,0.749568,-0.064416,0.132736,-27.116251,-3.98125,-17.35125,-19.616001,18.032001,-5.480001,inter_set_rest,4,3.0,19310.0,140900.0,228352.0,279806.0,263106.0
2026-04-08 21:47:40.364594,216949,1609504032587417,1632554129,0.718336,-0.031232,0.1952,-24.955,-5.215,-18.38375,-20.2,17.912,-7.016,inter_set_rest,4,3.0,19310.0,140900.0,228352.0,279806.0,263106.0
2026-04-08 21:47:40.367109,216950,1609504032601877,1632568981,0.718336,-0.031232,0.1952,-23.12625,-6.48375,-19.60875,-20.2,17.912,-7.016,inter_set_rest,4,3.0,19310.0,140900.0,228352.0,279806.0,263106.0
2026-04-08 21:47:40.373368,216951,1609504032610792,1632577646,0.812032,-0.056608,0.284992,-22.61,-7.77875,-20.5975,-20.096,17.648,-7.768001,inter_set_rest,4,3.0,19310.0,140900.0,228352.0,279806.0,263106.0
2026-04-08 21:47:40.403515,216952,1609504032619686,1632586303,0.812032,-0.056608,0.284992,-22.155,-8.995,-21.72625,-20.096,17.648,-7.768001,inter_set_rest,4,3.0,19310.0,140900.0,228352.0,279806.0,263106.0
2026-04-08 21:47:40.465801,216963,1609504032634168,1632601164,0.821792,-0.080032,0.232288,-22.3125,-10.03625,-22.51375,-20.344002,17.544,-7.408001,inter_set_rest,4,3.0,19312.0,141034.0,228579.0,279972.0,263212.0
2026-04-08 21:47:40.468344,216964,1609504032643096,1632609820,0.821792,-0.080032,0.232288,-24.57875,-11.83,-23.07375,-20.344002,17.544,-7.408001,inter_set_rest,4,3.0,19312.0,141034.0,228579.0,279972.0,263212.0
2026-04-08 21:47:40.470952,216965,1609504032657771,1632624730,0.794464,-0.074176,0.173728,-25.62,-13.4925,-22.53125,-20.368,17.216002,-7.792,inter_set_rest,4,3.0,19312.0,141034.0,228579.0,279972.0,263212.0
2026-04-08 21:47:40.473422,216966,1609504032666793,1632633410,0.856928,-0.095648,0.28304,-22.63625,-14.752501,-24.84125,-20.672,17.08,-9.816001,inter_set_rest,4,3.0,19312.0,141034.0,228579.0,279972.0,263212.0
2026-04-08 21:47:40.475781,216967,1609504032681275,1632648283,0.856928,-0.095648,0.28304,-17.22,-15.3475,-28.09625,-20.672,17.08,-9.816001,inter_set_rest,4,3.0,19312.0,141034.0,228579.0,279972.0,263212.0
2026-04-08 21:47:40.478423,216968,1609504032690205,1632656928,0.786656,-0.027328,0.3904,-12.38125,-15.54875,-27.4575,-21.072,17.152,-8.184,inter_set_rest,4,3.0,19312.0,141034.0,228579.0,279972.0,263212.0
2026-04-08 21:47:40.481137,216969,1609504032699296,1632665643,0.786656,-0.027328,0.3904,-9.59,-16.03875,-26.897501,-21.072,17.152,-8.184,inter_set_rest,4,3.0,19312.0,141034.0,228579.0,279972.0,263212.0
2026-04-08 21:47:40.483370,216970,1609504032713884,1632680572,0.804224,-0.081984,0.181536,-7.5775,-16.45875,-26.99375,-21.240002,16.904001,-8.704,inter_set_rest,4,3.0,19312.0,141034.0,228579.0,279972.0,263212.0
2026-04-08 21:47:40.519901,216971,1609504032722809,1632689245,0.804224,-0.081984,0.181536,-7.95375,-17.955,-26.241251,-21.240002,16.904001,-8.704,inter_set_rest,4,3.0,19312.0,141034.0,228579.0,279972.0,263212.0
2026-04-08 21:47:40.557076,216982,1609504032737718,1632704310,0.784704,-0.044896,0.128832,-7.9975,-19.95875,-25.64625,-21.376001,16.752,-8.136001,inter_set_rest,4,3.0,19307.0,141037.0,228581.0,279943.0,263172.0
2026-04-08 21:47:40.559734,216983,1609504032746779,1632712980,0.876448,-0.023424,0.286944,-5.39875,-21.06125,-25.54125,-21.12,16.320002,-8.752001,inter_set_rest,4,3.0,19307.0,141037.0,228581.0,279943.0,263172.0
2026-04-08 21:47:40.562288,216984,1609504032755694,1632721627,0.876448,-0.023424,0.286944,-3.14125,-21.1575,-26.1275,-21.12,16.320002,-8.752001,inter_set_rest,4,3.0,19307.0,141037.0,228581.0,279943.0,263172.0
2026-04-08 21:47:40.564532,216985,1609504032770218,1632736497,0.925248,-0.011712,0.0976,-1.4525,-21.67375,-26.678751,-21.584002,16.44,-8.272,inter_set_rest,4,3.0,19307.0,141037.0,228581.0,279943.0,263172.0
2026-04-08 21:47:40.567046,216986,1609504032779185,1632745196,0.925248,-0.011712,0.0976,-3.00125,-21.2625,-27.116251,-21.584002,16.44,-8.272,inter_set_rest,4,3.0,19307.0,141037.0,228581.0,279943.0,263172.0
2026-04-08 21:47:40.569553,216987,1609504032793936,1632760202,1.104832,-0.025376,0.103456,-5.04875,-20.72,-27.4225,-22.000002,16.456001,-9.304001,inter_set_rest,4,3.0,19307.0,141037.0,228581.0,279943.0,263172.0
2026-04-08 21:47:40.572434,216988,1609504032802873,1632768884,1.104832,-0.025376,0.103456,-9.12625,-19.74,-26.25,-22.000002,16.456001,-9.304001,inter_set_rest,4,3.0,19307.0,141037.0,228581.0,279943.0,263172.0
2026-04-08 21:47:40.602250,216989,1609504032817372,1632783800,1.173152,-0.027328,0.288896,-10.85875,-18.97875,-23.00375,-21.896002,16.144001,-9.496,inter_set_rest,4,3.0,19307.0,141037.0,228581.0,279943.0,263172.0
2026-04-08 21:47:40.605878,216990,1609504032826314,1632792495,1.09312,-0.031232,0.294752,-8.89,-16.98375,-18.12125,-21.896002,18.192001,-7.624001,inter_set_rest,4,3.0,19307.0,141037.0,228581.0,279943.0,263172.0
2026-04-08 21:47:40.608320,216991,1609504032835232,1632801208,1.09312,-0.031232,0.294752,-6.23875,-15.54,-12.775,-22.000002,16.392,-7.624001,inter_set_rest,4,3.0,19307.0,141037.0,228581.0,279943.0,263172.0
2026-04-08 21:47:40.668195,217002,1609504032849743,1632816125,0.989664,0.03904,0.365024,-3.29,-14.91875,-7.27125,-22.320002,16.584002,-9.92,inter_set_rest,4,3.0,19473.0,141499.0,228995.0,280232.0,263374.0
2026-04-08 21:47:40.668285,217003,1609504032858694,1632824860,0.989664,0.03904,0.365024,2.4675,-14.34125,-0.805,-22.320002,16.584002,-9.92,inter_set_rest,4,3.0,19473.0,141499.0,228995.0,280232.0,263374.0
2026-04-08 21:47:40.668329,217004,1609504032873252,1632839817,0.872544,0.080032,0.238144,9.292501,-12.99375,5.39875,-22.176,16.616001,-8.68,inter_set_rest,4,3.0,19473.0,141499.0,228995.0,280232.0,263374.0
2026-04-08 21:47:40.668425,217005,1609504032882206,1632848501,0.872544,0.080032,0.238144,12.915,-11.6375,11.54125,-22.176,16.616001,-8.68,inter_set_rest,4,3.0,19473.0,141499.0,228995.0,280232.0,263374.0
2026-04-08 21:47:40.673772,217006,1609504032896665,1632863370,0.767136,0.138592,0.376736,12.90625,-9.96625,15.715,-22.080002,16.912,-8.96,inter_set_rest,4,3.0,19473.0,141499.0,228995.0,280232.0,263374.0
2026-04-08 21:47:40.725413,217007,1609504032905566,1632872044,0.767136,0.138592,0.376736,10.465,-8.18125,19.897501,-22.080002,16.912,-8.96,inter_set_rest,4,3.0,19473.0,141499.0,228995.0,280232.0,263374.0
2026-04-08 21:47:40.725566,217008,1609504032914458,1632880692,0.817888,0.119072,0.415776,2.10875,-6.1425,23.09125,-21.704,17.12,-8.528001,inter_set_rest,4,3.0,19473.0,141499.0,228995.0,280232.0,263374.0
2026-04-08 21:47:40.725692,217009,1609504032928949,1632895506,0.757376,0.15616,0.212768,-11.62,-4.2525,26.18875,-22.136002,17.664001,-9.488001,inter_set_rest,4,3.0,19473.0,141499.0,228995.0,280232.0,263374.0
2026-04-08 21:47:40.741312,217020,1609504032937938,1632904218,0.757376,0.15616,0.212768,-29.26,-3.185,28.4375,-22.136002,17.664001,-9.488001,inter_set_rest,4,3.0,19442.0,141431.0,229054.0,280415.0,263541.0
2026-04-08 21:47:40.743691,217021,1609504032952497,1632919118,0.899872,0.074176,0.11712,-44.52,-2.70375,30.28375,-21.808,17.336,-10.816001,inter_set_rest,4,3.0,19442.0,141431.0,229054.0,280415.0,263541.0
2026-04-08 21:47:40.745831,217022,1609504032961512,1632927824,0.899872,0.074176,0.11712,-57.89875,-2.79125,28.8925,-21.808,17.336,-10.816001,inter_set_rest,4,3.0,19442.0,141431.0,229054.0,280415.0,263541.0
2026-04-08 21:47:40.748401,217023,1609504032976022,1632942749,0.95648,0.005856,0.16592,-68.25,-3.66625,26.50375,-21.856,17.568,-11.208,inter_set_rest,4,3.0,19442.0,141431.0,229054.0,280415.0,263541.0
2026-04-08 21:47:40.750914,217024,1609504032984938,1632951425,0.95648,0.005856,0.16592,-70.25375,-4.1125,26.1275,-21.856,17.568,-11.208,inter_set_rest,4,3.0,19442.0,141431.0,229054.0,280415.0,263541.0
2026-04-08 21:47:40.757338,217025,1609504032993866,1632960170,1.013088,-0.105408,0.021472,-66.29875,-4.36625,24.61375,-21.704,17.552,-11.688001,inter_set_rest,4,3.0,19442.0,141431.0,229054.0,280415.0,263541.0
2026-04-08 21:47:40.816191,217026,1609504033008374,1632975104,1.036512,-0.066368,0.255712,-58.07375,-3.3425,24.33375,-21.496,17.912,-12.56,inter_set_rest,4,3.0,19442.0,141431.0,229054.0,280415.0,263541.0
2026-04-08 21:47:40.819597,217027,1609504033017285,1632983762,1.036512,-0.066368,0.255712,-43.25125,-1.96875,26.285,-21.496,17.912,-12.56,inter_set_rest,4,3.0,19442.0,141431.0,229054.0,280415.0,263541.0
2026-04-08 21:47:40.822100,217028,1609504033031755,1632998615,1.001376,-0.013664,0.271328,-25.73375,-1.4,26.285,-21.392,18.064001,-12.312,inter_set_rest,4,3.0,19442.0,141431.0,229054.0,280415.0,263541.0
2026-04-08 21:47:40.849569,217039,1609504033041149,1633007716,1.001376,-0.013664,0.271328,-9.65125,-0.88375,24.8675,-21.392,18.064001,-12.312,inter_set_rest,4,3.0,19557.0,141886.0,229495.0,280621.0,263617.0
2026-04-08 21:47:40.852091,217040,1609504033050127,1633016363,0.974048,-0.00976,0.040992,1.19875,-0.6125,22.96875,-21.288,18.656,-12.280001,inter_set_rest,4,3.0,19557.0,141886.0,229495.0,280621.0,263617.0
2026-04-08 21:47:40.855341,217041,1609504033064626,1633031256,0.974048,-0.00976,0.040992,2.70375,-0.4725,21.9625,-21.288,18.656,-12.280001,inter_set_rest,4,3.0,19557.0,141886.0,229495.0,280621.0,263617.0
2026-04-08 21:47:40.857035,217042,1609504033073589,1633039925,1.01504,0.00976,0.06832,0.60375,-0.49875,22.95125,-21.264002,18.776001,-11.344001,inter_set_rest,4,3.0,19557.0,141886.0,229495.0,280621.0,263617.0
2026-04-08 21:47:40.860903,217043,1609504033088095,1633054996,0.968192,-0.003904,0.167872,-3.29,0.14,24.9025,-21.264002,18.912,-11.552001,inter_set_rest,4,3.0,19557.0,141886.0,229495.0,280621.0,263617.0
2026-04-08 21:47:40.863650,217044,1609504033097106,1633063691,0.968192,-0.003904,0.167872,-9.24875,0.98875,26.52125,-21.016,18.912,-11.552001,inter_set_rest,4,3.0,19557.0,141886.0,229495.0,280621.0,263617.0
2026-04-08 21:47:40.893613,217045,1609504033111632,1633078567,0.874496,-0.03904,-0.033184,-11.585,1.4875,28.07875,-20.68,19.416,-11.672001,inter_set_rest,4,3.0,19557.0,141886.0,229495.0,280621.0,263617.0
2026-04-08 21:47:40.897096,217046,1609504033120536,1633087233,0.874496,-0.03904,-0.033184,-7.0,1.8025,28.00875,-20.68,19.416,-11.672001,inter_set_rest,4,3.0,19557.0,141886.0,229495.0,280621.0,263617.0
2026-04-08 21:47:40.899584,217047,1609504033129471,1633095894,0.84912,-0.015616,0.109312,-0.0175,2.89625,27.2825,-20.888,19.512001,-9.784,inter_set_rest,4,3.0,19557.0,141886.0,229495.0,280621.0,263617.0
2026-04-08 21:47:40.929593,217058,1609504033144035,1633110806,0.84912,-0.015616,0.109312,7.21,3.78,26.241251,-20.888,19.512001,-9.784,inter_set_rest,4,3.0,19565.0,141972.0,229605.0,280676.0,263615.0
2026-04-08 21:47:40.938333,217059,1609504033152982,1633119521,0.921344,-0.056608,0.0488,12.55625,4.45375,24.5875,-20.584002,20.128,-11.992001,inter_set_rest,4,3.0,19565.0,141972.0,229605.0,280676.0,263615.0
2026-04-08 21:47:40.940822,217060,1609504033167434,1633134486,0.921344,-0.056608,0.0488,15.3125,5.2325,22.72375,-20.584002,20.128,-11.992001,inter_set_rest,4,3.0,19565.0,141972.0,229605.0,280676.0,263615.0
2026-04-08 21:47:40.943348,217061,1609504033176401,1633143158,0.8784,-0.040992,-0.054656,15.846251,6.3175,21.1225,-20.304,20.304,-13.056001,inter_set_rest,4,3.0,19565.0,141972.0,229605.0,280676.0,263615.0
2026-04-08 21:47:40.973547,217062,1609504033190889,1633158016,0.999424,-0.021472,-0.044896,12.9325,6.79875,19.74875,-20.744001,20.472,-11.240001,inter_set_rest,4,3.0,19565.0,141972.0,229605.0,280676.0,263615.0
2026-04-08 21:47:40.977190,217063,1609504033199826,1633166741,0.999424,-0.021472,-0.044896,9.9575,6.50125,19.08375,-20.744001,20.472,-11.240001,inter_set_rest,4,3.0,19565.0,141972.0,229605.0,280676.0,263615.0
2026-04-08 21:47:40.979530,217064,1609504033208768,1633175411,1.065792,-0.01952,0.005856,8.26875,6.5275,18.7775,-20.744001,22.52,-13.200001,inter_set_rest,4,3.0,19565.0,141972.0,229605.0,280676.0,263615.0
2026-04-08 21:47:40.985866,217065,1609504033223265,1633190281,1.065792,-0.01952,0.005856,9.49375,7.37625,18.6725,-20.416,20.664001,-13.200001,inter_set_rest,4,3.0,19565.0,141972.0,229605.0,280676.0,263615.0
2026-04-08 21:47:41.017194,217066,1609504033232191,1633198950,0.983808,0.001952,0.083936,11.94375,8.70625,18.71625,-20.416,21.256,-11.368001,inter_set_rest,4,3.0,19565.0,141972.0,229605.0,280676.0,263615.0
2026-04-08 21:47:41.044548,217077,1609504033246698,1633213838,0.983808,0.001952,0.083936,13.5625,9.38875,18.15625,-20.416,21.256,-11.368001,inter_set_rest,4,3.0,19646.0,142156.0,229813.0,280774.0,263691.0
2026-04-08 21:47:41.047061,217078,1609504033255612,1633222532,0.921344,-0.021472,0.0488,13.886251,9.065,18.54125,-19.936,21.248001,-10.768001,inter_set_rest,4,3.0,19646.0,142156.0,229813.0,280774.0,263691.0
2026-04-08 21:47:41.049577,217079,1609504033270261,1633237418,0.83936,-0.013664,-0.027328,14.28,8.40875,19.4425,-20.352001,21.36,-11.712001,inter_set_rest,4,3.0,19646.0,142156.0,229813.0,280774.0,263691.0
2026-04-08 21:47:41.052060,217080,1609504033279294,1633246131,0.83936,-0.013664,-0.027328,15.8725,7.76125,20.88625,-20.352001,21.36,-11.712001,inter_set_rest,4,3.0,19646.0,142156.0,229813.0,280774.0,263691.0
2026-04-08 21:47:41.054605,217081,1609504033288370,1633254813,0.83936,-0.013664,-0.027328,18.935,7.90125,21.60375,-20.352001,21.36,-11.712001,inter_set_rest,4,3.0,19646.0,142156.0,229813.0,280774.0,263691.0
2026-04-08 21:47:41.118655,217082,1609504033302934,1633269668,0.909632,-0.03904,0.02928,22.61,7.06125,20.8425,-19.808,22.096,-8.792001,inter_set_rest,4,3.0,19646.0,142156.0,229813.0,280774.0,263691.0
2026-04-08 21:47:41.122160,217083,1609504033311841,1633278340,0.815936,0.011712,0.093696,24.43,6.81625,18.5675,-19.976002,22.184002,-11.136001,inter_set_rest,4,3.0,19646.0,142156.0,229813.0,280774.0,263691.0
2026-04-08 21:47:41.124606,217084,1609504033326377,1633293226,0.815936,0.011712,0.093696,24.15,6.65875,16.28375,-19.976002,22.184002,-11.136001,inter_set_rest,4,3.0,19646.0,142156.0,229813.0,280774.0,263691.0
2026-04-08 21:47:41.127204,217085,1609504033335283,1633301878,0.860832,-0.037088,-0.044896,23.47625,6.60625,15.28625,-19.384,22.696001,-11.072001,inter_set_rest,4,3.0,19646.0,142156.0,229813.0,280774.0,263691.0
2026-04-08 21:47:41.154612,217096,1609504033344316,1633310550,0.860832,-0.037088,-0.044896,22.995,6.4575,14.735,-19.384,22.696001,-11.072001,inter_set_rest,4,3.0,19502.0,141811.0,229443.0,280581.0,263588.0
2026-04-08 21:47:41.157083,217097,1609504033358802,1633325420,0.864736,-0.023424,0.142496,20.895,6.99125,13.5275,-19.528002,23.112001,-11.008,inter_set_rest,4,3.0,19502.0,141811.0,229443.0,280581.0,263588.0
2026-04-08 21:47:41.159613,217098,1609504033367881,1633334236,0.864736,-0.023424,0.142496,18.47125,6.685,12.15375,-19.528002,23.112001,-11.008,inter_set_rest,4,3.0,19502.0,141811.0,229443.0,280581.0,263588.0
2026-04-08 21:47:41.162062,217099,1609504033382380,1633349202,0.84912,0.003904,0.163968,15.8375,6.25625,10.64875,-19.512001,22.736002,-10.288,inter_set_rest,4,3.0,19502.0,141811.0,229443.0,280581.0,263588.0
2026-04-08 21:47:41.164563,217100,1609504033391453,1633357947,0.831552,0.021472,0.103456,13.20375,5.25875,9.1875,-19.352001,23.656002,-11.112,inter_set_rest,4,3.0,19502.0,141811.0,229443.0,280581.0,263588.0
2026-04-08 21:47:41.169570,217101,1609504033406031,1633372866,0.831552,0.021472,0.103456,12.15375,5.67875,7.55125,-19.352001,23.656002,-11.112,inter_set_rest,4,3.0,19502.0,141811.0,229443.0,280581.0,263588.0
2026-04-08 21:47:41.175826,217102,1609504033414951,1633381553,0.794464,0.017568,0.150304,12.9325,6.32625,6.685,-19.432001,23.944,-9.080001,inter_set_rest,4,3.0,19502.0,141811.0,229443.0,280581.0,263588.0
2026-04-08 21:47:41.206154,217103,1609504033423885,1633390251,0.794464,0.017568,0.150304,12.17125,7.1575,7.09625,-19.432001,23.944,-9.080001,inter_set_rest,4,3.0,19502.0,141811.0,229443.0,280581.0,263588.0
2026-04-08 21:47:41.238253,217114,1609504033438354,1633405518,0.778848,-0.011712,0.208864,12.0575,7.35,6.51,-19.264002,23.848001,-11.048,inter_set_rest,4,3.0,19367.0,141385.0,228983.0,280316.0,263468.0
2026-04-08 21:47:41.242612,217115,1609504033447290,1633414171,0.778848,-0.011712,0.208864,11.89125,7.8225,5.36375,-19.264002,23.848001,-11.048,inter_set_rest,4,3.0,19367.0,141385.0,228983.0,280316.0,263468.0
2026-04-08 21:47:41.245064,217116,1609504033461769,1633426989,0.724192,-0.025376,-0.00976,10.59625,8.12,4.0075,-19.488,24.208002,-10.928,inter_set_rest,4,3.0,19367.0,141385.0,228983.0,280316.0,263468.0
2026-04-08 21:47:41.246818,217117,1609504033471134,1633437765,0.79056,0.033184,0.042944,9.9925,9.065,1.82875,-19.464,24.256,-11.176001,inter_set_rest,4,3.0,19367.0,141385.0,228983.0,280316.0,263468.0
2026-04-08 21:47:41.248346,217118,1609504033480216,1633446466,0.79056,0.033184,0.042944,7.8925,10.07125,-0.83125,-19.464,24.256,-11.176001,inter_set_rest,4,3.0,19367.0,141385.0,228983.0,280316.0,263468.0
2026-04-08 21:47:41.279506,217119,1609504033494718,1633461317,0.942816,-0.015616,0.060512,3.14125,11.15625,-4.89125,-19.416,24.184002,-10.328,inter_set_rest,4,3.0,19367.0,141385.0,228983.0,280316.0,263468.0
2026-04-08 21:47:41.283892,217120,1609504033503679,1633469987,0.942816,-0.015616,0.060512,-3.4125,12.845,-7.41125,-19.416,24.184002,-10.328,inter_set_rest,4,3.0,19367.0,141385.0,228983.0,280316.0,263468.0
2026-04-08 21:47:41.286297,217121,1609504033518149,1633484889,0.931104,-0.035136,-0.06832,-10.49125,14.2275,-9.6075,-19.688002,24.216002,-10.52,inter_set_rest,4,3.0,19367.0,141385.0,228983.0,280316.0,263468.0
2026-04-08 21:47:41.291279,217122,1609504033527114,1633493552,0.931104,-0.035136,-0.06832,-17.255,13.7375,-12.915,-19.688002,24.216002,-10.52,inter_set_rest,4,3.0,19367.0,141385.0,228983.0,280316.0,263468.0
2026-04-08 21:47:41.345886,217133,1609504033542037,1633508648,1.18096,-0.064416,0.013664,-24.5175,10.28125,-16.77375,-20.056002,23.728,-10.552,inter_set_rest,4,3.0,19833.0,143148.0,231009.0,281695.0,264214.0
2026-04-08 21:47:41.348337,217134,1609504033551020,1633517313,1.553792,-0.130784,0.11712,-32.0075,4.2175,-21.8925,-20.056002,23.728,-15.712001,inter_set_rest,4,3.0,19833.0,143148.0,231009.0,281695.0,264214.0
2026-04-08 21:47:41.350817,217135,1609504033559940,1633525977,1.553792,-0.130784,0.11712,-34.67625,-2.49375,-28.9275,-20.408,23.840002,-15.712001,inter_set_rest,4,3.0,19833.0,143148.0,231009.0,281695.0,264214.0
2026-04-08 21:47:41.353349,217136,1609504033574458,1633540925,1.45424,-0.26352,0.38064,-33.0575,-4.8125,-38.45625,-20.84,23.504002,-10.448001,inter_set_rest,4,3.0,19833.0,143148.0,231009.0,281695.0,264214.0
2026-04-08 21:47:41.355854,217137,1609504033583387,1633549614,1.45424,-0.26352,0.38064,-28.97125,-2.28375,-46.05125,-20.84,23.504002,-10.448001,inter_set_rest,4,3.0,19833.0,143148.0,231009.0,281695.0,264214.0
2026-04-08 21:47:41.360925,217138,1609504033597869,1633564532,1.126304,-0.16592,0.197152,-27.317501,-4.24375,-46.90875,-21.088001,23.448002,-9.928,inter_set_rest,4,3.0,19833.0,143148.0,231009.0,281695.0,264214.0
2026-04-08 21:47:41.417728,217139,1609504033606826,1633573292,1.126304,-0.16592,0.197152,-24.85875,-11.4975,-42.035,-21.088001,23.448002,-9.928,inter_set_rest,4,3.0,19833.0,143148.0,231009.0,281695.0,264214.0
2026-04-08 21:47:41.419618,217140,1609504033621359,1633588186,0.938912,0.025376,0.169824,-11.68125,-17.710001,-37.695,-21.024,22.776001,-10.68,inter_set_rest,4,3.0,19833.0,143148.0,231009.0,281695.0,264214.0
2026-04-08 21:47:41.422037,217141,1609504033630286,1633596885,0.938912,0.025376,0.169824,14.83125,-19.85375,-36.33,-21.024,22.776001,-10.68,inter_set_rest,4,3.0,19833.0,143148.0,231009.0,281695.0,264214.0
2026-04-08 21:47:41.427872,217142,1609504033639208,1633605535,0.83936,0.023424,0.353312,43.645,-18.08625,-40.285,-21.168001,22.776001,-13.080001,inter_set_rest,4,3.0,19833.0,143148.0,231009.0,281695.0,264214.0
2026-04-08 21:47:41.452033,217153,1609504033653732,1633620449,0.67344,0.119072,0.193248,58.8,-15.44375,-43.40875,-21.68,22.896002,-11.120001,inter_set_rest,4,3.0,19387.0,141381.0,228889.0,280268.0,263447.0
2026-04-08 21:47:41.454576,217154,1609504033662626,1633629093,0.67344,0.119072,0.193248,57.46125,-13.06375,-41.48375,-21.68,22.896002,-11.120001,inter_set_rest,4,3.0,19387.0,141381.0,228889.0,280268.0,263447.0
2026-04-08 21:47:41.457148,217155,1609504033677167,1633643974,0.636352,0.255712,0.130784,44.05625,-10.91125,-31.3075,-21.264002,22.936,-11.256001,inter_set_rest,4,3.0,19387.0,141381.0,228889.0,280268.0,263447.0
2026-04-08 21:47:41.459609,217156,1609504033686190,1633652741,0.636352,0.255712,0.130784,20.43125,-6.7725,-18.375,-21.264002,22.936,-11.256001,inter_set_rest,4,3.0,19387.0,141381.0,228889.0,280268.0,263447.0
2026-04-08 21:47:41.464539,217157,1609504033695114,1633661468,0.696864,0.251808,0.290848,-8.0675,0.2975,-10.61375,-21.952002,22.832,-10.304001,inter_set_rest,4,3.0,19387.0,141381.0,228889.0,280268.0,263447.0
2026-04-08 21:47:41.494779,217158,1609504033709600,1633676385,0.696864,0.251808,0.290848,-42.945,7.34125,-9.0475,-21.952002,22.832,-10.304001,inter_set_rest,4,3.0,19387.0,141381.0,228889.0,280268.0,263447.0
2026-04-08 21:47:41.498359,217159,1609504033718529,1633685074,0.700768,0.113216,0.398208,-80.73625,13.53625,-10.92,-21.968,22.928001,-11.312,inter_set_rest,4,3.0,19387.0,141381.0,228889.0,280268.0,263447.0
2026-04-08 21:47:41.500916,217160,1609504033732998,1633699902,0.796416,-0.01952,0.314272,-117.915,16.275,-5.48625,-21.544,22.216002,-14.224001,inter_set_rest,4,3.0,19387.0,141381.0,228889.0,280268.0,263447.0
2026-04-08 21:47:41.528343,217171,1609504033742127,1633708696,0.796416,-0.01952,0.314272,-149.44125,15.855001,2.87875,-21.544,22.216002,-14.224001,inter_set_rest,4,3.0,19322.0,141325.0,229008.0,280522.0,263660.0
2026-04-08 21:47:41.530842,217172,1609504033756748,1633723596,0.923296,-0.00976,0.337696,-170.625,15.58375,11.05125,-22.000002,21.68,-14.392001,inter_set_rest,4,3.0,19322.0,141325.0,229008.0,280522.0,263660.0
2026-04-08 21:47:41.533378,217173,1609504033765680,1633732371,0.923296,-0.00976,0.337696,-175.0525,13.405,8.5575,-22.000002,21.68,-14.392001,inter_set_rest,4,3.0,19322.0,141325.0,229008.0,280522.0,263660.0
2026-04-08 21:47:41.536145,217174,1609504033774620,1633741056,1.001376,-0.070272,-0.021472,-167.01125,10.26375,-5.15375,-22.328001,20.464,-15.352001,inter_set_rest,4,3.0,19322.0,141325.0,229008.0,280522.0,263660.0
2026-04-08 21:47:41.566093,217175,1609504033789091,1633755912,1.001376,-0.070272,-0.021472,-152.3025,9.84375,-14.98875,-22.328001,20.464,-15.352001,inter_set_rest,4,3.0,19322.0,141325.0,229008.0,280522.0,263660.0
2026-04-08 21:47:41.570849,217176,1609504033798029,1633764582,1.036512,0.011712,0.279136,-128.87,10.42125,-8.82875,-21.880001,20.36,-16.432001,inter_set_rest,4,3.0,19322.0,141325.0,229008.0,280522.0,263660.0
2026-04-08 21:47:41.575873,217177,1609504033812512,1633779447,0.9272,0.066368,0.28304,-101.9725,10.98125,0.14,-21.880001,20.36,-14.384001,inter_set_rest,4,3.0,19322.0,141325.0,229008.0,280522.0,263660.0
2026-04-08 21:47:41.606068,217178,1609504033821445,1633788142,0.923296,0.066368,0.28304,-85.61,10.0975,2.7825,-22.232,19.984001,-15.240001,inter_set_rest,4,3.0,19322.0,141325.0,229008.0,280522.0,263660.0
2026-04-08 21:47:41.612707,217179,1609504033835950,1633803012,0.880352,0.1464,0.257664,-80.57,7.84875,2.66,-22.024,19.640001,-17.376001,inter_set_rest,4,3.0,19322.0,141325.0,229008.0,280522.0,263660.0
2026-04-08 21:47:41.637161,217190,1609504033845371,1633811912,0.880352,0.1464,0.257664,-78.7675,4.6725,6.81625,-22.024,19.640001,-17.376001,inter_set_rest,4,3.0,19727.0,142739.0,230607.0,281527.0,264186.0
2026-04-08 21:47:41.639715,217191,1609504033854281,1633820600,0.938912,0.144448,0.20496,-77.4725,1.77625,10.465,-21.624,19.704,-16.624,inter_set_rest,4,3.0,19727.0,142739.0,230607.0,281527.0,264186.0
2026-04-08 21:47:41.642188,217192,1609504033868784,1633835556,0.938912,0.144448,0.20496,-76.85125,1.28625,12.53875,-21.624,19.704,-16.624,inter_set_rest,4,3.0,19727.0,142739.0,230607.0,281527.0,264186.0
2026-04-08 21:47:41.644660,217193,1609504033877799,1633844287,0.882304,0.242048,0.480192,-70.67375,2.51125,9.28375,-21.560001,19.664001,-17.064001,inter_set_rest,4,3.0,19727.0,142739.0,230607.0,281527.0,264186.0
2026-04-08 21:47:41.677384,217194,1609504033892317,1633859165,0.882304,0.242048,0.480192,-53.20875,8.365,2.61625,-21.560001,19.664001,-17.064001,inter_set_rest,4,3.0,19727.0,142739.0,230607.0,281527.0,264186.0
2026-04-08 21:47:41.680900,217195,1609504033901320,1633867817,0.817888,0.122976,0.376736,-25.655,14.6125,-4.48,-21.84,19.416,-16.784,inter_set_rest,4,3.0,19727.0,142739.0,230607.0,281527.0,264186.0
2026-04-08 21:47:41.683344,217196,1609504033910237,1633876474,0.817888,0.122976,0.376736,-8.26875,18.73375,-10.42125,-21.84,19.416,-16.784,inter_set_rest,4,3.0,19727.0,142739.0,230607.0,281527.0,264186.0
2026-04-08 21:47:41.729950,217197,1609504033924725,1633891391,0.772992,-0.033184,0.437248,-11.78625,17.26375,-14.65625,-22.176,19.072,-17.792002,inter_set_rest,4,3.0,19727.0,142739.0,230607.0,281527.0,264186.0
2026-04-08 21:47:41.742256,217198,1609504033933662,1633900110,0.837408,-0.144448,0.314272,-24.815,13.34375,-16.45875,-22.176,18.784,-14.776001,inter_set_rest,4,3.0,19727.0,142739.0,230607.0,281527.0,264186.0
2026-04-08 21:47:41.777214,217209,1609504033948330,1633915038,0.837408,-0.144448,0.314272,-35.70875,9.59,-14.98875,-22.048,18.784,-14.776001,inter_set_rest,4,3.0,19625.0,142515.0,230389.0,281309.0,264034.0
2026-04-08 21:47:41.779633,217210,1609504033957246,1633923702,0.919392,-0.173728,0.167872,-36.7675,7.39375,-13.95625,-22.208,18.504002,-17.880001,inter_set_rest,4,3.0,19625.0,142515.0,230389.0,281309.0,264034.0
2026-04-08 21:47:41.782155,217211,1609504033971710,1633938549,0.919392,-0.173728,0.167872,-26.74875,6.9475,-16.56375,-22.208,18.504002,-17.880001,inter_set_rest,4,3.0,19625.0,142515.0,230389.0,281309.0,264034.0
2026-04-08 21:47:41.784678,217212,1609504033980675,1633947253,0.944768,-0.150304,0.244,-8.295,6.99125,-21.21875,-22.248001,18.512001,-17.824001,inter_set_rest,4,3.0,19625.0,142515.0,230389.0,281309.0,264034.0
2026-04-08 21:47:41.787127,217213,1609504033989621,1633955948,0.944768,-0.150304,0.244,13.09875,6.11625,-26.880001,-22.248001,18.512001,-17.824001,inter_set_rest,4,3.0,19625.0,142515.0,230389.0,281309.0,264034.0
2026-04-08 21:47:41.789672,217214,1609504034004232,1633970826,0.938912,-0.081984,0.28304,32.99625,5.55625,-30.35375,-22.792002,18.416,-17.68,inter_set_rest,4,3.0,19625.0,142515.0,230389.0,281309.0,264034.0
2026-04-08 21:47:41.792147,217215,1609504034013140,1633979579,0.938912,-0.081984,0.28304,43.23375,3.96375,-28.21875,-22.792002,18.416,-17.68,inter_set_rest,4,3.0,19625.0,142515.0,230389.0,281309.0,264034.0
2026-04-08 21:47:41.794664,217216,1609504034027670,1633994587,0.796416,-0.00976,0.132736,47.5475,1.1375,-27.65875,-22.848001,18.464,-19.704,inter_set_rest,4,3.0,19625.0,142515.0,230389.0,281309.0,264034.0
2026-04-08 21:47:41.798410,217217,1609504034036593,1634003278,0.753472,-0.03904,0.23424,47.04875,-2.65125,-29.75,-23.144001,18.248001,-17.024,inter_set_rest,4,3.0,19625.0,142515.0,230389.0,281309.0,264034.0
2026-04-08 21:47:41.829670,217228,1609504034051191,1634018274,0.753472,-0.03904,0.23424,39.34875,-7.44625,-31.5,-23.144001,18.248001,-17.024,inter_set_rest,4,3.0,19558.0,142255.0,230085.0,281071.0,263884.0
2026-04-08 21:47:41.832149,217229,1609504034060136,1634026964,0.812032,-0.064416,0.349408,29.4,-11.99625,-30.9925,-23.272001,17.928001,-17.08,inter_set_rest,4,3.0,19558.0,142255.0,230085.0,281071.0,263884.0
2026-04-08 21:47:41.834689,217230,1609504034069094,1634035670,0.812032,-0.064416,0.349408,22.81125,-15.18125,-27.86,-23.272001,17.928001,-17.08,inter_set_rest,4,3.0,19558.0,142255.0,230085.0,281071.0,263884.0
2026-04-08 21:47:41.867345,217231,1609504034083606,1634050535,0.899872,-0.091744,0.454816,24.08,-15.925,-28.4025,-23.224,18.432001,-16.512001,inter_set_rest,4,3.0,19558.0,142255.0,230085.0,281071.0,263884.0
2026-04-08 21:47:41.870919,217232,1609504034092589,1634059202,0.899872,-0.091744,0.454816,32.15625,-15.05,-28.30625,-23.224,18.432001,-16.512001,inter_set_rest,4,3.0,19558.0,142255.0,230085.0,281071.0,263884.0
2026-04-08 21:47:41.873436,217233,1609504034107082,1634074048,0.911584,-0.056608,0.454816,35.23625,-13.965,-29.8375,-23.208,18.36,-18.024,inter_set_rest,4,3.0,19558.0,142255.0,230085.0,281071.0,263884.0
2026-04-08 21:47:41.879712,217234,1609504034116019,1634082699,0.837408,0.021472,0.488,33.18875,-13.15125,-29.4,-23.392,18.096,-18.472,inter_set_rest,4,3.0,19558.0,142255.0,230085.0,281071.0,263884.0
2026-04-08 21:47:41.909956,217235,1609504034130507,1634097618,0.837408,0.021472,0.488,25.92625,-13.58,-29.49625,-23.392,18.096,-18.472,inter_set_rest,4,3.0,19558.0,142255.0,230085.0,281071.0,263884.0
2026-04-08 21:47:41.913443,217236,1609504034139407,1634106304,0.866688,-0.005856,0.382592,18.47125,-13.09875,-29.286251,-23.560001,17.752,-16.888,inter_set_rest,4,3.0,19558.0,142255.0,230085.0,281071.0,263884.0
2026-04-08 21:47:41.943395,217248,1609504034148546,1634115060,0.866688,-0.005856,0.382592,6.2125,-14.5075,-28.63875,-23.560001,17.752,-16.888,inter_set_rest,4,3.0,19531.0,142275.0,230140.0,281120.0,263907.0
2026-04-08 21:47:41.945917,217249,1609504034163059,1634129971,0.915488,-0.003904,0.372832,-5.355,-15.74125,-28.13125,-23.608002,17.744001,-17.400002,inter_set_rest,4,3.0,19531.0,142275.0,230140.0,281120.0,263907.0
2026-04-08 21:47:41.948390,217250,1609504034172007,1634138748,0.915488,-0.003904,0.372832,-11.34,-16.135,-28.315,-23.608002,17.744001,-17.400002,inter_set_rest,4,3.0,19531.0,142275.0,230140.0,281120.0,263907.0
2026-04-08 21:47:41.950873,217251,1609504034186540,1634153661,0.851072,-0.023424,0.142496,-15.09375,-16.51125,-29.67125,-23.36,17.296001,-16.928001,inter_set_rest,4,3.0,19531.0,142275.0,230140.0,281120.0,263907.0
2026-04-08 21:47:41.981049,217252,1609504034195480,1634162338,0.882304,-0.0488,0.162016,-14.93625,-15.645,-31.2025,-23.824001,16.928001,-15.064001,inter_set_rest,4,3.0,19531.0,142275.0,230140.0,281120.0,263907.0
2026-04-08 21:47:41.984634,217253,1609504034209936,1634175138,0.882304,-0.0488,0.162016,-11.80375,-15.33,-33.81875,-23.824001,16.928001,-15.064001,inter_set_rest,4,3.0,19531.0,142275.0,230140.0,281120.0,263907.0
2026-04-08 21:47:42.018675,217254,1609504034219181,1634185897,0.968192,-0.023424,0.25376,-7.09625,-15.07625,-34.86875,-23.968,16.632,-17.960001,inter_set_rest,4,3.0,19531.0,142275.0,230140.0,281120.0,263907.0
2026-04-08 21:47:42.022134,217255,1609504034228089,1634194576,0.968192,-0.023424,0.25376,-2.03,-14.525,-37.8175,-23.968,16.632,-17.960001,inter_set_rest,4,3.0,19531.0,142275.0,230140.0,281120.0,263907.0
2026-04-08 21:47:42.058301,217266,1609504034242574,1634209722,1.018944,0.03904,0.411872,4.43625,-13.43125,-43.54,-24.480001,16.528,-19.28,inter_set_rest,4,3.0,19608.0,142489.0,230366.0,281186.0,263890.0
2026-04-08 21:47:42.060948,217267,1609504034251548,1634218382,1.018944,0.03904,0.411872,13.99125,-10.42125,-48.02,-24.480001,16.528,-19.28,inter_set_rest,4,3.0,19608.0,142489.0,230366.0,281186.0,263890.0
2026-04-08 21:47:42.063457,217268,1609504034266039,1634231187,1.01504,0.031232,0.249856,24.92,-6.55375,-51.96625,-24.576,16.28,-17.240002,inter_set_rest,4,3.0,19608.0,142489.0,230366.0,281186.0,263890.0
2026-04-08 21:47:42.065829,217269,1609504034275179,1634241943,1.01504,0.031232,0.329888,38.815,-3.52625,-55.41375,-24.576,16.28,-17.240002,inter_set_rest,4,3.0,19608.0,142489.0,230366.0,281186.0,263890.0
2026-04-08 21:47:42.068435,217270,1609504034284159,1634250627,0.98576,0.042944,0.329888,51.45875,-2.03875,-56.25375,-24.736002,16.024,-18.048,inter_set_rest,4,3.0,19608.0,142489.0,230366.0,281186.0,263890.0
2026-04-08 21:47:42.070885,217271,1609504034298663,1634265573,0.9272,0.074176,0.181536,60.15625,-1.96875,-54.6175,-25.392002,16.2,-15.936001,inter_set_rest,4,3.0,19608.0,142489.0,230366.0,281186.0,263890.0
2026-04-08 21:47:42.073441,217272,1609504034307620,1634274243,0.9272,0.074176,0.181536,68.66125,-3.24625,-51.24875,-25.392002,16.2,-15.936001,inter_set_rest,4,3.0,19608.0,142489.0,230366.0,281186.0,263890.0
2026-04-08 21:47:42.103589,217273,1609504034322172,1634289139,0.909632,0.109312,0.134688,79.45,-2.5375,-48.13375,-25.392002,16.144001,-15.688001,inter_set_rest,4,3.0,19608.0,142489.0,230366.0,281186.0,263890.0
2026-04-08 21:47:42.107059,217274,1609504034331093,1634297845,0.909632,0.109312,0.134688,91.63,-0.3325,-45.21125,-25.392002,16.144001,-15.688001,inter_set_rest,4,3.0,19608.0,142489.0,230366.0,281186.0,263890.0
2026-04-08 21:47:42.134644,217285,1609504034346004,1634312690,0.872544,0.167872,0.113216,100.3975,1.98625,-39.795002,-25.352001,16.256,-15.776001,inter_set_rest,4,3.0,19434.0,141854.0,229631.0,280730.0,263670.0
2026-04-08 21:47:42.137116,217286,1609504034354984,1634321421,0.872544,0.167872,0.113216,101.027504,3.325,-33.53875,-25.352001,16.256,-15.776001,inter_set_rest,4,3.0,19434.0,141854.0,229631.0,280730.0,263670.0
2026-04-08 21:47:42.139576,217287,1609504034363943,1634330187,0.788608,0.26352,0.07808,96.04,3.05375,-29.07625,-25.584002,16.312,-15.432001,inter_set_rest,4,3.0,19434.0,141854.0,229631.0,280730.0,263670.0
2026-04-08 21:47:42.142129,217288,1609504034378516,1634345161,0.862784,0.21472,0.109312,90.79,3.2725,-29.435,-25.928001,16.456001,-15.008,inter_set_rest,4,3.0,19434.0,141854.0,229631.0,280730.0,263670.0
2026-04-08 21:47:42.172328,217289,1609504034387446,1634353855,0.862784,0.21472,0.109312,83.4575,3.59625,-30.28375,-25.928001,16.456001,-15.008,inter_set_rest,4,3.0,19434.0,141854.0,229631.0,280730.0,263670.0
2026-04-08 21:47:42.175905,217290,1609504034401909,1634368725,0.837408,0.203008,0.052704,70.875,3.05375,-31.053751,-26.096,16.384,-14.808001,inter_set_rest,4,3.0,19434.0,141854.0,229631.0,280730.0,263670.0
2026-04-08 21:47:42.178559,217291,1609504034410916,1634377372,0.837408,0.203008,0.052704,61.32875,2.21375,-29.89875,-26.096,16.384,-14.808001,inter_set_rest,4,3.0,19434.0,141854.0,229631.0,280730.0,263670.0
2026-04-08 21:47:42.180917,217292,1609504034419864,1634386067,0.85888,0.218624,0.335744,57.478752,3.465,-28.13125,-25.712002,16.808,-14.056001,inter_set_rest,4,3.0,19434.0,141854.0,229631.0,280730.0,263670.0
2026-04-08 21:47:42.211971,217293,1609504034434346,1634400974,0.85888,0.218624,0.335744,60.19125,5.3375,-24.19375,-25.712002,16.808,-14.056001,inter_set_rest,4,3.0,19434.0,141854.0,229631.0,280730.0,263670.0
2026-04-08 21:47:42.214281,217294,1609504034443297,1634409657,0.835456,0.300608,0.314272,67.36625,7.6825,-20.8075,-26.240002,16.6,-14.080001,inter_set_rest,4,3.0,19434.0,141854.0,229631.0,280730.0,263670.0
2026-04-08 21:47:42.243992,217305,1609504034457930,1634424679,0.792512,0.349408,0.076128,75.5475,11.480001,-20.1425,-26.400002,16.776001,-11.280001,inter_set_rest,4,3.0,19224.0,141064.0,228720.0,280177.0,263400.0
2026-04-08 21:47:42.245640,217306,1609504034466861,1634433352,0.792512,0.349408,0.076128,76.9825,14.84875,-19.1275,-26.400002,16.776001,-11.280001,inter_set_rest,4,3.0,19224.0,141064.0,228720.0,280177.0,263400.0
2026-04-08 21:47:42.247202,217307,1609504034481366,1634448263,0.77104,0.40016,0.064416,64.645,16.178751,-18.85625,-26.528002,17.208,-11.816001,inter_set_rest,4,3.0,19224.0,141064.0,228720.0,280177.0,263400.0
2026-04-08 21:47:42.253770,217308,1609504034490323,1634456989,0.77104,0.40016,0.064416,45.59625,16.09125,-20.39625,-26.528002,17.208,-11.816001,inter_set_rest,4,3.0,19224.0,141064.0,228720.0,280177.0,263400.0
2026-04-08 21:47:42.282515,217309,1609504034499307,1634465669,0.812032,0.310368,0.105408,22.16375,13.3,-23.26625,-26.872002,17.12,-11.544001,inter_set_rest,4,3.0,19224.0,141064.0,228720.0,280177.0,263400.0
2026-04-08 21:47:42.323358,217310,1609504034513781,1634480536,0.812032,0.310368,0.105408,5.27625,11.3925,-19.3025,-26.872002,17.12,-11.544001,inter_set_rest,4,3.0,19224.0,141064.0,228720.0,280177.0,263400.0
2026-04-08 21:47:42.325611,217311,1609504034522723,1634489198,0.837408,0.162016,0.081984,-4.6375,9.91375,-15.4875,-26.656002,16.960001,-13.000001,inter_set_rest,4,3.0,19224.0,141064.0,228720.0,280177.0,263400.0
2026-04-08 21:47:42.330391,217312,1609504034537224,1634504093,0.837408,0.140544,0.033184,-9.8525,8.21625,-14.28875,-26.656002,16.960001,-15.048,inter_set_rest,4,3.0,19224.0,141064.0,228720.0,280177.0,263400.0
2026-04-08 21:47:42.355951,217323,1609504034546330,1634512794,0.80032,0.140544,0.033184,-8.61875,5.83625,-13.53625,-26.920002,16.672,-15.040001,inter_set_rest,4,3.0,19268.0,141255.0,228930.0,280278.0,263413.0
2026-04-08 21:47:42.360195,217324,1609504034560867,1634527655,0.784704,0.154208,0.013664,1.96,3.9375,-14.00875,-26.904001,16.656,-12.928,inter_set_rest,4,3.0,19268.0,141255.0,228930.0,280278.0,263413.0
2026-04-08 21:47:42.361964,217325,1609504034569784,1634536341,0.784704,0.154208,0.013664,20.97375,4.27875,-15.015,-26.904001,16.656,-12.928,inter_set_rest,4,3.0,19268.0,141255.0,228930.0,280278.0,263413.0
2026-04-08 21:47:42.363568,217326,1609504034578699,1634545051,0.851072,0.169824,0.099552,37.625,4.61125,-15.37375,-27.208002,16.824001,-9.200001,inter_set_rest,4,3.0,19268.0,141255.0,228930.0,280278.0,263413.0
2026-04-08 21:47:42.367747,217327,1609504034593261,1634559933,0.851072,0.169824,0.099552,44.38,3.24625,-14.1225,-27.208002,16.824001,-9.200001,inter_set_rest,4,3.0,19268.0,141255.0,228930.0,280278.0,263413.0
2026-04-08 21:47:42.370098,217328,1609504034602230,1634568680,0.864736,0.222528,-0.01952,44.30125,1.26875,-12.32,-27.032001,16.76,-12.000001,inter_set_rest,4,3.0,19268.0,141255.0,228930.0,280278.0,263413.0
2026-04-08 21:47:42.398703,217329,1609504034616752,1634583542,0.864736,0.222528,-0.01952,41.93875,-0.28,-9.80875,-27.032001,16.76,-12.000001,inter_set_rest,4,3.0,19268.0,141255.0,228930.0,280278.0,263413.0
2026-04-08 21:47:42.402377,217330,1609504034625650,1634592202,0.835456,0.275232,-0.081984,37.135,-2.44125,-8.0675,-27.376001,17.016,-13.336,inter_set_rest,4,3.0,19268.0,141255.0,228930.0,280278.0,263413.0
2026-04-08 21:47:42.405750,217331,1609504034640185,1634607071,0.821792,0.259616,0.089792,34.685,-4.375,-8.1375,-27.312002,16.872002,-11.944,inter_set_rest,4,3.0,19268.0,141255.0,228930.0,280278.0,263413.0
2026-04-08 21:47:42.433979,217342,1609504034649592,1634616107,0.821792,0.259616,0.089792,35.27125,-6.615,-8.86375,-27.312002,16.872002,-11.944,inter_set_rest,4,3.0,19359.0,141628.0,229356.0,280587.0,263613.0
2026-04-08 21:47:42.435650,217343,1609504034658538,1634624844,0.84912,0.275232,0.064416,35.2625,-8.75875,-8.68,-27.112001,17.416,-10.976001,inter_set_rest,4,3.0,19359.0,141628.0,229356.0,280587.0,263613.0
2026-04-08 21:47:42.437537,217344,1609504034673025,1634639766,0.84912,0.275232,0.064416,41.37,-11.27875,-6.57125,-27.112001,17.416,-10.976001,inter_set_rest,4,3.0,19359.0,141628.0,229356.0,280587.0,263613.0
2026-04-08 21:47:42.468331,217345,1609504034681966,1634648463,0.866688,0.404064,0.208864,52.6925,-11.55,-4.36625,-26.648,17.512001,-11.624001,inter_set_rest,4,3.0,19359.0,141628.0,229356.0,280587.0,263613.0
2026-04-08 21:47:42.472491,217346,1609504034696453,1634663350,0.866688,0.404064,0.208864,68.03125,-8.3475,-2.24875,-26.648,17.512001,-11.624001,inter_set_rest,4,3.0,19359.0,141628.0,229356.0,280587.0,263613.0
2026-04-08 21:47:42.474410,217347,1609504034705413,1634672013,0.886208,0.413824,0.203008,79.91375,-4.47125,-0.735,-27.064001,17.872002,-11.312,inter_set_rest,4,3.0,19359.0,141628.0,229356.0,280587.0,263613.0
2026-04-08 21:47:42.475914,217348,1609504034714374,1634680701,0.886208,0.413824,0.203008,79.6775,-2.065,0.88375,-27.064001,17.872002,-11.312,inter_set_rest,4,3.0,19359.0,141628.0,229356.0,280587.0,263613.0
2026-04-08 21:47:42.506150,217349,1609504034728852,1634695561,0.79056,0.42944,0.115168,67.97,-1.33,4.48875,-26.816002,18.248001,-9.648001,inter_set_rest,4,3.0,19359.0,141628.0,229356.0,280587.0,263613.0
2026-04-08 21:47:42.510825,217350,1609504034737835,1634704202,0.79056,0.42944,0.115168,49.11375,-2.5375,8.1025,-26.816002,18.248001,-9.648001,inter_set_rest,4,3.0,19359.0,141628.0,229356.0,280587.0,263613.0
2026-04-08 21:47:42.537170,217361,1609504034752481,1634719167,0.796416,0.388448,-0.040992,29.1725,-3.92875,11.62,-26.936,18.664001,-11.280001,inter_set_rest,4,3.0,19396.0,141776.0,229497.0,280753.0,263740.0
2026-04-08 21:47:42.539645,217362,1609504034761439,1634727909,0.804224,0.33184,0.054656,13.055,-5.11,13.16,-26.296001,18.952002,-11.032001,inter_set_rest,4,3.0,19396.0,141776.0,229497.0,280753.0,263740.0
2026-04-08 21:47:42.542065,217363,1609504034776123,1634742810,0.804224,0.33184,0.054656,3.54375,-4.9,14.8925,-26.296001,18.952002,-11.032001,inter_set_rest,4,3.0,19396.0,141776.0,229497.0,280753.0,263740.0
2026-04-08 21:47:42.547131,217364,1609504034785197,1634751545,0.899872,0.27328,0.247904,0.21,-5.0225,17.045,-26.624,18.672,-11.128,inter_set_rest,4,3.0,19396.0,141776.0,229497.0,280753.0,263740.0
2026-04-08 21:47:42.577342,217365,1609504034794158,1634760260,0.899872,0.27328,0.247904,2.68625,-4.94375,18.97,-26.624,18.672,-11.128,inter_set_rest,4,3.0,19396.0,141776.0,229497.0,280753.0,263740.0
2026-04-08 21:47:42.580905,217366,1609504034808588,1634775152,0.948672,0.242048,0.066368,8.365,-4.4625,19.4775,-26.560001,19.232,-10.672001,inter_set_rest,4,3.0,19396.0,141776.0,229497.0,280753.0,263740.0
2026-04-08 21:47:42.584049,217367,1609504034817477,1634783799,0.948672,0.242048,0.066368,13.86875,-3.745,18.48875,-26.560001,19.232,-10.672001,inter_set_rest,4,3.0,19396.0,141776.0,229497.0,280753.0,263740.0
2026-04-08 21:47:42.622394,217368,1609504034831937,1634798655,0.843264,0.324032,-0.050752,17.80625,-2.59,20.27375,-26.152,19.464,-11.088,inter_set_rest,4,3.0,19396.0,141776.0,229497.0,280753.0,263740.0
2026-04-08 21:47:42.625902,217369,1609504034840849,1634807368,0.821792,0.296704,-0.158112,19.76625,-1.2075,22.42625,-25.656002,19.968,-10.672001,inter_set_rest,4,3.0,19396.0,141776.0,229497.0,280753.0,263740.0
2026-04-08 21:47:42.662393,217380,1609504034855382,1634822324,0.821792,0.296704,-0.158112,18.34875,-0.35875,23.9925,-25.656002,19.968,-10.672001,inter_set_rest,4,3.0,19463.0,141997.0,229720.0,280836.0,263758.0
2026-04-08 21:47:42.664688,217381,1609504034864316,1634830992,0.853024,0.2928,0.074176,14.49,-0.4375,24.61375,-25.672,20.472,-10.864,inter_set_rest,4,3.0,19463.0,141997.0,229720.0,280836.0,263758.0
2026-04-08 21:47:42.667221,217382,1609504034873376,1634839664,0.853024,0.2928,0.074176,10.535,-1.3825,25.5675,-25.672,20.472,-10.864,inter_set_rest,4,3.0,19463.0,141997.0,229720.0,280836.0,263758.0
2026-04-08 21:47:42.669704,217383,1609504034887892,1634854544,0.782752,0.269376,-0.128832,12.775,-1.785,27.116251,-25.376001,20.720001,-10.824,inter_set_rest,4,3.0,19463.0,141997.0,229720.0,280836.0,263758.0
2026-04-08 21:47:42.672351,217384,1609504034896845,1634863254,0.782752,0.269376,-0.128832,18.52375,-2.1,28.848751,-25.376001,20.720001,-10.824,inter_set_rest,4,3.0,19463.0,141997.0,229720.0,280836.0,263758.0
2026-04-08 21:47:42.674733,217385,1609504034911338,1634878140,0.876448,0.242048,-0.070272,24.9375,-1.19875,28.315,-25.224,21.184002,-9.512,inter_set_rest,4,3.0,19463.0,141997.0,229720.0,280836.0,263758.0
2026-04-08 21:47:42.704899,217386,1609504034920272,1634886807,0.894016,0.226432,-0.027328,31.0275,-0.0525,26.45125,-24.584002,21.744001,-10.872001,inter_set_rest,4,3.0,19463.0,141997.0,229720.0,280836.0,263758.0
2026-04-08 21:47:42.708392,217387,1609504034929213,1634895459,0.894016,0.226432,-0.027328,34.9125,1.2775,26.34625,-24.584002,21.744001,-10.872001,inter_set_rest,4,3.0,19463.0,141997.0,229720.0,280836.0,263758.0
2026-04-08 21:47:42.710932,217388,1609504034943694,1634910371,0.804224,0.290848,0.025376,32.4625,1.04125,28.56,-24.568,22.032001,-10.440001,inter_set_rest,4,3.0,19463.0,141997.0,229720.0,280836.0,263758.0
2026-04-08 21:47:42.738467,217399,1609504034952722,1634919124,0.804224,0.290848,0.025376,27.51,0.3325,30.28375,-24.568,22.032001,-10.440001,inter_set_rest,4,3.0,19404.0,141748.0,229418.0,280682.0,263697.0
2026-04-08 21:47:42.740926,217400,1609504034967280,1634934030,0.880352,0.284992,0.0488,23.38,-1.47,31.40375,-24.064001,22.904001,-10.072001,inter_set_rest,4,3.0,19404.0,141748.0,229418.0,280682.0,263697.0
2026-04-08 21:47:42.743469,217401,1609504034976255,1634942743,0.880352,0.284992,0.0488,21.98875,-2.1525,31.07125,-24.064001,22.904001,-10.072001,inter_set_rest,4,3.0,19404.0,141748.0,229418.0,280682.0,263697.0
2026-04-08 21:47:42.774587,217402,1609504034990774,1634957640,0.892064,0.298656,-0.132736,25.4275,-2.19625,29.7325,-23.816002,22.912,-9.704,inter_set_rest,4,3.0,19404.0,141748.0,229418.0,280682.0,263697.0
2026-04-08 21:47:42.778910,217403,1609504034999688,1634966301,0.892064,0.298656,-0.132736,29.225,-2.485,27.81625,-23.816002,22.912,-9.704,inter_set_rest,4,3.0,19404.0,141748.0,229418.0,280682.0,263697.0
2026-04-08 21:47:42.780441,217404,1609504035008618,1634974946,0.938912,0.345504,0.140544,36.04125,-1.12875,24.28125,-23.400002,23.632002,-8.952001,inter_set_rest,4,3.0,19404.0,141748.0,229418.0,280682.0,263697.0
2026-04-08 21:47:42.786270,217405,1609504035023074,1634989854,0.960384,0.308416,0.10736,41.37875,-0.48125,22.56625,-23.392,23.800001,-8.016001,inter_set_rest,4,3.0,19404.0,141748.0,229418.0,280682.0,263697.0
2026-04-08 21:47:42.815777,217406,1609504035031989,1634998564,0.960384,0.308416,0.10736,38.45625,-0.56,20.79,-23.392,23.800001,-8.016001,inter_set_rest,4,3.0,19404.0,141748.0,229418.0,280682.0,263697.0
2026-04-08 21:47:42.818026,217407,1609504035046462,1635013411,0.979904,0.300608,0.005856,34.25625,-2.09125,20.79,-23.296001,24.008001,-9.072001,inter_set_rest,4,3.0,19404.0,141748.0,229418.0,280682.0,263697.0
2026-04-08 21:47:42.848492,217418,1609504035055419,1635022101,0.979904,0.300608,0.005856,29.96875,-4.34,20.0025,-23.296001,24.008001,-9.072001,inter_set_rest,4,3.0,19394.0,141675.0,229328.0,280634.0,263848.0
2026-04-08 21:47:42.852141,217419,1609504035069906,1635036990,0.987712,0.406016,-0.0976,30.19625,-6.20375,17.9375,-23.080002,24.424002,-7.920001,inter_set_rest,4,3.0,19394.0,141675.0,229328.0,280634.0,263848.0
2026-04-08 21:47:42.854638,217420,1609504035078944,1635045659,0.987712,0.406016,-0.0976,33.39,-5.6875,14.805,-23.080002,24.424002,-7.920001,inter_set_rest,4,3.0,19394.0,141675.0,229328.0,280634.0,263848.0
2026-04-08 21:47:42.857068,217421,1609504035087890,1635054331,1.065792,0.441152,0.101504,36.23375,-3.89375,10.00125,-23.000002,24.288002,-7.552001,inter_set_rest,4,3.0,19394.0,141675.0,229328.0,280634.0,263848.0
2026-04-08 21:47:42.916067,217422,1609504035102368,1635069210,0.968192,0.31232,-0.046848,35.60375,-2.63375,7.0175,-22.648,24.192001,-12.120001,inter_set_rest,4,3.0,19394.0,141675.0,229328.0,280634.0,263848.0
2026-04-08 21:47:42.919658,217423,1609504035111308,1635077873,0.968192,0.31232,-0.046848,23.1,-3.47375,8.37375,-22.648,24.192001,-12.120001,inter_set_rest,4,3.0,19394.0,141675.0,229328.0,280634.0,263848.0
2026-04-08 21:47:42.922195,217424,1609504035125821,1635092749,0.860832,0.310368,-0.167872,6.11625,-4.89125,9.73875,-22.720001,24.272001,-8.944,inter_set_rest,4,3.0,19394.0,141675.0,229328.0,280634.0,263848.0
2026-04-08 21:47:42.924537,217425,1609504035134768,1635101448,0.860832,0.310368,-0.167872,-1.65375,-5.705,6.72,-22.720001,24.272001,-8.944,inter_set_rest,4,3.0,19394.0,141675.0,229328.0,280634.0,263848.0
2026-04-08 21:47:42.952140,217436,1609504035149650,1635116784,0.977952,0.339648,-0.076128,0.2275,-5.04,2.45,-22.616001,24.696001,-8.88,inter_set_rest,4,3.0,19685.0,142745.0,230467.0,281336.0,264140.0
2026-04-08 21:47:42.954639,217437,1609504035158599,1635125476,0.977952,0.339648,-0.076128,0.035,-2.35375,0.2625,-22.616001,24.696001,-8.88,inter_set_rest,4,3.0,19685.0,142745.0,230467.0,281336.0,264140.0
2026-04-08 21:47:42.959642,217438,1609504035167719,1635134146,0.938912,0.324032,-0.169824,-2.1875,3.77125,0.9275,-22.992,24.392002,-8.68,inter_set_rest,4,3.0,19685.0,142745.0,230467.0,281336.0,264140.0
2026-04-08 21:47:42.962098,217439,1609504035182231,1635149094,0.911584,0.269376,-0.119072,-3.6925,-2.30125,4.655,-22.568,24.696001,-8.84,inter_set_rest,4,3.0,19685.0,142745.0,230467.0,281336.0,264140.0
2026-04-08 21:47:42.964604,217440,1609504035191160,1635157888,0.911584,0.269376,-0.119072,-5.64375,0.67375,4.655,-22.568,24.696001,-8.84,inter_set_rest,4,3.0,19685.0,142745.0,230467.0,281336.0,264140.0
2026-04-08 21:47:42.968354,217441,1609504035205650,1635172797,0.894016,0.288896,-0.081984,-1.155,4.03375,3.675,-22.352001,24.736002,-8.632,inter_set_rest,4,3.0,19685.0,142745.0,230467.0,281336.0,264140.0
2026-04-08 21:47:42.995949,217442,1609504035214600,1635181478,0.894016,0.288896,-0.081984,-2.33625,3.66625,1.0675,-22.352001,24.736002,-8.632,inter_set_rest,4,3.0,19685.0,142745.0,230467.0,281336.0,264140.0
2026-04-08 21:47:42.998355,217443,1609504035223528,1635190152,0.940864,0.304512,-0.06832,-2.065,4.01625,-3.05375,-22.560001,24.608002,-8.592,inter_set_rest,4,3.0,19685.0,142745.0,230467.0,281336.0,264140.0
2026-04-08 21:47:43.000850,217444,1609504035238021,1635204971,0.940864,0.304512,-0.06832,-1.54875,4.4625,-7.2625,-22.560001,24.608002,-8.592,inter_set_rest,4,3.0,19685.0,142745.0,230467.0,281336.0,264140.0
2026-04-08 21:47:43.031100,217445,1609504035246949,1635213684,1.00528,0.279136,0.124928,-3.4825,4.1125,-8.65375,-22.920002,24.512001,-7.368001,inter_set_rest,4,3.0,19685.0,142745.0,230467.0,281336.0,264140.0
2026-04-08 21:47:43.059648,217456,1609504035261440,1635228584,1.00528,0.279136,0.109312,-3.7625,4.83875,-6.02,-22.920002,24.512001,-7.368001,inter_set_rest,4,3.0,19630.0,142395.0,229955.0,280959.0,263943.0
2026-04-08 21:47:43.062116,217457,1609504035270346,1635237241,0.970144,0.316224,0.11712,-5.22375,5.495,-4.41875,-22.512001,24.272001,-7.672,inter_set_rest,4,3.0,19630.0,142395.0,229955.0,280959.0,263943.0
2026-04-08 21:47:43.064710,217458,1609504035284868,1635250119,0.835456,0.325984,-0.083936,-9.135,5.34625,-5.4075,-23.000002,24.504002,-7.888001,inter_set_rest,4,3.0,19630.0,142395.0,229955.0,280959.0,263943.0
2026-04-08 21:47:43.067164,217459,1609504035294198,1635260926,0.835456,0.325984,-0.083936,-14.4375,4.24375,-8.7675,-23.000002,24.504002,-7.888001,inter_set_rest,4,3.0,19630.0,142395.0,229955.0,280959.0,263943.0
2026-04-08 21:47:43.069679,217460,1609504035303143,1635269627,0.853024,0.26352,-0.00976,-20.545,3.61375,-11.4625,-23.056002,24.208002,-8.632,inter_set_rest,4,3.0,19630.0,142395.0,229955.0,280959.0,263943.0
2026-04-08 21:47:43.099983,217461,1609504035317658,1635284486,0.853024,0.26352,-0.00976,-30.6075,2.23125,-13.48375,-23.056002,24.208002,-8.632,inter_set_rest,4,3.0,19630.0,142395.0,229955.0,280959.0,263943.0
2026-04-08 21:47:43.103626,217462,1609504035326672,1635293143,0.81984,0.232288,-0.081984,-38.955,2.31875,-13.545,-23.072,23.592001,-8.944,inter_set_rest,4,3.0,19630.0,142395.0,229955.0,280959.0,263943.0
2026-04-08 21:47:43.106427,217463,1609504035341140,1635308005,0.81984,0.232288,-0.081984,-43.33,3.71875,-11.85625,-23.072,23.592001,-8.944,inter_set_rest,4,3.0,19630.0,142395.0,229955.0,280959.0,263943.0
2026-04-08 21:47:43.139793,217474,1609504035350088,1635316698,0.901824,0.230336,0.085888,-41.326252,5.0575,-11.59375,-23.496,23.696001,-10.256001,inter_set_rest,4,3.0,19575.0,142326.0,229958.0,281002.0,263998.0
2026-04-08 21:47:43.142184,217475,1609504035359651,1635325433,0.901824,0.230336,0.085888,-40.41625,5.1625,-12.38125,-23.496,23.696001,-10.256001,inter_set_rest,4,3.0,19575.0,142326.0,229958.0,281002.0,263998.0
2026-04-08 21:47:43.145097,217476,1609504035374158,1635340376,0.872544,0.228384,-0.142496,-40.18,4.6025,-16.12625,-23.632002,23.560001,-8.008,inter_set_rest,4,3.0,19575.0,142326.0,229958.0,281002.0,263998.0
2026-04-08 21:47:43.152700,217477,1609504035383131,1635349099,0.85888,0.226432,0.081984,-34.08125,4.92625,-20.615,-23.864,23.448002,-8.64,inter_set_rest,4,3.0,19575.0,142326.0,229958.0,281002.0,263998.0
2026-04-08 21:47:43.182682,217478,1609504035397622,1635363987,0.85888,0.226432,0.081984,-32.80375,3.43,-21.55125,-23.864,23.448002,-8.64,inter_set_rest,4,3.0,19575.0,142326.0,229958.0,281002.0,263998.0
2026-04-08 21:47:43.217934,217479,1609504035406574,1635372642,0.845216,0.259616,0.109312,-37.72125,1.49625,-19.85375,-24.064001,22.608002,-9.888001,inter_set_rest,4,3.0,19575.0,142326.0,229958.0,281002.0,263998.0
2026-04-08 21:47:43.236395,217480,1609504035421055,1635387526,0.845216,0.259616,0.109312,-41.265,0.46375,-18.2875,-24.064001,22.608002,-9.888001,inter_set_rest,4,3.0,19575.0,142326.0,229958.0,281002.0,263998.0
2026-04-08 21:47:43.238771,217481,1609504035429966,1635396198,0.88816,0.22448,-0.083936,-43.8025,-0.84,-19.22375,-23.824001,22.376001,-8.464001,inter_set_rest,4,3.0,19575.0,142326.0,229958.0,281002.0,263998.0
2026-04-08 21:47:43.241315,217482,1609504035438891,1635404856,0.88816,0.22448,-0.083936,-45.21125,-2.065,-20.1425,-23.824001,22.376001,-8.464001,inter_set_rest,4,3.0,19575.0,142326.0,229958.0,281002.0,263998.0
2026-04-08 21:47:43.270212,217493,1609504035453464,1635419721,0.901824,0.181536,-0.060512,-44.170002,-3.21125,-20.34375,-23.768002,22.240002,-10.304001,inter_set_rest,4,3.0,19443.0,142053.0,229800.0,281023.0,264084.0
2026-04-08 21:47:43.271878,217494,1609504035462396,1635428385,0.901824,0.181536,-0.060512,-42.34125,-4.0425,-20.1075,-23.768002,22.240002,-10.304001,inter_set_rest,4,3.0,19443.0,142053.0,229800.0,281023.0,264084.0
2026-04-08 21:47:43.273399,217495,1609504035476866,1635443240,0.874496,0.203008,0.171776,-42.8925,-4.38375,-20.0725,-24.544,22.088001,-9.848001,inter_set_rest,4,3.0,19443.0,142053.0,229800.0,281023.0,264084.0
2026-04-08 21:47:43.277680,217496,1609504035485836,1635451952,0.872544,0.160064,-0.03904,-41.965,-4.6375,-20.475,-24.712002,21.384,-10.152,inter_set_rest,4,3.0,19443.0,142053.0,229800.0,281023.0,264084.0
2026-04-08 21:47:43.279359,217497,1609504035500337,1635466883,0.872544,0.160064,-0.03904,-40.71375,-5.52125,-20.685,-24.712002,21.384,-10.152,inter_set_rest,4,3.0,19443.0,142053.0,229800.0,281023.0,264084.0
2026-04-08 21:47:43.281049,217498,1609504035509311,1635475637,0.872544,0.171776,-0.072224,-42.56875,-6.93875,-20.772501,-24.992,21.28,-10.200001,inter_set_rest,4,3.0,19443.0,142053.0,229800.0,281023.0,264084.0
2026-04-08 21:47:43.284991,217499,1609504035518287,1635484322,0.872544,0.171776,-0.072224,-44.835,-9.065,-22.1725,-24.992,21.28,-10.200001,inter_set_rest,4,3.0,19443.0,142053.0,229800.0,281023.0,264084.0
2026-04-08 21:47:43.313500,217500,1609504035532809,1635499198,0.825696,0.177632,-0.050752,-45.08,-10.07125,-22.7325,-24.808,20.928001,-9.776,inter_set_rest,4,3.0,19443.0,142053.0,229800.0,281023.0,264084.0
2026-04-08 21:47:43.318162,217501,1609504035541704,1635507874,0.825696,0.177632,-0.050752,-43.4525,-9.44125,-20.50125,-24.808,20.928001,-9.776,inter_set_rest,4,3.0,19443.0,142053.0,229800.0,281023.0,264084.0
2026-04-08 21:47:43.347278,217512,1609504035556329,1635523236,0.882304,0.169824,0.003904,-42.28875,-8.82,-17.3425,-25.088001,20.072,-12.784,inter_set_rest,4,3.0,19405.0,142108.0,230055.0,281318.0,264308.0
2026-04-08 21:47:43.349668,217513,1609504035565303,1635531960,0.821792,0.228384,0.05856,-41.36125,-9.28375,-15.81125,-25.096,20.104,-11.136001,inter_set_rest,4,3.0,19405.0,142108.0,230055.0,281318.0,264308.0
2026-04-08 21:47:43.352283,217514,1609504035579816,1635546890,0.821792,0.228384,0.05856,-42.13125,-9.24,-16.42375,-25.096,20.104,-11.136001,inter_set_rest,4,3.0,19405.0,142108.0,230055.0,281318.0,264308.0
2026-04-08 21:47:43.354624,217515,1609504035588744,1635555557,0.8784,0.167872,0.072224,-43.3125,-8.79375,-16.4325,-24.984001,19.880001,-12.72,inter_set_rest,4,3.0,19405.0,142108.0,230055.0,281318.0,264308.0
2026-04-08 21:47:43.362662,217516,1609504035597790,1635564247,0.8784,0.167872,0.072224,-43.7675,-7.35,-14.35,-24.984001,19.880001,-12.72,inter_set_rest,4,3.0,19405.0,142108.0,230055.0,281318.0,264308.0
2026-04-08 21:47:43.391167,217517,1609504035612278,1635579202,0.86864,0.150304,0.089792,-43.26,-5.635,-11.515,-24.920002,19.784,-12.440001,inter_set_rest,4,3.0,19405.0,142108.0,230055.0,281318.0,264308.0
2026-04-08 21:47:43.395521,217518,1609504035621168,1635587851,0.86864,0.150304,0.089792,-43.09375,-5.03125,-9.4325,-24.920002,19.784,-12.440001,inter_set_rest,4,3.0,19405.0,142108.0,230055.0,281318.0,264308.0
2026-04-08 21:47:43.399259,217519,1609504035635585,1635602697,0.843264,0.183488,0.216672,-42.30625,-4.62,-8.39125,-25.04,19.552,-13.080001,inter_set_rest,4,3.0,19405.0,142108.0,230055.0,281318.0,264308.0
2026-04-08 21:47:43.429570,217520,1609504035644580,1635611350,0.890112,0.115168,0.05856,-40.2675,-3.6225,-7.98,-25.04,19.552,-13.584001,inter_set_rest,4,3.0,19405.0,142108.0,230055.0,281318.0,264308.0
2026-04-08 21:47:43.458067,217531,1609504035659137,1635624320,0.890112,0.115168,0.05856,-37.45875,-2.33625,-6.5275,-25.136002,19.616001,-13.584001,inter_set_rest,4,3.0,19438.0,142287.0,230325.0,281521.0,264432.0
2026-04-08 21:47:43.459673,217532,1609504035668355,1635635078,0.882304,0.12688,0.011712,-35.69125,-1.0675,-4.89125,-25.152,18.864,-13.592001,inter_set_rest,4,3.0,19438.0,142287.0,230325.0,281521.0,264432.0
2026-04-08 21:47:43.463992,217533,1609504035677304,1635643830,0.882304,0.12688,0.011712,-35.00875,0.3675,-3.33375,-25.152,18.864,-13.592001,inter_set_rest,4,3.0,19438.0,142287.0,230325.0,281521.0,264432.0
2026-04-08 21:47:43.465676,217534,1609504035691826,1635658745,0.913536,0.158112,0.16592,-34.4575,1.505,-1.96,-25.272001,19.240002,-12.768001,inter_set_rest,4,3.0,19438.0,142287.0,230325.0,281521.0,264432.0
2026-04-08 21:47:43.467532,217535,1609504035700812,1635667419,0.913536,0.158112,0.16592,-34.326252,1.67125,0.0525,-25.272001,19.240002,-12.768001,inter_set_rest,4,3.0,19438.0,142287.0,230325.0,281521.0,264432.0
2026-04-08 21:47:43.515770,217536,1609504035715417,1635682384,0.8296,0.199104,0.144448,-35.2275,0.76125,2.96625,-25.496,19.04,-12.040001,inter_set_rest,4,3.0,19438.0,142287.0,230325.0,281521.0,264432.0
2026-04-08 21:47:43.518013,217537,1609504035724333,1635691044,0.8296,0.199104,0.144448,-33.8975,0.02625,5.39,-25.496,19.04,-12.040001,inter_set_rest,4,3.0,19438.0,142287.0,230325.0,281521.0,264432.0
2026-04-08 21:47:43.522655,217538,1609504035733255,1635699703,0.864736,0.167872,0.22448,-30.82625,-0.42875,6.3,-25.072,19.080002,-13.864,inter_set_rest,4,3.0,19438.0,142287.0,230325.0,281521.0,264432.0
2026-04-08 21:47:43.524353,217539,1609504035747714,1635714567,0.876448,0.134688,0.076128,-27.78125,-0.315,7.28,-25.080002,18.912,-14.416,inter_set_rest,4,3.0,19438.0,142287.0,230325.0,281521.0,264432.0
2026-04-08 21:47:43.555228,217550,1609504035756881,1635723266,0.876448,0.134688,0.076128,-26.06625,-0.77,9.02125,-25.080002,18.912,-14.416,inter_set_rest,4,3.0,19441.0,142257.0,230235.0,281456.0,264380.0
2026-04-08 21:47:43.556938,217551,1609504035771415,1635738161,0.89792,0.152256,0.042944,-24.17625,-1.58375,10.22,-24.944,19.080002,-14.216001,inter_set_rest,4,3.0,19441.0,142257.0,230235.0,281456.0,264380.0
2026-04-08 21:47:43.558424,217552,1609504035780349,1635746831,0.89792,0.152256,0.042944,-21.315,-2.31875,10.98125,-24.944,19.080002,-14.216001,inter_set_rest,4,3.0,19441.0,142257.0,230235.0,281456.0,264380.0
2026-04-08 21:47:43.562468,217553,1609504035789405,1635755523,0.913536,0.171776,0.064416,-17.14125,-2.7475,10.96375,-24.624,19.36,-14.712001,inter_set_rest,4,3.0,19441.0,142257.0,230235.0,281456.0,264380.0
2026-04-08 21:47:43.568761,217554,1609504035803886,1635770444,0.913536,0.171776,0.064416,-11.41875,-3.15,11.3225,-24.624,19.36,-14.712001,inter_set_rest,4,3.0,19441.0,142257.0,230235.0,281456.0,264380.0
2026-04-08 21:47:43.597343,217555,1609504035812777,1635779166,0.862784,0.220576,0.122976,-8.9075,-2.40625,11.7075,-24.568,19.336,-14.040001,inter_set_rest,4,3.0,19441.0,142257.0,230235.0,281456.0,264380.0
2026-04-08 21:47:43.601901,217556,1609504035827289,1635794004,0.921344,0.181536,0.20496,-9.96625,-1.75,11.585,-24.592001,19.416,-14.896001,inter_set_rest,4,3.0,19441.0,142257.0,230235.0,281456.0,264380.0
2026-04-08 21:47:43.603473,217557,1609504035836238,1635802666,0.921344,0.181536,0.20496,-12.32,-0.30625,12.136251,-24.592001,19.416,-14.896001,inter_set_rest,4,3.0,19441.0,142257.0,230235.0,281456.0,264380.0
2026-04-08 21:47:43.634506,217558,1609504035850757,1635817558,0.83936,0.179584,0.050752,-15.575,0.8925,13.79875,-24.872002,19.560001,-13.656001,inter_set_rest,4,3.0,19441.0,142257.0,230235.0,281456.0,264380.0
2026-04-08 21:47:43.666905,217569,1609504035859707,1635826241,0.83936,0.179584,0.050752,-16.03,2.17875,15.505,-24.872002,19.560001,-13.656001,inter_set_rest,4,3.0,19463.0,142326.0,230335.0,281523.0,264422.0
2026-04-08 21:47:43.668447,217570,1609504035874145,1635841074,0.931104,0.167872,0.20496,-13.825,3.08,15.96,-24.376001,19.76,-14.504001,inter_set_rest,4,3.0,19463.0,142326.0,230335.0,281523.0,264422.0
2026-04-08 21:47:43.676427,217571,1609504035883060,1635849731,0.931104,0.167872,0.20496,-12.10125,3.17625,15.77625,-24.376001,19.76,-14.504001,inter_set_rest,4,3.0,19463.0,142326.0,230335.0,281523.0,264422.0
2026-04-08 21:47:43.678130,217572,1609504035892000,1635858455,0.884256,0.22448,0.230336,-10.22,3.8325,15.61,-24.368002,19.744001,-14.624001,inter_set_rest,4,3.0,19463.0,142326.0,230335.0,281523.0,264422.0
2026-04-08 21:47:43.680569,217573,1609504035906545,1635873366,0.911584,0.177632,0.035136,-8.7325,4.85625,15.6625,-24.384,19.720001,-12.944,inter_set_rest,4,3.0,19463.0,142326.0,230335.0,281523.0,264422.0
2026-04-08 21:47:43.682130,217574,1609504035915482,1635882052,0.911584,0.177632,0.035136,-9.49375,5.48625,16.52875,-24.384,19.720001,-12.944,inter_set_rest,4,3.0,19463.0,142326.0,230335.0,281523.0,264422.0
2026-04-08 21:47:43.713333,217575,1609504035930039,1635896916,0.94672,0.169824,0.240096,-13.440001,6.0725,16.93125,-24.336,20.048,-14.776001,inter_set_rest,4,3.0,19463.0,142326.0,230335.0,281523.0,264422.0
2026-04-08 21:47:43.717709,217576,1609504035938955,1635905572,0.94672,0.169824,0.240096,-17.85,6.055,17.00125,-24.336,20.048,-14.776001,inter_set_rest,4,3.0,19463.0,142326.0,230335.0,281523.0,264422.0
2026-04-08 21:47:43.719484,217577,1609504035947971,1635914265,0.944768,0.148352,0.267424,-22.0675,5.81,16.47625,-23.992,19.744001,-15.488001,inter_set_rest,4,3.0,19463.0,142326.0,230335.0,281523.0,264422.0
2026-04-08 21:47:43.749415,217588,1609504035962782,1635929377,0.944768,0.148352,0.267424,-24.00125,5.8625,15.46125,-23.992,19.744001,-15.488001,inter_set_rest,4,3.0,19448.0,142326.0,230327.0,281535.0,264400.0
2026-04-08 21:47:43.751076,217589,1609504035971696,1635938066,0.962336,0.124928,0.189344,-22.2775,5.55625,14.105001,-24.128,20.352001,-14.128,inter_set_rest,4,3.0,19448.0,142326.0,230327.0,281535.0,264400.0
2026-04-08 21:47:43.755186,217590,1609504035986208,1635953049,0.962336,0.124928,0.0488,-19.32875,5.34625,13.055,-24.128,20.352001,-14.128,inter_set_rest,4,3.0,19448.0,142326.0,230327.0,281535.0,264400.0
2026-04-08 21:47:43.757620,217591,1609504035995162,1635961743,0.854976,0.148352,0.050752,-15.61875,5.5825,12.45125,-23.808,20.224,-14.968,inter_set_rest,4,3.0,19448.0,142326.0,230327.0,281535.0,264400.0
2026-04-08 21:47:43.819145,217592,1609504036009646,1635976621,0.899872,0.11712,0.08784,-12.24125,5.495,12.39,-23.768002,20.12,-14.048,inter_set_rest,4,3.0,19448.0,142326.0,230327.0,281535.0,264400.0
2026-04-08 21:47:43.820707,217593,1609504036018611,1635985279,0.899872,0.11712,0.08784,-11.03375,5.1975,11.83,-23.768002,20.12,-14.048,inter_set_rest,4,3.0,19448.0,142326.0,230327.0,281535.0,264400.0
2026-04-08 21:47:43.822257,217594,1609504036027547,1635993959,0.972096,0.103456,0.171776,-12.136251,4.94375,11.48875,-23.52,20.304,-16.144001,inter_set_rest,4,3.0,19448.0,142326.0,230327.0,281535.0,264400.0
2026-04-08 21:47:43.826482,217595,1609504036042053,1636008797,0.972096,0.103456,0.171776,-12.66125,4.06,11.305,-23.52,20.304,-16.144001,inter_set_rest,4,3.0,19448.0,142326.0,230327.0,281535.0,264400.0
2026-04-08 21:47:43.828225,217596,1609504036050988,1636017514,0.935008,0.089792,0.122976,-12.145,2.96625,11.61125,-23.648,20.344002,-15.192,inter_set_rest,4,3.0,19448.0,142326.0,230327.0,281535.0,264400.0
2026-04-08 21:47:43.856446,217607,1609504036065518,1636032492,0.935008,0.089792,0.122976,-10.42125,2.05625,11.48875,-23.648,20.344002,-15.192,inter_set_rest,4,3.0,19495.0,142393.0,230406.0,281549.0,264418.0
2026-04-08 21:47:43.858176,217608,1609504036074457,1636041225,0.89792,0.08784,0.081984,-6.265,2.3625,11.8125,-23.616001,20.392,-11.6,inter_set_rest,4,3.0,19495.0,142393.0,230406.0,281549.0,264418.0
2026-04-08 21:47:43.860610,217609,1609504036089014,1636056157,0.899872,0.093696,0.163968,-1.30375,3.29,11.75125,-23.488,20.664001,-12.84,inter_set_rest,4,3.0,19495.0,142393.0,230406.0,281549.0,264418.0
2026-04-08 21:47:43.862594,217610,1609504036097989,1636064818,0.899872,0.093696,0.163968,3.5,3.675,12.03125,-23.488,20.664001,-12.84,inter_set_rest,4,3.0,19495.0,142393.0,230406.0,281549.0,264418.0
2026-04-08 21:47:43.872569,217611,1609504036106942,1636073561,0.899872,0.093696,0.242048,6.195,3.75375,11.71625,-23.488,20.664001,-12.84,inter_set_rest,4,3.0,19495.0,142393.0,230406.0,281549.0,264418.0
2026-04-08 21:47:43.901274,217612,1609504036121426,1636088429,0.935008,0.121024,0.247904,5.38125,3.85875,11.445,-23.6,20.712002,-12.256001,inter_set_rest,4,3.0,19495.0,142393.0,230406.0,281549.0,264418.0
2026-04-08 21:47:43.905601,217613,1609504036130330,1636097070,0.856928,0.121024,-0.003904,5.32,3.6925,10.6225,-23.224,20.768002,-14.856001,inter_set_rest,4,3.0,19495.0,142393.0,230406.0,281549.0,264418.0
2026-04-08 21:47:43.909415,217614,1609504036144853,1636111940,0.856928,0.121024,-0.003904,6.0025,3.40375,10.56125,-23.224,20.768002,-14.856001,inter_set_rest,4,3.0,19495.0,142393.0,230406.0,281549.0,264418.0
2026-04-08 21:47:43.944387,217625,1609504036153763,1636120733,0.890112,0.128832,0.142496,7.06125,2.9575,10.6225,-23.448002,21.224,-13.64,inter_set_rest,4,3.0,19486.0,142377.0,230386.0,281526.0,264404.0
2026-04-08 21:47:43.946867,217626,1609504036168290,1636133772,0.845216,0.111264,0.12688,7.4375,2.82625,9.79125,-23.52,21.320002,-12.048,inter_set_rest,4,3.0,19486.0,142377.0,230386.0,281526.0,264404.0
2026-04-08 21:47:43.952705,217627,1609504036177673,1636144541,0.845216,0.111264,0.12688,9.695,2.7475,9.7475,-23.52,21.320002,-12.048,inter_set_rest,4,3.0,19486.0,142377.0,230386.0,281526.0,264404.0
2026-04-08 21:47:43.955163,217628,1609504036186648,1636153260,0.845216,0.111264,0.12688,13.22125,2.625,10.22,-23.52,21.320002,-12.048,inter_set_rest,4,3.0,19486.0,142377.0,230386.0,281526.0,264404.0
2026-04-08 21:47:43.983681,217629,1609504036201198,1636168117,0.9272,0.103456,0.197152,16.625,2.63375,10.33375,-23.12,21.632002,-13.688001,inter_set_rest,4,3.0,19486.0,142377.0,230386.0,281526.0,264404.0
2026-04-08 21:47:43.988102,217630,1609504036210113,1636176802,0.95648,0.08784,0.050752,17.955,1.9775,9.835,-23.008001,21.624,-14.464001,inter_set_rest,4,3.0,19486.0,142377.0,230386.0,281526.0,264404.0
2026-04-08 21:47:43.989730,217631,1609504036224578,1636191673,0.95648,0.08784,0.050752,18.5675,1.33875,8.53125,-23.008001,21.624,-14.464001,inter_set_rest,4,3.0,19486.0,142377.0,230386.0,281526.0,264404.0
2026-04-08 21:47:43.997512,217632,1609504036233477,1636200308,1.009184,0.115168,0.251808,19.897501,0.175,7.665,-22.872002,22.000002,-14.048,inter_set_rest,4,3.0,19486.0,142377.0,230386.0,281526.0,264404.0
2026-04-08 21:47:44.026165,217633,1609504036242447,1636208974,1.009184,0.115168,0.251808,21.32375,-0.3325,7.7525,-22.872002,22.000002,-14.048,inter_set_rest,4,3.0,19486.0,142377.0,230386.0,281526.0,264404.0
2026-04-08 21:47:44.056467,217644,1609504036257436,1636223910,0.938912,0.08784,0.046848,24.28125,-0.945,8.12875,-22.824001,22.36,-13.952001,inter_set_rest,4,3.0,19420.0,142113.0,230054.0,281320.0,264280.0
2026-04-08 21:47:44.058161,217645,1609504036266430,1636232618,0.938912,0.08784,0.046848,29.7325,-1.68,7.88375,-22.824001,22.36,-13.952001,inter_set_rest,4,3.0,19420.0,142113.0,230054.0,281320.0,264280.0
2026-04-08 21:47:44.059742,217646,1609504036280918,1636247507,0.886208,0.132736,0.148352,34.475,-1.98625,6.85125,-22.688002,22.576,-12.112,inter_set_rest,4,3.0,19420.0,142113.0,230054.0,281320.0,264280.0
2026-04-08 21:47:44.063825,217647,1609504036289846,1636256223,0.972096,0.0976,0.013664,38.21125,-2.28375,6.46625,-22.480001,22.376001,-15.232,inter_set_rest,4,3.0,19420.0,142113.0,230054.0,281320.0,264280.0
2026-04-08 21:47:44.068792,217648,1609504036304363,1636271131,0.972096,0.0976,0.013664,41.09875,-1.77625,6.02,-22.480001,22.376001,-15.232,inter_set_rest,4,3.0,19420.0,142113.0,230054.0,281320.0,264280.0
2026-04-08 21:47:44.121537,217649,1609504036313297,1636279820,0.90768,0.169824,0.046848,39.0425,-1.07625,7.20125,-22.36,22.472,-13.056001,inter_set_rest,4,3.0,19420.0,142113.0,230054.0,281320.0,264280.0
2026-04-08 21:47:44.123119,217650,1609504036322213,1636288463,0.90768,0.169824,0.046848,35.5075,0.04375,7.9275,-22.36,22.472,-13.056001,inter_set_rest,4,3.0,19420.0,142113.0,230054.0,281320.0,264280.0
2026-04-08 21:47:44.124738,217651,1609504036336692,1636303352,0.950624,0.150304,0.222528,34.85125,2.35375,9.09125,-22.024,23.176,-13.024,inter_set_rest,4,3.0,19420.0,142113.0,230054.0,281320.0,264280.0
2026-04-08 21:47:44.128825,217652,1609504036345594,1636312035,0.950624,0.150304,0.222528,32.235,4.33125,8.6275,-22.024,23.176,-13.024,inter_set_rest,4,3.0,19420.0,142113.0,230054.0,281320.0,264280.0
2026-04-08 21:47:44.155586,217663,1609504036360225,1636327292,0.94672,0.128832,0.015616,28.77875,5.29375,8.89875,-22.192001,23.296001,-12.184001,inter_set_rest,4,3.0,19423.0,142126.0,230082.0,281330.0,264298.0
2026-04-08 21:47:44.158068,217664,1609504036369213,1636335968,0.976,0.148352,0.199104,27.16,5.97625,8.25125,-22.192001,23.296001,-11.512,inter_set_rest,4,3.0,19423.0,142126.0,230082.0,281330.0,264298.0
2026-04-08 21:47:44.161156,217665,1609504036378200,1636344680,0.976,0.148352,0.199104,27.32625,7.58625,7.63875,-22.000002,23.488,-11.512,inter_set_rest,4,3.0,19423.0,142126.0,230082.0,281330.0,264298.0
2026-04-08 21:47:44.164541,217666,1609504036392766,1636359575,0.950624,0.171776,0.187392,23.77375,9.28375,9.4675,-21.992,23.68,-11.384001,inter_set_rest,4,3.0,19423.0,142126.0,230082.0,281330.0,264298.0
2026-04-08 21:47:44.167049,217667,1609504036401675,1636368259,0.950624,0.171776,0.187392,19.08375,10.85875,11.92625,-21.992,23.68,-11.384001,inter_set_rest,4,3.0,19423.0,142126.0,230082.0,281330.0,264298.0
2026-04-08 21:47:44.198346,217668,1609504036416169,1636383143,0.876448,0.132736,0.001952,16.205,11.2875,11.78625,-22.088001,23.752,-10.904,inter_set_rest,4,3.0,19423.0,142126.0,230082.0,281330.0,264298.0
2026-04-08 21:47:44.200568,217669,1609504036425076,1636391864,0.876448,0.132736,0.001952,12.10125,10.885,10.57875,-22.088001,23.752,-10.904,inter_set_rest,4,3.0,19423.0,142126.0,230082.0,281330.0,264298.0
2026-04-08 21:47:44.205076,217670,1609504036439567,1636404722,0.929152,0.12688,0.162016,5.9325,9.511251,10.9725,-21.856,23.864,-11.864,inter_set_rest,4,3.0,19423.0,142126.0,230082.0,281330.0,264298.0
2026-04-08 21:47:44.233488,217671,1609504036448773,1636415464,0.929152,0.12688,0.162016,4.5325,8.5925,10.08875,-21.856,23.864,-11.864,inter_set_rest,4,3.0,19423.0,142126.0,230082.0,281330.0,264298.0
2026-04-08 21:47:44.299686,217682,1609504036458231,1636424161,0.905728,0.074176,0.031232,8.09375,8.61,9.065,-22.192001,24.136002,-10.712001,inter_set_rest,4,3.0,19320.0,141775.0,229671.0,281080.0,264162.0
2026-04-08 21:47:44.303922,217683,1609504036472771,1636439033,0.892064,0.119072,0.160064,7.98,8.16375,7.98875,-21.640001,24.000002,-11.152,inter_set_rest,4,3.0,19320.0,141775.0,229671.0,281080.0,264162.0
2026-04-08 21:47:44.305683,217684,1609504036481676,1636447730,0.892064,0.119072,0.160064,8.60125,7.11375,7.46375,-21.640001,24.000002,-11.152,inter_set_rest,4,3.0,19320.0,141775.0,229671.0,281080.0,264162.0
2026-04-08 21:47:44.307331,217685,1609504036496191,1636462633,0.813984,0.128832,0.005856,9.24875,6.41375,7.1225,-21.664001,24.144001,-9.056001,inter_set_rest,4,3.0,19320.0,141775.0,229671.0,281080.0,264162.0
2026-04-08 21:47:44.311441,217686,1609504036505100,1636471285,0.813984,0.128832,0.005856,8.75,5.285,6.4925,-21.664001,24.144001,-9.056001,inter_set_rest,4,3.0,19320.0,141775.0,229671.0,281080.0,264162.0
2026-04-08 21:47:44.313130,217687,1609504036514001,1636479925,0.903776,0.115168,0.261568,6.60625,3.96375,5.22375,-21.416,24.344002,-11.064,inter_set_rest,4,3.0,19320.0,141775.0,229671.0,281080.0,264162.0
