pc_time,serial_num,sensor_ts,host_ts,ax,ay,az,gx,gy,gz,mx,my,mz,phase,rpe,weight_kg,ppg_a,ppg_b,ppg_c,ppg_d,ppg_e
2026-04-08 21:36:26.364981,90190,1609503358465837,958432873,-1.184864,0.427488,0.25376,-3.99,-0.9975,9.23125,20.864,-26.752,5.784,eccentric,3,3.0,21956.0,151370.0,241195.0,290455.0,268583.0
2026-04-08 21:36:26.367457,90191,1609503358474746,958441523,-1.184864,0.427488,0.25376,0.00875,-0.735,10.57875,20.864,-26.752,5.784,eccentric,3,3.0,21956.0,151370.0,241195.0,290455.0,268583.0
2026-04-08 21:36:26.370509,90192,1609503358489253,958456363,-1.169248,0.368928,0.163968,4.6025,-0.5075,10.4125,20.480001,-26.904001,5.792,eccentric,3,3.0,21956.0,151370.0,241195.0,290455.0,268583.0
2026-04-08 21:36:26.372461,90193,1609503358498175,958465044,-1.169248,0.368928,0.163968,5.8275,-0.58625,9.96625,20.480001,-26.904001,5.792,eccentric,3,3.0,21956.0,151370.0,241195.0,290455.0,268583.0
2026-04-08 21:36:26.375110,90194,1609503358507101,958473768,-1.175104,0.339648,0.134688,3.9725,-2.16125,10.28125,20.36,-26.760002,6.28,eccentric,3,3.0,21956.0,151370.0,241195.0,290455.0,268583.0
2026-04-08 21:36:26.377876,90195,1609503358521607,958488655,-1.138016,0.345504,0.144448,3.42125,-2.72125,9.93125,20.376001,-27.032001,6.16,eccentric,3,3.0,21956.0,151370.0,241195.0,290455.0,268583.0
2026-04-08 21:36:26.379952,90196,1609503358530569,958497371,-1.138016,0.345504,0.144448,5.7225,-3.08875,8.70625,20.376001,-27.032001,6.16,eccentric,3,3.0,21956.0,151370.0,241195.0,290455.0,268583.0
2026-04-08 21:36:26.410143,90197,1609503358545071,958510246,-1.046272,0.359168,0.329888,11.795,-2.37125,7.23625,19.784,-27.264002,6.368001,eccentric,3,3.0,21956.0,151370.0,241195.0,290455.0,268583.0
2026-04-08 21:36:26.442551,90208,1609503358554551,958521070,-1.046272,0.359168,0.329888,17.928751,-0.56,6.6325,19.784,-27.264002,6.368001,eccentric,3,3.0,21959.0,151405.0,241240.0,290457.0,268583.0
2026-04-08 21:36:26.444949,90209,1609503358563669,958529758,-1.085312,0.335744,0.173728,21.00875,-0.2275,7.3675,20.04,-27.248001,5.616,eccentric,3,3.0,21959.0,151405.0,241240.0,290457.0,268583.0
2026-04-08 21:36:26.448429,90210,1609503358578130,958544703,-1.085312,0.335744,0.173728,19.50375,-1.05875,7.595,20.04,-27.248001,5.616,eccentric,3,3.0,21959.0,151405.0,241240.0,290457.0,268583.0
2026-04-08 21:36:26.450016,90211,1609503358587153,958553398,-1.067744,0.35136,0.294752,17.24625,-0.90125,7.48125,19.432001,-27.44,5.256,eccentric,3,3.0,21959.0,151405.0,241240.0,290457.0,268583.0
2026-04-08 21:36:26.454766,90212,1609503358601671,958568336,-1.081408,0.36112,0.290848,15.715,0.42,6.3525,19.264002,-27.248001,7.424,eccentric,3,3.0,21959.0,151405.0,241240.0,290457.0,268583.0
2026-04-08 21:36:26.457932,90213,1609503358610596,958577011,-1.081408,0.36112,0.290848,15.2075,2.86125,4.6725,19.264002,-27.248001,7.424,eccentric,3,3.0,21959.0,151405.0,241240.0,290457.0,268583.0
2026-04-08 21:36:26.487682,90214,1609503358625115,958591876,-1.089216,0.394304,0.298656,16.73875,5.11,5.11875,19.144001,-27.536001,5.256,eccentric,3,3.0,21959.0,151405.0,241240.0,290457.0,268583.0
2026-04-08 21:36:26.491278,90215,1609503358634025,958600561,-1.089216,0.394304,0.298656,21.23625,6.53625,8.02375,19.144001,-27.536001,5.256,eccentric,3,3.0,21959.0,151405.0,241240.0,290457.0,268583.0
2026-04-08 21:36:26.493762,90216,1609503358642927,958609215,-1.104832,0.35136,0.363072,26.215,7.5075,8.19,19.048,-27.640001,4.0,eccentric,3,3.0,21959.0,151405.0,241240.0,290457.0,268583.0
2026-04-08 21:36:26.528510,90227,1609503358657902,958624401,-1.104832,0.35136,0.363072,26.635,7.77,6.46625,19.048,-27.640001,4.0,eccentric,3,3.0,21869.0,151100.0,240875.0,290228.0,268441.0
2026-04-08 21:36:26.529959,90228,1609503358666900,958633174,-1.11264,0.335744,0.162016,22.91625,6.7725,5.285,18.912,-27.880001,5.416,eccentric,3,3.0,21869.0,151100.0,240875.0,290228.0,268441.0
2026-04-08 21:36:26.534175,90229,1609503358681441,958648137,-1.11264,0.398208,0.189344,21.35,5.10125,3.5525,18.912,-27.880001,5.416,eccentric,3,3.0,21869.0,151100.0,240875.0,290228.0,268441.0
2026-04-08 21:36:26.538912,90230,1609503358690393,958656850,-1.167296,0.398208,0.189344,26.5125,5.22375,0.98,18.480001,-27.576002,6.624001,eccentric,3,3.0,21869.0,151100.0,240875.0,290228.0,268441.0
2026-04-08 21:36:26.568660,90231,1609503358699357,958665535,-1.167296,0.398208,0.189344,28.76125,5.95,-0.02625,18.480001,-27.576002,6.624001,eccentric,3,3.0,21869.0,151100.0,240875.0,290228.0,268441.0
2026-04-08 21:36:26.573047,90232,1609503358713854,958680400,-1.15168,0.411872,0.275232,27.02875,5.48625,1.09375,18.848001,-27.448002,4.912,eccentric,3,3.0,21869.0,151100.0,240875.0,290228.0,268441.0
2026-04-08 21:36:26.574559,90233,1609503358722773,958689077,-1.100928,0.349408,0.279136,20.1775,3.85875,0.42875,18.960001,-27.720001,4.896,eccentric,3,3.0,21869.0,151100.0,240875.0,290228.0,268441.0
2026-04-08 21:36:26.632409,90234,1609503358737332,958703960,-1.100928,0.349408,0.279136,14.67375,1.95125,-2.37125,18.960001,-27.720001,4.896,eccentric,3,3.0,21869.0,151100.0,240875.0,290228.0,268441.0
2026-04-08 21:36:26.636855,90235,1609503358746242,958712650,-1.040416,0.320128,0.314272,13.09875,1.16375,-5.425,18.76,-27.720001,4.184,eccentric,3,3.0,21869.0,151100.0,240875.0,290228.0,268441.0
2026-04-08 21:36:26.662492,90246,1609503358760847,958727632,-1.040416,0.320128,0.314272,16.70375,2.19625,-7.77,18.76,-27.720001,4.184,eccentric,3,3.0,21835.0,150972.0,240783.0,290180.0,268444.0
2026-04-08 21:36:26.665007,90247,1609503358769819,958736290,-1.050176,0.296704,0.335744,20.23875,3.6575,-9.415,18.880001,-27.232,2.448,eccentric,3,3.0,21835.0,150972.0,240783.0,290180.0,268444.0
2026-04-08 21:36:26.667523,90248,1609503358778763,958744970,-1.050176,0.296704,0.335744,22.02375,4.2525,-9.44125,18.880001,-27.232,2.448,eccentric,3,3.0,21835.0,150972.0,240783.0,290180.0,268444.0
2026-04-08 21:36:26.670074,90249,1609503358793219,958759813,-1.108736,0.3416,0.203008,22.16375,4.9,-8.67125,19.088001,-27.264002,3.152,eccentric,3,3.0,21835.0,150972.0,240783.0,290180.0,268444.0
2026-04-08 21:36:26.672439,90250,1609503358802155,958768524,-1.108736,0.294752,0.320128,22.5925,4.8825,-10.59625,19.088001,-27.264002,3.152,eccentric,3,3.0,21835.0,150972.0,240783.0,290180.0,268444.0
2026-04-08 21:36:26.675012,90251,1609503358816698,958783401,-0.979904,0.294752,0.320128,24.710001,4.725,-15.60125,18.808,-26.808,2.96,eccentric,3,3.0,21835.0,150972.0,240783.0,290180.0,268444.0
2026-04-08 21:36:26.677637,90252,1609503358825615,958792075,-1.11264,0.269376,0.042944,24.7625,4.90875,-18.366251,18.784,-27.256,2.712,eccentric,3,3.0,21835.0,150972.0,240783.0,290180.0,268444.0
2026-04-08 21:36:26.707743,90253,1609503358840143,958807004,-1.11264,0.269376,0.042944,21.9975,5.355,-18.2875,18.784,-27.256,2.712,eccentric,3,3.0,21835.0,150972.0,240783.0,290180.0,268444.0
2026-04-08 21:36:26.711287,90254,1609503358849109,958815688,-0.997472,0.337696,0.26352,18.515,6.97375,-18.17375,18.936,-26.904001,2.552,eccentric,3,3.0,21835.0,150972.0,240783.0,290180.0,268444.0
2026-04-08 21:36:26.742513,90265,1609503358858202,958824382,-0.997472,0.337696,0.26352,15.96,8.4525,-21.00875,18.936,-26.904001,2.552,eccentric,3,3.0,21767.0,150645.0,240343.0,289922.0,268286.0
2026-04-08 21:36:26.744977,90266,1609503358872794,958839316,-1.009184,0.318176,0.181536,12.78375,10.185,-24.40375,19.160002,-26.488,2.52,eccentric,3,3.0,21767.0,150645.0,240343.0,289922.0,268286.0
2026-04-08 21:36:26.747472,90267,1609503358881778,958848057,-1.009184,0.318176,0.181536,4.48875,10.99875,-24.07125,19.160002,-26.488,2.52,eccentric,3,3.0,21767.0,150645.0,240343.0,289922.0,268286.0
2026-04-08 21:36:26.750023,90268,1609503358896324,958862947,-0.972096,0.271328,0.189344,1.47,11.025,-22.505,19.272001,-26.664001,2.28,eccentric,3,3.0,21767.0,150645.0,240343.0,289922.0,268286.0
2026-04-08 21:36:26.752501,90269,1609503358905278,958871663,-1.04432,0.191296,0.085888,5.0225,11.85625,-24.77125,19.720001,-26.160002,3.216,eccentric,3,3.0,21767.0,150645.0,240343.0,289922.0,268286.0
2026-04-08 21:36:26.782750,90270,1609503358914201,958880380,-1.04432,0.191296,0.085888,4.6375,12.8625,-26.460001,19.720001,-26.160002,3.216,eccentric,3,3.0,21767.0,150645.0,240343.0,289922.0,268286.0
2026-04-08 21:36:26.786243,90271,1609503358928673,958895299,-1.114592,0.316224,0.095648,1.365,14.595,-26.55625,19.84,-26.024002,2.352,eccentric,3,3.0,21767.0,150645.0,240343.0,289922.0,268286.0
2026-04-08 21:36:26.788731,90272,1609503358937581,958903955,-1.114592,0.316224,0.095648,-0.23625,15.61875,-27.2825,19.84,-26.024002,2.352,eccentric,3,3.0,21767.0,150645.0,240343.0,289922.0,268286.0
2026-04-08 21:36:26.819009,90273,1609503358952085,958918829,-1.098976,0.314272,0.054656,0.67375,15.93375,-29.855,20.032001,-25.528002,2.32,eccentric,3,3.0,21767.0,150645.0,240343.0,289922.0,268286.0
2026-04-08 21:36:26.851213,90284,1609503358961136,958927561,-1.098976,0.314272,0.054656,-3.15,15.23375,-32.138752,20.032001,-25.528002,2.32,eccentric,3,3.0,21780.0,150677.0,240535.0,290093.0,268376.0
2026-04-08 21:36:26.853728,90285,1609503358975621,958942432,-1.036512,0.28304,0.191296,-5.39875,14.315001,-33.775,20.464,-25.504002,2.296,eccentric,3,3.0,21780.0,150677.0,240535.0,290093.0,268376.0
2026-04-08 21:36:26.857816,90286,1609503358984581,958951118,-0.989664,0.152256,0.0,-6.02,16.63375,-36.49625,20.088001,-25.136002,4.312,eccentric,3,3.0,21780.0,150677.0,240535.0,290093.0,268376.0
2026-04-08 21:36:26.859695,90287,1609503358993637,958959828,-0.989664,0.152256,0.0,-15.56625,20.3175,-37.607502,20.088001,-25.136002,4.312,eccentric,3,3.0,21780.0,150677.0,240535.0,290093.0,268376.0
2026-04-08 21:36:26.861664,90288,1609503359008198,958974729,-1.067744,0.325984,0.064416,-28.385,23.65125,-35.14875,20.408,-24.976002,4.376,eccentric,3,3.0,21780.0,150677.0,240535.0,290093.0,268376.0
2026-04-08 21:36:26.863705,90289,1609503359017132,958983434,-1.067744,0.325984,0.064416,-27.3,29.1025,-36.47,20.408,-24.976002,4.376,eccentric,3,3.0,21780.0,150677.0,240535.0,290093.0,268376.0
2026-04-08 21:36:26.894026,90290,1609503359031605,958998295,-1.059936,0.27328,0.091744,-15.8025,32.7425,-43.645,21.392,-24.560001,2.248,eccentric,3,3.0,21780.0,150677.0,240535.0,290093.0,268376.0
2026-04-08 21:36:26.933185,90291,1609503359040545,959006976,-1.059936,0.27328,0.091744,-11.0075,33.57375,-46.655,21.392,-24.560001,2.248,eccentric,3,3.0,21780.0,150677.0,240535.0,290093.0,268376.0
2026-04-08 21:36:26.967574,90302,1609503359055024,959022222,-1.075552,0.035136,0.095648,-13.48375,29.645,-46.54125,21.536001,-24.088001,2.0,eccentric,3,3.0,21913.0,151323.0,241428.0,290654.0,268634.0
2026-04-08 21:36:26.970012,90303,1609503359063980,959030920,-1.075552,0.066368,-0.091744,-23.84375,21.84875,-46.357502,21.536001,-24.088001,2.0,eccentric,3,3.0,21913.0,151323.0,241428.0,290654.0,268634.0
2026-04-08 21:36:26.972485,90304,1609503359072896,959039569,-1.059936,0.066368,-0.091744,-35.35,19.41625,-47.425,22.128,-23.704,2.672,eccentric,3,3.0,21913.0,151323.0,241428.0,290654.0,268634.0
2026-04-08 21:36:26.974964,90305,1609503359087389,959054462,-0.933056,0.25376,0.152256,-31.57,17.78875,-51.87875,22.640001,-22.752,2.416,eccentric,3,3.0,21913.0,151323.0,241428.0,290654.0,268634.0
2026-04-08 21:36:26.977791,90306,1609503359096295,959063146,-0.933056,0.25376,0.152256,-17.5,16.616251,-55.475,22.640001,-22.752,2.416,eccentric,3,3.0,21913.0,151323.0,241428.0,290654.0,268634.0
2026-04-08 21:36:26.979972,90307,1609503359110862,959076051,-0.944768,0.167872,0.25376,-4.3925,15.47875,-57.12,22.696001,-22.640001,3.592,eccentric,3,3.0,21913.0,151323.0,241428.0,290654.0,268634.0
2026-04-08 21:36:26.982521,90308,1609503359120160,959086815,-0.944768,0.167872,0.25376,-4.62875,12.573751,-57.015,22.696001,-22.640001,3.592,eccentric,3,3.0,21913.0,151323.0,241428.0,290654.0,268634.0
2026-04-08 21:36:26.984957,90309,1609503359129210,959095490,-0.944768,0.00976,0.1952,-15.46125,10.6575,-55.72,23.136002,-21.936,2.624,eccentric,3,3.0,21913.0,151323.0,241428.0,290654.0,268634.0
2026-04-08 21:36:26.989958,90310,1609503359143717,959110452,-0.944768,0.00976,0.1952,-25.41,9.77375,-54.39,23.136002,-21.936,2.624,eccentric,3,3.0,21913.0,151323.0,241428.0,290654.0,268634.0
2026-04-08 21:36:26.998742,90311,1609503359152643,959119270,-0.993568,0.01952,-0.177632,-35.07,8.25125,-53.4275,23.552002,-21.800001,3.52,eccentric,3,3.0,21913.0,151323.0,241428.0,290654.0,268634.0
2026-04-08 21:36:27.026205,90322,1609503359167267,959134252,-0.987712,0.111264,0.083936,-36.68875,7.93625,-51.975,23.624,-21.072,4.016,eccentric,3,3.0,22061.0,151946.0,242183.0,291140.0,268911.0
2026-04-08 21:36:27.028692,90323,1609503359176201,959142966,-0.987712,0.111264,0.083936,-26.4425,8.2775,-52.10625,23.624,-21.072,4.016,eccentric,3,3.0,22061.0,151946.0,242183.0,291140.0,268911.0
2026-04-08 21:36:27.058938,90324,1609503359190723,959157894,-0.901824,-0.021472,0.132736,-11.515,10.19375,-54.50375,23.784,-20.584002,4.712,eccentric,3,3.0,22061.0,151946.0,242183.0,291140.0,268911.0
2026-04-08 21:36:27.062499,90325,1609503359199635,959166565,-0.901824,-0.021472,0.132736,-3.9025,12.52125,-56.0875,23.784,-20.584002,4.712,eccentric,3,3.0,22061.0,151946.0,242183.0,291140.0,268911.0
2026-04-08 21:36:27.064998,90326,1609503359208552,959175262,-0.948672,0.044896,-0.13664,-6.23875,12.95,-54.64375,24.912,-20.312,3.2,eccentric,3,3.0,22061.0,151946.0,242183.0,291140.0,268911.0
2026-04-08 21:36:27.070066,90327,1609503359223038,959190155,-0.948672,0.044896,-0.13664,-10.3775,16.24875,-51.765,24.912,-20.312,3.2,eccentric,3,3.0,22061.0,151946.0,242183.0,291140.0,268911.0
2026-04-08 21:36:27.077492,90328,1609503359231998,959198848,-0.925248,0.095648,0.0488,-17.5875,16.63375,-46.26125,25.336,-19.584002,2.112,eccentric,3,3.0,22061.0,151946.0,242183.0,291140.0,268911.0
2026-04-08 21:36:27.107760,90329,1609503359246475,959211674,-0.970144,-0.02928,0.1952,-22.9425,14.84875,-42.91875,25.376001,-19.248001,2.616,eccentric,3,3.0,22061.0,151946.0,242183.0,291140.0,268911.0
2026-04-08 21:36:27.111304,90330,1609503359255670,959222424,-0.970144,-0.02928,0.1952,-20.9475,14.88375,-46.15625,25.376001,-19.248001,2.616,eccentric,3,3.0,22061.0,151946.0,242183.0,291140.0,268911.0
2026-04-08 21:36:27.146329,90341,1609503359270186,959237356,-1.022848,-0.03904,-0.017568,-25.0075,12.18875,-48.16875,25.736002,-18.936,2.856,eccentric,3,3.0,22063.0,151933.0,242215.0,291193.0,268911.0
2026-04-08 21:36:27.149954,90342,1609503359279141,959246076,-1.022848,-0.03904,-0.017568,-27.2475,10.01875,-48.65,25.736002,-18.936,2.856,eccentric,3,3.0,22063.0,151933.0,242215.0,291193.0,268911.0
2026-04-08 21:36:27.151245,90343,1609503359288235,959254731,-0.89792,0.007808,0.0488,-20.8775,11.83,-48.2825,26.000002,-18.256,4.288,eccentric,3,3.0,22063.0,151933.0,242215.0,291193.0,268911.0
2026-04-08 21:36:27.153780,90344,1609503359302742,959269695,-0.89792,0.007808,0.0488,-16.555,13.6325,-46.0425,26.000002,-18.256,4.288,eccentric,3,3.0,22063.0,151933.0,242215.0,291193.0,268911.0
2026-04-08 21:36:27.161322,90345,1609503359311727,959278381,-0.968192,0.046848,0.201056,-16.66,12.215,-43.18125,26.048,-17.928001,3.904,eccentric,3,3.0,22063.0,151933.0,242215.0,291193.0,268911.0
2026-04-08 21:36:27.191471,90346,1609503359326258,959293270,-0.968192,-0.066368,0.144448,-15.75,10.47375,-42.91875,26.304,-17.528002,1.44,eccentric,3,3.0,22063.0,151933.0,242215.0,291193.0,268911.0
2026-04-08 21:36:27.195012,90347,1609503359335183,959301922,-0.968192,-0.066368,0.144448,-16.73875,8.855001,-44.59875,26.304,-17.528002,1.44,eccentric,3,3.0,22063.0,151933.0,242215.0,291193.0,268911.0
2026-04-08 21:36:27.197499,90348,1609503359349636,959316760,-0.989664,-0.044896,0.0,-17.5,8.74125,-43.995,27.000002,-17.064001,3.392,eccentric,3,3.0,22063.0,151933.0,242215.0,291193.0,268911.0
2026-04-08 21:36:27.294990,90359,1609503359358753,959325936,-0.989664,-0.044896,0.0,-8.6975,11.08625,-42.5425,27.000002,-17.064001,3.392,eccentric,3,3.0,22139.0,152240.0,242603.0,291489.0,269124.0
2026-04-08 21:36:27.297523,90360,1609503359367762,959334658,-1.032608,-0.072224,-0.128832,-6.755,12.792501,-41.71125,27.312002,-16.792002,3.136,eccentric,3,3.0,22139.0,152240.0,242603.0,291489.0,269124.0
2026-04-08 21:36:27.300099,90361,1609503359382249,959347466,-1.032608,-0.072224,-0.128832,-11.2,14.6125,-40.53,27.312002,-16.792002,3.136,eccentric,3,3.0,22139.0,152240.0,242603.0,291489.0,269124.0
2026-04-08 21:36:27.302520,90362,1609503359391454,959358175,-0.976,-0.01952,0.042944,-15.00625,14.455,-41.27375,27.504002,-16.632,3.56,eccentric,3,3.0,22139.0,152240.0,242603.0,291489.0,269124.0
2026-04-08 21:36:27.305049,90363,1609503359405974,959373117,-0.976,-0.01952,0.179584,-13.79875,14.035,-42.72625,27.504002,-16.632,3.56,eccentric,3,3.0,22139.0,152240.0,242603.0,291489.0,269124.0
2026-04-08 21:36:27.307477,90364,1609503359414895,959381786,-1.032608,-0.091744,0.179584,-8.855001,14.27125,-42.420002,27.920002,-16.064001,3.176,eccentric,3,3.0,22139.0,152240.0,242603.0,291489.0,269124.0
2026-04-08 21:36:27.310072,90365,1609503359423908,959390442,-1.032608,-0.091744,0.179584,-9.625,9.9575,-39.2875,27.920002,-16.064001,3.176,eccentric,3,3.0,22139.0,152240.0,242603.0,291489.0,269124.0
2026-04-08 21:36:27.312532,90366,1609503359438387,959405291,-1.026752,-0.085888,-0.007808,-5.01375,8.40875,-36.3475,28.064001,-15.472001,2.744,eccentric,3,3.0,22139.0,152240.0,242603.0,291489.0,269124.0
2026-04-08 21:36:27.315054,90367,1609503359447420,959413955,-0.981856,-0.013664,-0.142496,-1.98625,12.32875,-37.44125,28.056002,-15.008,3.832,eccentric,3,3.0,22139.0,152240.0,242603.0,291489.0,269124.0
2026-04-08 21:36:27.342574,90378,1609503359462508,959428960,-0.981856,-0.013664,-0.142496,-15.25125,14.91,-33.92375,28.056002,-15.008,3.832,eccentric,3,3.0,22100.0,152002.0,242282.0,291333.0,269062.0
2026-04-08 21:36:27.344969,90379,1609503359471472,959437708,-0.976,0.027328,0.15616,-31.1325,14.56,-24.29,27.904001,-14.832001,3.88,eccentric,3,3.0,22100.0,152002.0,242282.0,291333.0,269062.0
2026-04-08 21:36:27.347459,90380,1609503359480394,959446427,-0.976,0.027328,0.15616,-34.50125,10.15875,-16.3275,27.904001,-14.832001,3.88,eccentric,3,3.0,22100.0,152002.0,242282.0,291333.0,269062.0
2026-04-08 21:36:27.350024,90381,1609503359495018,959461325,-0.915488,-0.271328,0.138592,-19.95,4.38375,-16.42375,28.392002,-14.624001,3.8,eccentric,3,3.0,22100.0,152002.0,242282.0,291333.0,269062.0
2026-04-08 21:36:27.352480,90382,1609503359503978,959470047,-0.915488,-0.271328,0.138592,0.07,0.6125,-19.60875,28.392002,-14.624001,3.8,eccentric,3,3.0,22100.0,152002.0,242282.0,291333.0,269062.0
2026-04-08 21:36:27.382754,90383,1609503359518493,959484932,-0.921344,-0.142496,-0.17568,11.6025,2.86125,-17.4825,28.488,-14.816001,3.112,eccentric,3,3.0,22100.0,152002.0,242282.0,291333.0,269062.0
2026-04-08 21:36:27.386319,90384,1609503359527425,959493585,-1.001376,0.134688,0.103456,9.59875,5.99375,-10.465,28.488,-14.584001,1.376,eccentric,3,3.0,22100.0,152002.0,242282.0,291333.0,269062.0
2026-04-08 21:36:27.388765,90385,1609503359541886,959508452,-1.001376,0.134688,0.103456,-2.135,6.90375,-4.7075,28.52,-14.584001,1.376,eccentric,3,3.0,22100.0,152002.0,242282.0,291333.0,269062.0
2026-04-08 21:36:27.419092,90386,1609503359550840,959517138,-1.01504,-0.15616,0.22448,-9.835,3.815,-3.33375,28.384,-14.616001,4.328,eccentric,3,3.0,22100.0,152002.0,242282.0,291333.0,269062.0
2026-04-08 21:36:27.447525,90397,1609503359559805,959525804,-1.01504,-0.15616,0.22448,-11.8475,-1.61875,-4.92625,28.384,-14.616001,4.328,eccentric,3,3.0,22127.0,152177.0,242543.0,291516.0,269149.0
2026-04-08 21:36:27.450064,90398,1609503359574403,959540761,-0.935008,-0.122976,0.115168,-2.14375,-3.7625,-4.87375,28.568,-15.304001,2.256,eccentric,3,3.0,22127.0,152177.0,242543.0,291516.0,269149.0
2026-04-08 21:36:27.452543,90399,1609503359583349,959549463,-0.935008,-0.122976,0.115168,14.8225,-1.61,-1.015,28.568,-15.304001,2.256,eccentric,3,3.0,22127.0,152177.0,242543.0,291516.0,269149.0
2026-04-08 21:36:27.457515,90400,1609503359597841,959564394,-0.983808,0.099552,0.01952,20.2475,0.65625,4.01625,28.552002,-14.776001,3.024,eccentric,3,3.0,22127.0,152177.0,242543.0,291516.0,269149.0
2026-04-08 21:36:27.459995,90401,1609503359606782,959573098,-0.983808,0.099552,0.01952,12.53875,1.855,6.5975,28.552002,-14.776001,3.024,eccentric,3,3.0,22127.0,152177.0,242543.0,291516.0,269149.0
2026-04-08 21:36:27.490182,90402,1609503359621187,959587967,-1.011136,-0.12688,0.074176,-4.2875,-1.63625,6.78125,28.144001,-15.144001,4.136,concentric,3,3.0,22127.0,152177.0,242543.0,291516.0,269149.0
2026-04-08 21:36:27.493798,90403,1609503359630101,959596624,-1.01504,-0.191296,0.0,-12.88,-5.13625,6.51875,28.416002,-15.296001,2.968,concentric,3,3.0,22127.0,152177.0,242543.0,291516.0,269149.0
2026-04-08 21:36:27.496311,90404,1609503359639001,959605263,-1.01504,-0.191296,0.0,-3.35125,-6.08125,5.41625,28.416002,-15.296001,2.968,concentric,3,3.0,22127.0,152177.0,242543.0,291516.0,269149.0
2026-04-08 21:36:27.500975,90405,1609503359653490,959620151,-0.979904,-0.011712,0.101504,14.28,-3.77125,4.375,28.336,-15.344001,2.984,concentric,3,3.0,22127.0,152177.0,242543.0,291516.0,269149.0
2026-04-08 21:36:27.565037,90416,1609503359662984,959628903,-0.979904,-0.011712,0.101504,24.15,-0.7,4.795,28.336,-15.344001,2.984,concentric,3,3.0,22118.0,152135.0,242560.0,291602.0,269202.0
2026-04-08 21:36:27.567570,90417,1609503359677571,959643776,-0.977952,-0.037088,-0.027328,17.26375,-0.105,7.14,28.256,-15.152,2.824,concentric,3,3.0,22118.0,152135.0,242560.0,291602.0,269202.0
2026-04-08 21:36:27.569997,90418,1609503359686480,959652451,-0.977952,-0.037088,-0.027328,4.27875,-1.2425,10.57875,28.256,-15.152,2.824,concentric,3,3.0,22118.0,152135.0,242560.0,291602.0,269202.0
2026-04-08 21:36:27.572481,90419,1609503359695396,959661103,-1.067744,-0.081984,-0.081984,-1.82875,-3.07125,12.136251,27.960001,-15.464001,4.416,concentric,3,3.0,22118.0,152135.0,242560.0,291602.0,269202.0
2026-04-08 21:36:27.576303,90420,1609503359709890,959676033,-1.04432,-0.0976,-0.050752,-1.93375,-5.355,13.5275,28.112001,-15.728001,2.68,concentric,3,3.0,22118.0,152135.0,242560.0,291602.0,269202.0
2026-04-08 21:36:27.577781,90421,1609503359718828,959684733,-1.04432,-0.0976,-0.050752,6.055,-7.8925,13.67625,28.112001,-15.728001,2.68,concentric,3,3.0,22118.0,152135.0,242560.0,291602.0,269202.0
2026-04-08 21:36:27.580171,90422,1609503359733296,959699612,-0.935008,-0.076128,-0.0488,14.20125,-9.5025,13.34375,27.504002,-16.008001,3.496,concentric,3,3.0,22118.0,152135.0,242560.0,291602.0,269202.0
2026-04-08 21:36:27.610241,90423,1609503359742226,959708280,-0.935008,-0.076128,-0.0488,16.0475,-8.96,16.28375,27.504002,-16.008001,3.496,concentric,3,3.0,22118.0,152135.0,242560.0,291602.0,269202.0
2026-04-08 21:36:27.613808,90424,1609503359756714,959723157,-1.03456,-0.01952,-0.054656,12.8975,-7.105,18.147501,27.840002,-16.528,2.688,concentric,3,3.0,22118.0,152135.0,242560.0,291602.0,269202.0
2026-04-08 21:36:27.646283,90435,1609503359765789,959732150,-1.03456,-0.01952,-0.054656,6.9475,-7.16625,19.11875,27.840002,-16.528,2.688,concentric,3,3.0,22177.0,152474.0,243006.0,291907.0,269344.0
2026-04-08 21:36:27.648767,90436,1609503359774756,959740848,-1.01504,-0.103456,-0.031232,2.975,-8.8025,19.355,27.912,-16.288,2.624,concentric,3,3.0,22177.0,152474.0,243006.0,291907.0,269344.0
2026-04-08 21:36:27.651267,90437,1609503359789255,959755745,-1.03456,-0.03904,0.046848,5.8975,-11.82125,19.285,27.528002,-16.696001,1.312,concentric,3,3.0,22177.0,152474.0,243006.0,291907.0,269344.0
2026-04-08 21:36:27.653755,90438,1609503359798230,959764458,-1.03456,-0.03904,0.046848,13.95625,-16.4325,20.8075,27.528002,-16.696001,1.312,concentric,3,3.0,22177.0,152474.0,243006.0,291907.0,269344.0
2026-04-08 21:36:27.659124,90439,1609503359812721,959779340,-0.95648,0.080032,0.062464,26.13625,-19.73125,22.58375,27.44,-16.968,2.664,concentric,3,3.0,22177.0,152474.0,243006.0,291907.0,269344.0
2026-04-08 21:36:27.688978,90440,1609503359821642,959788015,-0.95648,0.080032,0.062464,33.31125,-21.035,24.0975,27.44,-16.968,2.664,concentric,3,3.0,22177.0,152474.0,243006.0,291907.0,269344.0
2026-04-08 21:36:27.692560,90441,1609503359836093,959802868,-0.940864,0.011712,-0.1464,28.0,-21.02625,26.85375,26.624,-17.472,2.696,concentric,3,3.0,22177.0,152474.0,243006.0,291907.0,269344.0
2026-04-08 21:36:27.695023,90442,1609503359845010,959811551,-0.940864,0.011712,-0.1464,10.84125,-21.1225,31.4125,26.624,-17.472,2.696,concentric,3,3.0,22177.0,152474.0,243006.0,291907.0,269344.0
2026-04-08 21:36:27.700028,90443,1609503359854043,959820247,-0.933056,-0.017568,0.216672,-3.3775,-23.555,35.315,26.664001,-17.880001,3.008,concentric,3,3.0,22177.0,152474.0,243006.0,291907.0,269344.0
2026-04-08 21:36:27.731278,90454,1609503359868618,959835167,-0.933056,-0.017568,0.216672,-1.07625,-22.81125,34.23875,26.664001,-17.880001,3.008,concentric,3,3.0,22237.0,152801.0,243434.0,292192.0,269498.0
2026-04-08 21:36:27.733776,90455,1609503359877524,959843887,-0.86864,0.001952,0.210816,9.47625,-22.07625,30.178751,26.136002,-18.264,2.776,concentric,3,3.0,22237.0,152801.0,243434.0,292192.0,269498.0
2026-04-08 21:36:27.739781,90456,1609503359892039,959858793,-0.90768,0.091744,0.162016,21.91875,-21.25375,29.4875,26.208002,-18.544,3.752,concentric,3,3.0,22237.0,152801.0,243434.0,292192.0,269498.0
2026-04-08 21:36:27.768979,90457,1609503359900964,959867472,-0.90768,0.091744,0.162016,28.8925,-20.6675,31.22875,26.208002,-18.544,3.752,concentric,3,3.0,22237.0,152801.0,243434.0,292192.0,269498.0
2026-04-08 21:36:27.772569,90458,1609503359915439,959882343,-1.046272,-0.013664,-0.095648,19.9325,-22.23375,33.25,26.024002,-19.168001,2.904,concentric,3,3.0,22237.0,152801.0,243434.0,292192.0,269498.0
2026-04-08 21:36:27.775009,90459,1609503359924374,959891011,-1.046272,-0.013664,-0.095648,2.6075,-22.81125,35.14,26.024002,-19.168001,2.904,concentric,3,3.0,22237.0,152801.0,243434.0,292192.0,269498.0
2026-04-08 21:36:27.780080,90460,1609503359933305,959899662,-1.095072,-0.00976,0.105408,-7.98875,-22.0325,35.8925,25.568,-19.344002,3.52,concentric,3,3.0,22237.0,152801.0,243434.0,292192.0,269498.0
2026-04-08 21:36:27.836524,90461,1609503359947793,959914521,-1.095072,-0.00976,0.105408,-7.0175,-20.1425,33.3025,25.568,-19.344002,3.52,concentric,3,3.0,22237.0,152801.0,243434.0,292192.0,269498.0
2026-04-08 21:36:27.840018,90462,1609503359956706,959923244,-1.075552,0.05856,-0.044896,2.79125,-17.38625,29.303751,25.504002,-19.912,3.504,concentric,3,3.0,22237.0,152801.0,243434.0,292192.0,269498.0
2026-04-08 21:36:27.867535,90473,1609503359971329,959938162,-1.110688,0.007808,-0.011712,15.785,-15.5225,26.69625,25.480001,-20.272001,4.232,concentric,3,3.0,22190.0,152668.0,243277.0,292110.0,269460.0
2026-04-08 21:36:27.870288,90474,1609503359980219,959946795,-1.110688,0.007808,-0.011712,18.69,-16.79125,26.7575,25.480001,-20.272001,4.232,concentric,3,3.0,22190.0,152668.0,243277.0,292110.0,269460.0
2026-04-08 21:36:27.871378,90475,1609503359994699,959961681,-1.018944,-0.007808,0.121024,8.715,-20.30875,29.58375,24.984001,-20.576,3.392,concentric,3,3.0,22190.0,152668.0,243277.0,292110.0,269460.0
2026-04-08 21:36:27.875044,90476,1609503360003659,959970396,-1.018944,-0.007808,0.121024,-0.72625,-23.0825,29.47875,24.984001,-20.576,3.392,concentric,3,3.0,22190.0,152668.0,243277.0,292110.0,269460.0
2026-04-08 21:36:27.877757,90477,1609503360012647,959979128,-0.93696,-0.00976,0.081984,-9.63375,-23.9925,28.9975,24.696001,-20.744001,3.736,concentric,3,3.0,22190.0,152668.0,243277.0,292110.0,269460.0
2026-04-08 21:36:27.880111,90478,1609503360027266,959994048,-0.93696,-0.00976,0.081984,-16.45,-25.06,31.5875,24.696001,-20.744001,3.736,concentric,3,3.0,22190.0,152668.0,243277.0,292110.0,269460.0
2026-04-08 21:36:27.882655,90479,1609503360036220,960002745,-0.983808,0.115168,0.230336,-13.39625,-27.20375,33.670002,24.408,-20.92,4.768,concentric,3,3.0,22190.0,152668.0,243277.0,292110.0,269460.0
2026-04-08 21:36:27.913707,90480,1609503360050701,960017627,-0.993568,-0.122976,0.152256,3.85875,-26.81,30.87,24.408,-20.92,2.512,concentric,3,3.0,22190.0,152668.0,243277.0,292110.0,269460.0
2026-04-08 21:36:27.915940,90481,1609503360059563,960026277,-0.993568,-0.122976,0.152256,16.79125,-24.1675,25.2525,24.232,-21.384,2.512,concentric,3,3.0,22190.0,152668.0,243277.0,292110.0,269460.0
2026-04-08 21:36:27.943807,90492,1609503360074157,960041169,-0.977952,0.033184,0.148352,6.51875,-25.06,26.74875,24.128,-21.6,4.184,concentric,3,3.0,22273.0,152949.0,243574.0,292282.0,269542.0
2026-04-08 21:36:27.948325,90493,1609503360083089,960049835,-0.977952,0.033184,0.148352,-1.6625,-24.33375,29.75,24.128,-21.6,4.184,concentric,3,3.0,22273.0,152949.0,243574.0,292282.0,269542.0
2026-04-08 21:36:27.954393,90494,1609503360092049,960058574,-0.999424,0.07808,0.050752,-5.74875,-20.90375,28.4025,23.744001,-21.648,3.904,concentric,3,3.0,22273.0,152949.0,243574.0,292282.0,269542.0
2026-04-08 21:36:27.955986,90495,1609503360106599,960073467,-0.999424,0.07808,0.050752,-15.1025,-20.23875,29.2425,23.744001,-21.648,3.904,concentric,3,3.0,22273.0,152949.0,243574.0,292282.0,269542.0
2026-04-08 21:36:27.961273,90496,1609503360115516,960082172,-0.950624,0.08784,0.269376,-21.1575,-20.76375,32.2525,23.6,-22.176,4.52,concentric,3,3.0,22273.0,152949.0,243574.0,292282.0,269542.0
2026-04-08 21:36:27.991558,90497,1609503360130018,960097045,-0.950624,0.08784,0.269376,-23.3625,-22.44375,34.15125,23.6,-22.176,4.52,concentric,3,3.0,22273.0,152949.0,243574.0,292282.0,269542.0
2026-04-08 21:36:27.995001,90498,1609503360138935,960105690,-0.872544,0.003904,0.230336,-15.56625,-22.33875,32.40125,23.12,-22.640001,4.224,concentric,3,3.0,22273.0,152949.0,243574.0,292282.0,269542.0
2026-04-08 21:36:28.000047,90499,1609503360153410,960120618,-1.001376,0.011712,0.105408,-11.69,-20.8425,30.9225,22.648,-22.736002,4.976,concentric,3,3.0,22273.0,152949.0,243574.0,292282.0,269542.0
2026-04-08 21:36:28.058046,90510,1609503360162778,960129338,-1.001376,0.011712,0.105408,-19.60875,-20.72875,35.4025,22.648,-22.736002,4.976,concentric,3,3.0,22287.0,153044.0,243690.0,292354.0,269557.0
2026-04-08 21:36:28.061449,90511,1609503360171731,960138059,-0.989664,0.021472,0.119072,-22.89,-20.79875,40.43375,22.648,-23.032001,6.064,concentric,3,3.0,22287.0,153044.0,243690.0,292354.0,269557.0
2026-04-08 21:36:28.062671,90512,1609503360186217,960152936,-0.989664,0.021472,0.119072,-21.525,-19.74,39.41875,22.528002,-23.032001,6.064,concentric,3,3.0,22287.0,153044.0,243690.0,292354.0,269557.0
2026-04-08 21:36:28.064250,90513,1609503360195253,960161701,-0.931104,0.054656,0.275232,-13.34375,-14.875,35.09625,22.36,-23.296001,5.384,concentric,3,3.0,22287.0,153044.0,243690.0,292354.0,269557.0
2026-04-08 21:36:28.066406,90514,1609503360209790,960176630,-0.931104,0.054656,0.275232,-5.31125,-10.68375,32.87375,22.36,-23.296001,5.384,concentric,3,3.0,22287.0,153044.0,243690.0,292354.0,269557.0
2026-04-08 21:36:28.068830,90515,1609503360218736,960185328,-0.991616,0.15616,0.267424,-1.00625,-6.4225,35.5775,22.208,-23.936,5.56,concentric,3,3.0,22287.0,153044.0,243690.0,292354.0,269557.0
2026-04-08 21:36:28.073802,90516,1609503360227692,960194014,-0.991616,0.15616,0.267424,1.1725,-0.95375,37.49375,22.208,-23.936,5.56,concentric,3,3.0,22287.0,153044.0,243690.0,292354.0,269557.0
2026-04-08 21:36:28.132955,90517,1609503360242165,960208913,-1.09312,0.122976,0.15616,-5.32875,2.14375,38.07125,21.624,-23.824001,6.232,concentric,3,3.0,22287.0,153044.0,243690.0,292354.0,269557.0
2026-04-08 21:36:28.136320,90518,1609503360251064,960217552,-1.09312,0.122976,0.15616,-19.48625,3.745,40.451252,21.624,-23.824001,6.232,concentric,3,3.0,22287.0,153044.0,243690.0,292354.0,269557.0
2026-04-08 21:36:28.163816,90529,1609503360266094,960232634,-1.09312,0.124928,0.037088,-29.89875,3.01875,39.1475,21.616001,-24.224,7.592001,concentric,3,3.0,22244.0,153008.0,243667.0,292335.0,269617.0
2026-04-08 21:36:28.166338,90530,1609503360275052,960241308,-1.020896,0.169824,0.396256,-29.723751,1.4875,36.33875,21.392,-24.424002,5.376,concentric,3,3.0,22244.0,153008.0,243667.0,292335.0,269617.0
2026-04-08 21:36:28.168884,90531,1609503360283967,960249954,-1.020896,0.169824,0.396256,-23.07375,-0.21,35.8925,21.392,-24.424002,5.376,concentric,3,3.0,22244.0,153008.0,243667.0,292335.0,269617.0
2026-04-08 21:36:28.171283,90532,1609503360298452,960264875,-1.09312,0.103456,0.121024,-8.68,1.74125,33.10125,21.240002,-25.192001,5.584,concentric,3,3.0,22244.0,153008.0,243667.0,292335.0,269617.0
2026-04-08 21:36:28.173698,90533,1609503360307406,960273600,-1.09312,0.103456,0.121024,0.8225,3.33375,29.575,21.240002,-25.192001,5.584,concentric,3,3.0,22244.0,153008.0,243667.0,292335.0,269617.0
2026-04-08 21:36:28.178016,90534,1609503360321932,960288478,-1.186816,0.152256,0.124928,-1.77625,4.0775,28.6825,20.712002,-24.712002,7.192,concentric,3,3.0,22244.0,153008.0,243667.0,292335.0,269617.0
2026-04-08 21:36:28.180466,90535,1609503360330857,960297190,-1.186816,0.152256,0.124928,-6.13375,3.21125,28.4725,20.712002,-24.712002,7.192,concentric,3,3.0,22244.0,153008.0,243667.0,292335.0,269617.0
2026-04-08 21:36:28.209025,90536,1609503360345343,960312075,-1.136064,0.210816,0.392352,-11.01625,-1.65375,29.085001,20.576,-25.12,9.120001,concentric,3,3.0,22244.0,153008.0,243667.0,292335.0,269617.0
2026-04-08 21:36:28.212800,90537,1609503360354330,960320758,-1.09312,0.300608,0.353312,-8.14625,-7.25375,28.67375,20.392,-25.568,3.568,concentric,3,3.0,22244.0,153008.0,243667.0,292335.0,269617.0
2026-04-08 21:36:28.243792,90548,1609503360363241,960329417,-1.09312,0.300608,0.353312,0.2625,-9.26625,24.4125,20.392,-25.568,3.568,concentric,3,3.0,22164.0,152652.0,243196.0,292081.0,269544.0
2026-04-08 21:36:28.246296,90549,1609503360378356,960344349,-1.167296,0.218624,0.158112,3.26375,-8.82,15.86375,20.68,-25.664001,5.232,concentric,3,3.0,22164.0,152652.0,243196.0,292081.0,269544.0
2026-04-08 21:36:28.248780,90550,1609503360387344,960353086,-1.167296,0.218624,0.158112,1.09375,-5.13625,8.32125,20.68,-25.664001,5.232,concentric,3,3.0,22164.0,152652.0,243196.0,292081.0,269544.0
2026-04-08 21:36:28.251264,90551,1609503360401820,960367958,-1.114592,0.249856,0.269376,-12.46,-1.225,5.97625,20.304,-25.832,6.408001,concentric,3,3.0,22164.0,152652.0,243196.0,292081.0,269544.0
2026-04-08 21:36:28.257504,90552,1609503360410728,960376664,-1.114592,0.249856,0.269376,-23.5025,1.1725,9.33625,20.304,-25.832,6.408001,concentric,3,3.0,22164.0,152652.0,243196.0,292081.0,269544.0
2026-04-08 21:36:28.287764,90553,1609503360425233,960391620,-1.19072,0.337696,0.177632,-23.65125,2.73875,13.09,20.632002,-25.632002,6.952,concentric,3,3.0,22164.0,152652.0,243196.0,292081.0,269544.0
2026-04-08 21:36:28.300936,90554,1609503360434158,960400294,-1.134112,0.226432,0.242048,-18.62875,2.24,12.83625,20.872002,-25.976002,4.76,concentric,3,3.0,22164.0,152652.0,243196.0,292081.0,269544.0
2026-04-08 21:36:28.302630,90555,1609503360443045,960408984,-1.134112,0.226432,0.242048,-15.198751,-0.21,9.61625,20.872002,-25.976002,4.76,concentric,3,3.0,22164.0,152652.0,243196.0,292081.0,269544.0
2026-04-08 21:36:28.305052,90556,1609503360457530,960423865,-1.149728,0.249856,0.197152,-15.295,-2.42375,8.39125,20.504002,-26.12,5.664,concentric,3,3.0,22164.0,152652.0,243196.0,292081.0,269544.0
2026-04-08 21:36:28.333862,90567,1609503360467167,960432639,-1.149728,0.249856,0.197152,-16.82625,-0.86625,7.37625,20.504002,-26.12,5.664,concentric,3,3.0,22405.0,153573.0,244207.0,292721.0,269936.0
2026-04-08 21:36:28.336304,90568,1609503360476413,960443502,-1.159488,0.310368,0.16592,-17.07125,1.65375,3.94625,20.76,-25.888,5.864,concentric,3,3.0,22405.0,153573.0,244207.0,292721.0,269936.0
2026-04-08 21:36:28.338834,90569,1609503360490927,960456327,-1.159488,0.310368,0.16592,-16.8525,2.19625,2.58125,20.76,-25.888,5.864,concentric,3,3.0,22405.0,153573.0,244207.0,292721.0,269936.0
2026-04-08 21:36:28.369001,90570,1609503360500054,960467053,-1.114592,0.355264,0.357216,-16.37125,-0.30625,4.62,20.864,-26.080002,5.792,concentric,3,3.0,22405.0,153573.0,244207.0,292721.0,269936.0
2026-04-08 21:36:28.372611,90571,1609503360514514,960479884,-1.081408,0.28304,0.310368,-16.0825,-3.3425,5.7225,20.968,-26.240002,6.496,concentric,3,3.0,22405.0,153573.0,244207.0,292721.0,269936.0
2026-04-08 21:36:28.375096,90572,1609503360523928,960490673,-1.081408,0.28304,0.310368,-17.50875,-4.52375,0.88375,20.968,-26.240002,6.496,concentric,3,3.0,22405.0,153573.0,244207.0,292721.0,269936.0
2026-04-08 21:36:28.431584,90573,1609503360538453,960505528,-1.091168,0.259616,0.259616,-15.505,-1.40875,-4.9875,20.544,-26.048,6.84,concentric,3,3.0,22405.0,153573.0,244207.0,292721.0,269936.0
2026-04-08 21:36:28.435091,90574,1609503360547399,960514184,-1.091168,0.259616,0.259616,-10.68375,2.275,-8.58375,20.544,-26.048,6.84,concentric,3,3.0,22405.0,153573.0,244207.0,292721.0,269936.0
2026-04-08 21:36:28.437522,90575,1609503360556405,960522842,-1.22976,0.46848,0.398208,-1.54,6.55375,-9.42375,21.52,-25.960001,5.6,concentric,3,3.0,22405.0,153573.0,244207.0,292721.0,269936.0
2026-04-08 21:36:28.465012,90586,1609503360570953,960537756,-1.22976,0.46848,0.398208,10.24625,9.1,-7.1225,21.52,-25.960001,5.6,concentric,3,3.0,22306.0,153205.0,243683.0,292333.0,269743.0
2026-04-08 21:36:28.467532,90587,1609503360579884,960546412,-1.225856,0.466528,0.226432,8.785,4.69,-4.66375,21.464,-26.424002,5.632,concentric,3,3.0,22306.0,153205.0,243683.0,292333.0,269743.0
2026-04-08 21:36:28.470021,90588,1609503360594334,960561304,-1.24928,0.366976,0.294752,-2.09125,-0.42,-3.3075,21.464,-26.424002,6.136,concentric,3,3.0,22306.0,153205.0,243683.0,292333.0,269743.0
2026-04-08 21:36:28.472501,90589,1609503360603340,960569987,-1.24928,0.366976,0.294752,-11.76,-5.34625,-3.99,21.288,-26.176,6.136,concentric,3,3.0,22306.0,153205.0,243683.0,292333.0,269743.0
2026-04-08 21:36:28.475020,90590,1609503360612373,960578751,-1.24928,0.366976,0.294752,-12.792501,-8.12875,-5.32875,21.288,-26.176,6.136,concentric,3,3.0,22306.0,153205.0,243683.0,292333.0,269743.0
2026-04-08 21:36:28.477839,90591,1609503360626865,960593650,-1.18096,0.327936,0.249856,-8.198751,-9.03875,-3.8675,21.432001,-26.136002,4.712,concentric,3,3.0,22306.0,153205.0,243683.0,292333.0,269743.0
2026-04-08 21:36:28.482526,90592,1609503360635814,960602343,-1.138016,0.394304,0.324032,-2.79125,-7.8225,-2.17,21.344002,-26.328001,6.584,concentric,3,3.0,22306.0,153205.0,243683.0,292333.0,269743.0
2026-04-08 21:36:28.512732,90593,1609503360650308,960617193,-1.138016,0.394304,0.324032,1.33875,-5.6175,0.93625,21.344002,-26.328001,6.584,concentric,3,3.0,22306.0,153205.0,243683.0,292333.0,269743.0
2026-04-08 21:36:28.516312,90594,1609503360659219,960625886,-1.167296,0.337696,0.138592,6.04625,-3.66625,2.19625,21.128,-26.000002,5.856,concentric,3,3.0,22306.0,153205.0,243683.0,292333.0,269743.0
2026-04-08 21:36:28.580034,90605,1609503360674224,960640998,-1.167296,0.337696,0.357216,6.23875,-2.26625,2.8,21.128,-26.000002,5.856,concentric,3,3.0,22210.0,152652.0,242922.0,291774.0,269395.0
2026-04-08 21:36:28.582588,90606,1609503360683263,960649674,-1.143872,0.327936,0.35136,4.92625,-2.94,6.1775,21.112001,-26.688002,7.248,concentric,3,3.0,22210.0,152652.0,242922.0,291774.0,269395.0
2026-04-08 21:36:28.585024,90607,1609503360692169,960658337,-1.143872,0.327936,0.35136,5.08375,-2.59,8.46125,21.112001,-26.688002,7.248,concentric,3,3.0,22210.0,152652.0,242922.0,291774.0,269395.0
2026-04-08 21:36:28.587516,90608,1609503360706652,960673181,-1.095072,0.271328,0.167872,8.88125,-1.68,10.3075,21.224,-26.424002,5.504,concentric,3,3.0,22210.0,152652.0,242922.0,291774.0,269395.0
2026-04-08 21:36:28.590020,90609,1609503360715663,960681852,-1.14192,0.339648,0.085888,13.658751,-0.28875,11.66375,20.856,-26.712002,4.928001,concentric,3,3.0,22210.0,152652.0,242922.0,291774.0,269395.0
2026-04-08 21:36:28.592552,90610,1609503360730187,960696760,-1.14192,0.339648,0.085888,18.095,2.00375,13.60625,20.856,-26.712002,4.928001,concentric,3,3.0,22210.0,152652.0,242922.0,291774.0,269395.0
2026-04-08 21:36:28.595069,90611,1609503360739129,960705431,-1.0736,0.320128,0.122976,19.25,4.0775,16.07375,20.816002,-26.872002,5.096,concentric,3,3.0,22210.0,152652.0,242922.0,291774.0,269395.0
2026-04-08 21:36:28.597533,90612,1609503360748214,960714088,-1.0736,0.320128,0.122976,16.44125,3.99875,17.9725,20.816002,-26.872002,5.096,concentric,3,3.0,22210.0,152652.0,242922.0,291774.0,269395.0
2026-04-08 21:36:28.627809,90613,1609503360762699,960729056,-1.01504,0.318176,0.105408,11.1475,4.0075,18.29625,20.512001,-27.088001,4.872,concentric,3,3.0,22210.0,152652.0,242922.0,291774.0,269395.0
